time,acc_x_g,acc_y_g,acc_z_g,gyro_x_rad_s,gyro_y_rad_s,gyro_z_rad_s
0.0,-8.291486,-3.145026,-3.619679,0.005651,0.004123,-0.007789
0.0025,-8.6891342957102,-3.2136086205529075,-3.5507119726978074,-0.016330379408960916,-0.012675,-0.004636056167778836
0.005,-8.515063,-2.766618,-3.532998,-0.00901,-0.0002121111534794974,-0.002138
0.0075,-8.99392650331347,-2.893023469749702,-3.3871171402145412,-0.011738257067938023,-0.001865579404052441,-0.008887629988081047
0.01,-9.388590887480916,-2.502725041068702,-2.9025337309923662,-0.03044016870229008,-0.03588834290076337,-0.005354334961832065
0.0125,-9.641017355958056,-2.2697272959008576,-2.803335474547188,-0.0935463149666349,-0.07102123126787419,-0.008628916301239289
0.015,-9.800928465884038,-2.1111613239799576,-2.819419764438081,-0.15514202084466716,-0.13114736638511093,-0.0274425433643522
0.0175,-10.044168247623126,-2.3874331767023556,-2.8780902075374715,-0.2245291768451107,-0.1782281480942184,-0.028119495474661
0.02,-9.70605859775024,-2.193825149857006,-3.501354913517635,-0.28473436396568164,-0.23644272709246902,-0.02876779885605338
0.0225,-9.924594415874374,-2.1731489342469676,-3.3239884645538913,-0.3780787164882227,-0.2810668093076374,-0.040896657958600986
0.025,-9.710285661641224,-2.0259990398854972,-3.5806203463740416,-0.46779730667938946,-0.30973903320610685,-0.03861844618320618
0.0275,-9.991122397521448,-1.546728788789323,-3.9540861604957107,-0.572515721029552,-0.37304577300285985,-0.055014328427073406
0.03,-9.607646253782237,-1.9625792841833776,-4.434951314756446,-0.6917780668194842,-0.47063433025787965,-0.03882259071633242
0.0325,-10.613653487822983,-1.7446263301070664,-3.2915470103640248,-0.7302961546609564,-0.5006240218129908,-0.009444708979300453
0.035,-10.320493155958054,-1.3425257747950443,-4.072320719237368,-0.8525830464823642,-0.5681914067492853,-0.012846308598665451
0.0375,-9.357411266970384,-1.9634593822323452,-4.335902496583147,-0.922397182687927,-0.6546969453302961,0.04647864783599096
0.04,-10.993766802061561,-1.15762554499642,-3.673693101159627,-1.0484159640944881,-0.7214739611453114,0.00023257623478889055
0.0425,-10.127807397601718,-2.6388498859671663,-2.936830818615271,-1.1070878543326197,-0.740216,0.0600092754889363
0.045,-10.223803538525406,-0.3190129969935595,-3.2665902138010097,-1.1633542988976378,-0.7657082814316394,0.08588139682176084
0.0475,-9.491846404137915,-2.4791198096551823,-3.620352895632198,-1.2127581075862068,-0.7795409411494253,0.12946590344827602
0.05,-10.775197958206105,-0.8559036944656553,-2.125983765458014,-1.2734342032442747,-0.7839930562977099,0.15853753835877876
0.0525,-8.751210230222194,-2.2314916109899223,-3.8956545327677086,-1.2741955405252523,-0.7819627973333334,0.22794851507070837
0.055,-8.25621236419447,-0.6548268924690186,-3.6497237928694,-1.2974123950810295,-0.7903646458341278,0.25434907031458537
0.0575,-9.10105471324428,-0.3994493219465671,-3.513088771335873,-1.3116014176717559,-0.7547518643893133,0.2392483351908399
0.06,-8.595755795619189,-1.802180738181823,-3.2350769675590496,-1.3759427026771656,-0.764192,0.3191606880458125
0.0625,-9.35510231458532,-0.16723721925643467,-3.330197976167779,-1.4026935300285985,-0.743822913250715,0.3052978703527169
0.065,-8.311119230866144,-1.8063981763779513,-3.7493756968074416,-1.4201846524552613,-0.757473,0.34128069634931985
0.0675,-10.492511668064827,-0.3942096632221259,-2.521716782001899,-1.430108904404195,-0.7208048193326979,0.36060746844613895
0.07,-10.236866891968514,-1.2040460737580336,-1.0590125172798994,-1.4622493878024334,-0.716239,0.3011254411453115
0.0725,-9.323924361792196,-0.6198387753670196,-2.2731846200571733,-1.5259625909628227,-0.7294572423641564,0.35619700892278333
0.075,-8.689664517537572,1.2071950380815992,-3.251046921259851,-1.5130645932712954,-0.7561445984251968,0.313178997709377
0.0775,-9.2568742288,-0.5572313508000003,-2.5348403818000005,-1.5353437564,-0.6923976244,0.31944383960000006
0.08,-8.949098723896173,0.08456945204174444,-2.729931672250468,-1.5548746195129783,-0.7388800894514317,0.2728926429756489
0.0825,-10.452450678436605,-0.9674054247473913,-1.5692347665205126,-1.5768897293422306,-0.7188942706577693,0.23517083668255465
0.085,-9.010042,-0.22836,-1.73362,-1.617724,-0.7202480634394904,0.234725
0.08750000000000001,-9.698475027862612,1.1127231473282473,-1.3955600896946536,-1.6029099828244282,-0.6965137969465643,0.14774966488549668
0.09,-9.449156680085888,-1.372439892254845,-1.090997648589831,-1.6044713534717254,-0.6853276538582678,0.15468647576234798
0.0925,-8.780076200209018,1.2277579433864303,-1.9122879036965865,-1.6428478036139909,-0.677908,0.10073658615086388
0.095,-7.990224063999982,-0.8223004880000133,-2.2943328880000062,-1.5870549039999995,-0.6630843519999998,0.13749698399999977
0.0975,-7.593764352907527,-0.9376053044804511,-1.936282468789329,-1.4816042580362248,-0.5779377324690181,0.07630661982840777
0.1,-8.091117033174452,-1.3340447231649377,-0.948827821734963,-1.4416199809342232,-0.5364555679694942,0.08264654070543395
0.10250000000000001,-9.325884955060703,-0.5148837064382547,-0.1595550305495852,-1.2928145156031405,-0.4889304987580293,0.06503230563882934
0.105,-8.818200022290084,-2.2500292803053465,-0.42233762137404646,-1.1621571236641226,-0.40124545068702316,0.050980501755725036
0.1075,-7.891860343336506,-1.130069939904676,-1.05168472522403,-1.0338150456053385,-0.35166902280266926,0.020000942001906545
0.11,-8.165955923753582,-1.7181563514326652,-0.8280829040401138,-0.8901700570200572,-0.30193269335243555,0.036586232693409756
0.1125,-8.354130816984728,-2.278681833396952,-0.35604163854961934,-0.7065413328244272,-0.24627203606870204,0.02678353110687037
0.115,-8.83519981618321,-1.9495921914503758,-0.05416909404579101,-0.5731325774045797,-0.168904,0.016731414656488534
0.11750000000000001,-9.87694732983795,-1.5470116701620498,-0.1715936581124868,-0.4246464374833167,-0.145386,0.02694224110581504
0.12,-9.444400552519088,-1.4201440164503796,-1.145748254503809,-0.3076903166412215,-0.11073514519083995,0.011306509732824464
0.1225,-9.759203102040036,-1.3667223095900851,-0.9190467138989513,-0.19659286089609151,-0.08128130894184932,-0.0024100497998093048
0.125,-9.782910890267175,-1.319757078244275,-0.8381099017175573,-0.1037664141221374,-0.05178402099236641,0.004407333969465649
0.1275,-9.74572494665396,-0.8605338277597706,-0.42349307252621166,-0.03730089342230694,-0.030614247244995313,0.012116462306959033
0.13,-9.944405432514895,0.04500436109654321,0.4906824576400427,-0.000549435518474493,-0.022522483766388553,0.007256756376638862
0.1325,-9.728973162240765,0.1764702048152601,0.3792148920619806,-0.00014216052443385998,-0.0050291605244338605,0.0028587129439809704
0.135,-9.966807746460066,0.07220941969010483,0.32066459508938394,-0.016493,0.0009558596901071011,-0.004734
0.1375,-9.946382825548147,-0.1193679458531948,0.32357123889419176,-0.011465684270734121,-0.0058645782650142315,-0.007800789895138146
0.14,-9.922755906348444,-0.1492011200954673,0.2273910781384242,-0.011437766014319931,-0.0075742271121719195,-0.000863850978520103
0.14250000000000002,-9.901249080143025,0.009892747747320931,0.40732862812871995,-0.0040743889868891416,-0.00865606917759236,0.0035312622169248035
0.145,-9.786194939356376,0.1037455364958289,0.22802476238378522,-0.008059159713945241,-0.006726617640047562,-0.0008375179499405271
0.1475,-9.888382856114424,-0.02607841530393395,0.23610329692491502,-0.009647129630512593,-0.0012420608343266743,-0.0009539464123957508
0.15,-9.870105233373062,-0.08173304481525595,0.3214564841477931,-0.010458662932061975,-0.008097212634088068,-0.0015410839094159967
0.1525,-9.990861602908222,-0.049267123194279366,0.4393135480333724,-0.006588512467222852,-0.00896630488677003,0.00038424791418357476
0.155,-9.90602429980907,0.00776232625298321,0.2174957023389025,-0.0046037150357995035,-0.005855138186157544,-0.00027361245823388173
0.1575,-10.034805522336114,-0.01184039027413597,0.4446474079618582,-0.009280100786650754,-0.007657173015494615,-0.0013315590941597268
0.16,-9.787850005651913,-0.04641001717920066,0.16031654698753783,-0.0074724980249248,-0.005314554093682862,-0.0009167486446067868
0.1625,-9.736539799999994,-0.04423984642857132,0.12213887976189747,-0.009927545238095217,-0.004737454761904628,-0.0010680904761905116
0.165,-9.887035242336124,-0.055153420166864295,0.30543698169250394,-0.009468,-0.00987984238379003,-0.0009642974016687007
0.1675,-9.744384303218125,-0.008245426793805221,0.09073682626938191,-0.006655972443384952,-0.006468115661502032,-0.002300911895113017
0.17,-9.803773097497027,-0.03695078374254912,0.14712165520859488,-0.007910779833134759,-0.006046759141835668,-0.0003825007389748303
0.17250000000000001,-10.399714428700788,0.3039811293920752,0.9789833305362777,-0.009005735971395399,0.011528282765196948,0.003928743647199829
0.17500000000000002,-9.929857608581646,-0.2748241215733265,0.29786136233610516,-0.010453806674612747,0.0006614421930867288,0.001827919427890142
0.1775,-9.955832862383216,-0.21893641311724457,0.3208980645185822,-0.007693291172545303,0.005655632335557691,0.004573720533841895
0.18,-9.799434426793805,0.003415479475568861,0.045000764862935014,-0.009362453158521983,0.000995021978546025,-0.0025637399761620112
0.1825,-9.856862059165671,0.0774432754231226,0.1998530919666213,-0.00815544500595953,-0.004909252586412297,-0.0023061332061979018
0.185,-9.967359447241963,-0.09635883147960157,0.3073333592178986,-0.008625548479037412,-0.004079221808610634,-0.0018663790486933651
0.1875,-9.805087334788068,0.02367760530878221,0.18002452956298198,-0.006887494649369283,-0.007525597417349195,-0.0012366531356489507
0.19,-9.975222191592037,0.041665194083816595,0.37189506858611837,-0.0057384303772344105,-0.010110835310575718,-8.821573982184397e-05
0.1925,-10.07526758608792,0.008316630203564247,0.4614247403786139,-0.006012431718019804,-0.008326819307722765,0.00038856550970297054
0.195,-9.995173401799503,-0.05707555107804954,0.3392150943062927,-0.006137929517062224,-0.0037929179690636304,0.0015727970008265503
0.1975,-9.877633158615723,-0.08387200716567485,0.2773006756561235,-0.00592059023175697,-0.0062095533103664466,0.0019433858565612201
0.2,-9.999080190150815,-0.06336080654970727,0.4767758826469681,-0.006402694724530623,-0.011728320295475523,-0.00016430527546937827
0.2025,-10.016059440184673,0.009953665122807404,0.42391267720036907,-0.005712680723915047,-0.009855793994459823,-0.0008543192760849529
0.20500000000000002,-9.95135895018477,0.06418305883959065,0.28822308008944186,-0.007017934522772766,-0.005864358036954179,-0.0014860261927739237
0.20750000000000002,-9.908763238927538,0.029623754550144113,0.2832495558133362,-0.008657759168295167,-0.0042404935136402784,-0.001104506486359722
0.21,-9.92748293526494,-0.012450566201605605,0.3524951324032112,-0.008895332505501046,-0.008210640673208452,-0.00045535684329468297
0.2125,-10.029626023621766,-0.046001256628010634,0.41959651325602126,-0.007562085114481121,-0.006020572928932506,0.0013543175854891427
0.215,-9.957028382415157,-0.078596673164648,0.3248724418515413,-0.006964808379901667,-0.002478228257584849,0.0006234821153615589
0.2175,-9.864074246807434,-0.07144268036378015,0.28144799657413994,-0.008417021206801106,-0.0032658548738631857,-0.0018505910067220237
0.22,-9.947843643637235,-0.010520889761590949,0.4089012194560921,-0.009283623170001198,-0.006147470008386248,-0.0021632836516113567
0.2225,-9.968707208661042,0.03630860743830603,0.38610236957172406,-0.008901054042349943,-0.0059986561630313625,-0.00045720424136283804
0.225,-9.831091142167269,0.02360185372681664,0.21047835749445887,-0.0082497547416307,-0.004162196547299656,0.0012773222909133362
0.2275,-9.808486939574536,-0.03780136473053913,0.2429114402994017,-0.00963101290576742,-0.0050494597100535854,0.0024243662180901382
0.23,-9.966648202786807,-0.08375856619024866,0.46516683534894954,-0.008886595516252371,-0.005623404866156781,0.0023743611806883317
0.2325,-10.006055970469268,-0.06401815882445865,0.4434517709653965,-0.007413796811502608,-0.00504,-0.00044017830936958664
0.23500000000000001,-9.844425799081854,-0.06120053605538038,0.22839328292931602,-0.007836246154967214,-0.0034506813747874465,-0.0026199121496235144
0.23750000000000002,-9.787405916237175,-0.06580130350121396,0.2477660692253476,-0.0071712698362966934,-0.0032972152737526534,-0.002916519464243755
0.24,-9.889981502366412,-0.013796763893130122,0.3718441760877859,-0.007017219971374041,-0.005070997709923657,-0.00021057115458017516
0.2425,-9.90344683531673,0.0229421938624169,0.333626279301674,-0.007733611496756626,-0.004131891897173067,0.0013168850708737113
0.245,-9.811360915754378,0.009173619030942732,0.22863192358839068,-0.007852923127848405,-0.001421472933557213,0.0004980310242264342
0.2475,-9.965137934505547,-0.05407027004330543,0.46404057889541434,-0.0068497979189654145,-0.0013112465231061277,0.0034578690087204147
0.25,-10.027982203772915,-0.07303508293290621,0.49267378875244705,-0.006755247552945364,-0.0016913141128314646,0.0012726358782701548
0.2525,-9.97232405435779,-0.06973345490189611,0.380505726057708,-0.007796246380873868,0.00032003495136026733,4.430932563891121e-05
0.255,-9.80955939183138,-0.033353887999999894,0.20323735783138147,-0.008705,0.0007269758360655685,-0.001187539878220144
0.2575,-9.80101639938115,-0.009563332173913029,0.23622798271977186,-0.008455059327197714,-0.0033053795176134684,-0.0009991367946683557
0.26,-9.949409928646645,0.014877419681127343,0.39849864744531033,-0.006270268520578406,-0.0031079384204671648,-0.0005750356395995571
0.2625,-9.960037837190017,0.005333991579618693,0.3673713950721627,-0.007413800829279978,0.0020019673710230655,0.0011529227334343473
0.265,-9.8505934428845,-0.03333321179335641,0.23488263501122997,-0.01023656130984751,0.004060654904835083,0.0026882369878236207
0.2675,-9.917153502829041,-0.10150066400000049,0.38184990929274176,-0.009568773929742376,-0.0011520657985948932,0.0002005478594847539
0.27,-10.019438163258933,-0.06191320851802151,0.4759468606798648,-0.007786217916239438,-0.00246570822935563,-0.001616548437573952
0.2725,-9.950841051323529,-0.00766566419117605,0.3467252727205864,-0.006338486838235284,-0.0009169736764705675,-0.0004589736764705678
0.275,-9.784568825251926,0.025139630634262097,0.14225053007705835,-0.006529473052756389,0.0028299347717842776,3.752694724361088e-05
0.2775,-9.97314641760382,0.008141191417661047,0.38468656063007284,-0.00963734543198089,-0.004367426405727905,0.0012018165155131368
0.28,-10.089837410482101,0.002905193479713547,0.5111012815465408,-0.008013178787589482,-0.0024567157231503377,0.0022528950835322306
0.28250000000000003,-10.052938821198858,-0.04299460107833885,0.4261569408816978,-0.008253017443704422,0.001160267808436461,0.0011422070662860516
0.28500000000000003,-9.91655486405849,-0.09186297946542049,0.29162455133644877,-0.010213016852451191,0.0031510566462902936,0.0009940734987414863
0.28750000000000003,-9.99017590723348,-0.017582502832060212,0.381487261319223,-0.01012691284949792,0.000764,0.0007059976910588557
0.29,-10.006759813509712,0.012193247378990801,0.3686724533100837,-0.009741680490649994,0.000764,-6.383653177799876e-05
0.2925,-9.938908570203315,0.009402529612136503,0.27579015565530274,-0.008159192968407898,0.0010218996997184834,0.00021079939943696686
0.295,-9.893195425371427,-0.02308122879999969,0.23540192411428534,-0.00695115782857143,-3.090377142855481e-05,0.0024536758857142613
0.2975,-9.980070155564173,-0.057070060683287065,0.3535676131597405,-0.006724585023084027,-0.0020385757156047945,0.0033216960258541208
0.3,-10.047212869465742,-0.052011424656200705,0.37244231354509016,-0.006294429524157237,0.0009771217232566274,0.00041092681027140514
0.3025,-9.932630351358279,-0.02898127922158064,0.23968693850802986,-0.0074058925243256,0.002041810920022158,0.0006201071307649638
0.305,-9.851745,-0.01913,0.176949,-0.008399,-0.0011745382631453607,0.00168
0.3075,-9.921350986919885,0.008577643600382948,0.26007136556974125,-0.0071046200766038976,-0.0009562636865624045,0.0014211240153207795
0.31,-9.961121193746452,0.017307622601702953,0.2940947211825923,-0.0062908870955534525,0.001882016717123933,0.0012823642762535476
0.3125,-9.94327032959442,-0.0678847249162164,0.3083493279529444,-0.009460286163737092,-0.002314243006634293,0.0006652505984542781
0.315,-10.003292538176597,-0.07260084267560359,0.340503698351686,-0.00935127614253471,-0.002642707412625676,0.0014319066028315444
0.3175,-10.03590334414619,-0.040827453144634436,0.3492605130419907,-0.008810258099533435,0.0004514582861586398,0.0006690677169517859
0.32,-9.940582183414634,-0.0033463293658535977,0.2210687194146334,-0.00694169424390243,0.0019396887804877983,0.00010410556097561127
0.3225,-9.861640090847457,0.0041293489597558,0.1676595111800147,-0.00755450785444615,0.001069,-0.00011171359305968577
0.325,-9.918473189703697,-0.01427187882393336,0.3161040464477759,-0.009432669168287385,0.0012377357281775558,0.0011469257293216031
0.3275,-10.005779091243612,-0.0009304107666096469,0.4021167460306644,-0.008877160477001695,-0.0013159847359455084,0.0016278369335604702
0.33,-9.988730470729042,0.01725901505580614,0.31792140270244484,-0.008953290149608181,0.00045981781049637613,0.0011737307717881774
0.3325,-9.97042749863925,-0.006720209301952173,0.3239195457177291,-0.008953206300907696,-0.0023435038637642236,0.0020417936990923037
0.335,-10.071311546165747,-0.03195180517127088,0.45315041608839907,-0.009034210430939238,-0.00733,0.0034130386740331632
0.3375,-10.074796488392089,-0.01342915538184913,0.4310173044321104,-0.00912561228796998,-0.004244581552411435,0.0032851019932775647
0.34,-9.935491526104032,-0.018643460759433912,0.2235288095512407,-0.01000948429948818,-0.004401651122485473,0.003014682523509112
0.3425,-9.92847724531976,-0.023426634720028216,0.27774667182025775,-0.009409239794043652,-0.006354239794043653,0.002244303802001051
0.34500000000000003,-10.049509211411856,-0.03589653536949286,0.4138167552466226,-0.0097841037200866,-0.006729103720086599,0.0020565650763559747
0.34750000000000003,-10.09374757000979,-0.016288491092984823,0.41696245293311485,-0.008552530336052175,-0.0050132639738988205,0.0010154087699836673
0.35000000000000003,-10.092059,0.00538,0.373625,-0.00733,-0.0035824598392746824,0.000153
0.3525,-9.901493976069364,-0.02914634313318405,0.24578561139318078,-0.010843,-0.008399,0.0003991748708269405
0.355,-9.988380316878613,-0.011768827578152771,0.33969668159254385,-0.010843,-0.008399,0.000777067955644683
0.3575,-9.96861559430137,0.0046985819178084875,0.2567491125479454,-0.009491926684931507,-0.002629522958904113,0.001369578630136994
0.36,-9.883867046489577,-0.038609043287671,0.22688187096128665,-0.009587478875521143,-0.0021523865300774295,0.0001298982489577195
0.3625,-9.896359221390375,-0.03951117219251347,0.2982517647058818,-0.009455288770053477,-0.0031466085561497248,0.0003583882352941132
0.365,-9.999340288622381,-0.007047328272890643,0.40999762466546946,-0.009402669290245361,-0.005342071990424886,0.001612775478156787
0.3675,-9.996647031393502,0.013659653574007197,0.3812000971552349,-0.010143920404332128,-0.002121955494584855,0.0018000397978339363
0.37,-9.910661814346756,0.014433316244936871,0.2895373379429753,-0.009855332678897629,-0.00044733464220474313,0.0021231351727424327
0.3725,-9.868813900637909,0.0030133985530979065,0.2714118660784552,-0.008919120439936453,-0.00357840871074178,0.003263832169131125
0.375,-9.94055087147948,-0.004152935050005748,0.33580941855385676,-0.009261873318772273,-0.005299253362455455,0.002946746637544545
0.3775,-9.919526803962798,-0.006866469965224432,0.28414370158997165,-0.010203019561665994,-0.003928095543873834,0.0032956351217145177
0.38,-9.877698168080379,-0.04151257243026016,0.26357139513475175,-0.010423407219858153,-0.00389337244444445,0.002429830917257678
0.3825,-9.945449275559763,-0.04389292188402359,0.34332015951716005,-0.009841944312426035,-0.006584778234319534,-6.916709112426609e-05
0.385,-10.010174030227683,-0.012852607656908679,0.3600403793615224,-0.010399487984580177,-0.004724037475002987,-0.000328529324177803
0.3875,-9.948547915546317,0.0008229382623291637,0.2601500390216605,-0.01067076829989609,-0.002443,0.002453956310446821
0.39,-9.920024527089813,-0.026398896147255164,0.24776312851158408,-0.009929233646461434,-0.0030511643668676676,0.003150653437004115
0.3925,-9.976057462587356,-0.06002124146780392,0.3606849286806135,-0.008596438153558482,-0.003971,0.0014212274769194754
0.395,-10.007595409166047,-0.02636824585993544,0.4138902990447902,-0.009339494887404131,-0.0028762168225686543,0.001007381247216037
0.3975,-9.936256979309915,0.008175986220110888,0.3219901379110516,-0.010814716560479793,-0.0002456701923825625,0.0013269425749669007
0.4,-9.947954068494791,0.0377367213746856,0.34463753212788867,-0.00974062588911507,-0.0025622098191833077,-0.0009089003712130081
0.4025,-9.921683165177823,0.030230569622799592,0.32324537632379335,-0.009260975509519813,0.0001223255514309924,0.0013920402586516806
0.405,-9.872992847231057,0.02490532741814777,0.2267863732834406,-0.009724327015902728,0.0019736005238540793,0.002596
0.40750000000000003,-9.836981150469544,-0.006330269530457382,0.20629180743654893,-0.010399713229695434,0.0031306659073604207,0.0024282867703045653
0.41000000000000003,-9.910747375436177,-0.02895985834401177,0.34754729710202364,-0.010356215722030552,0.0016456249876786004,0.0015666774174469987
0.41250000000000003,-9.951430128221343,-0.017997599557312068,0.4278151600632412,-0.010925632316205547,0.003186931857707569,0.004016085913043536
0.41500000000000004,-9.939023,-0.01076,0.432209,-0.011454,0.004767659535327037,0.006261
0.4175,-9.889401897107692,-0.0456298835692304,0.3561000892307701,-0.011967749169230765,0.00513243556923076,0.004890815261538476
0.42,-9.909417930742284,-0.08764883614440586,0.3273447781579884,-0.01031138971047304,0.0038334867389491502,0.0027435601763374385
0.4225,-9.90849643877753,-0.09001095366421966,0.3069670572837539,-0.009199333258857323,0.004408743833386515,0.0034376248196616548
0.425,-9.865534398309858,-0.07114787619718321,0.26914599943661976,-0.00923095915492958,0.006549379295774643,0.002919382535211283
0.4275,-9.872024801633263,-0.044252621914602365,0.31313743242624104,-0.008858,0.005959254355782419,0.00045767392505912893
0.43,-9.981186812764538,-0.027699536387035283,0.49017530912297386,-0.009510803346043848,0.0007567257673975333,0.0021624281220209646
0.4325,-10.002457134917995,-0.007498118935108201,0.49673518990254345,-0.008267224311861188,0.0013982322510102158,0.0027920505633468036
0.435,-9.893927377877917,-0.011239590426485773,0.3234110054029201,-0.008631371624324632,0.0021879272008276827,0.0032206676123692365
0.4375,-9.847012017714793,-0.0215969222964812,0.25683765085755694,-0.010703350189226185,-0.0015301304452854498,0.002228932683790965
0.44,-9.924008570501755,-0.02540966982444219,0.34665501134896376,-0.010685164911088457,-0.0029275313308415422,0.001666734334579229
0.4425,-9.929288520035998,-0.016345853705309624,0.29421114650740376,-0.008761159096784746,-0.000831686921377727,0.002138
0.445,-9.871890640959572,-0.015741155012177363,0.18894418330735496,-0.007094310706283485,-0.000750012610813449,0.0037636592450073156
0.4475,-9.916865243339641,-0.03574772396404926,0.275221105326396,-0.005517606783349095,0.0019734762062441043,0.004800994314096499
0.45,-9.963624459639682,-0.01922026375760387,0.37891473624239613,-0.005198340430510067,0.004581,0.0055273113008891045
0.4525,-9.877172574450821,0.0,0.2819693135213762,-0.006244514882405242,0.0039874851175947575,0.006871852617796822
0.455,-9.801238153433115,-0.026468866295603716,0.18960119649204865,-0.007965580000000017,0.002622383227315236,0.0075721364546304975
0.4575,-9.89883108881193,-0.056701985569985694,0.3206893848581063,-0.0064866616835016575,0.0021546585281385297,0.006111845444925428
0.46,-10.043426049942086,-0.06931237108108114,0.4711297120077228,-0.004581,0.0025633154826254874,0.004887
0.4625,-9.809266355571461,-0.06582990689572864,0.1069157389644468,-0.002627517919350996,0.006855500691958944,0.0042971275113338064
0.465,-9.763647920334048,-0.031429058143640796,0.013435851586732564,-0.003296169639704134,0.005136021197804803,0.00381925107134335
0.4675,-9.852964727773763,0.0270271424540463,0.17000416340613017,-0.00530150455302438,0.004666347318146113,0.003579652681853887
0.47000000000000003,-9.995809200745699,0.06178647416825997,0.37979038325047954,-0.006276565927342245,0.004734,0.005196352982791629
0.47250000000000003,-10.052342931274572,-0.00036908306911970223,0.4403012149778062,-0.006969357254280298,0.005494156150919482,0.006245383544705134
0.47500000000000003,-9.960456109828094,-0.0586329895909902,0.35082010982809425,-0.009104195732068799,0.009090876087729783,0.0048811011025488675
0.47750000000000004,-9.927984385028509,-0.0710540897293826,0.24056424730105122,-0.010079,0.008933401496828022,0.005493106708423706
0.48,-10.041856130871894,-0.049494026225036916,0.38213833890891125,-0.009987786673161228,0.004184184939113536,0.004794918733560672
0.4825,-10.140297823205913,0.010144409946753176,0.583250805486767,-0.009402169628864346,0.003951341228641803,0.003512
0.485,-10.025483522509177,-0.00994416336697191,0.40005696158715875,-0.01017254791743118,0.00447726132568808,0.004942648091743104
0.4875,-9.882572123985652,-0.040407853997608656,0.14500535118373908,-0.011581431948983655,0.0012946614268633102,0.0048689257074531755
0.49,-9.884327555661082,-0.05641456639267188,0.13244629652645495,-0.009939294400385698,-0.0010047160274798113,0.004324704423285522
0.4925,-10.010592473056073,-0.051693577429906615,0.2500528734252333,-0.008274705906542057,0.0015534418271027934,0.004206482271028039
0.495,-10.058978127436811,0.001617575784186552,0.3106069911568372,-0.0072527894523655234,0.0043462320090732285,0.004454162495139339
0.4975,-9.996538580708973,0.05442311886690927,0.24843812383921518,-0.005847535394840958,0.006473139962019305,0.005349907659439784
0.5,-9.945380859715756,0.0564622447929429,0.25311098542024013,-0.004579933839745161,0.006563469860328351,0.006139665155599118
0.5025000000000001,-10.038830220096836,0.03661833794110632,0.3668304099753972,-0.005855438942773289,0.005604949729343587,0.005646805663941562
0.505,-10.12755824268771,0.0003718258058344054,0.46425202319464387,-0.00777385048302248,0.003847911841224289,0.00631527572453372
0.5075000000000001,-10.08148155718936,-0.001315928463675356,0.39652659674791235,-0.00912564998491468,0.002902,0.005706737317983279
0.51,-9.967579055814385,0.014577180236658943,0.19336280099303849,-0.010775381345707664,0.0035391884872389835,0.005917775805104417
0.5125,-9.945329895414998,-0.0625786631554213,0.17335222026804245,-0.010664091088643312,6.79288972490359e-05,0.007682418904302862
0.515,-10.090138413599814,0.027327544867153067,0.3778522771126275,-0.010569785817070302,-0.0019087835598401233,0.006741215311544787
0.5175,-10.096766452385788,0.036254842811875646,0.4731642690047679,-0.010216080510690671,0.001501247512690255,0.007056891173665574
0.52,-9.942661123429577,-0.0043927915723115385,0.32614751042743373,-0.007678543825494854,0.0037766284604715426,0.006720043071491599
0.5225,-9.881095750584747,-0.05287571090262179,0.1795443898469926,-0.006434809310876494,-0.00016838481793383052,0.00624561518206617
0.525,-9.952471924647137,-0.017187934800142017,0.22341021302336653,-0.008713916795160738,0.0008763356659945533,0.007290335665994554
0.5275,-10.063366,0.017336,0.373027,-0.00504,0.0029044301309937895,0.007025
0.53,-10.043384155240187,0.005263746683220046,0.3669214685626968,-0.004685316046222894,0.005740379035431176,0.007343937010791718
0.5325,-10.000281983619521,-0.020776908749880346,0.35375143010982724,-0.003920239106102577,0.004287333694967067,0.00803190541113551
0.535,-10.092752953623604,-0.04754091103497536,0.42671848681418245,-0.004400995707827766,-0.001285551444206647,0.006000224277896676
0.5375,-10.148299557960785,-0.015285138164706433,0.45088254036078473,-0.003369837490196101,-0.000142283168627513,0.004192355200000001
0.54,-9.94052986785731,0.010937330298470986,0.2942148751662177,-0.004426584586265546,0.003665,0.004297725183207965
0.5425,-9.795233149172477,0.00037430975447109906,0.1557145738708704,-0.007145803394968162,0.0017347592603819547,0.005474437344649883
0.545,-9.887763489589187,-0.04312648056162403,0.23171095188767998,-0.008698873114924626,-0.0044612545397817675,0.005909118710348394
0.5475,-10.042441882627736,-0.022948871850206706,0.3386859254458901,-0.009060421174230405,-0.005622474630276122,0.004389747711837521
0.55,-9.98800478803738,0.05663398728972107,0.23154288635513565,-0.008244174205607453,0.0006317805607478268,0.004652372336448642
0.5525,-9.845610396830672,0.0884805968051118,0.13759270849840258,-0.008957208664536734,0.0033174952587859455,0.005914905150159742
0.555,-9.953164162086964,0.06474158434782495,0.3555086966956617,-0.012497550260869674,-0.0009991060869566884,0.008034493913043554
0.5575,-10.01303739726731,0.00644201275692681,0.4343987379865071,-0.012390936039824463,-0.002274675653370018,0.00924572362350167
0.56,-9.906964563118121,-0.05699707076996828,0.2583393681300733,-0.009019934624581434,0.00019371201817318823,0.009529537991391715
0.5625,-9.743731509228443,-0.10783753192133132,0.0353285791225416,-0.006846573373676248,0.001448942208774584,0.008726872012102874
0.5650000000000001,-9.835281018810921,-0.0291273555820286,0.2667160239914331,-0.005907024296437415,-0.0038054229286312267,0.005428426688907375
0.5675,-9.955278077942236,0.048158260977678266,0.42594907469077525,-0.006124196534122734,-0.0023100826882150446,0.0052487730890471256
0.5700000000000001,-9.921203622902372,0.09421655961621653,0.32567258350683126,-0.006597329709762494,-0.0011000373518830744,0.0047341120364595346
0.5725,-9.855848637069457,0.061222879391055855,0.22608609400570864,-0.006455438744053284,-0.002749,0.006028129590865852
0.5750000000000001,-9.830223,0.020325,0.197872,-0.00672,-0.002837458681394551,0.007483
0.5775,-9.957483907926337,0.007868560320422725,0.3241231242051377,-0.007235873892146342,0.0017425545726319656,0.006967126107853658
0.58,-9.899590180534073,-0.03787478755119031,0.2624700101880066,-0.009346535705903429,0.005060014422224892,0.008372116072326609
0.5825,-9.944641232573485,0.014906237148218399,0.3221581567792386,-0.010385,0.0015613075953720737,0.005267185709818594
0.585,-10.114776,0.125538,0.529651,-0.013286,0.002057673953930202,0.005803
0.5875,-10.067740747950324,0.10085422615143393,0.4793114863395208,-0.013012893658066061,0.000845638027489744,0.006423666674704627
0.59,-9.884843631384136,0.004871088693032308,0.2835657106366072,-0.011950916517964807,-2.290756209306845e-05,0.008837136151434742
0.5925,-9.885288959611344,-0.0657562542001744,0.30357669199778947,-0.011606,-0.000305,0.008766955980725162
0.595,-9.933854769388049,-0.10388343571874234,0.3324829624766027,-0.01052735779217665,0.0006835590976721638,0.009532385869930373
0.5975,-9.894621955444496,-0.11893852713118712,0.2911257106583371,-0.009687505372417105,0.001374,0.00811967302258525
0.6,-9.814630924710656,-0.013801493043791607,0.24273151626297645,-0.008146513518673217,0.0008211430139601582,0.0043253969931989385
0.6025,-9.828824074739572,0.08762715810511487,0.27901191405138,-0.007607373169926948,-5.747290124912685e-05,0.005460290530285226
0.605,-9.897078557548936,0.1088,0.325443296393921,-0.007667039713069913,-0.00027555919756839186,0.008426439314285697
0.6075,-9.910559253129,0.03725072655975818,0.3126568051789238,-0.007829583101350826,0.0028788930879217077,0.009509583101350826
0.61,-9.857729965828808,-0.049139259215259815,0.21381981008330414,-0.008094,0.0032532265990583334,0.01051275307014366
0.6125,-9.953215713200098,-0.05870650220396527,0.3304395288569443,-0.009572606461805869,0.0017241364562761603,0.009603968338731303
0.615,-10.068508707752809,-0.05585387200374528,0.5197896210486888,-0.007268946760299651,0.005218648352059898,0.009092011161048685
0.6175,-9.997462455914043,-0.0037506589729798742,0.4530849212513794,-0.006823266759361726,0.010819654435139922,0.007363577955443136
0.62,-9.844597507549668,0.02160906701986763,0.31268794693156754,-0.007936187461368656,0.00996850313465785,0.007194045298013239
0.6225,-10.035298781026254,-0.06807930680668298,0.48631057107875986,-0.008564543670644303,-0.0012836100906920406,0.007448267494033435
0.625,-10.107482227326969,-0.0864056124105012,0.529321581980907,-0.004455952625298329,0.002634160143198091,0.008499346062052505
0.6275000000000001,-9.961691274792436,-0.07164840806331699,0.2845313320238965,-0.004758345566144463,0.0067821938814409,0.009283667976094345
0.63,-9.811084087475225,-0.000565419273241892,0.10435842287871647,-0.009178822067012753,0.006933494780556859,0.007092772118924012
0.6325000000000001,-9.926034969584668,0.10147567683886877,0.3714474029585919,-0.01142347211525711,0.008862121736090106,0.00568772955814097
0.635,-10.068111992460064,0.08673910389052981,0.5679367278461639,-0.01190638974983423,0.005869802256917223,0.0070391404255832225
0.6375000000000001,-9.987859215177648,0.03359716682756792,0.4279388316689007,-0.012234957189206306,0.005993114821555793,0.00875962924744802
0.64,-9.66754520310351,-0.008797058466122873,0.06055148180442147,-0.012441105528871928,0.0047469247649127005,0.009894668765866171
0.6425,-9.652603573098148,-0.09770013191347214,0.02469144481973718,-0.010627764517013317,0.005033110217507891,0.012566566135510356
0.645,-9.867390700737399,-0.09391048065211853,0.22087209020316373,-0.00881733234010533,0.0036735711462252078,0.011816809952345086
0.6475,-10.045008328627869,-0.055538959209823824,0.3768402577896422,-0.006826171639081717,0.007778520704751627,0.010566409140416438
0.65,-9.939203894513714,-0.05635466890274317,0.2799602264089755,-0.005390560423940144,0.012931429700748147,0.011362744339152131
0.6525,-9.8865906230768,-0.0016662723779587371,0.2898456117286361,-0.005445164785787276,0.009464696967219636,0.009232316157534833
0.655,-9.994463896125449,0.039051509751821104,0.40762522382516475,-0.006011104111618727,0.006109,0.008710508645511827
0.6575,-10.012892648178132,0.03246047819960244,0.37643308579244633,-0.005826082112127244,0.0057607236834990114,0.010208917887872756
0.66,-9.904682090295674,0.013804312685010697,0.18464083014185242,-0.005961943442146653,0.007420175402495349,0.01013945819176208
0.6625,-9.956858133333332,0.0074379792332080474,0.315765691775823,-0.008482174173096484,0.008399,0.010793411125067291
0.665,-10.065210986666667,-0.02855441235002144,0.4203705397404166,-0.007619806806627178,0.008399,0.010601495187511212
0.6675,-10.105220636493048,-0.019071274909262546,0.4123654559509785,-0.0063280173273627255,0.008399,0.009451336460051862
0.67,-9.953346064780531,-0.022578618515711725,0.1362278599388593,-0.004528763858662394,0.011306708424012818,0.01101893675021405
0.6725,-9.877092552163077,-0.08227249045689786,0.07695880312096529,-0.0036806247913604715,0.0124791692938846,0.012279397042622537
0.675,-9.989715248688563,-0.11661627903632987,0.3622552177579314,-0.003512,0.011632411540703356,0.011606
0.6775,-10.173231615720235,0.026692042690765652,0.6605227380400783,-0.0044626964872298575,0.01256275925815324,0.01065586940353635
0.68,-10.120655157360915,0.10443837474301516,0.5099100803518697,-0.005624033776981365,0.011470064087317693,0.01048229879286473
0.6825,-10.068352611070827,0.14201412676595465,0.32363178939820714,-0.009302337273401176,0.002022466090706915,0.009297269295774643
0.685,-10.093696789799852,0.10441830662713042,0.495136396619722,-0.007684142624166015,0.005367677212750257,0.012103317746478933
0.6875,-9.942000761032071,0.06634357535567881,0.27385438967928627,-0.008416359295876537,0.008094878707499397,0.0151038189052327
0.6900000000000001,-9.749983238243173,-0.02726903192287007,-0.038723897546864484,-0.011121895361542542,0.0035020967970005334,0.013906968355650778
0.6925,-9.805940989787539,0.009290406844016014,0.054165845208593875,-0.009406406803546983,0.003407242573349997,0.014002446620246384
0.6950000000000001,-9.976979993334123,-0.0599521841351046,0.2841880359329281,-0.007986600154802365,0.005716655686642547,0.01810347247097475
0.6975,-9.958352396054892,-0.10482513701629079,0.2983519199357992,-0.008078213026241877,0.008593893084022156,0.017076397932750162
0.7000000000000001,-9.876024107306204,-0.025207730479649,0.13658411328720058,-0.010466461944411979,0.01037291621906888,0.012816496165122461
0.7025,-9.935083901585497,0.021098544614291084,0.1311496849911144,-0.009502711866334869,0.006250148083896215,0.010870182111624601
0.705,-10.117808737949991,0.07606522407868142,0.45389091563928863,-0.008554035748311426,0.009950419831733559,0.010965236103803767
0.7075,-10.146154932125997,0.08481787492855442,0.5914801921181025,-0.009444036949553973,0.015679719864214146,0.011765283802005219
0.71,-9.968054868385074,0.10537224948906788,0.4079612479574892,-0.010294245256673515,0.011180250218625681,0.013366522671820239
0.7125,-9.88383697539392,0.07761483705236291,0.29978144854368977,-0.0104047572815534,0.005651,0.014914919242400139
0.715,-9.963479116375058,0.00473168591590236,0.32772436167230545,-0.009515041633639466,0.00360586592556796,0.015855771251812464
0.7175,-10.011134370090145,-0.04362127940718144,0.3093273424843389,-0.008942152959511078,0.003305264617265103,0.01425948328189455
0.72,-9.910484409423315,-0.034079257217178624,0.12792739217669108,-0.01022797269202451,0.00673326701349687,0.012479926419631911
0.7225,-9.825542982407436,0.006097973220067653,0.11506208797563922,-0.009354403391569129,0.006313537855425504,0.011960851809584864
0.725,-9.874424918207817,0.010734855100095508,0.20349467740705435,-0.006670632602478575,0.004429,0.013392414394661552
0.7275,-10.245777588056184,0.05376589807879925,0.5476705228020465,-0.0028277546292108124,0.004973354483990061,0.016345509258421625
0.73,-10.161462766411143,-0.009283462787762917,0.4872329287251522,-0.0031135823925723108,0.009166535143435274,0.01691716478514462
0.7325,-10.019609296752753,-0.03952537610078763,0.3345767274330677,-0.004140746645669314,0.010537,0.014387797703936944
0.735,-9.950432687263158,0.05773667350717581,0.31634859019617123,-0.004887,0.007262946650717741,0.012217
0.7375,-10.028366518517345,0.10711828467338606,0.3358841596952127,-0.00784403778077633,0.0024367249146757023,0.014329248876895049
0.74,-9.997705759857025,0.061269064320267075,0.10498428385559544,-0.009701918341475043,0.0005465398403431425,0.015151337671869422
0.7425,-9.730157192310001,0.04472081190750337,-0.058933227259089296,-0.00995623028016727,0.018326,0.017329232174256224
0.745,-9.781204,-0.04902,0.242707,-0.007941,0.01810875591409625,0.0197
0.7475,-9.781204,-0.04902,0.242707,-0.007941,0.014601381789864256,0.0197
0.75,-10.033039903462749,-0.0685308667366212,0.5603023997901364,-0.00840276705141658,0.011720726128016789,0.015454039874081848
0.7525000000000001,-10.009838244311993,-0.030625521924829216,0.33643316301618276,-0.008705,0.010655248595691134,0.012078824466111004
0.755,-9.779796441644555,0.09985553454762794,-0.0007689306991753115,-0.009148238527548706,0.009852300485239631,0.011162761472451295
0.7575000000000001,-9.861205770491809,0.1390947947540974,0.26860820000000996,-0.009468,0.009468,0.01355728786885256
0.76,-9.986392500321697,0.11178479539616308,0.48063917063743594,-0.009711415617776734,0.003591802711783643,0.015637248554748
0.7625000000000001,-10.059669350808639,0.02188391409127202,0.3190243186549081,-0.012541679103282613,0.006480879007205772,0.014274360592473955
0.765,-9.740604019777074,-0.014017130059838153,-0.2290453058922911,-0.012025968055848876,0.006758989379326531,0.013451982271500646
0.7675000000000001,-9.706772280455237,-0.026519950193594162,-0.16984006965152948,-0.011461880180687535,0.007322462109585843,0.013639601466619739
0.77,-9.840855234778978,-0.01412151358162169,0.08053052284024015,-0.011724865589975644,0.007553436449704141,0.01275539592064043
0.7725,-9.9826316646763,0.03230955027605253,0.3212046394712602,-0.009402225962496163,0.01582187033507525,0.013877589324315988
0.775,-9.883201646197355,0.05658893591146655,0.1154058853366105,-0.009106961401782968,0.020350764525053838,0.0158464495173686
0.7775,-9.910413976151888,0.10335707897998021,0.267216339571016,-0.010206104677470585,0.021838,0.017091052338735292
0.78,-10.073311331124206,0.06076031758566626,0.6445074326031067,-0.007429099997595202,0.01485340566550423,0.018378720572321768
0.7825,-10.076021977854307,0.08156646538711645,0.5817785194653846,-0.008399,0.01057532276459962,0.016188
0.785,-9.890347639523176,0.05741386503552047,0.3606299901842236,-0.008399,0.012310744452739336,0.016188
0.7875,-9.725571281299011,0.09587105107326674,0.0789821132514879,-0.00911142841980197,0.00953403881188123,0.018057687350495025
0.79,-9.794576623935018,0.020770640396604256,0.042500823892011486,-0.009716429157806716,0.0012719954557398865,0.019204765404372232
0.7925,-10.01033423961944,-0.012249876219773574,0.2662177590803124,-0.010839520133195899,0.00028497634821213636,0.016602429252358702
0.795,-9.771510720375911,-0.09663042861008055,-0.07810845001317179,-0.006740022399138071,0.01466817582664911,0.020159599499580957
0.7975,-9.61879685489046,-0.1176427467903746,-0.25821295841972847,-0.009040412103435879,0.014763580802107027,0.018146680050281347
0.8,-9.81987998456024,-0.07833893895793315,0.11571335619026574,-0.008018371534416743,0.014444565248565952,0.014890371534416745
0.8025,-10.299497,-0.011358,0.911047,-0.00504,0.02161555538975637,0.016799
0.805,-10.299497,-0.011358,0.911047,-0.00504,0.019669901884683115,0.016799
0.8075,-9.99332211790858,0.014816756405760738,0.43921465237320095,-0.006535601603005632,0.01803397621790858,0.016710853988728867
0.81,-9.711707148937393,0.08024106150156116,0.005544633216594888,-0.007078991144159247,0.008898826721035851,0.01841067216118981
0.8125,-9.809793390504261,0.028873144029315706,0.09002913574444354,-0.0061927231737433286,0.004214652433681192,0.018494021349478213
0.8150000000000001,-10.042765329922636,0.06346207784333134,0.3191302977321142,-0.006183453863636381,0.010630100875242056,0.01733454613636362
0.8175,-9.941744478088307,0.0674696713876758,0.23078438505094584,-0.008970661695778748,0.01902921807132459,0.017197401052886946
0.8200000000000001,-9.8664693387967,0.025650008233866005,0.04297557084424569,-0.009941777387190709,0.013784430181950379,0.016420254114507503
0.8225,-9.884568542253099,-0.04097519620115288,0.07983589614273356,-0.010497827292965976,0.011330715553801211,0.016276802567300862
0.8250000000000001,-9.956277952790007,-0.06774716442593477,0.19101779895301257,-0.00800609073170717,0.01687521180249883,0.017966784199881
0.8275,-9.938572623254476,-0.009279755992094406,0.42499096052464524,-0.004358663795891485,0.026124431358926763,0.017513433440737858
0.8300000000000001,-9.83045129355932,-0.012658410169491622,0.43813065966101733,-0.005796789830508515,0.02842606101694922,0.017897143050847466
0.8325,-9.777668289948153,0.04505638730071351,0.2570133325405035,-0.005294553596889167,0.018714696140635013,0.017932984345430978
0.835,-9.899235796789293,0.14238281970377295,0.09208075066889712,-0.006971965494505426,0.00889185016722414,0.01719855471094125
0.8375,-9.934619020338982,0.2176247278644073,0.040206941830508026,-0.006283180881355906,0.013560071864406853,0.019337650440678
0.84,-9.866200487603704,0.15345732840207088,0.11930625852590773,-0.005000557898280618,0.018326,0.024315257809306157
0.8425,-9.954290203367414,0.05528709695846617,0.4271125261693327,-0.007645610952076715,0.019476305476038357,0.025657012923322665
0.845,-10.098538376245248,-0.02629014259944102,0.5167479303977728,-0.01053052251836836,0.016279719913858726,0.026104581591081803
0.8475,-10.036418347253909,-0.08802140239358834,0.2480108819422577,-0.00846119805773865,0.013785775662594356,0.02373748253676751
0.85,-9.872068656639355,-0.026022721742059995,0.12223115977101753,-0.006583277180379389,0.0191189111235828,0.021143361409810307
0.8525,-9.823134495688759,0.025718054462791032,0.2044813349920846,-0.004809357552589868,0.020853573612304853,0.021748911621805037
0.855,-10.154323426917127,-0.08330927549171317,0.591790034121548,-0.007494813966850827,0.006967902718231996,0.02121491332596687
0.8575,-10.113310245065898,-0.030460263342510382,0.4094449407439471,-0.007901637710737524,0.011944963793568051,0.019082652165661053
0.86,-9.96459500639447,-0.011365873127526318,0.12009484374202012,-0.008839588359205664,0.01260159067189971,0.018520004625388088
0.8625,-9.839736751479288,0.08769976770217214,0.045301745348455644,-0.007524495693622572,0.01162085933596315,0.018067407659434574
0.865,-10.127107191576872,0.1851236557837967,0.4997661784886623,-0.006498953349185173,0.008578149368439366,0.02165330259003654
0.8675,-10.140921175463667,0.08042599053296785,0.4488716574702768,-0.007706065429449655,0.008949708804732363,0.021188701265441038
0.87,-9.998788021793176,0.03232992012695049,0.22121954314731634,-0.009481657741338266,0.012320013435599034,0.01974956376619942
0.8725,-9.831614609822815,0.014214443021447754,0.08437887651849552,-0.0099689653465962,0.018103764115635794,0.0199891386136152
0.875,-9.81121294398682,0.0076544721110849605,0.13139026782772417,-0.008604209461049658,0.015279529536361497,0.02004944622264062
0.8775000000000001,-9.969350421759035,0.04141533281875534,0.24849863417271642,-0.007107330378757651,0.011198513349812606,0.020144321460808568
0.88,-10.003654409945382,0.03993508675374013,0.24059219341249077,-0.006567,0.017714567508905273,0.021512769893137027
0.8825000000000001,-9.86106663691871,0.018841332032135873,0.14384563437617984,-0.005050399045368564,0.020932399045368564,0.022059591143667293
0.885,-9.88735426330966,0.03681748011837139,0.2357553561695086,-0.005464816297348497,0.0197,0.021471191685606055
0.8875000000000001,-10.063572857488902,0.13848823255551412,0.3695776716996382,-0.0066356023092450514,0.017593919063383038,0.020485319402503005
0.89,-10.076707771170213,0.14695240264023143,0.34015716887814246,-0.006293896460348159,0.019251668346228278,0.02246452815280467
0.8925000000000001,-9.868424157546125,0.0524716761152454,0.1783922502168936,-0.006196911997410169,0.02338782747167376,0.023422233810294565
0.895,-9.718230809868913,0.01905794910112368,0.12658526947565596,-0.006827264672284653,0.020684754522471854,0.023001480365168542
0.8975,-9.877696139525677,0.04033605451861123,0.3164992944557842,-0.007178,0.015662570177477672,0.02176142363436472
0.9,-10.014943,0.053802,0.444165,-0.007178,0.015686309551656955,0.020769
0.9025,-9.866352315333073,-0.022723807068513485,0.15556278276119329,-0.007265255344158414,0.017652912994851472,0.02173340117227721
0.905,-9.844828369603432,0.01649852462546357,0.14870091812790734,-0.008351988996070047,0.016315170003572663,0.01984779467428838
0.9075,-9.982283087792165,0.04584056025423106,0.33685074062445297,-0.009097480943830935,0.016690798134583275,0.02096724426471752
0.91,-9.936760657533195,0.028809368445986548,0.22111007841128918,-0.006183888541691513,0.016378139471228577,0.023432465132192857
0.9125,-9.876438812324997,0.10249272530812512,0.19909339562043632,-0.003513026899605103,0.017922850448725644,0.022018831829603923
0.915,-10.023454010774204,0.08074013726935472,0.38473727065693697,-0.005620342194567458,0.014952909809740294,0.022114818504247936
0.9175,-10.138973553875536,0.06440611945249095,0.42659467917873645,-0.007591537539391997,0.01405,0.021345445169505022
0.92,-10.083225636242958,0.09513107296513838,0.3151746837091138,-0.008743279511201636,0.01672291238528821,0.0203876911704804
0.9225,-9.847936804017824,0.12154786398811847,0.08484729096224625,-0.01043819988431172,0.020784855424060014,0.020597752733526143
0.925,-9.72105195465288,0.12991513840472696,-0.0027530317577533978,-0.008189523830625182,0.017476353471196266,0.0234845125061547
0.9275,-9.923025282017282,0.14688217615082477,0.27507456688138127,-0.005930857520816969,0.022801049307148425,0.025578845272584444
0.93,-9.997010958736839,0.11160683115789295,0.38455408378947076,-0.008358701894736944,0.028863,0.026884711578947403
0.9325,-9.832689615650764,0.025712363014281515,0.2182232789830855,-0.010178234514332021,0.027389111783652394,0.02731553058644789
0.935,-9.762735053015449,-0.031574399313952825,0.20246978074200567,-0.008858,0.02087287356769229,0.027146849877143924
0.9375,-9.925273346854881,0.0392922622353215,0.3563705032963624,-0.007803808190490964,0.01512240386256108,0.02511778732645622
0.9400000000000001,-9.982257523064714,0.0869869105777331,0.3243712994396178,-0.008731711162906108,0.01866983026035237,0.022891672124968985
0.9425,-9.861461939069276,0.12858414814207006,0.17430869709998822,-0.011375631752432303,0.021974698375337005,0.025722576152854303
0.9450000000000001,-9.903710419388116,0.1069083331614108,0.145652003685382,-0.009592155283085175,0.021411754045246735,0.02797558260930729
0.9475,-9.99425216638481,0.028221924722875547,0.22469805261056608,-0.00848498623387162,0.023328628223646848,0.029323707113527553
0.9500000000000001,-10.066505386918092,-0.00043988362993386057,0.3030489004124933,-0.008094,0.024893,0.028463233895108946
0.9525,-10.07592,0.014945,0.310856,-0.008094,0.028464918541091053,0.027642
0.9550000000000001,-9.847624691189099,0.006663230100286044,0.26332421857688354,-0.006530288118433527,0.02655442221585455,0.024422416021967337
0.9575,-9.910090937064698,0.04692416633912476,0.45823574024054947,-0.005498,0.021886297533212782,0.022297
0.96,-10.086173708372204,0.03653057011781817,0.5327882374416958,-0.007936627112286532,0.01998471952873289,0.023561560942534223
0.9625,-9.823850527097678,0.03502538752479939,0.015041017073171173,-0.007517340646516501,0.019180581888201646,0.02474
0.965,-9.810683060592835,0.11329781085540805,0.0647844395121945,-0.006116220889251972,0.017965462308320707,0.02474
0.9675,-9.905817264308794,0.046609698294499916,0.15609320839391233,-0.004653908359739034,0.017396090043491765,0.027149230155327782
0.97,-10.037085397412358,-0.05168643783158605,0.207497913986267,-0.002629652157571406,0.014455656161908272,0.027216396646187253
0.9725,-9.975959665673885,-0.032480409018596515,0.12543422350630215,-0.002836862681618745,0.018942714558751957,0.025584021642404402
0.975,-9.831819282446808,0.0060785148936170555,0.07572166329787133,-0.005172229255319116,0.028658142021276527,0.026762983510638258
0.9775,-9.875437773745213,0.06362377304751939,0.2727458632879649,-0.006326442947265464,0.029559292555220436,0.0294765096650094
0.98,-10.166347716247387,0.1034198567834748,0.6380859898487646,-0.007970351953768594,0.029322,0.027430334511250466
0.9825,-10.159027152460347,0.0934001735374399,0.5918418929988927,-0.008462859063076363,0.029322,0.02644596493544816
0.985,-9.934574410729748,0.11334833591957394,0.24347947604967818,-0.007645846930810182,0.02643328609343587,0.028754255323477203
0.9875,-9.76466999485294,-0.0060483920496357535,0.041483856020220304,-0.007671134742647075,0.019573459237132225,0.03051955036764706
0.99,-9.912613693679056,-0.0032844462197962124,0.19653159593160408,-0.005322888929918931,0.014820271227422348,0.029422240594043515
0.9925,-9.984638058333466,0.006576,0.18577913889801256,-0.004515923007734633,0.014836058604577027,0.027182038909177843
0.995,-9.883252105007859,0.07055148605005417,0.004193241315439966,-0.0024084600701245393,0.023156792020311907,0.02609232098174344
0.9975,-9.776044759778515,0.14535567791805204,0.08156352974529829,-0.002397577032115212,0.028704397696567033,0.026886925293466243
1.0,-9.999287356758991,0.08139867424555602,0.5097276515088879,-0.007150546506821001,0.028924750310045474,0.030308579578338157
1.0025,-10.189563680472446,0.057706789060415084,0.5571114218791698,-0.006866930013582951,0.02325056269532877,0.029457110848638772
1.0050000000000001,-10.16710597995846,0.05133710636374797,0.3495587952460997,-0.006342853216074228,0.021725146124343606,0.02845058845486742
1.0075,-9.807160483316398,0.0033879577118356846,-0.10994329407490802,-0.007444823643287892,0.022602,0.028456414081244063
1.01,-9.603658,-0.033477,-0.335366,-0.008399,0.021930308672268903,0.028711
1.0125,-9.79043033137917,0.11788526811787439,0.020126644447928166,-0.008576703638506872,0.027475038003929125,0.028622148180746564
1.0150000000000001,-10.087912998976293,0.23004234263410103,0.5232597035269619,-0.006314807904639234,0.031397231838261035,0.030120563253476843
1.0175,-10.188660982633909,0.0996850288586332,0.6583222330181221,-0.008217493022956249,0.03324386772452687,0.0321119748368909
1.02,-10.035209786604558,-0.04113498563373435,0.3685556679676353,-0.0067938932189261485,0.03019162976219655,0.0322557365432704
1.0225,-9.98563015156464,-0.013755329353282084,0.05469321181855981,-0.00438458670322467,0.016966422673898775,0.027401646675806166
1.025,-10.075675060857122,0.04303665182094332,0.14772690959050752,-0.0032395719616141556,0.018016436192406234,0.02711539299040354
1.0275,-10.135234175731469,0.12649722758274023,0.27523084137411036,-0.0005937692351229203,0.02445086214291357,0.028362693951733416
1.03,-10.067199926647802,0.2587838548800609,0.3917111217911192,-0.0009663423348505794,0.03254654440644614,0.030096915182679315
1.0325,-9.921009079832013,0.16986418176386026,0.1490345451235904,-0.0054590723950083955,0.026694287470602412,0.03421854952963764
1.035,-9.924769811370291,0.04124754061195515,0.12346119320614433,-0.005843449606431473,0.020929887489801,0.03373854983681307
1.0375,-10.010476143872767,-0.023204560095428782,0.18154164742743867,-0.007036908803180969,0.01807145773359835,0.033687633463220686
1.04,-9.936154104429464,-0.015577869040203772,0.05549714726469426,-0.00637112496397858,0.02472389755984218,0.03119832004647913
1.0425,-9.84343824229432,0.09963711580229011,-0.04538392217575908,-0.008054678657374002,0.030732242935191847,0.027070321342626
1.045,-9.92446462684682,0.20227016822830346,0.10613390324518665,-0.01029709840419334,0.032042877162492704,0.029738075997670095
1.0475,-10.006313876503313,0.1951534792052965,0.2778332863576203,-0.009099176423840977,0.032720986754966916,0.032957699549668894
1.05,-10.042078704574632,0.1558759482424853,0.38959770636780633,-0.006978520937340768,0.033455470708099865,0.033365805542536944
1.0525,-9.872828859104102,-0.052407294460567626,0.09432876204416513,-0.009086413148264999,0.03590405229022083,0.03266552128706624
1.055,-9.70535184398272,-0.07271903330134787,-0.05849555425145127,-0.004013066381957816,0.02847218387715928,0.02605905318618044
1.0575,-9.922670352082543,0.09985700355087108,0.41298690809023125,-0.002284098397312786,0.02952881036468335,0.025194883666026836
1.06,-10.184758107610923,0.1813803655172415,0.6465321436954568,-0.001374,0.029306547872945097,0.028544907808676374
1.0625,-10.0414319852923,0.18680403448275862,0.29945102533679396,-0.001374,0.022280401804474107,0.03161248832035595
1.065,-9.871043182502886,0.18551120583544614,-0.07938183034799773,-0.006658149665821393,0.016466379847891316,0.032953857478681736
1.0675000000000001,-9.827375272471158,-0.007165388268771271,-0.06558317895650234,-0.004214491753359596,0.020710891032411288,0.03854310896758871
1.07,-10.086097786055394,0.061632095499185274,0.365492850165246,-0.002755885855247963,0.025961448042820856,0.033918323667675075
1.0725,-10.231070205370042,0.05142414819010155,0.6520667248744653,-0.005871296191412646,0.032227000225499805,0.03260982228515241
1.075,-9.92330094863324,0.034577508279253,0.04063728208457329,-0.004297229301868268,0.022989495889872338,0.033554262418879044
1.0775000000000001,-9.78251950493966,0.1084364333595193,-0.1889806813081107,-0.006780829278115135,0.021075,0.033387345650838965
1.08,-9.82605002709678,0.20831787290322873,-0.11036960903224882,-0.007728432258064456,0.027111700000000377,0.03455967354838718
1.0825,-10.11720488907367,0.14227277928519222,0.39737901103817586,-0.004500523841478213,0.03520254017991738,0.03732374287381475
1.085,-10.023835000416295,-0.13646420022123312,0.411286,-0.009555395506393156,0.035887421730597724,0.034267535814451446
1.0875000000000001,-10.065958883140055,0.008922124959865024,0.411286,-0.00574584999107919,0.03274449991079377,0.030172383514718785
1.09,-9.792327187891456,0.11727967025456598,0.05071909899615845,-0.0035837930067243746,0.031074058208453194,0.029103618275696474
1.0925,-9.902219287334296,0.2128709457204621,0.07932137649855939,-0.005794767377521637,0.024247863703169954,0.02996924747838618
1.095,-10.053005212975119,0.26883145854456236,0.2764804195631314,-0.008790744118677685,0.0269646308235018,0.03173380684966707
1.0975,-9.952035965099647,0.14596969974894675,0.2781376539055439,-0.007302167544327753,0.03351784830691968,0.035590922626706274
1.1,-9.818180208752025,0.012604276709883767,0.14303053311182734,-0.0057192238573744196,0.030869455688816494,0.03706263692058341
1.1025,-9.83065078508739,0.013728691086445685,0.09719356484175881,-0.005169130472366505,0.023824,0.033991436556447714
1.105,-9.921429954128872,0.11680699897278815,0.17695730979856253,-0.005045513615266792,0.025977337146895953,0.03328315389327362
1.1075,-9.859641355090508,0.1343399771419494,0.09764614457288415,-0.006021523258177203,0.028471482413464547,0.0349064767418228
1.11,-9.781840022565829,0.14374031699891798,-0.017879522649997644,-0.007264825143681722,0.029602375077552024,0.03487833758326319
1.1125,-9.741317462908858,0.1453567852492855,0.00023245252461218807,-0.006245519418863084,0.03233225195300102,0.0341152286281359
1.115,-9.824427472687086,0.1547382523867867,0.1718706460828819,-0.002619780372372389,0.03298005157957959,0.03463665259339339
1.1175,-9.9287308287498,0.11636081606625415,0.36190431633062214,-0.0018443251855390762,0.03364579022774322,0.035810837413600874
1.12,-9.897914659671567,0.058984892047193996,0.13094743925067326,-0.005501886841017182,0.030774301505899194,0.03356615770344218
1.1225,-9.856176004192125,0.15372404175748358,-0.005142061543305938,-0.005164694913385762,0.0309040918141733,0.031889804078740154
1.125,-9.85055,0.229555,0.021521,-0.003665,0.03649946418539326,0.031765
1.1275,-9.952039858074375,0.25612001008824375,0.315775672962487,-0.003491238433659003,0.03746346299086043,0.03263494725181214
1.1300000000000001,-10.028693,0.276184,0.53802,-0.00336,0.03968919387147558,0.033292
1.1325,-10.091875897693983,0.12014529080975991,0.5195190272951408,-0.0049652512061881164,0.034442559825960575,0.03712673432922421
1.135,-9.913974362203113,-0.018759430792470565,0.004673198164068082,-0.006864079112247274,0.029169,0.03693144511271204
1.1375,-9.776422,-0.035868,-0.304878,-0.00733,0.03030392958081928,0.035125
1.1400000000000001,-9.847917760731331,0.004670903315175487,-0.03510977861723835,-0.006200597176413494,0.03689718597408946,0.03672539832425249
1.1425,-10.104177116312778,0.16809898932181308,0.4950801244730993,-0.006024804017288823,0.04117278876542242,0.03640341484322195
1.145,-10.030314920663752,0.16413529173798969,0.46427934081596567,-0.0072853331253899065,0.03772379052276975,0.037656176923268905
1.1475,-9.777385997950942,0.15939935472568179,0.03014154130775104,-0.007877801027625163,0.03543,0.03742578770564114
1.1500000000000001,-9.669624618294785,0.0751760430790337,-0.0902645868829752,-0.006952716948567376,0.0315668721435964,0.0402091278564036
1.1525,-9.835179751417833,-0.03221382407849648,0.12120189664105466,-0.006864758613246145,0.026534378145543634,0.03980779433524106
1.155,-10.088689271314184,-0.015708949812258975,0.32827365977833245,-0.008400345957928093,0.030179903406469245,0.034472570495362974
1.1575,-10.02551971880263,0.056689123679726616,0.26548683283524166,-0.008488220462399622,0.03852544809929416,0.03254441878802628
1.16,-9.838617781157149,0.16138352488947505,0.011533462896495705,-0.003178088145911663,0.03976824417924886,0.034788053185167145
1.1625,-9.897618810791544,0.21735729707630208,0.10786002838127975,-0.0026902893273117634,0.033145647111956,0.03645427725219873
1.165,-10.046210268128602,0.1333958720223442,0.05804793402032439,-0.003962424289534675,0.041692,0.0383662467914661
1.1675,-9.981764003244786,0.07453740115528656,0.05208811892315925,-0.003867082203601356,0.041692,0.038746991984310926
1.17,-9.912104168018457,0.077913685988464,0.1967053158754239,-0.003818,0.043304565702422054,0.038943
1.1725,-10.008743399842134,0.13885619909464578,0.4167047114393947,-0.004667098097462797,0.04257220660813521,0.03843309629641559
1.175,-10.110022290893617,0.2087092451063845,0.39074409582978276,-0.007469542808510718,0.03489303472340402,0.0369180687659574
1.1775,-9.992405772310375,0.2513895594990884,0.10139920556392279,-0.005792445893635586,0.030849,0.04057270766109215
1.18,-9.788580066570626,0.2153501829711881,-0.1650032496362722,-0.0022234131601323284,0.03315013402928661,0.042817452810581066
1.1825,-9.713055,0.183525,-0.236729,-0.001374,0.03561378635838157,0.04215
1.185,-10.049489551663495,0.10563945954110547,0.32091419338434624,-0.002555499120458944,0.03852695456978977,0.041059522715105115
1.1875,-10.046844820051414,0.10815294987146529,0.2143333708226221,-0.004317686375321337,0.03522356812339332,0.03918544794344473
1.19,-9.737003628646747,0.1803835799482218,-0.32614712166626686,-0.006884963878559581,0.03391850690515406,0.03990027970816656
1.1925000000000001,-9.74841214456459,0.22954964582065593,-0.26081563733245783,-0.00844615674328264,0.03543,0.039519949388151406
1.195,-9.83237238457498,0.22958871562558988,-0.09938205586914015,-0.008632733772683834,0.04370755014326674,0.03887499169532009
1.1975,-9.893955820364067,0.035021487487696554,0.12833012515624,-0.008203758083605102,0.050550881105247546,0.042108639188852645
1.2,-9.752717327352508,0.07516270522383563,-0.07758060609546033,-0.009153165466943357,0.04779716447079756,0.04030432993774091
1.2025000000000001,-9.769771200342106,0.11754589593029102,-0.018082599315788456,-0.00601404772631893,0.04178902456027072,0.03987903690172665
1.205,-10.059662304547583,0.1219654968678819,0.4758328772817667,-0.0012616682747641729,0.037874,0.040488496162605636
1.2075,-10.154292178121564,0.12129129612690445,0.603713214590858,-0.0016016217150934668,0.04214460282707716,0.037927737242029184
1.21,-9.897525334022037,0.1646201570430048,-0.11915931680606316,-0.008166537239663584,0.03685171430873123,0.03843734207321403
1.2125000000000001,-9.835518231394381,0.1341728193342005,-0.292559451652657,-0.005605656509892056,0.034006360289065125,0.041283317213600436
1.215,-10.25687131771117,0.21288436722978754,0.3644597801453317,-0.00343184692098106,0.050396,0.03847467355131709
1.2175,-10.156241449759918,0.12278165668789781,0.43747237336599093,-0.006493365448309649,0.048922826643802,0.04095259844194023
1.22,-9.839519865281728,0.0974438528662423,-0.1360809740519292,-0.006199240137187656,0.04303839383635479,0.04105085427731504
1.2225,-9.72157188388979,0.17347494527066065,-0.25993750048622605,-0.005299082658022728,0.03970387605834691,0.03838206090113464
1.225,-9.899707037700074,0.2849005651215211,-0.020202250788367765,-0.0024796582335505266,0.038637,0.038557563224659294
1.2275,-10.007172,0.314443,0.093257,-0.001222,0.042642579303736904,0.039706
1.23,-9.979822870353155,0.23572112970608447,0.28765857274549744,-0.004809652854864384,0.04847231668717244,0.044238325190248284
1.2325,-9.940045776978371,0.13821076886323183,0.24053568912018913,-0.008354122774434812,0.04392849206049791,0.04570787722556519
1.235,-9.989869210703029,0.09678653602845241,0.07504963632483357,-0.007099315741552882,0.03192467591701188,0.04397492451926491
1.2375,-10.017709065723473,0.1417980236012874,0.027406566623793666,-0.005440859710610923,0.03126221749196151,0.04279971942122185
1.24,-9.921582043522728,0.10651612289772774,0.017538699119318147,-0.005192,0.04237043127840903,0.0443591265056818
1.2425,-9.965404783022667,0.08850060993072977,0.15927508413727476,-0.00689535338790926,0.04458994803526457,0.041027572323677736
1.245,-10.120839617430175,0.20170546726257826,0.28747968223463943,-0.003818728491619747,0.03799967083798842,0.040497057206704136
1.2475,-9.949435853810888,0.20117313404966683,-0.0405515014708672,-0.005234404331423106,0.046578,0.04007910316618915
1.25,-9.882082121776504,0.25393368266475647,0.05075072492836677,-0.004851954512893983,0.046578,0.0418949573782235
1.2525,-9.829606428859009,0.16043909067233175,0.057092563686404696,-0.004298905804828196,0.045968411933632165,0.04410984056931661
1.2550000000000001,-9.906206924071604,0.11937276262998088,0.16781959432608068,-0.0073312579374166156,0.03990775505174669,0.04348951082430275
1.2575,-9.74900497499153,0.14674474165981283,-0.25901649220421097,-0.007353308957173779,0.045001598499878975,0.04215055909992738
1.26,-9.75961481828379,0.21260872355277446,-0.20662430413767807,-0.0006419926970754686,0.043219,0.041218919239378995
1.2625,-10.05702552651042,0.27536143144506015,0.6015892862089263,-0.0019931467436109006,0.043110673607348965,0.043023580591214194
1.2650000000000001,-10.180681176059363,0.23918796755152336,0.6480984665457566,-0.0009558085737839551,0.042733403594394044,0.045003785061830275
1.2675,-10.144894079899858,0.1845098976547883,0.41848327168133426,-0.0030006662130628225,0.04045742558719648,0.044992918496133016
1.27,-10.029720880876212,0.12061843552058607,0.05138651278823114,-0.006580140635701219,0.03723608611203002,0.04399070315883588
1.2725,-9.81517783974606,0.18940566687985222,-0.2261710157630005,-0.005110569809546232,0.03471498121796363,0.045924278485774676
1.2750000000000001,-10.10730175266802,0.15264925129588924,0.458814889855789,-0.0026497944177317602,0.039815143708220924,0.04678479441773176
1.2775,-10.201405667468677,0.13513792779394385,0.5026916132347607,-0.004663953802817029,0.04324483707415781,0.04508285626955097
1.28,-9.881491811388614,0.2632979582352977,-0.010998975882361706,-0.0043824782835100735,0.04441236452266149,0.04481407694310512
1.2825,-9.717096510068748,0.32833748499407406,-0.17863980542394442,-0.004656180918214118,0.0401908265001976,0.047419776066376894
1.285,-9.98347706254957,0.09660528593484388,0.37301440403682856,-0.008037580368271973,0.0413271148441926,0.048875519759206947
1.2875,-10.041659824498156,0.09647797031767955,0.27196310919282995,-0.008114450201941103,0.04250364853818802,0.04560578763035746
1.29,-9.856507054291395,0.07267278571583545,0.027862783010425107,-0.009755358813671733,0.04424126709506302,0.045412999831213455
1.2925,-9.713599126259101,0.14304697558042975,-0.26237491826849096,-0.007119172414872829,0.04065477197651667,0.04322257285322899
1.295,-9.858235638733087,0.2517317582117158,-0.05657290263371578,-0.004216263379217971,0.03695426459252044,0.04303347324156406
1.2975,-10.065706701404858,0.2946985491060032,0.37768931549171064,-0.0018259662835247944,0.04482878384418947,0.045549907681992435
1.3,-9.940318989162321,0.2544948774727859,0.25704553738759117,-0.00308497345007108,0.049186771225745336,0.04935861060104126
1.3025,-9.744848605948784,0.1340470246349615,-0.08411761926514938,-0.008275729403531077,0.04444662969301736,0.047700732451089564
1.305,-9.879713966529925,0.08067886277178368,0.04062199054414875,-0.006789504080616677,0.04120917011499706,0.046184582653230555
1.3075,-9.962480816854232,0.07369744963144105,0.2202473081808874,-0.0025607649467286374,0.040928,0.04746813506747697
1.31,-9.939023,0.063965,0.242707,-0.001222,0.042689991335882645,0.048106
1.3125,-9.869184739804437,0.27023997615072737,0.0922301278321011,-0.003153236584784164,0.0459761772000954,0.05077251562127355
1.315,-9.791245920729656,0.2911652569130075,-0.11523171971935947,-0.006876305855940032,0.04074023072029962,0.05321921999999997
1.3175000000000001,-9.949644402583377,0.19575496321124358,0.0548114713159073,-0.008866069963295628,0.0445630476126518,0.05086148717844574
1.32,-10.027572141338101,0.10142209708765283,0.17805500024328932,-0.0056960305688728025,0.050091,0.05137550670483018
1.3225,-9.853914286334351,0.05186925867387762,-0.019805612602868214,-0.002398798316482486,0.05357267835410299,0.05080637438043733
1.325,-9.794959931366096,0.15430389120620558,0.07894371784622442,-0.0032456966376675136,0.05545508553961906,0.048170757770985236
1.3275000000000001,-9.899857394493809,0.18550189227436817,0.31774506099514926,-0.004029337115052619,0.05372095755140463,0.0500127458044265
1.33,-9.91825534423892,0.1462399815886537,0.08899831402683056,-0.0038614334998117363,0.04606327242062959,0.04933472188731317
1.3325,-9.947571022811578,0.23510964167450873,0.012690863969382071,-0.005144845938920358,0.044359887932381804,0.047012037355872734
1.335,-9.721940785701163,0.09940072872054906,-0.017187614790337598,-0.0051090428249329495,0.05672288848195655,0.05168459150372803
1.3375000000000001,-9.795598793331349,0.07808833552042832,0.024315104598868903,-0.0013838303847298937,0.05003677011631339,0.049391671959439186
1.34,-9.98321233405229,0.1425915612659759,0.2584398504981966,-0.0029585839034113053,0.046731,0.04455680434181198
1.3425,-10.075322,0.188307,0.38857,-0.00504,0.046731,0.042302
1.345,-9.651645310424904,0.3210837646733575,-0.4715530153711195,-0.000491115677624809,0.04962200910872044,0.04870979201634714
1.3475,-9.765793196735377,0.3459479789170014,-0.15020376382475936,-0.0050140016395214615,0.053568269648416246,0.04861337268345454
1.35,-9.990820001012224,0.3243552550995684,0.3824941872813559,-0.006986617449664404,0.05404152683463516,0.05174451050720674
1.3525,-10.123738203127614,0.25798069577186733,0.48404883603946725,-0.00796729356079615,0.05284,0.05388120682722863
1.355,-10.126732,0.224773,0.329986,-0.00901,0.050883303021060304,0.053603
1.3575,-9.997990316191677,0.09534991416203181,0.11609697945887473,-0.007009093705591801,0.05328727476433206,0.05325546217551566
1.36,-9.891734195741389,0.08573387211118547,-0.04832210236616338,-0.0013461991927489047,0.05235617474803595,0.05151642823444096
1.3625,-9.997786311582463,0.21263905681601702,0.1381105209723595,-0.0015122565776931158,0.051687853908484314,0.04967435943755956
1.365,-10.096821955662067,0.32447064468167475,0.27044381022512715,-0.003098685383684342,0.05705241241345918,0.04864425083999032
1.3675,-10.106407,0.361669,0.265423,-0.002749,0.0566278244144717,0.048411
1.37,-9.982325050653545,0.17591994107685183,0.0075423599520105244,-0.0065683007938605025,0.05900700635088178,0.04564202255426286
1.3725,-10.119361991321295,0.17060799373268642,0.36269174481704464,-0.007983479652240312,0.06123683715677842,0.0466122882506927
1.375,-10.106785991688163,0.3005629953186204,0.38994049536638964,-0.005076278398777109,0.05970710031527658,0.04875412018725518
1.3775,-10.019875605908153,0.3544119227325204,0.30629350657743626,-0.004291515993537878,0.058643,0.05035633404108007
1.3800000000000001,-9.827743399856766,0.3109614748388708,-0.20925549643169106,-0.008398435688356779,0.050705257246572884,0.05045432626744042
1.3825,-9.962014104396477,0.3231605795335644,-0.24074389459186263,-0.006950694242042137,0.04741741661834232,0.05173144433343843
1.385,-9.934355003280801,0.19482580689111656,-0.019830841246417666,-0.004282517564469909,0.059828916776504384,0.05467492648997136
1.3875,-9.858429940770097,0.2438835004436028,0.132292329390195,-0.0056218957591529966,0.06747723868220273,0.05342325602413202
1.3900000000000001,-9.787244363122962,0.26835358152244754,0.042939786467139335,-0.006568944645413189,0.06217326875731919,0.053328365074821076
1.3925,-9.850250191904184,0.318902593602218,-0.05580877215025144,-0.00562987304163606,0.053732610100219715,0.054362929239794716
1.395,-9.91061120242668,0.35462325008041634,-0.07618952105960222,-0.002032130312204314,0.0538866677246926,0.058122265458845836
1.3975,-9.83350149258467,0.23977181417746196,-0.035892544319846,-0.003990510259834214,0.059980718577749115,0.058777845650390174
1.4000000000000001,-9.87717593800285,0.1935648976810258,0.005779110269761325,-0.008179318551822235,0.05921358835778484,0.058032
1.4025,-10.050410058087618,0.20231205179462977,0.12537448205370233,-0.009520896919453618,0.05587413607159672,0.05570654865755995
1.405,-10.00686626419433,0.1235611389473669,0.10456978782186031,-0.007197458979757029,0.05540832673684212,0.05535027051012149
1.4075,-9.918843939381276,0.19004000041792327,0.09963878821320618,-0.004091591811280734,0.05905784297118598,0.05400291879520042
1.41,-9.834200896050527,0.28146544617925623,0.003770809910137507,-0.003054,0.05698150132620868,0.05463602667962094
1.4125,-9.881926703679145,0.29890903202273866,-0.10660919062056061,-0.003054,0.04688720833728053,0.055894
1.415,-10.068691558974844,0.3376048335480845,0.013165867509996904,-0.008247069776628407,0.05025014372913261,0.05339412283094279
1.4175,-9.84272167775809,0.1030161652094258,-0.14147398316398485,-0.006558688022660162,0.06246847679623944,0.0572274743060327
1.42,-9.866142592428131,0.08223865041161994,-0.1342964226215876,-0.005979200171156529,0.054265279631170005,0.05269204975833196
1.4225,-10.128942612459452,0.21580929511267993,0.09362856090627195,-0.005471730746522418,0.05543154371621236,0.04910483992710933
1.425,-10.073732344080666,0.2934834078357543,0.023569569762496467,-0.003234199623397883,0.06185178673388823,0.05046659385288224
1.4275,-9.963644497392544,0.3638726032581332,0.09934663854666301,-0.0019617791308477826,0.06341127581097127,0.05275766260745665
1.43,-9.957632154604445,0.37673801856847833,0.4151790844282294,-0.004107604705310362,0.0658049548426296,0.05763429515615489
1.4325,-9.941068788587454,0.2787244928461188,0.19791671879701866,-0.006493366295286385,0.05154168004674625,0.059016288377093856
1.435,-9.932359535848416,0.254663784321634,-0.10452768185594816,-0.008542715549617452,0.040775,0.05571888309972051
1.4375,-9.844270484157953,0.2770897009520837,-0.36145741064460746,-0.0051102544092398935,0.04847049492742313,0.05728281130014047
1.44,-9.784485148781012,0.18133483096728215,-0.2594599540788797,-0.005172098899676245,0.056184418962003976,0.05595620157257597
1.4425000000000001,-9.879582881966106,0.28270306759323094,0.005315793685237047,-0.008468818915254334,0.060642484571428776,0.05095819453753008
1.445,-10.036008375457826,0.36532824558745036,0.11838992203847037,-0.0048841496584788755,0.05861013283456647,0.05810776178514348
1.4475,-9.958094120419059,0.30373875795205657,0.016730494354542394,-0.006306042298905006,0.05974777107546612,0.055927443650784246
1.45,-9.947438811700355,0.2829140564090365,0.19083439493459353,-0.009096054458977333,0.06229974751486319,0.05491930694411414
1.4525000000000001,-9.699903,0.133907,-0.082496,-0.009316,0.057139212734635875,0.05681
1.455,-9.699903,0.133907,-0.082496,-0.009316,0.04698765286846247,0.05681
1.4575,-9.779133860153488,0.19522514186853587,-0.18652979470136916,-0.009932010804137477,0.048980507300634024,0.05311393517517514
1.46,-9.801892589072375,0.3120558868637425,-0.22057328725790126,-0.007673201907350851,0.05944461808585326,0.05226652227885373
1.4625000000000001,-9.8203311326355,0.44325376524773885,-0.1066078855547733,-0.005956,0.06327919199813908,0.05370180800186092
1.465,-9.943576421962149,0.5044761227662989,0.06440087464555955,-0.008065023184461367,0.062105244488432444,0.05698477869602892
1.4675,-10.041058574911512,0.28169534910861804,0.11353014990095757,-0.010845363416139004,0.0607798182919305,0.05951628177950967
1.47,-10.194064817572569,0.1792643306651416,0.32183298621713796,-0.008113829366857221,0.059685035460571446,0.05898272715885716
1.4725,-10.128024335545469,0.1593715027004736,0.3667983756082305,-0.00547517723676605,0.06144776245106935,0.057788432699644926
1.475,-9.747917695658277,0.13221385172494837,-0.2848283148557076,-0.007543984651490414,0.05829219732457136,0.05554824599859176
1.4775,-9.7821503294886,0.32244622204081996,-0.4093125569459739,-0.0069848348043216905,0.052046546420168,0.053181857978391325
1.48,-10.008977390502107,0.39706212380493755,0.020583732474409144,-0.0021496776447923432,0.058483104905478506,0.05796688912703183
1.4825,-10.087065666049758,0.3278590661929304,0.30501736633783866,-0.0030404502872107093,0.0665172199109558,0.0602432600296814
1.485,-9.93287811615146,0.2560855602058004,0.263462010220203,-0.009995134735542635,0.06708957873224937,0.05664773619674811
1.4875,-9.745861834529535,0.1913419815127366,-0.1334571172805514,-0.010136661834529473,0.05905554581591589,0.05591864151746985
1.49,-9.765454104884169,0.18506481908301142,-0.2714344367567576,-0.0071246059749034835,0.04877527671814675,0.0554762918918919
1.4925,-10.031464678640438,0.3920300608344979,0.07946380553329169,-0.005051380415423105,0.059758224737771655,0.05288140714137776
1.495,-9.876443795526582,0.50886737177804,-0.042337586954990875,-0.0023202413668756833,0.06658671107266886,0.055807992529694955
1.4975,-9.639806407595662,0.5085476483658233,-0.2539835222719668,-0.004626652332130057,0.05954561263056531,0.06075983147051758
1.5,-9.825626103581461,0.395240387991573,0.01746965390917604,-0.009940737242509365,0.053451,0.06392052797284645
1.5025,-10.006391738156456,0.18509415821828173,0.191976663996197,-0.01032562101291912,0.057214279911230764,0.06485798285804864
1.5050000000000001,-9.956433413631657,0.11311426107542773,0.011012319889316335,-0.007669799360038343,0.05570067041501225,0.061682511358113465
1.5075,-9.926469,0.136298,-0.074725,-0.00672,0.05489092642017597,0.059559
1.51,-9.858894649911289,0.17470154391542136,-0.22353657072791455,-0.007851623439057003,0.05236798842629721,0.059653507852716
1.5125,-9.994246813465246,0.21964631486486433,-0.07211037905406026,-0.006478530115830169,0.05054206235521234,0.058629804584942116
1.5150000000000001,-10.08391628603071,0.2563844258939602,0.06395422710458151,-0.005963211088443089,0.06248854797892726,0.05741769675148521
1.5175,-9.993132826562935,0.25073932070950594,0.015692307316009436,-0.007118079022872282,0.06965599242570406,0.05794279897930609
1.52,-9.889098054988848,0.2205045908096051,-0.024620847163529143,-0.007948521194958775,0.06899142115242986,0.05918873415694208
1.5225,-10.130768712210761,0.3221888492783507,0.26940102428406904,-0.0074932210309278935,0.06394796847651775,0.059020515486827026
1.5250000000000001,-10.06974682630069,0.22658901181383312,0.17746099374697494,-0.004428533651551201,0.064141,0.05794857892601417
1.5275,-9.809419266363422,0.3332988356481054,-0.19443278700884248,-0.0020721022328082195,0.0590770961290816,0.057116
1.53,-9.564936836626861,0.4363674140298504,-0.4660773845373171,-0.0038420017014926073,0.05770862904477617,0.05720945788059702
1.5325,-9.628041593890698,0.48140545041444516,-0.5181737217118774,-0.0077693604168323615,0.05424914455811001,0.059324314816641445
1.5350000000000001,-9.888845484740514,0.39398603845120383,-0.1834108095656954,-0.008783928322937465,0.06595606763328406,0.062297286708250146
1.5375,-10.027736932888892,0.35334747355555746,0.13486792955556254,-0.005472092222222065,0.075289,0.06410489133333339
1.54,-9.97790335956355,0.227363930767262,0.15958840782356137,-0.007129789636680322,0.07465043412188041,0.06529917151015673
1.5425,-10.04515941409328,0.2038117030199879,0.17412658450349133,-0.009601632855422657,0.06751007377057083,0.06102253646624393
1.545,-10.218712869145032,0.2609707103407556,0.23071000691351914,-0.0074774112732194555,0.062308,0.059032960998892756
1.5475,-10.05170675752586,0.23765916148255,0.019912503354982097,-0.0029965625607699755,0.06221773358363417,0.05974541917689529
1.55,-9.945203867607622,0.2853512155728085,0.04257292034815918,-0.005342017689955462,0.06507809823570936,0.05800067518230999
1.5525,-9.887434799917298,0.2929554621996025,-0.1261027825176925,-0.009020678543141147,0.06376832577335986,0.059004995683499
1.555,-9.982401332747559,0.2817186987508901,-0.1500596893422069,-0.007555862935169902,0.06950751963904023,0.059744630073616745
1.5575,-10.075978015191435,0.35399222323088,0.06516214773284765,-0.003916508663431026,0.074067,0.05871212529389103
1.56,-9.962463202573561,0.4468288548628448,-0.03909008919701648,-0.0014867044189525887,0.07090373839401481,0.06311632500748153
1.5625,-9.920101567636788,0.5082494784633295,0.012377066899495553,-0.0037701538998835857,0.0642566772991851,0.06453643050058208
1.565,-10.082100740236447,0.523494231793104,0.1444046195615764,-0.006362320310344802,0.06450715897044318,0.06601916176847278
1.5675000000000001,-10.008841047260768,0.35100766150664076,-0.07952115775927107,-0.005196823494149603,0.0645609534444621,0.0701350465555379
1.57,-9.856990126537724,0.14158340282712056,-0.26105781405444245,-0.004997359479465182,0.06515290898280814,0.0666300431805155
1.5725,-9.896681669618053,0.1012346264923053,-0.0679843236902948,-0.003958732011801284,0.06579814889083806,0.06232457821226377
1.575,-9.974515113024705,0.27510966864955055,0.026290281170546152,-0.0018178378508035876,0.0647712281602303,0.06001227459822504
1.5775000000000001,-9.999258106754597,0.46955992860269163,-0.05342421314920069,-0.0018464107874932546,0.064446,0.06103786393358691
1.58,-9.782421652770138,0.3901880951776971,-0.3418886945985308,-0.010292295017350604,0.06903699704678713,0.06463444648079451
1.5825,-9.94106315876511,0.45169485061625025,-0.011855138978099866,-0.006077037063539518,0.06913235635754458,0.06338850180208208
1.585,-9.990352084548496,0.26550276054945676,0.1343045528428099,-0.007129006063067278,0.07061579914476825,0.0658287457095078
1.5875000000000001,-10.06930929448795,0.2789283549953131,0.15690940137801698,-0.007602080660820438,0.0647823746006885,0.06386896464140279
1.59,-10.05389698666338,0.3203422680413344,0.05334682019192066,-0.008664668503937146,0.0648226147588586,0.06375653289370097
1.5925,-9.890972769199779,0.3926315252561194,-0.14347153023526815,-0.007336956764497561,0.06727033063813045,0.06545188836572509
1.595,-9.756267017096945,0.44115110645938926,-0.28547025130480225,-0.0045253724506550425,0.06612572765065504,0.06829413082270737
1.5975000000000001,-9.753720100308815,0.4066589987179216,-0.2960748932807926,-0.005913744649132507,0.06237963734639509,0.0704506334320092
1.6,-9.891243894750446,0.24523492199646543,-0.21397300497944718,-0.00814842212566054,0.06287463802701143,0.06768734971227237
1.6025,-9.887511102173596,0.10823385102844557,-0.1416731803063444,-0.00655005111597372,0.06656728799416488,0.06381344105032817
1.605,-9.91727373344732,0.32659161808067094,0.04534736853461575,-0.004799662632149321,0.07251768683925339,0.05989072991210117
1.6075,-9.931447966076345,0.3166095120096175,0.014917010180944896,-0.005676281627892981,0.06438986086203799,0.06106932281815454
1.61,-9.978550995938686,0.34298685574030763,-0.023895114885483938,-0.006253676046889112,0.0602503967249773,0.059528763909828614
1.6125,-9.976024786809743,0.44039278132686055,-0.0892890596381309,-0.003786434260202019,0.06118513602255821,0.061547620255345874
1.615,-9.828023236918577,0.3941611642320827,-0.2393526273427588,-0.0027733955533885855,0.06616048965382738,0.06440694816187226
1.6175,-9.800528867727083,0.5332872038260668,-0.2723345110320623,-0.007636,0.06491489744572011,0.06314680475878884
1.62,-9.84900188342395,0.5135244996537972,-0.27345288398310635,-0.007636,0.06291455051097487,0.06543282643507238
1.6225,-9.861600290379869,0.3895723511844811,-0.28989348210931287,-0.004864102247154908,0.06436496594967149,0.06737786256771923
1.625,-9.884582829196722,0.3620032165301381,-0.09932391551534417,-0.005878333781635896,0.06978944504218121,0.06608096539919306
1.6275,-9.849424150304356,0.4070886701513965,-0.07576086848134601,-0.006574860424535691,0.07356388912439514,0.06581273429686278
1.6300000000000001,-9.810723641494283,0.3452677867559489,-0.2482574310343514,-0.006702855309251153,0.06303223747665203,0.06746048887400874
1.6325,-10.016171860861093,0.3828231290032315,-0.036182088166808235,-0.007831190834654948,0.06397272238237887,0.06586160294390599
1.635,-9.996431791458406,0.2614232335750313,-0.0544127866807471,-0.009892710402440465,0.07013970135398338,0.0671105462161211
1.6375,-9.749561700000005,0.21456555866161092,-0.469570172737753,-0.006781304796439861,0.0731301676116697,0.066340641552662
1.6400000000000001,-9.819781994385982,0.37050299633322914,-0.28249941126985695,-0.004754579268037717,0.07435898835366578,0.06167021135819652
1.6425,-9.921570820556814,0.4680360693752034,-0.1397462358756916,-0.002630303632243341,0.0747402362317902,0.06334150234380073
1.645,-10.081156601303483,0.5042310037228932,0.05227753910679045,-0.002995636685031091,0.06981751271832136,0.06418235994842338
1.6475,-9.970109,0.668938,0.101626,-0.00733,0.08013966238599059,0.065057
1.6500000000000001,-9.970109,0.668938,0.101626,-0.00733,0.07439500121610086,0.065057
1.6525,-9.954092782672447,0.4572471609764909,-0.05087490113013063,-0.009376073365275015,0.06670836233325701,0.06292239741425194
1.655,-10.203544643980106,0.41327794109452975,0.3300420071641901,-0.008312623482587008,0.07427742646766196,0.06616027184079613
1.6575,-10.067905037859893,0.3420510646677669,0.13573313260218778,-0.005498535884521868,0.08081742707774378,0.06942414584451244
1.6600000000000001,-9.81199640424068,0.36176073104108175,-0.36640126676219825,-0.008211133314231539,0.0701373837631316,0.0637088725501426
1.6625,-9.797805200567288,0.43686432373148515,-0.308993236936645,-0.011764073621178772,0.07096347765521621,0.06383803485660276
1.665,-9.998570801272576,0.49294074985382763,-0.06379524863284233,-0.004798880825451192,0.07123318263112628,0.06994630180567508
1.6675,-10.127787983699871,0.43648569521345487,0.1055426660284596,-0.004093362380336316,0.07605632108667522,0.07006719751617078
1.67,-10.06490810421511,0.3392477550652455,0.043842903765923286,-0.00605920265717679,0.07854202420245172,0.06824174193119814
1.6725,-9.905562450360263,0.2596376284354063,-0.20269218312918796,-0.0034915510241891722,0.074373,0.06866233673185812
1.675,-9.93776617634409,0.3441533667244808,-0.17388051793270545,-0.0028138251127298643,0.07134715900104048,0.06865817488727013
1.6775,-9.978520514628615,0.43463669902660995,-0.18609171758426496,-0.006660218715001914,0.07406308858310835,0.06758734584805245
1.68,-9.973098,0.451937,-0.240316,-0.008705,0.07243488780048689,0.067653
1.6825,-10.076976831342428,0.5431312736327243,-0.05792745273455152,-0.008004189369687205,0.07428293273777098,0.06984260309863687
1.685,-10.046315922192502,0.40851770088422207,-0.11839399383689561,-0.007008044678954322,0.07457872512709296,0.07156624005782436
1.6875,-10.03283551765468,0.24161277939747328,-0.10954759669582118,-0.007901869128603823,0.07229690379008746,0.06825939423388402
1.69,-10.116455973552121,0.40881320569497265,0.017672286196909553,-0.0021296081660234336,0.07577539179536665,0.06668107835907333
1.6925000000000001,-10.024136839431002,0.43778054655918625,-0.16075992104316095,-0.0001698214256362501,0.07117798595226765,0.06602197897265681
1.695,-9.940810571903357,0.5206587644784976,-0.30411183957100835,-0.0050427515050090275,0.07518789787153839,0.06327692681673532
1.6975,-9.908718296357268,0.5316969081611206,-0.23690068798598912,-0.006538060280210155,0.079565,0.0669097523992995
1.7,-9.816180692516374,0.3867995544434087,-0.29724809777829364,-0.00698362362020577,0.07966239258652946,0.07145794999999995
1.7025000000000001,-9.99438557728193,0.4633183779448718,-0.11016740198882541,-0.008758222190961364,0.07570981799660413,0.0689556868073407
1.705,-10.142701370132459,0.4219714227077644,0.10114775913726637,-0.009031057775172865,0.07624397032000955,0.0704743741601221
1.7075,-9.95255983329704,0.35705401194161746,-0.19079727984852385,-0.007089416495463494,0.07705066631952662,0.07074516841656803
1.71,-9.786690035893137,0.4301385221325008,-0.3534951759242858,-0.00720684250628965,0.07732023501617344,0.06785013745776931
1.7125000000000001,-9.794511311991958,0.4726086631190818,-0.24213150119835167,-0.010592170166764635,0.077885,0.06755279254169116
1.715,-9.971843083547052,0.5548270396169059,-0.09546678852957186,-0.00535566867380243,0.07583706158422523,0.07092898010591565
1.7175,-9.992043376954314,0.365146329407783,-0.23373655035533153,-0.00759462686971237,0.0798899678172589,0.07062647248730963
1.72,-9.945954676338028,0.33077531469122456,-0.3552141356879754,-0.009014890184182032,0.08249313031419285,0.07022775986998919
1.7225000000000001,-9.969724039968703,0.29983746291320396,-0.224292978148542,-0.007376450737931771,0.08278219243529555,0.06830025830263622
1.725,-10.022676522162298,0.28338630625153216,-0.08224767759254176,-0.006567,0.0807398879627358,0.067348
1.7275,-10.14329798088601,0.5162202025802561,0.0853003410964569,-0.004522372391917611,0.083920237230652,0.0645927289790316
1.73,-10.066816259228178,0.7018157443986509,0.04424933245910023,-0.005535649346821494,0.087048,0.06853096197826893
1.7325,-9.958584696287993,0.6654975817739791,-0.08694680653879705,-0.007363872967837088,0.07874619564945419,0.07318310605370304
1.735,-9.89199749033933,0.5079092017869516,-0.2619219318028986,-0.008498154353496651,0.07600547974269685,0.07686874704278562
1.7375,-9.982871314320333,0.31895447118972253,-0.2915065713593402,-0.008858,0.07487116568936272,0.078038
1.74,-10.10106476806818,0.24181084821496196,-0.091566748726327,-0.0046707590909091205,0.08295714731534085,0.07242385705492428
1.7425,-9.984669956272079,0.33447822624820867,-0.05015042100476885,9.82889976141254e-06,0.08626595236515527,0.06986890433174234
1.745,-9.90874579642482,0.38796185866826005,-0.22743046255132016,-0.0030476835775657624,0.08053319467541742,0.06652484781622899
1.7475,-9.975378955238023,0.5736265065579222,-0.11694292796486047,-0.00528548981256376,0.07766201014508663,0.06437558415810521
1.75,-9.991657504274896,0.6002830717368293,-0.17283887729012296,-0.006952370409575768,0.07675344743913362,0.06704940460874521
1.7525,-9.874545638022562,0.4517338876745865,-0.4679693786753032,-0.007881564972402211,0.07899291463402912,0.07220165209503238
1.7550000000000001,-9.89757044318501,0.4557613545555964,-0.15974146715079146,-0.007690766991812024,0.08526715485463415,0.07052478307345421
1.7575,-9.942567992314777,0.43863974873717293,0.018241378556999855,-0.005977031694271575,0.08738812081441386,0.07151369498262913
1.76,-10.003153280779163,0.4740101927515587,-0.17044704539626115,-0.0040332817230632175,0.08155408980854849,0.0707598229741763
1.7625,-10.084997927950111,0.6299196429165301,-0.18040294007035743,-0.007056428173968567,0.077733,0.06844848213943079
1.7650000000000001,-10.004859034689213,0.6131944308446617,-0.3063573335932532,-0.005986255235993235,0.07811121645212704,0.07380800773813966
1.7675,-9.925430933371542,0.3640204707241813,-0.3641572852017634,-0.004102080666098693,0.07554774327937407,0.0767064107629153
1.77,-9.916788526667467,0.3002401059728409,-0.2487585145535382,-0.005794921677682991,0.07728110372791737,0.0729568711164523
1.7725,-9.974638081633802,0.40184816935211154,-0.13665690095774785,-0.006379320169014092,0.07935970146478874,0.06983851808450707
1.7750000000000001,-9.95542101169051,0.4213974179966018,-0.15049100586952013,-0.006735361920931433,0.078954,0.07028072384186286
1.7775,-9.909132,0.405308,-0.197274,-0.007178,0.07470984988601505,0.071166
1.78,-9.895547567958452,0.5540245206133335,-0.3867444147496025,-0.006904110676394207,0.07561092942253009,0.06952206604674165
1.7825,-9.985686230658093,0.7039446911328827,-0.15509120892120892,-0.004221029244545949,0.08520069723661278,0.0807936719682673
1.7850000000000001,-9.88547566438848,0.5065383957737732,-0.1810853569156815,-0.004028820770478984,0.08568216370935756,0.08348837175551431
1.7875,-10.008937563520908,0.5398113449196189,-0.017683217572338567,-0.006580601221865084,0.08411673289389059,0.078539372009646
1.79,-10.115973,0.604376,0.101626,-0.008399,0.08500566507239388,0.074526
1.7925,-9.867009533371919,0.46933894049674596,-0.380648777606297,-0.006353814220721827,0.08138953139779764,0.07871013714653159
1.795,-9.83556462659846,0.4318004581074143,-0.40809719191817356,-0.0049400452173913095,0.078343,0.07740699498721249
1.7975,-9.974809021704733,0.49001640091347876,-0.05986981042134651,-0.0022146989578641194,0.08405625774847249,0.07639496699260218
1.8,-9.807194770747733,0.4873482532926392,-0.21704522868882287,-0.001254573588449375,0.087812,0.07811739105528821
1.8025,-9.706256281681844,0.4796363355958508,-0.495578447294322,-0.006135765355926813,0.08008244098820179,0.07628446114815109
1.805,-9.765291073622484,0.5087232948388647,-0.5590463628689131,-0.00846664505936519,0.07711874420159912,0.07348462090622733
1.8075,-9.885651803213642,0.5074011490521655,-0.42482132554335955,-0.004609507107568259,0.08118619728513946,0.07898994817772903
1.81,-9.98103505997362,0.49270441374745155,-0.06866018356156683,-0.0034824349058640612,0.08943448731982279,0.07910503283846967
1.8125,-9.856513980958477,0.5437801411312905,-0.15642681894551563,-0.006620694215537244,0.09497903736298904,0.07937403000240019
1.815,-9.686758995144872,0.5060104647768215,-0.6352921986844141,-0.00853181315583399,0.079738186844166,0.0787312467658575
1.8175000000000001,-9.6240787714475,0.462965223029936,-0.7534779127594778,-0.00833916471296909,0.0799308352870309,0.07805602976447198
1.82,-9.799747380960454,0.41864245662997346,-0.512213495338077,-0.011378918654893096,0.08335736206604588,0.07510586671343884
1.8225,-9.91144242208196,0.4866025370136603,-0.15926933717380967,-0.011874689957607154,0.08967171984926993,0.07265568995760716
1.825,-9.900121897277852,0.5922116277731124,-0.05165861810768595,-0.01065063635927571,0.09030995970739905,0.07272556404844703
1.8275000000000001,-9.741022293135163,0.7039235637461723,-0.4762508255909696,-0.008472813956121596,0.08429855205472957,0.07433456385940088
1.83,-9.838645508637322,0.6909516724494013,-0.5027252636820663,-0.0077792276609837206,0.08440006485956109,0.07804302763154683
1.8325,-9.996995947917796,0.5129863939843861,-0.2725743099569849,-0.009402631754022636,0.086132,0.07891068412298868
1.835,-9.987271370636217,0.373170589475648,-0.2941394462083408,-0.0076334797669541585,0.0852328897506409,0.07839588073642507
1.8375000000000001,-10.062957135793912,0.48731705351484356,-0.06340031188828199,-0.004536942389390856,0.08981766670578563,0.07146927784297652
1.84,-9.911415691850717,0.4472248036850122,-0.1752180642835384,-0.0034091171294448643,0.08840865424245976,0.07785905707076654
1.8425,-9.892956164943639,0.4760464568615691,-0.2703301766701818,-0.004833862671316223,0.08316024469710478,0.07622271847863103
1.845,-9.935408398185254,0.49668927039697564,-0.3962040111153102,-0.008806194102079338,0.08039229852551984,0.07197150797731573
1.8475000000000001,-9.944378497290323,0.5667812053548411,-0.40872396638709324,-0.009339104193548197,0.0868526601935485,0.07161779941935488
1.85,-9.965347511732379,0.6090944415412202,-0.34693878663082217,-0.0059910523894861414,0.08866981609319002,0.07257429616487458
1.8525,-9.94390524067816,0.7165460364679294,-0.17730142504097277,-0.007780081361966664,0.09056541185080523,0.07524733992653297
1.855,-9.985529767199774,0.7590557341678438,-0.22911023485165266,-0.008232666792879342,0.08434402881604977,0.07943245888669112
1.8575,-9.93367261492678,0.6842108988598349,-0.35138635696129356,-0.008247,0.084147,0.0823025638284518
1.86,-9.78598562564899,0.5840993288383731,-0.6593445811413038,-0.0055135929608802784,0.08375642195956451,0.08222449215934909
1.8625,-9.77932846061846,0.5272413092926267,-0.6538922976001222,-0.004150275395389099,0.09161456076795992,0.0806797228420804
1.865,-9.946508726248284,0.6068136493325008,-0.16180463894697722,-0.0068755855470991716,0.10017941183281345,0.08137595978540237
1.8675,-10.045287744193496,0.5479266284466818,-0.026775842365318783,-0.010930686521124458,0.0975440736736298,0.082009
1.87,-10.084659588302332,0.49321161288439036,-0.22767630023547297,-0.012970560550977185,0.08864181903932138,0.07974689931245567
1.8725,-9.984791417363896,0.38244372080229255,-0.4261915469914028,-0.009915540372492794,0.09197096415472786,0.07886110358166189
1.875,-9.90284450191022,0.39741121680993313,-0.37006343696275074,-0.007908148280802291,0.09455171800382045,0.07905201552053485
1.8775,-9.933549500071992,0.6537795088133728,-0.1566626508766984,-0.004086435736684676,0.09398303734732483,0.07450787129766331
1.8800000000000001,-9.878096712059053,0.6763433085180902,-0.26068348838021344,-0.008286881112806004,0.09095457124763576,0.07607136330181204
1.8825,-9.849009607465321,0.6628010578058,-0.5118841538461615,-0.008560888827238305,0.08656485059268589,0.07732722184110974
1.885,-9.868615592466105,0.5681831657847802,-0.5486392704238419,-0.008040702103334556,0.08792851180163677,0.07808440420666911
1.8875,-9.886165826999141,0.5213008260454937,-0.4782890651137343,-0.00827599867114828,0.09714879334010769,0.07983137490815286
1.8900000000000001,-9.942166621182635,0.5408635651255227,-0.16274291806302738,-0.009850891607376703,0.10617575128138053,0.07842343012968446
1.8925,-9.870042627294152,0.5608114791226063,-0.14151342091668667,-0.011523611474873172,0.11024761668685552,0.07845010024226556
1.895,-9.938629675680904,0.5026430071739373,-0.2884233194428462,-0.009770012542880136,0.09586610928053393,0.08001106162771959
1.8975,-10.03685950263835,0.4541064209205024,-0.39952548822609757,-0.01161540706402457,0.09009226092681767,0.07771578160890508
1.9000000000000001,-9.969612039613756,0.5234687009903526,-0.4516889815300808,-0.010742588685317831,0.09388418447635576,0.07630031921267644
1.9025,-9.969227161240129,0.6976419365035932,-0.052137905142046526,-0.007850818215254058,0.10450910835789205,0.07642511024401757
1.905,-10.017997131863728,0.6259653454108209,0.019169712785571905,-0.008511508857715438,0.09809070581162319,0.08038987214428862
1.9075,-10.087568195743183,0.5500403335795963,-0.10844557899735924,-0.010787118698328903,0.08987334371152164,0.07946828844327179
1.9100000000000001,-10.00940548249563,0.519807315538516,-0.5168614548623551,-0.00810236769606089,0.08571275715580344,0.07794212142209828
1.9125,-9.7468608773886,0.556727355587326,-0.916953412723385,-0.005915534921769531,0.09420663459614052,0.07770883591454213
1.915,-9.875491575677593,0.6899098971873889,-0.41409993954947566,-0.006685295940582021,0.100335,0.07623489004261533
1.9175,-10.03467,0.754424,-0.023912,-0.007025,0.10568741769402741,0.075442
1.92,-9.922947025737633,0.6758032960307587,-0.2168423068332426,-0.011385366227774868,0.10260609487746312,0.07696135769341654
1.9225,-9.710186051533098,0.5578132592092512,-0.6992953781045952,-0.016797697778826826,0.09235772515991958,0.07877013837837835
1.925,-9.981607387934188,0.819184065318156,-0.3384300127852747,-0.008977135035678499,0.09886917805036277,0.08244239892669701
1.9275,-10.076611824058501,0.7271379281759749,-0.016083639101257208,-0.010015384197676471,0.10340247442118297,0.08621942446659195
1.93,-10.015344669724913,0.5676461999256562,-0.012993621204453049,-0.013598450334572338,0.10400153641635695,0.08584628963568784
1.9325,-9.782266057295832,0.48658183720237513,-0.5469451206685412,-0.017672389354455587,0.10040608452118796,0.08211149730534639
1.935,-9.588366255258023,0.42367523640427857,-0.9228868179500629,-0.010662231400713087,0.09276812762901285,0.08147924003804997
1.9375,-9.807609030588235,0.4853162266666667,-0.5001537819607844,-0.0055645537254901956,0.09481238039215686,0.08055793490196078
1.94,-10.156401004495123,0.5250677779710154,0.29496800121642097,-0.00875375454502242,0.10248809787597987,0.07783233971964844
1.9425000000000001,-9.905797974984205,0.43608724859936404,-0.14291583732496815,-0.015194423514195868,0.10278477359621437,0.0770823306119874
1.945,-9.589397005452142,0.6818322480722468,-1.166043873671271,-0.008715988402167335,0.089034,0.07454460742685137
1.9475,-9.777712669481035,0.7305149613871164,-0.7146896688886195,-0.007366286121613481,0.089034,0.07762973139554485
1.95,-9.867885,0.753826,-0.498565,-0.00672,0.09868628530120449,0.079107
1.9525000000000001,-9.951903058837066,0.5792141893418412,-0.10331519419805607,-0.007466112920127847,0.10416085525878598,0.08311987759744437
1.955,-9.575225224749204,0.3236286404848985,-0.6665642954885148,-0.0118144852579037,0.09263329013548784,0.08445047794627994
1.9575,-9.44061920496173,0.36341683318325185,-1.2669681740027035,-0.01123351822602429,0.07418799497523626,0.07577993908149475
1.96,-9.872064318632471,0.6271676741424462,-0.6648045455042837,-0.0065697492193732875,0.08551527432478612,0.07741239147578342
1.9625000000000001,-10.007172,0.7066,-0.460904,-0.005192,0.10402741884161425,0.078343
1.965,-10.116156994064923,0.6884696423811448,0.20862781365776878,-0.018516950183393728,0.10499678980829685,0.0775861367297763
1.9675,-9.908934254673866,0.5206831686248423,-0.26273849525550985,-0.0202277552305775,0.09340140252596581,0.07901191132530122
1.97,-9.748397962656343,0.621354098753956,-0.8804080246673625,-0.014151965124956147,0.08130481154992386,0.07952797051742344
1.9725000000000001,-9.777379027798448,0.721773079809913,-0.7918560515362292,-0.009109588693158475,0.08323745680950478,0.08268045626546525
1.975,-10.03707905903216,0.7364911781489547,-0.045949432124435585,-0.00942290149868442,0.09706720556000524,0.08481372579796362
1.9775,-10.043473332797916,0.6059904960071504,0.028975137782469684,-0.011463489299300958,0.09102764481547691,0.08828257387416688
1.98,-9.849335939895388,0.48566889923050127,-0.5848166205044689,-0.012716746437289315,0.082925,0.08304953436243181
1.9825000000000002,-9.8422830399279,0.6352612964088233,-0.7800420242432735,-0.010629282056587318,0.08345250802413987,0.08111147195548261
1.985,-9.907259462642639,0.6987059381104306,-0.581715063065078,-0.005095964601078779,0.09255918035128069,0.08755089002869972
1.9875,-9.977249870163373,0.5448366428202892,-0.26469742082388237,-0.0074419538966623774,0.10183246933479255,0.08824956598139601
1.99,-9.953251336022452,0.5162716000612317,-0.17878682669217932,-0.013592855461155746,0.10392726452863886,0.08270535871922442
1.9925,-9.934758504111496,0.8133064917073082,-0.4782797396515596,-0.011807859790940876,0.0971667372822302,0.08169529811846685
1.995,-9.881862230038452,0.8627765873509426,-0.7387511715920994,-0.007585738380423556,0.08694516335143751,0.0936995077463843
1.9975,-10.048259281828281,0.7143583235467107,-0.35508126365044645,-0.008758643615060744,0.09622858350643823,0.09291757092329284
2.0,-10.25497754183174,0.4510182428338383,0.18564468433931483,-0.00960968142624097,0.10759281158238172,0.0916649557212771
2.0025,-10.010430269647964,0.329796375185538,-0.19028680517600544,-0.010491654671741178,0.10439748149381563,0.08552179083729798
2.005,-9.826704354838707,0.511302903897139,-0.8419026176216908,-0.010899830548744206,0.08607558861564213,0.07636727800976117
2.0075,-9.849353,0.624103,-0.987566,-0.010843,0.0869444346692599,0.073304
2.0100000000000002,-9.883135166262369,0.8558634715930349,-0.5629335468985315,-0.006628360829261741,0.10027788669605754,0.08153286285237843
2.0125,-9.829731667729595,0.912061650370123,-0.26069191313755,-0.01028848510534508,0.10330205027251273,0.085827
2.015,-9.876127294866517,0.7564688279999896,-0.2885766230445035,-0.016283108580796467,0.09541319062295016,0.08769350338173319
2.0175,-9.82470137487079,0.6042057480740067,-0.6802189803888028,-0.01648593278476068,0.08639362048871865,0.08829802173784057
2.02,-9.767193070594214,0.6467356583952575,-0.8404441247924473,-0.012173855016337842,0.08537820243011017,0.08400785031102499
2.0225,-9.768530339927798,0.6453802258672119,-0.4782124264197206,-0.01233937639930933,0.1005801582483124,0.08469663777742892
2.025,-9.939976792531418,0.8188032594614069,-0.13436227245960056,-0.01178525565529611,0.09786940660682256,0.08408074886894078
2.0275,-9.961733960138838,0.6353658383818177,-0.2600301213452951,-0.015139318324356483,0.08991503833871978,0.0834099363351287
2.0300000000000002,-9.95703546202417,0.6559357585056989,-0.6164146608619796,-0.013539631815406513,0.08726334627273863,0.08209048904407257
2.0325,-9.892160756636269,0.7106065762338928,-0.8147578769527583,-0.009836860236605927,0.09565298698817051,0.08338561375631096
2.035,-9.981865821459483,0.8306481994182525,-0.3508535640014566,-0.008028182951814802,0.1030751083040346,0.08252945033008699
2.0375,-10.1024683910868,0.9170849551283086,-0.08177885869198218,-0.009694315565923997,0.10896114433271684,0.08562863537929392
2.04,-10.01485930390185,0.697073314120754,-0.3084035936685163,-0.015692178532595753,0.09905586946355509,0.09082645960067362
2.0425,-9.869938620878587,0.49606586289037413,-0.7028443596730816,-0.015980647402750514,0.09437187509312375,0.08718480300825152
2.045,-9.897238239653932,0.6061101353058862,-0.6537711508837115,-0.009336521586948747,0.09975937560746487,0.08358827666790263
2.0475,-9.941175766713748,0.7343823372359369,-0.38411890841178353,-0.007881572423320712,0.10189238509820092,0.0830774916377133
2.05,-9.942468716758595,0.79448451467601,-0.18765590584052122,-0.009449652724367125,0.10213994827568429,0.08266506651889276
2.0525,-9.918017289916872,0.7864746981654761,-0.6652688975964565,-0.017313173798577212,0.0979534574556341,0.08367993464919513
2.055,-9.824205248722299,0.7041857329618771,-0.8332840626212251,-0.014037662798530713,0.09684240050652178,0.08504628446751944
2.0575,-9.816731160347489,0.6751059506274134,-0.6174054137355149,-0.012661897258687285,0.10581908119691166,0.08416228104247095
2.06,-9.951448629368157,0.8362462993844786,-0.25479197796687986,-0.01477112464910243,0.11353297928654708,0.08279538121706691
2.0625,-9.821274987627714,0.7155710559546615,-0.5543165291347382,-0.01860364232120051,0.1080607037037037,0.08595552067369093
2.065,-9.827711546215394,0.6709516137543986,-0.9796622942224429,-0.020617,0.09718159183694036,0.08207904929038778
2.0675,-10.038370102503555,0.6314336824592559,-0.6427088848995313,-0.015129316686184842,0.10569877676847535,0.0817183512264597
2.07,-10.209607019641146,0.6795952431664153,0.22077446039171333,-0.010133095325436558,0.12362487206285971,0.08341161212149657
2.0725000000000002,-10.12874234368945,0.636590346269493,-0.03541527082446366,-0.014640607144365374,0.11489206748446032,0.08097001760056269
2.075,-9.962307459862782,0.7468589327717127,-0.701583103285672,-0.017515203851245716,0.10008511190275454,0.07774617166927399
2.0775,-9.851083872655293,0.8886208049855208,-1.1312046570132028,-0.014466157009977226,0.09477864954940465,0.08116618441905409
2.08,-9.881674417251745,0.8693119709002043,-0.6880527862855462,-0.011367307428850578,0.11264419223158761,0.08833923756198873
2.0825,-10.297049543490063,0.6721719097624812,0.29254925440135515,-0.01768539650024239,0.11914543338826945,0.08801881125545322
2.085,-10.258688587523025,0.5886136685991287,0.001994461265151959,-0.021178532011633493,0.11050980263693662,0.08666044026175475
2.0875,-10.137964513536305,0.5832233999999991,-0.557392827072576,-0.018073587259953363,0.09889645470726041,0.08429480983606567
2.09,-9.971657457063278,0.6567049837451,-0.8688035580118364,-0.01329602397451092,0.09737525857441912,0.08438829553390971
2.0925000000000002,-10.04076099027496,0.7774381000941208,-0.016377816804560505,-0.0109090290215511,0.11848081447609508,0.08717023238543496
2.095,-10.078802065211793,0.6916494143968226,-0.04316234916026962,-0.015371386138221801,0.108167782501857,0.08945141116175395
2.0975,-10.023115904536883,0.7158585491978894,-0.5406961503195058,-0.019976129772466364,0.09733424647207475,0.08405562665134404
2.1,-9.803613538767687,0.8068488680443976,-1.0460185929838097,-0.020243236407704895,0.09483400637836485,0.08445699675979115
2.1025,-9.793935790933336,0.8136047075692303,-0.7927993647589677,-0.014011468676922979,0.10740230646153867,0.09273523405128216
2.105,-10.001934959039998,0.7416833385890917,-0.2863470869090948,-0.0139772529454545,0.11264487285818184,0.09477059544727276
2.1075,-10.034796213580641,0.5922402767393774,-0.2545690775768144,-0.024156126569017344,0.111636,0.08808692143289308
2.11,-9.76837726563109,0.5657165046338198,-0.9435337709168787,-0.01978928237324796,0.1062609165336215,0.08713861661752341
2.1125,-9.586346839647584,0.5394315453744544,-1.0537802828194027,-0.0133364378854627,0.10335705198237886,0.08866747400881056
2.115,-9.90581917905273,0.7508752027239164,-0.2872398653343541,-0.012671227875135641,0.11237609559117903,0.08430889499337037
2.1175,-10.067294814482455,0.9158304890524434,-0.3249199756476202,-0.01377330447467786,0.099113,0.08901380099011097
2.12,-9.864421596449498,0.9334881695271209,-0.8339798994977742,-0.013869457982619123,0.099113,0.09045358979202883
2.1225,-9.724749512932062,0.7570180677489053,-1.0212964651670176,-0.013251646235275114,0.10482881800225934,0.09326328699693408
2.125,-9.958329374319256,0.5519582198959216,-0.3206567393198595,-0.008913450562749607,0.11805875626285853,0.09638244765823552
2.1275,-9.94419487274425,0.3969575916683839,-0.21175679659836344,-0.01145227183608879,0.11999363382960217,0.09449063382960217
2.13,-9.859916323136972,0.5579765658257858,-0.6430041499337207,-0.014929513056258226,0.11399592166245065,0.08402986156848642
2.1325,-9.786246496926951,0.8332644019952725,-1.0476800263409036,-0.011328735277298059,0.111941,0.08221826920974057
2.1350000000000002,-9.736967,0.93735,-1.218316,-0.008858,0.11214336802567458,0.083689
2.1375,-9.935224161015375,0.938067262676277,-0.48838728047626867,-0.010323110968348623,0.11765005850830514,0.08909245879034838
2.14,-10.064840047759036,0.9064051834313221,-0.24128596291086668,-0.014565802698795498,0.11146323968192676,0.09200652498313247
2.1425,-10.063366,0.888929,-0.371832,-0.016341,0.1038272406754701,0.09163
2.145,-10.025285767034058,0.772726072738882,-0.5857864722185459,-0.011526710799432292,0.10141703346736043,0.09503960162724698
2.1475,-10.06670796968772,0.7376523838936516,-0.16456704237867792,-0.010922858324549636,0.11834324274050151,0.09490914167545036
2.15,-9.92722491029558,0.7912952966502438,-0.07282258674874978,-0.014937011625615575,0.10775305088670106,0.09442097822660094
2.1525,-9.620447782531114,0.7444540515239598,-0.833189550536827,-0.019369190861086356,0.096211,0.0919977999743201
2.1550000000000002,-9.71378229614591,0.7699730800820632,-1.0471862373697702,-0.01432741737207852,0.09581089979259252,0.0922555010370374
2.1575,-9.909142394981776,0.7375432792893091,-0.5801599645371607,-0.009276612007137714,0.1044355552300421,0.09604883698657801
2.16,-10.077755233032427,0.9320190897623335,-0.1740805185594084,-0.008247,0.11504110133013254,0.098044
2.1625,-9.938241167866455,0.9292083266197211,-0.4912930642512666,-0.014604914025789428,0.10407003635788238,0.09778279398781742
2.165,-9.737710912927534,0.7724653763768106,-1.0244954142029055,-0.01687829689855065,0.093768,0.09693347620289854
2.1675,-9.91389753337428,0.6275760038567861,-0.8503897462862717,-0.013031769291198602,0.10102615973490657,0.09821917634526792
2.17,-10.064614752537846,0.700109705986402,-0.3189662858171584,-0.01135601215401121,0.11826607738228564,0.09423425081416169
2.1725,-9.948287763396415,0.843056735811731,-0.36101349506120306,-0.01411228390523116,0.1231705244013358,0.09123373486404834
2.1750000000000003,-9.654133234036523,0.881468901687764,-0.8995149772152715,-0.013917396624472134,0.11493789085794512,0.09049827440225021
2.1775,-9.7782862644835,0.8657117411918088,-0.7259787277038864,-0.007015429050292945,0.10898141744853097,0.09889399252309372
2.18,-9.927398924982198,0.81575576486868,-0.3516846402656284,-0.008465823070699844,0.12213055922236393,0.0996669873283826
2.1825,-9.910722847611181,0.7944110101285142,-0.3188717061640355,-0.010677811972895192,0.11904255413038359,0.09732802488667328
2.185,-9.751368062160713,0.7191348793396426,-0.7646478336198275,-0.018785937314882543,0.114537,0.09255591962126718
2.1875,-9.713935157198826,0.7268737683643487,-1.1746017791381,-0.014612081292850148,0.10503675538687561,0.08739967066601372
2.19,-9.923443671674825,0.8918717208031306,-0.5219004482076535,-0.011279437688540717,0.11758359370225242,0.08808584093046032
2.1925,-9.959332078653468,0.9688475242803941,-0.30967222942416056,-0.010385,0.12809629930138572,0.08827
2.195,-10.02929640891824,0.9782528700578048,-0.3013535065895935,-0.016763731239824636,0.12413911015217752,0.0899642077244306
2.1975000000000002,-9.937386405795797,0.9387912577805918,-0.754531747894794,-0.02052361908687386,0.1132780558402021,0.09342192002536495
2.2,-9.845766,0.916427,-1.053921,-0.020769,0.11066024992235413,0.095142
2.2025,-9.906433082550802,0.8567889383628805,-0.7395346852565612,-0.0150558483664114,0.11828699769348289,0.10039589783675941
2.205,-10.03811647055024,0.6946214853754714,-0.21872225640788467,-0.013833247511824076,0.12231206554850599,0.1025969895120542
2.2075,-9.950572949881241,0.6892902146412888,-0.5813210034553482,-0.018737242593134876,0.11068449934602236,0.09604997703269884
2.21,-9.856150596529384,0.7890895331883367,-0.9133449261638115,-0.014219040356316664,0.104305,0.09475800974548818
2.2125,-9.788492578784444,0.8318132680713126,-0.841087786110216,-0.011023282755267438,0.1134727009238245,0.09600343448946513
2.215,-9.781525536417766,0.9057502212854366,-0.6383952227410351,-0.01165515780718328,0.12186136005671053,0.09622878813799624
2.2175000000000002,-9.873345583579065,0.9351950526668878,-0.38638241923526195,-0.014364599290423625,0.12273215804866289,0.09731022120100721
2.22,-9.87978650368589,0.7626445182914806,-0.6767758692302803,-0.014777764021415526,0.10735100338845745,0.09870875280428311
2.2225,-9.762141161989135,0.7209502194476357,-1.005275010556308,-0.013835995508694632,0.10513858704854859,0.09712447248091893
2.225,-9.632697685001993,0.7104951459528558,-1.1289260375389563,-0.014293584450659235,0.11165265991210574,0.09588065727526966
2.2275,-9.619751635137106,0.7264601720893001,-0.9925422211501976,-0.013683005862654645,0.1170520759184664,0.09450592701286092
2.23,-9.849028747193316,0.7518742903961817,-0.6751969086062057,-0.016376402014319752,0.11553847128878285,0.08987202624821007
2.2325,-9.863301809488728,0.8464062872626191,-0.6681370127342008,-0.015101160793902956,0.1219494463480467,0.08845738467767544
2.235,-9.700609610198564,1.0036357586101396,-0.870099175338778,-0.011965024894421777,0.12646630013867002,0.08911691251812161
2.2375000000000003,-9.769381530429545,0.8908014290246635,-0.8394978109699326,-0.020067353955770962,0.11589950902735817,0.09501381804127192
2.24,-9.96909941781006,0.8393967474141248,-0.6423067401250084,-0.022974074009545185,0.1206352636445524,0.0964129061369901
2.2425,-9.84002635651005,0.6850921171140814,-0.6952170041610838,-0.01712455483221416,0.12817642315436298,0.09745572328859067
2.245,-9.711261,0.589431,-0.771162,-0.012523,0.13170128018566013,0.097891
2.2475,-9.667184530748946,0.8401598227614541,-1.0254398216818923,-0.019233706667484567,0.12495750592160956,0.09031317134515121
2.25,-9.882115918787953,0.8005573139912899,-0.7086171788014476,-0.02178713040544685,0.1266272006379194,0.09050998435870698
2.2525,-9.925895353344576,0.8275807410904993,-0.7003260816188849,-0.01720998801573933,0.1356330421135467,0.09265685430016858
2.255,-9.852302532366613,0.9739559371301715,-0.5966833113368474,-0.011878106521891587,0.14163158148744887,0.09495513824168118
2.2575,-9.821404872779258,0.9934804627671467,-0.5327743604555361,-0.016557408257813898,0.1403116151587111,0.09440028572813192
2.2600000000000002,-9.92283969333335,0.9412296425778637,-0.6894855163620143,-0.018494225434363777,0.13343248348850284,0.09729503406954414
2.2625,-10.03481485669405,0.8894946201419308,-0.6700839396379776,-0.014981668782393476,0.1316956739016029,0.10020609382026963
2.265,-10.11208117549476,0.7697830773677142,-0.4164620911461794,-0.011735407342412785,0.1311594073424128,0.09964649372062179
2.2675,-10.047953515827448,0.7940283394321598,-0.46491442048000575,-0.01546603314196096,0.13042,0.09640569534745089
2.27,-9.803718215119614,0.7981685441531094,-1.0029112313779964,-0.018479,0.12406472510047839,0.09292408756937796
2.2725,-9.754111315159154,0.9009147486983902,-1.0905550502111598,-0.017308893614875535,0.120493,0.09022579626221246
2.275,-9.76507397582713,0.9678551338542318,-0.9613269885972422,-0.013446271346600142,0.12688186255646397,0.09571698063728436
2.2775,-9.82122102676082,0.8431786103174539,-0.7475411036824156,-0.0171651254020054,0.12678446886133032,0.09727412599774536
2.2800000000000002,-9.715588800806968,0.7903628084352882,-1.0093901858494299,-0.02030096058861955,0.12687904166854566,0.0948034114092444
2.2825,-9.807623366317314,0.8325063812969674,-0.8297086929312948,-0.015469876755203955,0.12456816745632901,0.09371304365637709
2.285,-9.852553139886162,0.8266211198317197,-0.7632578603613094,-0.00822826556792837,0.12686834321207666,0.09537750671615959
2.2875,-9.846792926182967,0.8431869573040571,-0.8205679681145353,-0.009136024290221121,0.117723724763407,0.09423777757825746
2.29,-9.897369352176657,0.9759020486702277,-0.8179064527153602,-0.01758748069400643,0.1196670635646688,0.08724303012860946
2.2925,-9.909092186631486,1.0888807372031655,-0.8978977876165339,-0.014136237009674637,0.120188,0.09258452348284954
2.295,-9.857779008117763,1.0727744039575322,-0.9303584153378388,-0.009495353117760673,0.1248757520463318,0.10160701337837814
2.2975,-9.830362629049597,0.9292963044205983,-0.9129815124093088,-0.012298094241165652,0.12846935900963713,0.10228525616234437
2.3000000000000003,-9.838660398387294,0.8528265482248154,-0.8184291110602783,-0.017018996654230886,0.13027276565170315,0.09781823769406596
2.3025,-9.806181067276288,0.8631533786526563,-0.8212620544490682,-0.01721177290565433,0.12831175310171725,0.09680121019214188
2.305,-9.90590965252467,0.933444304497049,-0.599817202993066,-0.013498575917159398,0.12396615516765253,0.09872581722879703
2.3075,-9.92547344240592,0.9257380156138165,-0.6678356387168521,-0.016229894090068094,0.12115037772671182,0.096086448368291
2.31,-9.828980100236484,1.0442117785762608,-0.9900355746959544,-0.02141411176640937,0.11721520636100374,0.09243460318050187
2.3125,-9.758704466285806,1.136047621821693,-1.0132614621821694,-0.018007520518184744,0.11914299106855487,0.09833157104924364
2.315,-9.889873117512607,1.017773873823776,-0.6428072733309993,-0.01617741019359376,0.12514368576322876,0.10686394434354084
2.3175,-10.025618892896722,0.7850249566750729,-0.4763423771284637,-0.019537907204030064,0.12285986397984912,0.10630009279596993
2.32,-9.928745733017882,0.6449739048382458,-0.8529625868468865,-0.02098338989859976,0.11755667370352518,0.09811353661033397
2.3225000000000002,-9.84303953411314,0.7515470139982602,-0.9886966763647881,-0.0156899002664958,0.11400067656586584,0.0912672940237768
2.325,-9.882836421882661,0.8911168597457214,-0.7589467114895354,-0.012862977394144473,0.112552,0.08942760760527242
2.3275,-9.93592632026973,1.0721035283647853,-0.7661861919691816,-0.013134,0.11100057688367974,0.089644
2.33,-9.919731090535077,1.1728549040142688,-0.9715896250463805,-0.018798658416171534,0.11492559233293725,0.089644
2.3325,-9.907817051617858,1.1741607184130092,-0.9433576429601737,-0.021838,0.11898042147406461,0.089644
2.335,-10.025049603962138,0.8899861518008646,-0.7114811420199711,-0.017698545447945156,0.11495417224426309,0.09895854284454787
2.3375,-10.006821786106123,0.6197802839728107,-0.6986531667109437,-0.018800450386809227,0.111788,0.09605299767132965
2.34,-9.884731915877737,0.7585102886188164,-0.903436400758561,-0.01700962372551516,0.11675483929631883,0.08806239292326909
2.3425000000000002,-9.664257652509724,0.9633017929870665,-1.1270397258399822,-0.010176499145218546,0.11667864407112738,0.08915331224146028
2.345,-9.659379244143484,1.166170862302757,-0.9459935757908389,-0.011348371102736201,0.11891389078176354,0.09244722490942278
2.3475,-9.836432847276741,1.1852017827146073,-0.7440176992241678,-0.01596876456054783,0.11433830319930705,0.09538197076717303
2.35,-9.7782384286677,1.061759968612342,-1.069327342712746,-0.021026311349139726,0.109803,0.09765935879167176
2.3525,-9.570832283186526,0.9327171467940398,-1.4131693357707282,-0.02010241329663207,0.10886813776554402,0.09885146478626944
2.355,-9.800083358306276,0.9370291360621023,-0.7489137829781326,-0.01535878879322516,0.11912116031051503,0.09814048299223714
2.3575,-9.931329989585464,0.8464020327192683,-0.4201973061464625,-0.015650042661842143,0.124464,0.09979995635963179
2.36,-9.915709,0.768771,-0.449546,-0.016799,0.11210496740259858,0.101251
2.3625000000000003,-9.821464605813844,0.975674852820248,-1.0272886720621908,-0.01587664609794354,0.1098050193079535,0.09829910509538314
2.365,-9.835393374026236,1.205027028769412,-0.9435788505424512,-0.011298665242390812,0.11970113954529156,0.10284565635510748
2.3675,-9.8756851728475,0.995417804845023,-0.5152266793770912,-0.014535140840749127,0.11827002203436598,0.10601658870205585
2.37,-9.85477292372707,0.8668241591195923,-0.5837537071166721,-0.020943814908290795,0.115301,0.10077968873074056
2.3725,-9.770003008392772,0.909682615151611,-0.9543599123582165,-0.018030453366849827,0.11347202213668495,0.09816519700864101
2.375,-9.563783403765202,0.9041245978718428,-1.1779703382834426,-0.014102108746492049,0.11483893124415341,0.09998121375116932
2.3775,-9.682732492615871,0.8842074053311951,-0.9158613729430722,-0.011443328356054596,0.11511655935204494,0.09924423698797118
2.38,-9.906274298533402,0.8344269828141531,-0.5611959211409445,-0.0155902780864678,0.11651573423469942,0.09448142244581725
2.3825,-9.83260692492799,0.9949684507574803,-0.8204686946076587,-0.014479371740383464,0.11805,0.09289215206914075
2.3850000000000002,-9.737228120115512,1.1815770420700102,-0.913847623278244,-0.010996,0.11765539153979432,0.093462
2.3875,-9.622226510318077,1.0112979709605752,-1.0547450501187126,-0.01664451209052122,0.11367332527298585,0.09866255296724218
2.39,-9.679077807422049,0.8503593884936764,-1.0544015042408028,-0.022651083674894844,0.111025,0.09825183265021031
