time,acc_x_g,acc_y_g,acc_z_g,gyro_x_rad_s,gyro_y_rad_s,gyro_z_rad_s
1765408900.643845,0.133907,9.076398,-0.039455,0.007025,-0.002749,-1.004568
1765408900.644045,-4.360951,0.528455,9.188784,-0.008858,-0.005651,-0.001374
1765408900.644245,-4.337637,0.519488,9.137971,-0.008858,-0.004276,-0.003512
1765408900.644445,-4.306551,0.499761,9.063844,-0.008247,-0.004276,-0.001069
1765408900.644645,-4.244380,0.538020,8.992107,-0.007178,-0.003818,-0.000458
1765408900.644834,-4.305356,0.534433,9.079387,-0.008705,-0.006414,-0.001222
1765408900.645034,-4.368722,0.520086,9.192968,-0.008552,-0.011759,-0.001374
1765408900.645234,-4.273075,0.518890,9.081779,-0.007483,-0.006414,-0.000611
1765408900.645434,-4.159493,0.566714,9.037540,-0.003971,-0.004734,-0.002596
1765408900.645634,-4.159493,0.566714,9.037540,-0.003971,-0.009010,-0.002596
1765408900.645817,-4.117049,0.729316,9.270683,-0.009468,-0.002902,-0.003360
1765408900.646067,-3.898852,0.928981,8.974174,-0.012828,-0.002902,-0.001069
1765408900.646317,-3.769727,1.110115,9.008846,-0.011759,-0.001527,0.002749
1765408900.646567,-3.672883,1.132233,9.037540,-0.011301,0.000764,0.007789
1765408900.646817,-3.672883,1.132233,9.037540,-0.011301,0.000153,0.007789
1765408900.647017,-3.661525,1.345648,9.326876,-0.015882,0.012370,0.011606
1765408900.647217,-3.443328,1.587757,9.115254,-0.013744,0.012370,0.018479
1765408900.647417,-3.443328,1.587757,9.115254,-0.013744,0.013439,0.018479
1765408900.647617,-3.433763,1.578192,9.484695,-0.012065,0.020006,0.041539
1765408900.647811,-3.326159,1.741989,9.430893,-0.005040,0.016493,0.048411
1765408900.648061,-3.067312,1.902200,9.252151,0.001985,0.024893,0.056658
1765408900.648311,-2.779770,2.167623,9.173840,0.012675,0.031307,0.074067
1765408900.648561,-2.615973,2.177188,9.148731,0.019700,0.037721,0.093768
1765408900.648805,-2.691296,2.143113,9.422523,0.025351,0.052687,0.110567
1765408900.649055,-2.543041,2.134146,9.408176,0.032070,0.052687,0.123395
1765408900.649305,-2.344572,2.248924,9.210902,0.036652,0.064141,0.132405
1765408900.649555,-2.199904,2.337996,9.288019,0.035277,0.070097,0.147219
1765408900.649852,-2.158656,2.400765,9.270683,0.034361,0.070860,0.156687
1765408900.650052,-2.226207,2.574127,9.283834,0.031307,0.079565,0.164628
1765408900.650252,-2.323649,2.714012,9.681969,0.031307,0.096364,0.179289
1765408900.650452,-2.222620,2.665590,9.760879,0.034208,0.114843,0.195782
1765408900.650652,-1.899808,2.542444,9.375896,0.031612,0.115912,0.211359
1765408900.650854,-2.038498,2.417503,9.562408,0.026573,0.116370,0.218232
1765408900.651104,-1.765303,2.663797,9.236010,0.035125,0.138208,0.227395
1765408900.651354,-1.639765,2.821616,9.317311,0.033139,0.144317,0.239001
1765408900.651604,-1.606886,2.896341,9.481109,0.032529,0.162796,0.247706
1765408900.651823,-1.768292,2.983022,9.415350,0.033903,0.168904,0.263130
1765408900.652073,-1.504663,2.947154,9.208511,0.032681,0.183107,0.277944
1765408900.652323,-1.437111,2.987804,9.435676,0.027947,0.213956,0.285427
1765408900.652573,-1.439502,3.100789,9.317311,0.021533,0.213956,0.293063
1765408900.652808,-1.594333,3.094213,9.173840,0.016952,0.220370,0.307876
1765408900.653058,-1.340865,2.914873,9.134982,0.014355,0.243277,0.317497
1765408900.653308,-1.452654,3.241272,9.213294,0.022144,0.266185,0.322384
1765408900.653558,-1.602104,3.365614,9.594690,0.012981,0.280845,0.330784
1765408900.653796,-1.686992,3.385939,9.516378,0.002749,0.295811,0.346513
1765408900.654046,-0.979196,3.176709,8.432567,-0.003971,0.316734,0.366672
1765408900.654296,-1.173481,3.035031,8.974174,-0.009774,0.323606,0.370490
1765408900.654546,-1.426949,2.991989,9.298182,-0.005803,0.346361,0.365603
1765408900.654791,-1.504065,3.133070,9.123624,-0.012828,0.363923,0.369268
1765408900.655041,-1.007891,3.360832,8.683642,-0.027031,0.390496,0.375224
1765408900.655291,-0.966045,3.433763,8.220946,-0.029627,0.406684,0.382860
1765408900.655541,-1.587757,3.309421,9.227641,-0.040317,0.411265,0.401949
1765408900.655844,-1.791009,3.495934,9.434480,-0.047189,0.437380,0.408822
1765408900.656094,-1.257771,3.455882,8.461261,-0.061239,0.452804,0.404240
1765408900.656344,-1.380918,3.539574,8.912003,-0.076511,0.468686,0.409280
1765408900.656594,-1.505261,3.474414,8.991510,-0.087201,0.494343,0.427758
1765408900.656877,-1.988881,3.523433,9.179817,-0.093310,0.493274,0.445321
1765408900.657127,-2.313486,3.138450,9.405188,-0.107665,0.514196,0.453720
1765408900.657377,-2.831779,3.121712,9.331658,-0.122478,0.530689,0.454178
1765408900.657627,-2.663199,3.069105,9.130797,-0.127824,0.539394,0.447001
1765408900.657845,-2.724772,3.157580,9.154112,-0.140041,0.569937,0.448375
1765408900.658095,-1.802965,2.983620,8.224533,-0.140194,0.570395,0.465937
1765408900.658345,-1.651124,2.629722,7.722380,-0.165392,0.580169,0.470672
1765408900.658595,-1.894428,2.483261,7.883189,-0.164323,0.600328,0.458149
1765408900.658942,-3.032640,2.703252,9.230033,-0.176082,0.615294,0.454789
1765408900.659192,-3.016499,2.515543,8.910807,-0.192881,0.642478,0.456469
1765408900.659442,-3.203013,2.551410,8.182687,-0.199447,0.656527,0.451888
1765408900.659692,-3.449306,2.511955,8.640601,-0.203876,0.656527,0.452040
1765408900.659884,-3.804399,2.460545,8.958034,-0.218537,0.675464,0.457233
1765408900.660134,-2.876614,2.234576,7.608799,-0.230143,0.702648,0.449291
1765408900.660384,-2.876614,2.234576,7.608799,-0.230143,0.715934,0.449291
1765408900.660634,-2.789335,2.702654,7.289573,-0.224493,0.733802,0.456469
1765408900.660858,-4.035150,2.565758,9.068626,-0.235489,0.733802,0.464563
1765408900.661108,-5.141080,2.363701,9.483500,-0.242514,0.773661,0.464868
1765408900.661358,-4.803921,2.048063,8.928741,-0.243430,0.785573,0.471130
1765408900.661608,-3.470827,2.125777,7.130559,-0.253967,0.788780,0.459982
1765408900.661844,-3.116930,2.702056,6.989478,-0.251524,0.806342,0.450819
1765408900.662177,-3.382353,2.892157,7.692491,-0.255494,0.806342,0.472962
1765408900.662511,-3.292683,1.915949,7.894547,-0.269850,0.817338,0.489303
1765408900.662856,-2.725968,1.882472,6.891439,-0.271835,0.841009,0.475406
1765408900.663106,-3.069703,1.901602,6.777856,-0.276569,0.832457,0.464563
1765408900.663356,-3.069703,1.901602,6.777856,-0.276569,0.830166,0.464563
1765408900.663606,-3.762553,2.364897,8.161166,-0.295048,0.857655,0.461051
1765408900.663830,-3.677068,2.604615,7.319464,-0.292910,0.858266,0.486096
1765408900.664080,-4.176829,1.706121,8.707555,-0.309251,0.843452,0.480904
1765408900.664330,-5.504542,2.565758,9.582136,-0.306654,0.843452,0.451429
1765408900.664580,-5.071735,2.658417,8.959826,-0.326507,0.860862,0.460134
1765408900.664895,-4.484696,3.038020,8.183883,-0.332463,0.858571,0.467770
1765408900.665145,-4.716044,2.914873,8.452893,-0.338419,0.853990,0.474031
1765408900.665395,-5.423242,2.979435,9.045910,-0.337503,0.846812,0.490372
1765408900.665645,-4.703490,2.390004,8.020085,-0.357356,0.846812,0.480446
1765408900.665928,-4.703490,2.390004,8.020085,-0.357356,0.849103,0.480446
1765408900.666178,-4.420731,2.962697,8.278933,-0.380264,0.860251,0.467312
1765408900.666428,-4.626972,3.169535,8.216762,-0.393550,0.868650,0.479682
1765408900.666678,-4.714251,2.751673,7.871233,-0.404240,0.875675,0.493121
1765408900.666872,-4.813486,2.461740,7.829387,-0.408974,0.878730,0.497550
1765408900.667122,-4.524748,2.074366,7.672763,-0.415388,0.889725,0.485332
1765408900.667372,-4.961740,2.445002,8.137852,-0.424399,0.904997,0.482431
1765408900.667622,-4.620994,1.988283,7.895742,-0.433867,0.904997,0.485180
1765408900.667907,-3.865375,2.181372,6.664275,-0.426231,0.900873,0.501673
1765408900.668240,-4.231228,1.841822,7.306910,-0.431729,0.903317,0.506560
1765408900.668574,-5.206241,1.901602,8.304638,-0.435547,0.925003,0.501826
1765408900.668974,-4.395026,1.116690,7.450980,-0.445626,0.930959,0.503658
1765408900.669224,-4.655069,1.530368,7.164035,-0.434020,0.926377,0.494190
1765408900.669474,-4.655069,1.530368,7.164035,-0.434020,0.927904,0.494190
1765408900.669724,-4.505619,1.338474,7.500597,-0.443641,0.939053,0.492968
1765408900.669832,-4.299975,0.634864,6.929698,-0.451429,0.946230,0.484416
1765408900.670082,-4.392036,0.982783,7.263270,-0.446390,0.929279,0.461509
1765408900.670332,-4.644906,1.144189,7.296747,-0.443183,0.936915,0.445932
1765408900.670582,-3.976566,1.930296,6.802964,-0.441656,0.961655,0.443794
1765408900.670832,-4.463175,1.808943,6.816713,-0.447459,0.955851,0.456164
1765408900.671082,-4.867288,1.224294,7.893949,-0.456469,0.953408,0.456316
1765408900.671332,-4.986848,1.501674,7.503585,-0.447764,0.988533,0.441808
1765408900.671582,-4.209708,2.162840,7.043280,-0.462272,0.988533,0.422566
1765408900.671808,-4.214490,2.792922,6.500478,-0.479224,1.001361,0.425009
1765408900.672058,-4.085365,2.977044,7.002629,-0.482584,1.011135,0.449902
1765408900.672308,-4.671209,2.607006,8.080462,-0.478307,1.032973,0.486249
1765408900.672558,-4.623385,1.431133,7.956718,-0.489761,1.014036,0.493732
1765408900.672839,-4.900167,1.302009,7.595646,-0.502437,1.014036,0.461814
1765408900.673089,-5.139287,1.481349,7.841941,-0.500910,1.028850,0.449291
1765408900.673339,-4.491271,1.834050,8.193447,-0.496939,1.040303,0.467312
1765408900.673589,-4.062649,1.421569,6.901003,-0.510225,1.041220,0.472199
1765408900.673842,-4.865494,1.343855,8.014107,-0.501368,1.038318,0.484569
1765408900.674092,-4.495456,0.418460,7.394786,-0.499993,1.033889,0.491594
1765408900.674342,-3.790052,0.404113,6.752749,-0.505186,1.042441,0.455705
1765408900.674592,-3.852821,1.161525,6.268531,-0.502437,1.057560,0.443946
1765408900.674803,-4.588115,0.875179,7.111429,-0.499840,1.036027,0.469755
1765408900.675136,-5.426829,0.809421,8.250835,-0.502284,1.032362,0.472810
1765408900.675470,-5.255260,0.106408,7.715207,-0.509003,1.047939,0.468686
1765408900.675814,-4.201937,-0.078910,6.342658,-0.508698,1.071458,0.464563
1765408900.676064,-4.155906,0.303682,5.688665,-0.501062,1.061073,0.445321
1765408900.676314,-4.699904,0.912243,7.295551,-0.496939,1.062753,0.439976
1765408900.676564,-5.347321,1.101745,7.887373,-0.504880,1.073290,0.455247
1765408900.676887,-3.980153,0.485414,5.774748,-0.512210,1.080621,0.454636
1765408900.677137,-3.572453,0.917025,5.209230,-0.514043,1.094212,0.435241
1765408900.677387,-4.821855,1.226686,6.507053,-0.515112,1.108568,0.436005
1765408900.677637,-5.087278,1.530368,7.198111,-0.524733,1.116662,0.448222
1765408900.677895,-6.067670,1.737207,8.081060,-0.539394,1.143845,0.452040
1765408900.678145,-5.303682,1.182449,7.317072,-0.534354,1.167364,0.480904
1765408900.678395,-5.303682,1.182449,7.317072,-0.534354,1.161866,0.480904
1765408900.678645,-4.940219,0.375418,6.344451,-0.544434,1.163851,0.463341
1765408900.678884,-6.197393,0.796270,8.272357,-0.543059,1.163851,0.468839
1765408900.679134,-5.711381,0.265423,7.338593,-0.549626,1.182177,0.487470
1765408900.679384,-4.152917,0.554758,5.629483,-0.550390,1.206001,0.483653
1765408900.679634,-4.436274,-0.166786,5.833930,-0.536798,1.194547,0.492968
1765408900.679853,-4.545671,-0.713773,6.377331,-0.526566,1.187675,0.497092
1765408900.680103,-5.886537,-0.529053,7.810855,-0.524581,1.186453,0.470214
1765408900.680353,-6.242229,-0.401124,7.887373,-0.526871,1.212262,0.458302
1765408900.680603,-5.254662,-0.485414,6.869918,-0.516945,1.224479,0.463799
1765408900.680850,-4.218077,-0.263032,4.865494,-0.506255,1.214247,0.457691
1765408900.681100,-5.118962,-0.181133,6.643949,-0.509767,1.202030,0.441808
1765408900.681350,-6.334290,0.015543,7.779769,-0.506102,1.220814,0.438143
1765408900.681600,-5.631276,-0.008369,6.165709,-0.503964,1.238987,0.437532
1765408900.681865,-5.462697,0.672525,6.336082,-0.500604,1.274418,0.422719
1765408900.682115,-5.423242,0.658776,6.021042,-0.508545,1.274418,0.419206
1765408900.682365,-5.474652,1.006097,6.520802,-0.508240,1.260215,0.434783
1765408900.682615,-6.639167,1.063486,7.546628,-0.529926,1.272585,0.419970
1765408900.682897,-6.017455,1.193209,7.094690,-0.526413,1.320538,0.420733
1765408900.683147,-5.426231,1.313964,6.257771,-0.525802,1.308168,0.443641
1765408900.683397,-5.455523,1.113701,6.586561,-0.519999,1.308168,0.446848
1765408900.683647,-5.455523,1.113701,6.586561,-0.519999,1.302823,0.446848
1765408900.683926,-6.443089,0.445959,7.190339,-0.535118,1.334741,0.461509
1765408900.684259,-5.179339,0.559541,5.717360,-0.518777,1.346347,0.466854
1765408900.684593,-5.131516,0.100430,6.146580,-0.527177,1.315498,0.449291
1765408900.684904,-5.875178,0.661167,6.487326,-0.527482,1.315498,0.436158
1765408900.685154,-5.875178,0.661167,6.487326,-0.527482,1.322523,0.436158
1765408900.685404,-5.625896,0.617527,6.018053,-0.522137,1.331534,0.444404
1765408900.685654,-5.701817,0.383788,5.450740,-0.525497,1.331534,0.443488
1765408900.685891,-5.921807,0.322812,6.469392,-0.523206,1.320691,0.432493
1765408900.686141,-5.930774,0.345528,5.906264,-0.531453,1.345736,0.420428
1765408900.686391,-5.591822,0.744859,5.081898,-0.520305,1.344362,0.433409
1765408900.686641,-6.099353,0.640842,5.921209,-0.531300,1.359328,0.431271
1765408900.686854,-6.959588,0.197274,6.804160,-0.523512,1.359328,0.425773
1765408900.687104,-7.051649,0.560736,6.743782,-0.527177,1.375516,0.421192
1765408900.687354,-6.860353,0.399330,6.195002,-0.539241,1.375210,0.397673
1765408900.687604,-6.629004,1.330703,6.676829,-0.544128,1.389260,0.393703
1765408900.687830,-6.800573,1.379722,6.030009,-0.540158,1.385595,0.409738
1765408900.688080,-6.431133,1.361789,6.499282,-0.544128,1.385595,0.422261
1765408900.688330,-7.468315,1.052128,6.685795,-0.544128,1.375516,0.422261
1765408900.688580,-6.428741,1.031205,6.098756,-0.568257,1.408197,0.401644
1765408900.688825,-6.443686,1.511238,5.295313,-0.559400,1.413389,0.408363
1765408900.689075,-5.936154,1.133429,5.744858,-0.582613,1.407281,0.407294
1765408900.689325,-6.906981,0.910449,5.978000,-0.568257,1.408350,0.417068
1765408900.689575,-6.906981,0.910449,5.552367,-0.568257,1.422705,0.417068
1765408900.689852,-6.746771,0.568508,5.850071,-0.561691,1.424538,0.416152
1765408900.690102,-6.752749,0.200263,5.631276,-0.578489,1.449430,0.402866
1765408900.690352,-6.031802,0.400526,4.962338,-0.553749,1.448667,0.419970
1765408900.690602,-6.290052,0.281564,4.868484,-0.535118,1.448667,0.424551
1765408900.690815,-7.186154,-0.089670,7.014585,-0.548252,1.443169,0.420581
1765408900.691065,-7.659612,-0.799856,6.724055,-0.557567,1.467451,0.405309
1765408900.691315,-6.840626,-0.413678,5.436393,-0.530995,1.453859,0.385456
1765408900.691565,-7.118602,-0.034672,6.077234,-0.535423,1.438893,0.371712
1765408900.691823,-6.609277,0.115973,5.392156,-0.542448,1.465313,0.358883
1765408900.692156,-6.348636,0.810617,4.437469,-0.529467,1.473865,0.365908
1765408900.692490,-5.823768,-0.295313,4.641319,-0.536492,1.459815,0.373086
1765408900.692847,-5.842897,0.089670,4.785389,-0.529620,1.477530,0.339183
1765408900.693097,-6.143591,0.759804,4.378287,-0.530689,1.494482,0.321621
1765408900.693347,-5.763988,1.410808,4.594691,-0.540310,1.489290,0.325438
1765408900.693597,-6.426350,1.773673,3.931133,-0.550237,1.502118,0.329562
1765408900.693839,-7.520324,1.518412,5.691654,-0.546572,1.515098,0.357814
1765408900.694089,-8.523433,0.494978,7.253706,-0.547183,1.552667,0.370948
1765408900.694339,-8.000956,0.295313,6.230272,-0.552680,1.534493,0.362549
1765408900.694589,-7.120994,0.235533,5.126135,-0.584598,1.525789,0.334449
1765408900.694847,-7.398373,0.751435,4.829029,-0.555124,1.510670,0.342848
1765408900.695097,-7.039693,0.722740,5.063366,-0.552222,1.502881,0.364381
1765408900.695347,-7.055834,0.478838,4.536107,-0.560927,1.525178,0.358425
1765408900.695597,-6.703730,-0.033477,4.521759,-0.559553,1.547933,0.365756
1765408900.695886,-6.941654,-0.534433,4.622787,-0.549931,1.529301,0.365603
1765408900.696136,-7.600430,-0.059780,5.202056,-0.544434,1.521665,0.343459
1765408900.696386,-8.137254,0.167384,6.467598,-0.556193,1.533272,0.336281
1765408900.696636,-7.598038,0.071736,4.988044,-0.546724,1.549612,0.356745
1765408900.696869,-7.372070,-0.363462,4.368722,-0.544739,1.515404,0.366825
1765408900.697119,-8.385939,-0.789096,5.630679,-0.549321,1.515404,0.334449
1765408900.697369,-8.310616,-0.570301,5.589431,-0.551764,1.536937,0.313679
1765408900.697619,-8.167144,0.020325,5.731706,-0.541074,1.509143,0.306502
1765408900.697887,-7.416905,0.172764,4.656862,-0.557873,1.518916,0.290772
1765408900.698137,-7.717001,0.989957,4.765662,-0.557109,1.511891,0.297186
1765408900.698387,-7.154471,0.269608,4.122429,-0.566119,1.516015,0.307265
1765408900.698637,-8.210783,0.758010,5.090865,-0.570854,1.507768,0.292604
1765408900.698867,-9.097322,0.774749,5.591822,-0.571617,1.535410,0.292299
1765408900.699200,-8.260998,0.766380,5.260640,-0.576657,1.551598,0.308029
1765408900.699534,-8.206000,0.900885,4.239598,-0.577573,1.553583,0.310625
1765408900.699871,-8.619678,0.549976,5.619320,-0.569937,1.545184,0.321926
1765408900.700121,-8.589190,-0.181133,5.584648,-0.577879,1.566258,0.321162
1765408900.700371,-8.246054,-0.080105,4.394428,-0.564134,1.550987,0.314443
1765408900.700621,-8.638807,-0.125538,5.322214,-0.575893,1.533730,0.302226
1765408900.700880,-8.069702,0.070540,3.952056,-0.562912,1.551750,0.312152
1765408900.701130,-7.794116,0.218795,3.917981,-0.554513,1.559386,0.322842
1765408900.701380,-7.860472,-0.668938,4.416546,-0.551611,1.559386,0.315206
1765408900.701630,-7.860472,-0.668938,4.416546,-0.551611,1.573131,0.315206
1765408900.701877,-8.185079,-0.681492,4.671209,-0.549931,1.578934,0.285885
1765408900.702127,-8.690817,-0.560736,4.268292,-0.545045,1.572367,0.280693
1765408900.702377,-9.078789,0.005380,4.835007,-0.539394,1.574963,0.280082
1765408900.702627,-9.659253,-0.198470,4.617407,-0.529315,1.578323,0.279318
1765408900.702882,-9.857125,-0.371832,6.082615,-0.534965,1.588861,0.270766
1765408900.703215,-9.429697,-0.597800,5.259444,-0.538172,1.596038,0.257785
1765408900.703549,-8.607124,0.034075,4.444045,-0.532064,1.581530,0.244041
1765408900.703871,-8.677068,0.759804,4.317311,-0.526260,1.558317,0.243735
1765408900.704121,-8.095408,0.649211,3.151602,-0.531605,1.565342,0.249844
1765408900.704371,-8.382950,0.937350,3.208991,-0.533591,1.580308,0.253814
1765408900.704621,-8.592777,0.063965,4.110473,-0.549168,1.597413,0.245262
1765408900.704878,-8.856407,0.736490,4.420134,-0.551000,1.597413,0.239612
1765408900.705128,-9.818267,0.693448,4.728000,-0.540005,1.602147,0.249233
1765408900.705378,-8.779291,0.222382,4.385461,-0.552680,1.605201,0.258854
1765408900.705628,-9.179817,-0.112386,3.349473,-0.552986,1.602758,0.250302
1765408900.705887,-8.852820,-0.241511,4.805117,-0.541379,1.604590,0.250913
1765408900.706137,-8.778095,-0.705404,4.467957,-0.554055,1.604590,0.244652
1765408900.706387,-8.530606,0.005978,3.596365,-0.534660,1.588708,0.244652
1765408900.706637,-8.895862,0.454328,3.400287,-0.543975,1.584737,0.234572
1765408900.706878,-9.320897,-0.053802,4.012434,-0.536798,1.559539,0.253662
1765408900.707128,-9.628167,-0.166188,5.197273,-0.530995,1.569771,0.240070
1765408900.707378,-9.769846,-0.570301,4.723816,-0.535118,1.576338,0.227700
1765408900.707628,-9.769846,-0.570301,4.723816,-0.535118,1.563968,0.227700
1765408900.707883,-8.656144,-0.084888,2.535868,-0.534354,1.542129,0.205098
1765408900.708216,-9.434480,0.376016,3.749402,-0.531453,1.542129,0.213345
1765408900.708549,-9.434480,0.376016,3.749402,-0.531453,1.560608,0.213345
1765408900.708886,-9.677187,-0.026901,5.004782,-0.526108,1.574963,0.195477
1765408900.709136,-9.356168,-0.100430,4.331659,-0.542907,1.549154,0.180969
1765408900.709386,-9.875058,0.130320,4.255140,-0.545808,1.519680,0.173791
1765408900.709636,-9.753705,0.997130,4.160688,-0.534813,1.516015,0.174707
1765408900.709878,-9.551649,0.796270,3.387135,-0.544281,1.535257,0.178984
1765408900.710128,-8.660329,0.763988,3.247848,-0.540005,1.544267,0.184329
1765408900.710378,-9.628167,0.343137,3.841463,-0.546724,1.522887,0.187383
1765408900.710628,-9.618603,0.181731,4.041128,-0.559247,1.531592,0.182191
1765408900.710885,-10.008368,0.956480,3.956240,-0.538936,1.542282,0.180663
1765408900.711135,-9.515780,0.041248,3.455284,-0.551459,1.543809,0.201433
1765408900.711385,-9.759683,-0.283357,2.757054,-0.538630,1.529607,0.199906
1765408900.711635,-10.057388,-0.695241,3.748206,-0.539547,1.548696,0.188605
1765408900.711880,-10.329985,-0.572692,4.221664,-0.536645,1.557554,0.185398
1765408900.712130,-9.747129,-0.566714,3.336920,-0.533133,1.551750,0.177151
1765408900.712380,-9.670610,-0.395146,3.121712,-0.517250,1.533424,0.166766
1765408900.712630,-10.321615,-0.494381,4.069822,-0.516639,1.541060,0.171195
1765408900.712913,-9.799137,-1.042563,3.318388,-0.515570,1.535562,0.171959
1765408900.713246,-9.833811,-0.795672,3.000956,-0.513127,1.526400,0.149357
1765408900.713580,-9.945002,-0.798661,3.281922,-0.496786,1.526400,0.131947
1765408900.713888,-9.826636,-0.049020,3.384146,-0.494648,1.524261,0.127213
1765408900.714138,-9.788378,-0.246294,2.361908,-0.512821,1.529148,0.118355
1765408900.714388,-10.417263,0.271401,3.868962,-0.506407,1.514488,0.121715
1765408900.714638,-10.417263,0.271401,3.868962,-0.506407,1.519527,0.121715
1765408900.714892,-11.174078,0.092659,4.463175,-0.498924,1.508837,0.114079
1765408900.715142,-10.848278,0.191296,3.536585,-0.516181,1.517847,0.103542
1765408900.715392,-10.575681,0.495576,3.063127,-0.511752,1.485777,0.110261
1765408900.715642,-10.732305,0.481229,3.401482,-0.518166,1.480279,0.118661
1765408900.715871,-10.807626,0.136298,3.626255,-0.510072,1.511433,0.121104
1765408900.716121,-10.319821,-0.113582,3.191056,-0.510072,1.523498,0.128740
1765408900.716371,-10.395742,-0.647417,3.321377,-0.526413,1.476003,0.119119
1765408900.716621,-10.773552,-0.394548,3.445122,-0.521526,1.498147,0.097280
1765408900.716862,-10.222381,-0.322214,2.875418,-0.505033,1.498147,0.110108
1765408900.717112,-9.671208,-0.329986,2.056432,-0.504117,1.485166,0.120340
1765408900.717362,-11.409611,-0.319823,3.896461,-0.515570,1.475545,0.091935
1765408900.717612,-11.741987,-0.648613,3.916786,-0.511294,1.482417,0.099876
1765408900.717890,-11.059300,-0.485414,3.362027,-0.504575,1.480127,0.110261
1765408900.718140,-10.548779,-0.534433,3.934720,-0.506560,1.458288,0.084147
1765408900.718390,-10.827354,-0.135103,4.429698,-0.503353,1.432174,0.086743
1765408900.718640,-10.603777,-0.810617,2.671568,-0.509920,1.423621,0.092546
1765408900.718895,-10.071137,-0.499761,2.288378,-0.495412,1.404532,0.069639
1765408900.719145,-9.839190,-0.250478,2.835963,-0.502589,1.411251,0.061545
1765408900.719395,-10.112385,0.018532,3.371592,-0.500451,1.409113,0.059254
1765408900.719645,-10.707793,0.496174,3.629842,-0.495412,1.408961,0.059254
1765408900.719976,-11.252988,0.057987,3.203013,-0.507171,1.402088,0.070555
1765408900.720226,-10.946913,0.033477,3.343495,-0.509003,1.392620,0.064752
1765408900.720476,-10.383787,-0.255858,1.917145,-0.513585,1.391551,0.052382
1765408900.720726,-10.059779,0.251076,2.754663,-0.512210,1.385748,0.043371
1765408900.720939,-10.154231,0.570899,1.816117,-0.510225,1.393078,0.047953
1765408900.721189,-10.688664,0.793878,2.315279,-0.514654,1.391398,0.071624
1765408900.721439,-11.247607,-0.110593,3.449306,-0.519083,1.391398,0.074373
1765408900.721689,-10.809420,-0.513510,3.237685,-0.509156,1.390940,0.077580
1765408900.721858,-9.870873,-1.078431,1.630798,-0.509156,1.375669,0.065363
1765408900.722108,-9.915112,-0.801052,1.826877,-0.499230,1.362840,0.047800
1765408900.722358,-10.310855,-0.154232,2.577714,-0.498161,1.384068,0.051007
1765408900.722608,-10.081299,-0.497370,1.979914,-0.491441,1.384068,0.058032
1765408900.722860,-9.509803,-0.801052,1.614060,-0.484416,1.383915,0.052840
1765408900.723110,-10.059779,-0.646820,1.710306,-0.479224,1.375516,0.042761
1765408900.723360,-10.984575,-0.970827,3.280726,-0.479224,1.356274,0.042761
1765408900.723610,-11.244618,-0.627092,2.967479,-0.476933,1.349707,0.024587
1765408900.723824,-11.698947,-0.358680,3.083452,-0.466243,1.349707,0.020159
1765408900.724074,-10.569104,-0.530249,2.246532,-0.459829,1.354746,0.021686
1765408900.724324,-10.728120,-0.276184,1.617647,-0.466396,1.326952,0.007789
1765408900.724574,-10.832137,-0.185916,2.950741,-0.477544,1.317942,-0.013134
1765408900.724852,-11.391677,0.402917,2.788139,-0.472046,1.338406,-0.001833
1765408900.725052,-10.386177,0.212219,1.993065,-0.469755,1.328174,0.016493
1765408900.725252,-11.105929,0.007771,2.320660,-0.479987,1.301601,-0.002902
1765408900.725452,-11.134624,0.067551,2.135342,-0.486554,1.284650,-0.004276
1765408900.725652,-11.119080,0.187709,1.951219,-0.484416,1.284650,0.000611
1765408900.725919,-11.119080,0.187709,1.951219,-0.484416,1.299769,0.000611
1765408900.726169,-11.428143,0.639646,2.788139,-0.484416,1.317025,0.005345
1765408900.726419,-11.720467,-0.119560,3.148015,-0.482889,1.307252,0.029016
1765408900.726669,-11.165111,-0.775944,2.318269,-0.494037,1.286024,0.029016
1765408900.726885,-11.535150,-0.864419,2.415112,-0.487470,1.286024,0.003971
1765408900.727135,-11.218314,-0.945720,2.117408,-0.473879,1.293355,-0.000153
1765408900.727385,-11.514825,-0.530846,2.844930,-0.471741,1.275028,-0.005651
1765408900.727635,-11.618842,-0.431612,2.758249,-0.467617,1.270600,-0.022144
1765408900.727839,-11.403633,-0.198470,2.382233,-0.465632,1.257313,-0.012523
1765408900.728172,-11.021639,-0.752032,2.249521,-0.456469,1.257313,0.003054
1765408900.728506,-10.948707,-0.772955,2.625538,-0.457538,1.243416,-0.028253
1765408900.728840,-11.517216,-0.277379,2.442611,-0.458760,1.210735,-0.035430
1765408900.729090,-11.737206,-0.429220,2.612386,-0.459218,1.210735,-0.029322
1765408900.729340,-11.395862,0.082496,2.040889,-0.450055,1.204168,-0.041081
1765408900.729590,-11.241032,0.186514,2.363103,-0.471435,1.194700,-0.040317
1765408900.729933,-11.455044,0.125538,2.784552,-0.462730,1.188133,-0.037110
1765408900.730183,-11.527975,0.208632,1.773075,-0.457691,1.160033,-0.028253
1765408900.730433,-11.151361,-0.041846,2.003826,-0.472810,1.145220,-0.044440
1765408900.730683,-11.151361,-0.041846,2.003826,-0.472810,1.160797,-0.044440
1765408900.730924,-10.514704,0.236729,0.949904,-0.467617,1.134682,-0.036805
1765408900.731174,-10.584648,0.126734,0.608560,-0.460287,1.135751,-0.040775
1765408900.731424,-10.374221,0.110593,0.989957,-0.459982,1.140333,-0.035125
1765408900.731674,-9.983260,-0.615734,0.628886,-0.468839,1.163546,-0.031765
1765408900.731901,-9.983260,-0.615734,0.628886,-0.468839,1.140791,-0.031765
1765408900.732151,-11.180057,-0.499761,1.065280,-0.456469,1.132086,-0.047342
1765408900.732401,-11.384502,-0.522477,1.953610,-0.440739,1.134377,-0.039248
1765408900.732651,-10.834527,-0.791487,0.972023,-0.452193,1.154077,-0.043371
1765408900.733016,-10.928981,-0.841702,1.085605,-0.451582,1.128879,-0.051924
1765408900.733266,-11.546506,-0.760402,2.008608,-0.445626,1.115440,-0.054978
1765408900.733516,-11.837636,-0.701219,2.291965,-0.431271,1.117731,-0.059712
1765408900.733766,-10.955282,-0.606767,1.278096,-0.436005,1.142318,-0.051160
1765408900.733887,-10.598395,-1.193209,0.859636,-0.432645,1.094212,-0.046273
1765408900.734220,-10.991750,-1.354017,1.737207,-0.429896,1.094212,-0.057574
1765408900.734554,-11.568626,-1.219512,1.715088,-0.417526,1.095739,-0.078038
1765408900.734903,-11.264944,-0.808226,1.975131,-0.414472,1.081537,-0.085521
1765408900.735153,-11.056909,-0.469871,1.556671,-0.427606,1.064738,-0.091477
1765408900.735403,-11.177665,0.199665,1.629005,-0.416457,1.056950,-0.092699
1765408900.735653,-11.274508,-0.194883,2.451578,-0.423330,1.049619,-0.069944
1765408900.735853,-10.860830,-0.634266,1.458632,-0.421955,1.043358,-0.064141
1765408900.736103,-10.077712,-1.105930,0.150646,-0.424857,1.027781,-0.072388
1765408900.736353,-10.649210,-0.661167,1.101148,-0.423940,1.019534,-0.077885
1765408900.736603,-11.347440,-0.324008,1.184840,-0.423940,1.028850,-0.077885
1765408900.736835,-11.394069,-0.630081,1.535150,-0.428064,1.042289,-0.067195
1765408900.737085,-11.034192,-0.481827,1.357006,-0.407294,1.072068,-0.057879
1765408900.737335,-10.954087,-1.038976,1.340268,-0.403935,1.042441,-0.030238
1765408900.737585,-10.758009,-1.685198,1.866332,-0.420123,1.025032,-0.041386
1765408900.737891,-10.766378,-1.560856,0.889526,-0.391870,1.032362,-0.054214
1765408900.738141,-10.508725,-1.827475,0.686274,-0.388968,1.028544,-0.045204
1765408900.738391,-10.786703,-1.241033,1.272118,-0.380569,1.015105,-0.062766
1765408900.738641,-12.016378,-0.962458,2.351148,-0.380874,1.022130,-0.072540
1765408900.738887,-11.690578,-1.516021,1.877092,-0.383623,1.011746,-0.042455
1765408900.739220,-10.640841,-1.314562,0.584648,-0.366214,0.998154,-0.048258
1765408900.739554,-11.134025,-1.030607,1.374342,-0.370337,0.965320,-0.063377
1765408900.739868,-11.582376,-1.123266,2.262075,-0.370337,0.969443,-0.063377
1765408900.740118,-11.285269,-1.287661,1.236250,-0.353996,0.931722,-0.031460
1765408900.740368,-10.919415,-1.851985,0.783118,-0.368352,0.931722,-0.043524
1765408900.740618,-11.237444,-1.115495,0.913438,-0.362549,0.936609,-0.068417
1765408900.740809,-12.074365,-0.755619,1.827475,-0.341321,0.931417,-0.047342
1765408900.741059,-12.074365,-0.755619,1.827475,-0.341321,0.931111,-0.047342
1765408900.741309,-11.183643,-0.851267,1.335485,-0.342390,0.919352,-0.048258
1765408900.741559,-11.119080,-1.180057,0.811812,-0.346666,0.914465,-0.032987
1765408900.741838,-11.712099,-1.284074,1.037183,-0.328493,0.888198,-0.021838
1765408900.742088,-12.704447,-1.068866,2.136537,-0.315817,0.881784,-0.029169
1765408900.742338,-11.592538,-0.940937,0.930775,-0.321010,0.902859,-0.029932
1765408900.742588,-11.024629,-0.587637,0.881157,-0.316734,0.883464,-0.018479
1765408900.742797,-11.214727,-0.998924,1.435916,-0.316734,0.862084,-0.009621
1765408900.743047,-11.049736,-1.157341,1.012673,-0.312763,0.857197,-0.000153
1765408900.743297,-10.462696,-1.505261,0.194883,-0.302226,0.854448,0.002902
1765408900.743547,-10.555953,-1.827475,0.260641,-0.302226,0.835664,-0.009163
1765408900.743867,-11.166307,-1.223099,0.854854,-0.287870,0.838718,-0.018631
1765408900.744117,-11.123862,-1.317551,1.142994,-0.287259,0.839634,-0.008247
1765408900.744367,-10.539214,-1.381516,0.604974,-0.282220,0.836885,0.000916
1765408900.744617,-11.249401,-1.349235,1.653515,-0.268933,0.821461,-0.001222
1765408900.744861,-11.667861,-1.495696,1.711501,-0.277027,0.821461,-0.000916
1765408900.745194,-11.819702,-1.264945,1.782640,-0.277027,0.801913,-0.000916
1765408900.745528,-11.472978,-1.241631,1.284672,-0.253967,0.793208,0.005192
1765408900.745841,-11.296627,-1.195002,1.184840,-0.252593,0.761138,0.016035
1765408900.746091,-11.587756,-1.429938,1.518412,-0.251676,0.734871,0.013286
1765408900.746341,-11.230868,-1.406026,0.818986,-0.245873,0.734871,0.017104
1765408900.746591,-11.230868,-1.406026,0.818986,-0.245873,0.727082,0.017104
1765408900.746813,-11.018651,-0.986370,0.630679,-0.221439,0.709825,0.020464
1765408900.747063,-11.318147,-1.419775,0.795074,-0.229380,0.709825,0.043830
1765408900.747313,-11.560854,-1.565638,0.887135,-0.209221,0.690889,0.035888
1765408900.747563,-11.780248,-1.467001,0.997728,-0.206320,0.672257,0.033445
1765408900.747861,-11.544714,-1.376136,0.917025,-0.198837,0.677908,0.037110
1765408900.748111,-10.792084,-1.338474,-0.701817,-0.190895,0.626137,0.045357
1765408900.748361,-11.608081,-1.235055,0.453730,-0.185398,0.626137,0.053145
1765408900.748611,-11.985890,-1.445480,0.536824,-0.185398,0.621250,0.053145
1765408900.748857,-11.891438,-1.679220,0.722142,-0.175166,0.626290,0.062766
1765408900.749107,-10.555953,-1.615256,-1.046150,-0.164934,0.633009,0.057116
1765408900.749357,-11.825680,-1.206958,0.214012,-0.151953,0.586431,0.067806
1765408900.749607,-12.239357,-1.357006,1.386896,-0.152105,0.585667,0.075900
1765408900.749829,-12.505976,-1.401243,1.328312,-0.139125,0.574061,0.077427
1765408900.750079,-10.956479,-1.914156,-0.390961,-0.140957,0.569479,0.078496
1765408900.750329,-11.192012,-1.588952,-0.334768,-0.124006,0.512516,0.068111
1765408900.750579,-11.920132,-1.193209,0.706600,-0.116981,0.511600,0.072082
1765408900.750911,-11.826875,-1.303802,0.333572,-0.111177,0.491441,0.078191
1765408900.751161,-11.826875,-1.303802,0.454328,-0.111177,0.491136,0.078191
1765408900.751411,-11.377330,-1.224294,-0.313845,-0.096211,0.461967,0.087812
1765408900.751661,-11.680415,-1.865734,0.104017,-0.105069,0.431271,0.088575
1765408900.751836,-12.037900,-1.293639,0.535031,-0.087506,0.431424,0.081092
1765408900.752086,-11.978716,-1.385700,0.593018,-0.093768,0.424704,0.092546
1765408900.752336,-11.710902,-1.518412,0.291726,-0.096059,0.399353,0.098349
1765408900.752586,-11.786225,-1.355811,0.318627,-0.088270,0.369726,0.092393
1765408900.752848,-12.185556,-1.761119,0.798063,-0.076969,0.347735,0.109345
1765408900.753098,-11.840027,-2.018173,0.176949,-0.073762,0.334601,0.102014
1765408900.753348,-11.939261,-1.838235,0.491392,-0.075136,0.324369,0.085368
1765408900.753598,-11.737206,-1.850789,0.468675,-0.068264,0.315054,0.090408
1765408900.753828,-11.901003,-1.678622,0.471664,-0.066126,0.271682,0.083536
1765408900.754078,-12.173599,-1.682807,0.728718,-0.065057,0.264046,0.082467
1765408900.754328,-11.758726,-1.915351,0.164395,-0.058338,0.254425,0.089492
1765408900.754578,-11.768291,-2.212458,0.563725,-0.056963,0.234114,0.080329
1765408900.754810,-11.712099,-1.915949,0.267217,-0.060476,0.213803,0.062308
1765408900.755060,-11.721663,-1.514825,0.248685,-0.062919,0.198073,0.054672
1765408900.755310,-11.355809,-1.513630,-0.166188,-0.053756,0.193644,0.064599
1765408900.755560,-11.345049,-1.809541,0.099235,-0.050244,0.177456,0.076511
1765408900.755877,-11.667861,-2.129364,0.845289,-0.050244,0.164934,0.063683
1765408900.756077,-11.779052,-1.771879,0.777140,-0.046273,0.156076,0.054367
1765408900.756277,-11.313366,-1.905189,0.045433,-0.040317,0.117286,0.059407
1765408900.756477,-10.870395,-1.930894,-0.359278,-0.040012,0.117286,0.054672
1765408900.756677,-11.048539,-1.864538,0.076518,-0.035277,0.111941,0.044899
1765408900.756839,-11.078430,-1.802965,0.338355,-0.031001,0.105832,0.041386
1765408900.757089,-10.952891,-1.615853,0.063367,-0.030391,0.094073,0.035888
1765408900.757339,-10.992347,-1.373147,0.222382,-0.029932,0.084147,0.035277
1765408900.757589,-11.028214,-1.618245,0.380201,-0.032223,0.078496,0.049175
1765408900.757814,-11.092777,-1.867527,0.512912,-0.024435,0.063377,0.045815
1765408900.758064,-11.186034,-2.035509,0.649211,-0.024282,0.053909,0.035888
1765408900.758314,-10.905067,-1.695361,0.269010,-0.019700,0.045662,0.025045
1765408900.758564,-10.789692,-1.361191,0.200861,-0.019395,0.034514,0.019090
1765408900.758829,-10.594810,-1.292444,0.357484,-0.014203,0.029780,0.022907
1765408900.759029,-10.798659,-1.361789,0.594213,-0.014508,0.020922,0.025045
1765408900.759229,-10.564919,-1.449067,0.302487,-0.008552,0.017104,0.020159
1765408900.759429,-10.455523,-1.193807,0.153037,-0.007178,0.006720,0.011912
1765408900.759629,-10.187708,-1.094572,-0.123147,-0.005803,0.004887,0.015272
1765408900.759846,-10.294117,-1.017456,0.250478,0.001985,-0.000611,0.012217
1765408900.760096,-10.439979,-0.913438,0.721545,0.006872,0.006720,0.009774
1765408900.760346,-10.229554,-0.769966,0.497967,0.012675,-0.001069,0.009621
1765408900.760596,-9.879243,-0.392755,-0.048422,0.008858,0.003207,0.009774
1765408900.760888,-10.225968,-0.168580,0.438785,0.010843,-0.010843,0.013286
1765408900.761088,-10.402916,-0.526064,0.946317,0.014203,-0.002749,0.022907
1765408900.761288,-10.053802,-0.597800,0.489000,0.012675,-0.006567,0.015577
1765408900.761488,-9.717837,-0.234935,0.353300,0.004429,-0.008552,-0.002443
1765408900.761688,-9.759683,0.288140,0.473458,0.001833,-0.008552,0.000305
1765408900.761822,-9.858918,0.545194,0.561932,0.006109,-0.016952,0.012981
1765408900.762022,-9.903752,0.373625,0.639646,-0.000153,-0.014050,0.018631
1765408900.762222,-9.771639,0.047824,0.481229,-0.002902,-0.003971,0.026725
1765408900.762422,-9.588115,-0.269010,0.221186,0.002291,-0.012523,0.021991
1765408900.762622,-9.729793,-0.062171,0.417862,0.002596,-0.016188,0.005040
1765408900.762850,-9.729793,-0.062171,0.417862,0.002596,-0.007941,0.005040
1765408900.763050,-9.797942,0.321019,0.526064,-0.000458,-0.002596,0.010537
1765408900.763250,-9.656264,0.267814,0.304878,-0.001069,-0.008858,0.012981
1765408900.763450,-9.703490,0.157819,0.401722,0.001374,-0.006414,0.012217
1765408900.763650,-9.699306,0.092061,0.334768,0.001527,-0.002138,0.014661
1765408900.763805,-9.640720,-0.046628,0.254065,0.000000,-0.000458,0.008399
1765408900.764005,-9.738760,-0.049020,0.319225,0.001527,0.002749,0.005803
1765408900.764205,-9.761477,0.198470,0.320421,0.002443,0.002749,0.000000
1765408900.764405,-9.846962,0.376614,0.400526,0.001527,0.003818,-0.001374
1765408900.764605,-9.747129,0.338355,0.211621,-0.001069,0.005040,0.002596
1765408900.764880,-9.807508,0.175155,0.173362,0.000458,0.003665,0.005651
1765408900.765080,-9.936632,0.124342,0.349713,0.000305,0.002596,0.001527
1765408900.765280,-10.070539,0.263032,0.504543,0.000305,0.002596,-0.007941
1765408900.765480,-10.037063,0.391559,0.480631,-0.005956,0.006414,-0.010079
1765408900.765680,-10.059779,0.432807,0.456121,-0.008552,0.004429,-0.005651
1765408900.765873,-10.046627,0.292922,0.487207,-0.010385,0.003207,-0.001680
1765408900.766073,-10.063366,0.218197,0.457317,-0.009774,0.000458,-0.004581
1765408900.766273,-9.884026,0.179938,0.224773,-0.014355,0.003360,-0.004429
1765408900.766473,-9.811094,0.199067,0.145863,-0.014355,0.003818,-0.004429
1765408900.766673,-9.921089,0.247489,0.331181,-0.015730,0.001985,-0.007483
1765408900.766870,-10.076518,0.145265,0.471664,-0.016035,0.001985,-0.005345
1765408900.767070,-10.076518,0.145265,0.471664,-0.016035,0.005651,-0.005345
1765408900.767270,-9.933045,0.043042,0.150048,-0.022602,0.005040,-0.006720
1765408900.767470,-9.933643,0.000000,0.248087,-0.020464,0.000764,-0.007178
1765408900.767670,-10.112983,-0.023314,0.475849,-0.018326,0.002749,-0.011301
1765408900.767879,-10.068746,-0.007174,0.314443,-0.020006,0.002749,-0.013134
1765408900.768079,-10.068746,-0.007174,0.314443,-0.020006,0.005345,-0.013134
1765408900.768279,-9.945002,-0.049617,0.223577,-0.018937,0.005345,-0.005956
1765408900.768479,-9.994021,-0.136896,0.300693,-0.020159,0.003512,-0.006109
1765408900.768679,-9.991630,-0.177547,0.304878,-0.018173,0.001374,-0.008858
1765408900.768978,-10.003586,-0.124342,0.292922,-0.017562,0.001374,-0.010079
1765408900.769228,-10.078907,-0.056193,0.344333,-0.018479,0.001069,-0.012675
1765408900.769478,-10.095646,0.035868,0.289335,-0.017715,-0.004887,-0.005345
1765408900.769728,-10.061573,-0.139885,0.251674,-0.017715,-0.004887,-0.004887
1765408900.769865,-10.047822,-0.321616,0.277977,-0.016341,-0.006261,-0.003360
1765408900.770065,-10.120157,-0.320421,0.333572,-0.016646,-0.006261,-0.009621
1765408900.770265,-10.057388,-0.180536,0.300096,-0.013134,-0.001833,-0.011301
1765408900.770465,-10.001194,-0.099235,0.249880,-0.013744,-0.002902,-0.008552
1765408900.770665,-10.070539,-0.113582,0.320421,-0.014355,-0.010385,-0.003971
1765408900.770889,-10.160210,-0.168580,0.410091,-0.015272,-0.006261,-0.000611
1765408900.771089,-10.096244,-0.265423,0.364658,-0.011606,-0.005192,-0.002443
1765408900.771289,-9.954566,-0.379005,0.171569,-0.009927,-0.005651,-0.003665
1765408900.771489,-10.011356,-0.256456,0.295911,-0.009621,-0.008858,-0.005345
1765408900.771689,-10.153036,-0.124342,0.502152,-0.007941,-0.008552,-0.003360
1765408900.771868,-10.153036,-0.124342,0.502152,-0.007941,-0.006567,-0.003360
1765408900.772068,-9.931850,-0.233142,0.240913,-0.007789,-0.011759,0.003665
1765408900.772268,-9.906742,-0.303085,0.242707,-0.007330,-0.008552,0.002596
1765408900.772468,-10.037660,-0.258250,0.463295,-0.002749,-0.014203,0.002138
1765408900.772668,-10.020923,-0.198470,0.393352,-0.003207,-0.014203,0.000458
1765408900.772858,-9.912720,-0.131516,0.298900,-0.005040,-0.011454,0.000458
1765408900.773058,-9.886416,-0.076518,0.313247,-0.006261,-0.010996,0.000916
1765408900.773258,-9.890003,-0.104017,0.337757,-0.005803,-0.012675,0.003054
1765408900.773458,-9.856527,-0.126734,0.300096,-0.003665,-0.009010,0.003054
1765408900.773658,-9.817670,-0.116571,0.274988,-0.001222,-0.011606,0.002138
1765408900.773855,-9.800333,-0.066356,0.288140,0.000611,-0.006567,0.003971
1765408900.774055,-9.795551,-0.033477,0.320421,-0.002443,-0.007789,0.003360
1765408900.774255,-9.816475,-0.024510,0.276184,-0.002443,-0.011759,0.005192
1765408900.774455,-9.875656,-0.019130,0.335366,-0.001680,-0.007025,0.006261
1765408900.774655,-9.915112,-0.041846,0.367049,-0.003054,-0.007025,0.005956
1765408900.774848,-9.916904,-0.069345,0.332377,-0.004123,-0.009468,0.005956
1765408900.775048,-9.890003,-0.001196,0.318627,-0.001069,-0.005803,0.006567
1765408900.775248,-9.903752,0.022119,0.381396,-0.002291,-0.004734,0.006261
1765408900.775448,-9.960544,-0.047824,0.469273,-0.002291,-0.005803,0.005040
1765408900.775648,-9.984456,-0.050215,0.434003,-0.001833,-0.006414,0.007178
1765408900.775851,-9.968913,0.040650,0.308465,-0.002138,-0.006872,0.001985
1765408900.776051,-9.880439,0.040650,0.297107,-0.002138,-0.005956,0.001833
1765408900.776251,-9.960544,0.075323,0.399330,-0.003971,-0.008247,0.000916
1765408900.776451,-10.000596,0.096844,0.474653,-0.002596,-0.009010,0.002749
1765408900.776651,-9.984456,0.127929,0.441176,-0.004123,-0.005192,0.004581
1765408900.776905,-9.807508,0.103419,0.200861,-0.005803,-0.005040,0.000305
1765408900.777105,-9.859515,0.139885,0.341942,-0.003971,-0.008399,-0.000153
1765408900.777305,-9.931252,0.127929,0.402917,-0.006720,-0.006261,0.000611
1765408900.777505,-9.983260,0.092061,0.414873,-0.006872,-0.008094,-0.000916
1765408900.777705,-9.931850,0.102822,0.338953,-0.008247,-0.009010,-0.000153
1765408900.777889,-9.888210,0.133907,0.332377,-0.011606,-0.004123,-0.000153
1765408900.778089,-9.837996,0.074127,0.236729,-0.008858,-0.002443,0.000305
1765408900.778289,-9.849353,0.034672,0.253467,-0.009010,-0.002443,0.000764
1765408900.778489,-9.945600,0.072932,0.375418,-0.009010,-0.002749,-0.001527
1765408900.778689,-9.953370,0.044237,0.353898,-0.009927,-0.003054,-0.002749
1765408900.778889,-9.928861,0.019727,0.260043,-0.011912,-0.004123,-0.002749
1765408900.779089,-9.933045,-0.008967,0.264228,-0.009621,-0.003360,-0.000611
1765408900.779289,-9.991630,0.019130,0.339550,-0.011606,-0.003360,-0.002902
1765408900.779489,-10.031085,-0.034075,0.386179,-0.008858,-0.009316,-0.002749
1765408900.779689,-9.975489,-0.023912,0.295313,-0.010232,-0.007636,-0.002443
1765408900.779813,-9.904350,0.003587,0.236729,-0.010843,-0.004734,-0.004123
1765408900.780013,-9.881634,-0.028694,0.259445,-0.010079,-0.005803,-0.003665
1765408900.780213,-9.949782,-0.051411,0.370636,-0.008552,-0.009163,-0.004123
1765408900.780413,-10.077712,-0.022716,0.441176,-0.012065,-0.006109,-0.005040
1765408900.780613,-10.062768,-0.001196,0.388570,-0.010537,-0.005956,-0.003971
1765408900.780889,-9.960544,-0.028694,0.279173,-0.008094,-0.005651,-0.003665
1765408900.781089,-9.960544,-0.028694,0.279173,-0.008094,-0.008705,-0.003665
1765408900.781289,-9.976685,-0.086083,0.418460,-0.007330,-0.006872,-0.004123
1765408900.781489,-10.043638,-0.056193,0.478838,-0.008552,-0.009621,-0.003665
1765408900.781689,-9.961740,-0.028694,0.345528,-0.009010,-0.007636,-0.003054
1765408900.781852,-9.916904,-0.011358,0.274988,-0.010996,-0.007636,-0.000764
1765408900.782052,-9.916904,-0.011358,0.274988,-0.010996,-0.008705,-0.000764
1765408900.782252,-9.897178,-0.099235,0.313845,-0.009468,-0.011912,-0.001527
1765408900.782452,-9.958751,-0.063367,0.412482,-0.009774,-0.010385,-0.002138
1765408900.782652,-9.924676,-0.046628,0.317432,-0.010232,-0.005498,-0.002596
1765408900.782848,-9.807508,-0.069345,0.190698,-0.007636,-0.005498,-0.002596
1765408900.783048,-9.843375,-0.102822,0.294715,-0.010232,-0.009316,-0.001527
1765408900.783248,-9.960544,-0.127929,0.442372,-0.011912,-0.010690,-0.001069
1765408900.783448,-10.013150,-0.148254,0.444165,-0.009010,-0.009621,-0.000611
1765408900.783648,-9.888808,-0.163199,0.308465,-0.008552,-0.007789,-0.000153
1765408900.783862,-9.893590,-0.092659,0.353898,-0.006414,-0.006109,-0.003054
1765408900.784112,-9.887612,-0.107604,0.339550,-0.008858,-0.006720,0.000305
1765408900.784362,-9.964130,-0.131516,0.358680,-0.007178,-0.006872,0.002138
1765408900.784612,-9.970706,-0.123147,0.402917,-0.005192,-0.006872,0.000764
1765408900.784860,-9.970706,-0.123147,0.402917,-0.005192,-0.005651,0.000764
1765408900.785060,-9.858918,-0.077116,0.230751,-0.004581,-0.007330,0.001374
1765408900.785260,-9.883428,-0.059780,0.252869,-0.005192,-0.007636,-0.001069
1765408900.785460,-9.911524,-0.046628,0.366451,-0.008247,-0.009468,-0.001374
1765408900.785660,-9.892395,0.001196,0.402319,-0.004123,-0.006414,-0.000611
1765408900.785939,-9.892395,0.001196,0.402319,-0.004123,-0.003512,-0.000611
1765408900.786139,-9.911524,-0.010163,0.295313,-0.006414,-0.006414,0.000305
1765408900.786339,-10.029292,0.039455,0.403515,-0.006109,-0.007789,0.001680
1765408900.786539,-10.056191,-0.054998,0.445361,-0.007789,-0.007941,0.000000
1765408900.786739,-9.990434,-0.050215,0.414873,-0.008247,-0.003818,-0.001680
1765408900.786917,-9.952772,0.038857,0.275586,-0.008094,-0.003512,-0.000305
1765408900.787117,-9.939621,0.027499,0.326399,-0.007789,-0.006567,0.001833
1765408900.787317,-9.973696,-0.011956,0.392157,-0.007483,-0.006567,0.001833
1765408900.787517,-9.945002,-0.032281,0.277379,-0.008094,-0.007025,0.000458
1765408900.787717,-9.863102,-0.031086,0.285151,-0.006261,-0.007025,0.001833
1765408900.787882,-9.833213,-0.035868,0.178144,-0.003512,-0.008094,-0.000916
1765408900.788082,-9.850550,0.016738,0.253467,-0.010537,-0.008858,-0.002443
1765408900.788282,-9.962935,0.033477,0.359876,-0.010537,-0.007636,-0.000916
1765408900.788482,-9.971304,-0.044835,0.398135,-0.009010,-0.006567,0.001069
1765408900.788682,-10.009563,-0.047226,0.379603,-0.006261,-0.006567,0.000916
1765408900.788867,-9.982065,0.011956,0.298302,-0.005956,-0.006872,-0.000458
1765408900.789067,-9.955164,0.008967,0.355093,-0.007789,-0.008399,-0.002902
1765408900.789267,-9.970109,-0.006576,0.349115,-0.007941,-0.007941,-0.001833
1765408900.789467,-9.984456,0.007174,0.325203,-0.007941,-0.006261,-0.001833
1765408900.789667,-10.007172,0.009565,0.411884,-0.010537,-0.007789,-0.002291
1765408900.789855,-9.952174,-0.032281,0.340746,-0.009621,-0.005345,-0.003512
1765408900.790055,-9.939023,0.017934,0.329388,-0.010232,-0.005192,-0.004123
1765408900.790255,-9.977283,0.010760,0.346724,-0.005956,-0.005345,-0.003207
1765408900.790455,-9.948587,0.010760,0.413678,-0.011759,-0.007025,-0.001985
1765408900.790655,-9.842777,-0.019130,0.233740,-0.009927,-0.005192,-0.001222
1765408900.790864,-9.829626,0.031086,0.253467,-0.008094,-0.006720,-0.001985
1765408900.791064,-9.884624,-0.028694,0.271401,-0.008399,-0.007636,-0.002138
1765408900.791264,-9.839788,-0.045433,0.264228,-0.007636,-0.011148,-0.001833
1765408900.791464,-9.924676,-0.035868,0.344333,-0.005956,-0.006872,-0.002902
1765408900.791664,-9.896580,-0.070540,0.399330,-0.010232,-0.005040,0.000458
1765408900.791882,-9.922284,-0.038857,0.333572,-0.008705,-0.005192,-0.000305
1765408900.792082,-9.825441,-0.089072,0.251076,-0.009468,-0.006872,-0.002138
1765408900.792282,-9.949782,-0.101028,0.393352,-0.007330,-0.006872,-0.002749
1765408900.792482,-10.005977,-0.092061,0.413080,-0.007941,-0.006872,-0.003207
1765408900.792682,-10.019128,-0.031086,0.412482,-0.008858,-0.006414,-0.002443
1765408900.792892,-9.942610,-0.029292,0.345528,-0.008858,-0.005040,-0.002443
1765408900.793092,-9.882831,-0.095050,0.332377,-0.006109,-0.007330,-0.003054
1765408900.793292,-9.940218,-0.125538,0.335964,-0.004887,-0.007483,0.001985
1765408900.793492,-9.983260,-0.068149,0.392157,-0.005651,-0.007941,-0.001985
1765408900.793692,-9.907937,-0.031086,0.334768,-0.009468,-0.007636,-0.002138
1765408900.793971,-9.797942,-0.032879,0.228360,-0.009468,-0.006261,-0.002138
1765408900.794171,-9.571377,-0.237924,0.456719,-0.008552,-0.008399,0.001833
1765408900.794371,-9.188187,-0.046628,-0.065160,-0.007330,-0.002749,-0.004429
1765408900.794571,-9.524150,0.353898,-0.028694,-0.012370,-0.004887,-0.011148
1765408900.794771,-9.913916,0.197274,0.734696,-0.005498,0.008399,0.004581
1765408900.794911,-9.661046,-0.082496,0.664754,-0.004734,0.009774,0.013286
1765408900.795111,-9.656861,-0.126136,0.427427,-0.014966,0.004429,-0.003054
1765408900.795311,-9.735771,-0.303682,-0.011956,-0.014355,-0.000305,-0.003818
1765408900.795511,-9.824244,-0.420851,-0.006576,-0.002902,-0.003665,0.004276
1765408900.795711,-10.193088,0.113582,0.680894,0.000458,0.023366,-0.012981
1765408900.795855,-10.431609,0.532042,1.264945,-0.008247,0.023366,-0.012370
1765408900.796055,-9.820659,0.132712,0.249880,-0.012675,0.014966,0.011759
1765408900.796255,-9.620994,-0.438785,-0.075323,-0.007789,-0.009010,0.020922
1765408900.796455,-9.518172,-0.613941,0.051411,-0.008858,-0.004276,-0.005040
1765408900.796655,-9.789574,0.057389,0.402319,-0.008094,0.010385,-0.017868
1765408900.796859,-9.774031,0.493185,0.110593,-0.005345,0.010385,-0.007789
1765408900.797109,-9.758488,0.261836,0.060976,-0.005345,0.006872,-0.007789
1765408900.797359,-9.865494,-0.211621,0.420851,-0.007178,0.007789,0.011454
1765408900.797609,-10.016139,-0.359876,0.665949,-0.011148,0.010537,0.001222
1765408900.797856,-9.837996,-0.167384,0.270206,-0.007789,0.004887,-0.007789
1765408900.798023,-9.803921,0.106408,0.060378,-0.007025,0.000611,-0.007789
1765408900.798189,-9.803921,0.106408,0.060378,-0.007025,0.005040,-0.007789
1765408900.798356,-10.065758,0.247489,0.594811,-0.009468,0.006261,0.000458
1765408900.798523,-9.961740,-0.044237,0.383190,-0.008094,0.006261,0.005956
1765408900.798689,-9.857722,-0.252869,0.183525,-0.014661,0.000458,0.002749
1765408900.798874,-9.900764,-0.211621,0.219393,-0.010690,0.007941,-0.004276
1765408900.799124,-10.001194,-0.050215,0.423840,-0.010079,0.011912,-0.007330
1765408900.799374,-9.930654,0.107604,0.316834,-0.008094,0.007636,-0.007178
1765408900.799624,-9.996411,0.248685,0.283357,-0.007789,0.007636,-0.000305
1765408900.799865,-10.095646,0.080105,0.396939,-0.007789,0.010079,-0.000305
1765408900.800065,-10.088473,-0.335366,0.453132,-0.009774,0.007483,0.010385
1765408900.800265,-10.044236,-0.445361,0.346724,-0.010690,0.004887,-0.002138
1765408900.800465,-10.111190,-0.062769,0.428025,-0.010690,0.006261,-0.012370
1765408900.800665,-9.958152,0.208034,0.282759,-0.008094,0.007025,-0.006261
1765408900.800892,-9.955761,0.280966,0.304878,-0.010079,0.006567,0.002443
1765408900.801092,-10.092658,0.036466,0.506934,-0.006720,0.006567,0.007636
1765408900.801292,-10.065758,-0.357484,0.361071,-0.010385,0.006567,0.007025
1765408900.801492,-10.016139,-0.407700,0.229555,-0.005498,-0.000305,-0.002596
1765408900.801692,-10.035269,-0.064562,0.319225,-0.005956,0.005498,-0.012217
1765408900.801911,-9.995216,0.187111,0.322812,-0.005956,0.008858,-0.012217
1765408900.802111,-9.892993,0.156624,0.191296,-0.009468,0.000305,0.000153
1765408900.802311,-10.001194,0.060976,0.308465,-0.006872,-0.001527,0.003207
1765408900.802511,-10.038258,-0.101028,0.451937,-0.010232,0.005498,0.002138
1765408900.802711,-9.976088,-0.245098,0.304280,-0.008094,0.003054,0.001222
1765408900.802842,-9.952174,-0.187709,0.193687,-0.009774,0.000153,-0.003665
1765408900.803042,-10.124342,-0.016738,0.381994,-0.008858,0.001222,-0.008247
1765408900.803242,-10.114776,0.133907,0.448350,-0.006720,0.004123,-0.004276
1765408900.803442,-10.073528,0.138690,0.309063,-0.007789,0.001527,0.004581
1765408900.803642,-9.917501,-0.052009,0.292922,-0.008858,0.000611,0.005498
1765408900.803839,-10.000596,-0.263032,0.289335,-0.007941,-0.001833,0.002291
1765408900.804039,-10.115973,-0.147657,0.436394,-0.008552,0.000764,-0.004581
1765408900.804239,-10.029889,0.004782,0.291726,-0.007941,0.001069,-0.005803
1765408900.804439,-9.868484,0.074127,0.111191,-0.007941,-0.001985,-0.003971
1765408900.804639,-9.892993,0.077714,0.166188,-0.008247,-0.002902,0.000000
1765408900.804831,-10.010758,0.001196,0.356289,-0.009010,-0.004276,0.000153
1765408900.805031,-10.113581,-0.083692,0.450143,-0.006567,-0.001069,0.002138
1765408900.805231,-10.017933,-0.136298,0.313845,-0.006109,0.000764,0.001069
1765408900.805431,-9.943208,-0.065758,0.221186,-0.007025,-0.003360,-0.003971
1765408900.805631,-10.004781,-0.007771,0.299498,-0.006261,-0.006720,-0.003818
1765408900.805846,-10.045432,0.040650,0.363462,-0.007789,-0.002138,-0.001374
1765408900.806096,-9.956957,0.028097,0.312052,-0.009927,-0.004581,-0.000611
1765408900.806346,-9.961740,0.044237,0.224773,-0.007178,-0.003054,0.001069
1765408900.806596,-10.013150,-0.053204,0.352702,-0.007483,-0.003971,0.003818
1765408900.808851,-10.004184,-0.119560,0.352702,-0.007941,-0.004123,0.001680
1765408900.811871,-9.931850,-0.124940,0.279770,-0.007941,-0.002138,-0.001833
1765408900.814807,-9.912122,0.017934,0.298900,-0.007789,-0.009010,-0.004887
1765408900.816890,-9.880439,0.071736,0.176949,-0.006261,-0.009316,-0.003207
1765408900.818853,-9.885818,0.080703,0.258250,-0.007025,-0.004429,0.001374
1765408900.821833,-9.968913,0.008369,0.367049,-0.008399,-0.004887,-0.000305
1765408900.823812,-10.011955,-0.125538,0.384983,-0.007941,-0.006414,0.000458
1765408900.826820,-9.955761,-0.174558,0.289335,-0.007483,-0.008094,-0.002291
1765408900.828855,-9.957555,-0.046628,0.388570,-0.005803,-0.007941,-0.005956
1765408900.831816,-9.955761,0.075921,0.382592,-0.008858,-0.003665,-0.005498
1765408900.834011,-9.925871,0.050813,0.303085,-0.008399,-0.004123,-0.001985
1765408900.837005,-9.936632,-0.019727,0.364658,-0.006109,-0.007941,-0.000305
1765408900.839840,-10.056191,-0.094452,0.481827,-0.008552,-0.007636,-0.001069
1765408900.840340,-9.971304,-0.194883,0.377212,-0.009621,-0.004123,-0.000611
1765408900.844844,-9.852941,-0.054998,0.232544,-0.006872,-0.008247,-0.004429
1765408900.846903,-9.933643,0.087279,0.316236,-0.005040,-0.007025,-0.005040
1765408900.848864,-9.980869,0.035270,0.399330,-0.007178,-0.007025,0.000916
1765408900.849865,-9.952772,-0.080105,0.330583,-0.008705,-0.006414,0.001985
1765408900.853845,-9.904350,-0.025108,0.278575,-0.006414,-0.007483,-0.000764
1765408900.856875,-9.863700,-0.096246,0.289933,-0.007941,-0.005803,-0.000916
1765408900.858883,-9.910329,-0.148852,0.344333,-0.008858,-0.012828,-0.000153
1765408900.861837,-10.059779,0.038259,0.439981,-0.007178,-0.008247,-0.004734
1765408900.864952,-10.059779,0.038259,0.439981,-0.007178,-0.003360,-0.004734
1765408900.866823,-9.756694,-0.015543,0.142276,-0.011301,-0.009316,0.004429
1765408900.869944,-9.773433,-0.117169,0.198470,-0.006720,-0.009316,0.000153
1765408900.870444,-10.003586,-0.071736,0.479436,-0.005803,-0.006872,-0.004429
1765408900.873833,-9.974891,-0.096844,0.370636,-0.005803,-0.005040,0.000458
1765408900.876846,-9.974891,-0.096844,0.370636,-0.005803,-0.006567,0.000458
1765408900.878842,-9.836202,0.031086,0.235533,-0.006109,-0.000305,-0.003971
1765408900.881867,-9.987445,0.037064,0.477044,-0.009010,-0.000305,-0.000611
1765408900.883906,-9.986250,-0.038857,0.359876,-0.004581,-0.002291,0.001527
1765408900.886927,-9.967119,-0.038259,0.322812,-0.005345,-0.004123,-0.001985
1765408900.887889,-9.956359,-0.029890,0.341942,-0.008552,-0.003818,0.000000
1765408900.891900,-9.925871,-0.049020,0.332377,-0.008247,-0.005498,0.001222
1765408900.893882,-9.967718,-0.045433,0.321616,-0.009621,-0.005498,-0.003207
1765408900.896864,-10.010758,0.003587,0.411286,-0.005956,-0.006414,-0.004123
1765408900.898823,-9.989837,-0.071736,0.381396,-0.008094,-0.001069,0.000916
1765408900.901855,-9.964130,-0.057389,0.319225,-0.005040,-0.003818,-0.000458
1765408900.904829,-9.929459,0.031086,0.320421,-0.005498,-0.001833,-0.001985
1765408900.906849,-9.940218,-0.005978,0.417264,-0.008247,-0.001833,0.000305
1765408900.909862,-9.920491,-0.112386,0.259445,-0.007483,-0.003512,0.002291
1765408900.911855,-9.905546,-0.095648,0.260641,-0.007178,-0.000916,-0.000611
1765408900.913914,-9.934240,-0.034672,0.326399,-0.006414,-0.000916,-0.003665
1765408900.914902,-9.934240,-0.034672,0.326399,-0.006414,-0.001833,-0.003665
1765408900.918846,-9.948587,-0.002391,0.297704,-0.006109,-0.005345,-0.002138
1765408900.921844,-9.993423,0.021521,0.332975,-0.006109,-0.005803,-0.002138
1765408900.923979,-10.015541,-0.060378,0.426829,-0.007025,-0.002291,0.000305
1765408900.926870,-9.945002,-0.120756,0.251076,-0.005498,-0.002291,0.000153
1765408900.927894,-9.945002,-0.120756,0.251076,-0.005498,-0.005345,0.000153
1765408900.931941,-10.001194,-0.004185,0.356887,-0.005803,-0.003818,-0.002443
1765408900.932935,-10.014346,-0.016738,0.346724,-0.007178,-0.003512,0.000764
1765408900.936911,-10.051410,0.002391,0.409493,-0.006567,-0.004276,-0.001680
1765408900.938889,-10.069344,0.014347,0.442372,-0.007789,-0.005192,0.000458
1765408900.941867,-9.946795,-0.100430,0.285151,-0.007483,-0.001985,0.002596
1765408900.943864,-9.861907,-0.166188,0.131516,-0.008858,-0.003512,0.000458
1765408900.946866,-9.949186,-0.112386,0.289335,-0.007025,-0.006109,-0.001680
1765408900.948841,-9.988043,0.028694,0.400526,-0.008399,-0.002291,-0.003360
1765408900.951856,-9.906742,0.025705,0.222979,-0.005192,-0.001069,0.000458
1765408900.952884,-9.839190,0.035868,0.184122,-0.006872,-0.002443,0.003360
1765408900.956858,-9.943806,-0.013152,0.337159,-0.009927,-0.007636,0.002596
1765408900.958889,-9.935436,-0.190100,0.340746,-0.008399,-0.005651,0.003207
1765408900.961932,-9.907937,-0.146461,0.218795,-0.007941,-0.002596,0.000305
1765408900.963886,-9.923481,0.007771,0.322214,-0.004887,-0.002596,-0.005498
1765408900.966820,-9.921089,-0.022716,0.285151,-0.005040,-0.001680,-0.002902
1765408900.968823,-9.948587,-0.065758,0.347322,-0.002902,-0.005956,-0.004276
1765408900.969859,-10.092658,-0.015543,0.453132,-0.007789,-0.006872,-0.002596
1765408900.973840,-10.092658,-0.015543,0.453132,-0.007789,-0.005345,-0.002596
1765408900.976845,-9.922883,-0.112386,0.230751,-0.003971,-0.001985,0.000611
1765408900.978859,-9.924676,-0.041846,0.297704,-0.004581,-0.006414,-0.001527
1765408900.981810,-9.955761,-0.020325,0.429220,-0.005956,-0.003360,-0.000458
1765408900.984810,-9.922284,-0.041846,0.294118,-0.003360,-0.003207,0.004887
1765408900.986847,-9.922284,-0.041846,0.294118,-0.003360,-0.006414,0.004887
1765408900.989829,-10.033475,-0.049617,0.468077,-0.007941,-0.004429,-0.003207
1765408900.991826,-9.962935,-0.136896,0.367049,-0.005192,-0.007789,0.000000
1765408900.993840,-9.799137,-0.108800,0.095648,-0.004581,-0.005192,0.000611
1765408900.996876,-9.817072,-0.033477,0.210426,-0.006567,-0.005192,-0.003512
1765408900.999848,-9.946198,0.005978,0.381396,-0.003818,-0.000611,-0.003818
1765408901.001841,-9.948587,-0.078312,0.316834,-0.004123,-0.003818,-0.000153
1765408901.004916,-9.849353,-0.072932,0.214012,-0.007483,-0.007025,-0.004276
1765408901.006891,-9.845766,-0.017934,0.255858,-0.006109,-0.002902,-0.004123
1765408901.007882,-9.788378,-0.045433,0.242707,-0.005345,-0.001680,-0.002291
1765408901.011971,-9.764465,-0.095648,0.150646,-0.001222,-0.005345,-0.001680
1765408901.013899,-9.870276,-0.039455,0.332377,-0.005040,-0.004123,-0.005651
1765408901.016873,-10.020324,0.009565,0.439383,-0.006720,-0.001985,-0.004276
1765408901.018945,-10.047226,0.009565,0.405308,-0.005040,-0.004123,-0.000764
1765408901.021978,-10.060975,-0.004185,0.402917,-0.004734,-0.001680,-0.004734
1765408901.023903,-10.008368,-0.047824,0.379005,-0.006872,-0.001527,-0.001222
1765408901.026921,-9.959349,-0.132712,0.265423,-0.004887,-0.009468,0.000305
1765408901.028942,-9.968913,-0.172764,0.278575,-0.004581,-0.009927,-0.003054
1765408901.031923,-10.137493,-0.038857,0.468675,-0.002749,-0.005956,-0.004581
1765408901.033873,-10.047822,-0.013749,0.389766,-0.004123,-0.001833,-0.001222
1765408901.036967,-9.911524,-0.041846,0.257054,-0.004123,-0.004123,-0.004123
1765408901.038889,-9.995216,-0.019130,0.329986,-0.006720,-0.005040,-0.003054
1765408901.041930,-10.061573,-0.051411,0.444763,-0.004734,-0.001833,-0.003971
1765408901.043859,-9.925871,-0.143472,0.264228,-0.006414,-0.005040,-0.002749
1765408901.046881,-9.850550,-0.141081,0.133907,-0.005956,-0.007636,-0.004581
1765408901.048889,-9.837996,0.013749,0.225968,-0.005040,-0.003512,-0.009010
1765408901.051853,-9.824843,0.020923,0.250478,-0.002138,-0.003054,-0.003818
1765408901.053876,-9.831419,-0.002391,0.216404,-0.004734,-0.003054,-0.004429
1765408901.056875,-9.986848,-0.021521,0.255858,-0.006720,-0.005803,-0.004276
1765408901.057835,-9.929459,-0.096246,0.222382,-0.005192,-0.004581,-0.005498
1765408901.061831,-9.858918,-0.153037,0.099235,-0.003054,-0.002596,-0.005192
1765408901.063838,-9.840983,-0.030488,0.092061,-0.002902,-0.001222,-0.007636
1765408901.066836,-9.998206,0.077714,0.418460,-0.003054,-0.001222,-0.008552
1765408901.067832,-10.029889,0.043042,0.407700,-0.001680,0.001222,-0.004123
1765408901.071850,-10.072930,0.001196,0.432807,-0.003512,0.000458,-0.001069
1765408901.072908,-10.057388,-0.069345,0.380799,-0.005803,0.000000,-0.000611
1765408901.076829,-10.087276,-0.135701,0.453132,-0.004581,-0.005651,-0.003818
1765408901.078837,-10.130320,-0.176949,0.414873,-0.003360,-0.006567,-0.005192
1765408901.081932,-10.143471,-0.078910,0.450741,-0.001985,-0.005498,-0.005803
1765408901.083835,-10.023911,-0.025108,0.294118,-0.002902,-0.008399,-0.005192
1765408901.086856,-9.953967,-0.009565,0.248685,-0.003971,-0.012981,-0.005803
1765408901.088849,-10.022716,-0.010760,0.325203,-0.005345,-0.008705,-0.005040
1765408901.091889,-10.032280,-0.068149,0.355093,-0.005040,-0.010690,-0.004734
1765408901.093867,-9.984456,-0.133309,0.188905,-0.003054,-0.010843,-0.007636
1765408901.096903,-9.943208,-0.098637,0.186514,-0.003360,-0.009468,-0.007330
1765408901.099917,-9.981467,-0.040650,0.284553,-0.004123,-0.009468,-0.005192
1765408901.100417,-9.981467,-0.040650,0.284553,-0.004123,-0.007178,-0.005192
1765408901.104845,-9.907339,-0.027499,0.182927,-0.001374,-0.011454,-0.006567
1765408901.105345,-10.123145,0.084290,0.407102,-0.002596,-0.010537,-0.009927
1765408901.108883,-10.203251,-0.032281,0.527260,-0.002291,-0.009163,-0.003971
1765408901.111873,-10.034670,-0.129125,0.282162,-0.000916,-0.009163,-0.002138
1765408901.113912,-10.059779,-0.129125,0.298900,-0.003512,-0.015577,-0.005498
1765408901.116904,-9.983260,-0.088474,0.369440,-0.003054,-0.012981,-0.006414
1765408901.118909,-9.969511,-0.001196,0.326399,-0.001374,-0.014661,-0.005192
1765408901.121859,-9.943208,0.057987,0.309660,-0.002749,-0.011148,-0.005651
1765408901.123888,-10.050812,0.021521,0.555356,-0.004123,-0.011148,-0.002902
1765408901.126884,-9.895982,-0.230751,0.332377,-0.004429,-0.014813,0.000305
1765408901.128862,-9.833213,-0.252272,0.028694,-0.003207,-0.021533,-0.004123
1765408901.131876,-10.010758,-0.104017,0.224773,-0.004887,-0.021533,-0.012523
1765408901.132867,-10.015541,-0.081899,0.334768,-0.004887,-0.012217,-0.012523
1765408901.136839,-10.021520,-0.023912,0.332377,-0.002291,-0.013897,-0.010843
1765408901.138883,-10.088473,0.101626,0.392157,-0.004581,-0.013744,-0.009468
1765408901.141864,-9.986848,0.020325,0.278575,-0.003207,-0.010385,-0.006109
1765408901.143845,-9.918099,-0.162602,0.255858,-0.002291,-0.013592,-0.001833
1765408901.145884,-9.918099,-0.162602,0.255858,-0.002291,-0.017868,-0.001833
1765408901.148876,-9.930654,-0.101626,0.334170,-0.000458,-0.020617,-0.009774
1765408901.151851,-9.875656,0.084290,0.151841,0.000611,-0.016188,-0.011454
1765408901.153830,-9.873863,0.168580,0.269010,-0.000458,-0.013897,-0.008094
1765408901.156926,-10.009563,-0.029292,0.619321,-0.001374,-0.011606,-0.001985
1765408901.158861,-10.009563,-0.029292,0.619321,-0.001374,-0.014966,-0.001985
1765408901.161923,-9.845766,-0.257054,0.050215,-0.001985,-0.021838,-0.002902
1765408901.163888,-9.929459,-0.212817,0.254663,-0.000916,-0.018326,-0.010537
1765408901.166903,-10.043041,-0.082496,0.426231,0.004581,-0.015577,-0.009927
1765408901.168912,-9.974294,0.063367,0.400526,0.000153,-0.022755,-0.012523
1765408901.172020,-9.971304,0.083692,0.258250,-0.005345,-0.019090,-0.010385
1765408901.173975,-9.833811,0.047824,0.117169,-0.003207,-0.012828,-0.006567
1765408901.176916,-9.863102,-0.043042,0.150646,-0.002749,-0.016341,-0.005803
1765408901.178928,-9.972500,-0.120158,0.364658,-0.002138,-0.014813,-0.005192
1765408901.181895,-10.103418,-0.054998,0.457915,-0.001527,-0.014813,-0.010843
1765408901.183850,-9.946198,-0.037064,0.280966,0.001680,-0.010079,-0.006872
1765408901.187260,-9.950979,-0.084888,0.259445,-0.001680,-0.015730,-0.004734
1765408901.187760,-10.094451,-0.126136,0.554758,-0.001833,-0.010537,-0.010385
1765408901.191910,-9.948587,-0.113582,0.381994,-0.001985,-0.008094,-0.010996
1765408901.193832,-9.843375,-0.039455,0.090866,-0.000458,-0.017410,-0.007330
1765408901.194873,-9.968913,0.115973,0.307269,0.003360,-0.018784,-0.012981
1765408901.197854,-10.068746,0.034075,0.548780,-0.001527,-0.010079,-0.007636
1765408901.201846,-9.956957,-0.034672,0.411884,-0.000153,-0.009468,-0.003512
1765408901.203851,-9.990434,0.004185,0.313247,-0.002902,-0.014355,-0.003512
1765408901.206855,-9.966521,-0.047226,0.393352,-0.002596,-0.015730,-0.006567
1765408901.208856,-9.888808,-0.142276,0.204448,-0.000916,-0.014966,-0.006720
1765408901.209882,-9.872667,-0.154232,0.184720,-0.003665,-0.012217,-0.009163
1765408901.214267,-9.959349,-0.112984,0.285151,-0.001527,-0.013744,-0.009010
1765408901.216918,-9.949782,-0.070540,0.300096,0.000764,-0.008552,-0.007178
1765408901.218861,-10.035269,-0.000598,0.475251,0.002138,-0.010843,-0.008399
1765408901.221868,-9.983260,-0.059780,0.424438,-0.001069,-0.007178,-0.008858
1765408901.223874,-9.984456,-0.032281,0.404113,0.000916,-0.011912,-0.013439
1765408901.226895,-9.964130,0.077714,0.194883,0.000764,-0.015577,-0.011759
1765408901.228852,-10.050812,0.139885,0.339550,-0.002902,-0.014966,-0.009621
1765408901.231870,-10.013150,-0.040650,0.302487,-0.002596,-0.009163,-0.007636
1765408901.234613,-9.929459,-0.130918,0.277379,0.000458,-0.009316,-0.003512
1765408901.236878,-9.975489,-0.178742,0.371234,0.001680,-0.014661,-0.010690
1765408901.238905,-10.031085,-0.200861,0.536824,-0.001222,-0.011606,-0.012217
1765408901.241913,-10.004781,-0.136896,0.290531,0.000611,-0.016952,-0.011301
1765408901.243866,-9.794355,-0.108202,0.074127,0.000916,-0.016341,-0.010843
1765408901.246888,-9.794355,-0.108202,0.074127,0.000916,-0.015882,-0.010843
1765408901.248882,-10.031085,0.102822,0.429220,0.002291,-0.011912,-0.009927
1765408901.251851,-9.992825,-0.014945,0.477044,0.002596,-0.011912,-0.009316
1765408901.253879,-9.872667,-0.027499,0.176351,-0.001069,-0.016341,-0.009927
1765408901.256854,-9.940218,-0.107006,0.294715,-0.005345,-0.013744,-0.009621
1765408901.257892,-9.884026,-0.111191,0.288140,-0.001069,-0.013592,-0.012065
1765408901.261893,-9.909132,-0.057987,0.234338,-0.001680,-0.013439,-0.009468
1765408901.263906,-9.850550,-0.178742,0.313247,-0.000458,-0.010996,-0.005803
1765408901.266963,-9.950979,-0.243902,0.408297,0.000764,-0.014966,-0.006872
1765408901.268865,-10.096842,-0.252869,0.521282,0.000458,-0.015272,-0.009316
1765408901.271876,-10.109993,-0.131516,0.457915,-0.001527,-0.015272,-0.018937
1765408901.273870,-9.943208,-0.022119,0.259445,-0.000458,-0.012981,-0.019548
1765408901.274943,-10.040649,0.050215,0.345528,-0.001222,-0.014966,-0.016799
1765408901.278849,-10.008368,0.074127,0.302487,-0.003512,-0.014966,-0.011606
1765408901.281862,-10.055594,0.062171,0.394548,-0.002749,-0.010996,-0.009927
1765408901.283861,-9.940218,-0.030488,0.355093,-0.005192,-0.010996,-0.012828
1765408901.286850,-10.025704,-0.118364,0.352104,-0.007178,-0.014355,-0.007789
1765408901.288883,-10.042442,-0.143472,0.450741,-0.005040,-0.012828,-0.011912
1765408901.291904,-10.019128,-0.187709,0.349115,-0.002902,-0.013897,-0.009010
1765408901.293866,-9.916306,-0.249283,0.231946,-0.003818,-0.016646,-0.011148
1765408901.296861,-9.972500,-0.175753,0.233142,0.003512,-0.019548,-0.013897
1765408901.298925,-9.972500,-0.175753,0.406504,0.003512,-0.016035,-0.013897
1765408901.301871,-10.031682,-0.033477,0.398135,0.003971,-0.009927,-0.017715
1765408901.303902,-10.034670,0.164993,0.377810,0.004581,-0.009927,-0.018479
1765408901.306894,-10.011955,0.096844,0.545194,0.003971,-0.012523,-0.013744
1765408901.307900,-9.834408,-0.040650,0.301291,0.001985,-0.014508,-0.009468
1765408901.311864,-9.837397,-0.223577,0.203252,0.001680,-0.020922,-0.010079
1765408901.313859,-9.890601,-0.212817,0.205045,0.003207,-0.012675,-0.013439
1765408901.314907,-9.899570,-0.148254,0.273195,0.004734,-0.012675,-0.010385
1765408901.318940,-10.019726,0.019727,0.489000,0.002749,-0.016646,-0.012828
1765408901.321957,-9.901959,-0.062171,0.363462,0.000764,-0.011606,-0.011759
1765408901.323883,-9.927666,-0.176351,0.365854,0.000916,-0.018479,-0.009010
1765408901.326939,-10.037063,-0.271999,0.332377,0.004123,-0.022907,-0.011301
1765408901.328852,-10.057985,-0.182927,0.329986,0.004429,-0.018326,-0.014813
1765408901.331928,-10.057985,-0.182927,0.329986,0.004429,-0.012065,-0.014813
1765408901.333861,-9.879841,0.130918,0.238522,0.005498,-0.020617,-0.019242
1765408901.336959,-10.026900,0.150048,0.447154,0.001985,-0.020617,-0.015577
1765408901.338907,-10.108798,0.070540,0.396341,0.004734,-0.016035,-0.010537
1765408901.342820,-9.937828,-0.193687,0.161406,0.002291,-0.013897,-0.007941
1765408901.343891,-9.772835,-0.261836,0.089670,0.004887,-0.017562,-0.013897
1765408901.346895,-9.948587,-0.074725,0.370038,0.004581,-0.010843,-0.019242
1765408901.348905,-9.953967,-0.019130,0.520086,0.005651,-0.012065,-0.015424
1765408901.351859,-9.918698,-0.019130,0.383788,0.004123,-0.013439,-0.013286
1765408901.352919,-9.940218,0.008369,0.190100,0.005345,-0.016646,-0.013286
1765408901.356875,-10.066953,-0.209230,0.401722,0.002291,-0.017868,-0.015730
1765408901.359900,-10.029889,-0.129125,0.290531,0.002902,-0.012217,-0.016341
1765408901.361881,-9.873264,-0.098039,0.190100,0.003971,-0.019242,-0.016799
1765408901.363926,-10.049617,0.046628,0.469273,0.000764,-0.021075,-0.021228
1765408901.366854,-9.961142,0.039455,0.412482,0.002749,-0.012981,-0.013439
1765408901.369898,-9.775226,-0.044237,0.133309,0.004123,-0.012981,-0.010996
1765408901.371872,-9.835006,-0.088474,0.172166,0.000000,-0.015272,-0.016799
1765408901.373883,-10.104015,-0.170971,0.520086,0.002902,-0.020006,-0.015119
1765408901.376869,-10.167382,-0.185916,0.554161,0.006414,-0.021838,-0.015577
1765408901.379886,-9.996411,-0.110593,0.300693,-0.000458,-0.017257,-0.022449
1765408901.381897,-9.752509,0.089670,0.066954,0.002596,-0.012981,-0.020464
1765408901.383906,-9.699903,-0.054400,-0.020325,0.001833,-0.019395,-0.010843
1765408901.386856,-10.008368,-0.086681,0.370636,0.004276,-0.020159,-0.015119
1765408901.388862,-10.261237,-0.138690,0.689263,0.006567,-0.010385,-0.016493
1765408901.391990,-10.002987,-0.273792,0.446557,0.006414,-0.009316,-0.013134
1765408901.393897,-9.860114,-0.112984,0.235533,0.006872,-0.021991,-0.020006
1765408901.396854,-10.158416,0.059182,0.577475,0.003512,-0.022144,-0.023060
1765408901.399872,-10.047226,0.014347,0.285748,0.003054,-0.022144,-0.015882
1765408901.400372,-9.789574,-0.107604,-0.004782,0.007025,-0.020311,-0.014813
1765408901.404910,-9.803921,-0.108202,0.147059,0.005498,-0.016646,-0.017715
1765408901.406908,-10.092059,-0.206839,0.572692,0.001069,-0.016646,-0.018631
1765408901.408899,-10.010758,-0.285748,0.319225,0.001069,-0.018784,-0.018631
1765408901.411866,-9.708273,-0.162004,-0.100430,0.003818,-0.018479,-0.023824
1765408901.413884,-9.766259,0.114778,0.127331,0.003665,-0.011606,-0.024893
1765408901.416965,-10.012553,0.105213,0.663558,0.008399,-0.008247,-0.017257
1765408901.417934,-10.056191,0.025108,0.769369,0.006567,-0.018631,-0.013286
1765408901.421867,-9.965326,-0.191296,0.322812,-0.000458,-0.027489,-0.015119
1765408901.423955,-9.905546,-0.312649,0.007174,0.005651,-0.026420,-0.017562
1765408901.424895,-9.949782,-0.324605,0.113582,0.009774,-0.023976,-0.018631
1765408901.429950,-10.052007,-0.078910,0.543998,0.004276,-0.020006,-0.024893
1765408901.431980,-10.066953,0.075323,0.461502,0.000153,-0.018784,-0.025351
1765408901.433878,-9.979673,0.059182,0.358680,0.002138,-0.019395,-0.018937
1765408901.434882,-9.855330,-0.041846,0.034075,0.007025,-0.025656,-0.015882
1765408901.439921,-9.976088,-0.159613,0.285748,0.001527,-0.025504,-0.018479
1765408901.440421,-9.941415,-0.273792,0.245098,0.002596,-0.016341,-0.019700
1765408901.442891,-9.949782,-0.217599,0.200861,0.006261,-0.024129,-0.022449
1765408901.446910,-9.997607,-0.020325,0.413678,0.009163,-0.020311,-0.026878
1765408901.448907,-9.984456,0.138092,0.418460,0.003512,-0.013439,-0.023976
1765408901.451894,-9.947989,0.107604,0.475849,0.005956,-0.018173,-0.015882
1765408901.452893,-9.866092,-0.169177,0.194883,0.006872,-0.025962,-0.012981
1765408901.456871,-10.206838,-0.272597,0.561932,0.006261,-0.032529,-0.019242
1765408901.459926,-10.090864,-0.270803,0.344931,0.007025,-0.026725,-0.024435
1765408901.460426,-10.002390,-0.037064,0.259445,0.007178,-0.025504,-0.025809
1765408901.463876,-9.845766,0.100430,0.222382,0.004734,-0.025504,-0.026573
1765408901.466922,-9.897178,0.107604,0.087877,0.005345,-0.030543,-0.017562
1765408901.468909,-9.916904,-0.082496,0.036466,0.005498,-0.027336,-0.015424
1765408901.471931,-9.916904,-0.082496,0.036466,0.005498,-0.018937,-0.015424
1765408901.473949,-10.114776,-0.268412,0.679101,0.005956,-0.010996,-0.017257
1765408901.476937,-9.915112,-0.298900,0.374821,0.006567,-0.020311,-0.020464
1765408901.478955,-9.940218,-0.169775,0.249283,0.005040,-0.026725,-0.025656
1765408901.479913,-9.878048,-0.071736,0.150646,0.006414,-0.023060,-0.023824
1765408901.484944,-9.878048,-0.071736,0.150646,0.006414,-0.025656,-0.023824
1765408901.486880,-9.962337,-0.004185,0.351506,0.006109,-0.025351,-0.023060
1765408901.488913,-10.010758,-0.077714,0.219990,0.008094,-0.025351,-0.021380
1765408901.491911,-9.945002,-0.253467,0.190698,0.009163,-0.019395,-0.021075
1765408901.493892,-10.042442,-0.151243,0.529053,0.009468,-0.023824,-0.022755
1765408901.496936,-10.168577,-0.049020,0.766380,0.007178,-0.020006,-0.024587
1765408901.498879,-9.870873,-0.078910,0.178144,0.001985,-0.033445,-0.021686
1765408901.501944,-9.907937,-0.096844,0.137494,0.003818,-0.033445,-0.024740
1765408901.502931,-9.983260,-0.099235,0.271999,0.006567,-0.024893,-0.021228
1765408901.504907,-10.222381,-0.107006,0.877571,0.004887,-0.024282,-0.022907
1765408901.508924,-10.080702,-0.192492,0.578670,0.004887,-0.024282,-0.025351
1765408901.511888,-9.805116,-0.187709,0.014347,0.005651,-0.034667,-0.022907
1765408901.513881,-9.718434,-0.101626,-0.045433,0.006261,-0.032529,-0.025809
1765408901.516902,-9.873264,-0.064562,0.314443,0.010996,-0.025504,-0.024893
1765408901.517938,-10.096842,-0.041846,0.701817,0.009927,-0.024893,-0.023366
1765408901.521920,-9.952174,-0.099235,0.422047,0.007025,-0.024893,-0.023824
1765408901.523930,-9.952174,-0.099235,0.422047,0.007025,-0.031460,-0.023824
1765408901.526919,-9.830223,-0.191894,0.050215,0.010232,-0.037568,-0.023213
1765408901.527912,-9.833213,-0.094452,0.113582,0.009316,-0.035583,-0.026878
1765408901.531910,-9.950979,0.014945,0.374223,0.006567,-0.023671,-0.030543
1765408901.532969,-9.988641,0.012554,0.401124,0.009316,-0.023671,-0.021686
1765408901.539006,-9.988641,0.012554,0.401124,0.009316,-0.029016,-0.021686
1765408901.539506,-10.249879,-0.087279,0.460306,0.003818,-0.027336,-0.027184
1765408901.541996,-10.099831,-0.231946,0.475849,0.007483,-0.025504,-0.022449
1765408901.543904,-9.857722,-0.271401,0.113582,0.004887,-0.031460,-0.025198
1765408901.546880,-9.972500,-0.038857,0.279770,0.008094,-0.032070,-0.032529
1765408901.548902,-10.093256,-0.004782,0.334768,0.011454,-0.023976,-0.029780
1765408901.549900,-9.892395,-0.005978,0.257054,0.011759,-0.018937,-0.022602
1765408901.553879,-9.867885,-0.104017,0.239120,0.006567,-0.018937,-0.024587
1765408901.556875,-10.212815,-0.095648,0.908058,0.009621,-0.018173,-0.024893
1765408901.557907,-10.206240,-0.361071,0.790292,0.008094,-0.022602,-0.017868
1765408901.559896,-9.916306,-0.302487,0.408895,0.008858,-0.034972,-0.027947
1765408901.563930,-9.761477,-0.029890,0.003587,0.008094,-0.034667,-0.038026
1765408901.566882,-9.807508,0.037064,0.109995,0.013744,-0.034667,-0.025809
1765408901.567963,-9.879243,-0.045433,0.210426,0.008399,-0.038026,-0.022449
1765408901.571882,-10.142276,-0.062171,0.337159,0.003665,-0.035277,-0.027947
1765408901.573876,-10.002390,-0.294118,0.264228,0.002443,-0.023976,-0.027031
1765408901.577039,-10.030487,-0.347322,0.435198,0.009163,-0.027184,-0.023366
1765408901.578021,-10.071735,-0.214012,0.700622,0.006261,-0.026573,-0.032681
1765408901.581935,-10.071735,-0.214012,0.700622,0.006261,-0.026878,-0.032681
1765408901.583909,-9.874461,0.013152,0.095648,0.010079,-0.031918,-0.026725
1765408901.586979,-9.961740,-0.083692,0.218795,0.010079,-0.038179,-0.025962
1765408901.588936,-10.074127,-0.200861,0.441176,0.011454,-0.021380,-0.025045
1765408901.592080,-9.757292,-0.387374,0.210426,0.011454,-0.021380,-0.024587
1765408901.593891,-9.686751,-0.298302,0.202654,0.016952,-0.025504,-0.031765
1765408901.596883,-9.793160,-0.021521,0.344931,0.015119,-0.026420,-0.030391
1765408901.598909,-10.035867,-0.014347,0.434003,0.013592,-0.030543,-0.026725
1765408901.601952,-9.987445,-0.050215,0.448948,0.015272,-0.024893,-0.027947
1765408901.603942,-10.050812,-0.088474,0.431612,0.012217,-0.024893,-0.027184
1765408901.606988,-9.912122,-0.283955,0.384385,0.010690,-0.029780,-0.024740
1765408901.608979,-9.894188,-0.374223,0.305476,0.010690,-0.033139,-0.029932
1765408901.611900,-9.791367,-0.296509,0.203850,0.014050,-0.035125,-0.033598
1765408901.613893,-9.818865,-0.092061,0.220588,0.010843,-0.034514,-0.036041
1765408901.616928,-9.970109,0.012554,0.369440,0.007941,-0.031307,-0.033445
1765408901.618837,-10.001194,-0.026303,0.438785,0.009927,-0.028711,-0.024129
1765408901.621915,-9.887612,-0.301889,0.335366,0.008552,-0.027031,-0.023213
1765408901.623896,-9.840983,-0.358082,0.279770,0.013744,-0.028711,-0.029780
1765408901.626891,-9.936033,-0.352702,0.383788,0.015577,-0.031612,-0.034056
1765408901.628899,-9.933045,-0.188905,0.288737,0.019548,-0.034208,-0.035277
1765408901.631914,-10.004781,-0.014347,0.245098,0.015730,-0.034819,-0.035736
1765408901.633924,-9.942610,0.016141,0.301291,0.016952,-0.027642,-0.033139
1765408901.636928,-9.917501,-0.076518,0.350311,0.018479,-0.027184,-0.026878
1765408901.638934,-10.078907,-0.216404,0.624103,0.014508,-0.032223,-0.028253
1765408901.641932,-10.192491,-0.343137,0.647417,0.011912,-0.027184,-0.028711
1765408901.643910,-10.057388,-0.345528,0.294118,0.016952,-0.037263,-0.030543
1765408901.644944,-9.937828,-0.239120,0.180536,0.014355,-0.027947,-0.037568
1765408901.650835,-9.927666,-0.016738,0.273792,0.014355,-0.027947,-0.035277
1765408901.651982,-9.964130,0.002391,0.543998,0.013592,-0.025198,-0.029780
1765408901.653963,-9.973696,-0.086083,0.466284,0.012065,-0.032223,-0.030085
1765408901.656901,-10.115973,-0.209230,0.454328,0.007941,-0.038179,-0.028405
1765408901.658899,-10.028693,-0.399928,0.356887,0.014813,-0.029932,-0.031460
1765408901.661966,-10.106407,-0.278575,0.403515,0.018784,-0.029932,-0.032223
1765408901.663932,-9.947989,-0.150646,0.285748,0.017410,-0.030085,-0.037568
1765408901.667008,-9.831419,-0.011956,-0.013152,0.016188,-0.031001,-0.037415
1765408901.668946,-9.797942,-0.086083,0.190100,0.020769,-0.025504,-0.030238
1765408901.671382,-9.916306,-0.150646,0.516499,0.021533,-0.023060,-0.029016
1765408901.673945,-10.074724,-0.257054,0.824964,0.017868,-0.026725,-0.032070
1765408901.676914,-9.996411,-0.373027,0.392157,0.014966,-0.029016,-0.035430
1765408901.678906,-9.833811,-0.184720,0.237924,0.024893,-0.039248,-0.038790
1765408901.681921,-9.765661,-0.078312,0.146461,0.020159,-0.034208,-0.037110
1765408901.682940,-9.742945,0.022119,0.164993,0.013286,-0.034208,-0.034667
1765408901.686893,-9.941415,-0.015543,0.220588,0.012523,-0.034208,-0.034056
1765408901.688895,-10.245097,-0.066356,0.794476,0.014966,-0.029627,-0.030238
1765408901.691905,-10.211022,-0.273792,0.902678,0.017562,-0.036805,-0.030391
1765408901.693903,-9.842180,-0.445959,0.331181,0.015577,-0.036805,-0.032987
1765408901.696898,-9.842180,-0.445959,0.331181,0.015577,-0.049633,-0.032987
1765408901.698924,-9.886416,-0.026901,0.020923,0.018326,-0.039401,-0.044288
1765408901.701989,-10.022716,0.066954,0.652798,0.022449,-0.028100,-0.033292
1765408901.703916,-9.962935,-0.027499,0.496174,0.020769,-0.034361,-0.027642
1765408901.704889,-9.915709,-0.270206,0.318030,0.016035,-0.034361,-0.033903
1765408901.708945,-9.915709,-0.270206,0.318030,0.016035,-0.032070,-0.033903
1765408901.712000,-9.741151,-0.343735,0.033477,0.024740,-0.031765,-0.036041
1765408901.714925,-10.037063,-0.083692,0.687470,0.018479,-0.029016,-0.048106
1765408901.716929,-10.195478,0.127929,0.669536,0.015424,-0.029780,-0.043219
1765408901.720059,-10.056790,-0.021521,0.589431,0.014966,-0.029780,-0.027947
1765408901.721939,-9.873264,-0.279173,0.236131,0.011759,-0.031460,-0.032681
1765408901.723980,-10.054996,-0.341942,0.533238,0.013134,-0.041386,-0.033445
1765408901.726978,-10.050812,-0.478240,0.444763,0.018326,-0.041386,-0.035125
1765408901.728942,-10.043041,-0.120158,0.408895,0.022297,-0.044135,-0.042913
1765408901.731953,-9.956359,0.041846,0.431612,0.021533,-0.031765,-0.042608
1765408901.733977,-9.763269,-0.077714,0.172166,0.020006,-0.032834,-0.032987
1765408901.736914,-9.870873,-0.117767,0.185916,0.021380,-0.033139,-0.032070
1765408901.738932,-10.060975,-0.160210,0.505141,0.022907,-0.033139,-0.034972
1765408901.741923,-10.060975,-0.160210,0.505141,0.022907,-0.032529,-0.034972
1765408901.742938,-9.893590,-0.350311,0.234338,0.020311,-0.041081,-0.033292
1765408901.748890,-9.986848,-0.162004,0.150646,0.015577,-0.040623,-0.045051
1765408901.748943,-9.945600,-0.104615,0.131516,0.018784,-0.030543,-0.039248
1765408901.751947,-9.839788,-0.081301,0.255858,0.021533,-0.025504,-0.037263
1765408901.753912,-9.839788,-0.081301,0.255858,0.021533,-0.028711,-0.037263
1765408901.756901,-10.341342,-0.217599,1.025227,0.016341,-0.039706,-0.034819
1765408901.758916,-10.103418,-0.483022,0.539216,0.018937,-0.039706,-0.036652
1765408901.761951,-9.696316,-0.516499,-0.047824,0.022907,-0.044288,-0.041539
1765408901.764906,-9.730989,-0.164993,0.053802,0.020769,-0.039554,-0.048564
1765408901.766924,-9.961740,-0.164993,0.376614,0.020769,-0.036346,-0.048564
1765408901.769929,-10.280965,0.034672,0.873984,0.024435,-0.036805,-0.037263
1765408901.771912,-10.175154,-0.150646,0.450143,0.022602,-0.037568,-0.035430
1765408901.774903,-9.911524,-0.436992,0.191894,0.021228,-0.039095,-0.036957
1765408901.776922,-9.796746,-0.414873,0.087279,0.026878,-0.039095,-0.040470
1765408901.778980,-9.832017,-0.202056,0.359876,0.024435,-0.042302,-0.040928
1765408901.781955,-9.987445,-0.019727,0.547585,0.021228,-0.037721,-0.043677
1765408901.783980,-9.976088,0.010760,0.380201,0.017868,-0.036499,-0.034667
1765408901.786895,-10.040051,-0.164993,0.507532,0.019090,-0.039706,-0.030849
1765408901.788946,-10.107603,-0.200861,0.593018,0.021686,-0.037721,-0.036041
1765408901.791920,-9.805714,-0.484816,0.266021,0.018784,-0.038790,-0.030849
1765408901.794922,-9.677187,-0.578073,-0.118364,0.022755,-0.047953,-0.037721
1765408901.796894,-9.989238,-0.258847,0.321019,0.027336,-0.045357,-0.049175
1765408901.799933,-10.182925,0.015543,0.763391,0.025962,-0.037415,-0.049175
1765408901.801958,-9.936033,0.001196,0.622908,0.020464,-0.032987,-0.038637
1765408901.803907,-9.753107,-0.106408,0.029890,0.021991,-0.041997,-0.037874
1765408901.806910,-9.868484,-0.436394,0.125538,0.020769,-0.047647,-0.037721
1765408901.808944,-10.114776,-0.545791,0.595409,0.027642,-0.038485,-0.043066
1765408901.811939,-10.086082,-0.302487,0.653993,0.031001,-0.029932,-0.045509
1765408901.813897,-10.074127,-0.041846,0.651602,0.026725,-0.037568,-0.049022
1765408901.816902,-10.010758,0.091463,0.352702,0.025351,-0.037568,-0.045357
1765408901.818965,-9.913317,-0.114778,0.340746,0.028253,-0.043830,-0.031612
1765408901.821983,-9.952174,-0.310856,0.529053,0.024587,-0.042455,-0.036346
1765408901.824009,-10.153036,-0.205643,0.673123,0.025809,-0.039095,-0.041081
1765408901.827131,-9.976685,-0.417264,0.497967,0.022449,-0.044288,-0.038026
1765408901.828941,-9.766259,-0.313247,0.022119,0.024740,-0.047800,-0.042913
1765408901.831918,-9.681969,-0.056193,-0.097441,0.022449,-0.043677,-0.048258
1765408901.833916,-9.837996,0.026303,0.400526,0.024282,-0.035736,-0.040623
1765408901.836917,-10.078907,-0.046628,0.713773,0.022755,-0.032070,-0.036652
1765408901.837971,-10.186513,-0.315638,0.816595,0.020006,-0.037568,-0.036805
1765408901.841954,-9.850550,-0.594213,0.172166,0.023213,-0.040623,-0.040470
1765408901.842949,-9.634145,-0.490196,-0.019130,0.032529,-0.048869,-0.047037
1765408901.846924,-9.932447,-0.111789,0.520086,0.031612,-0.041539,-0.054062
1765408901.848910,-10.253465,0.112984,0.978599,0.028405,-0.037263,-0.048411
1765408901.851946,-10.118960,-0.053802,0.637255,0.023976,-0.043219,-0.038943
1765408901.853928,-9.849353,-0.197872,0.009565,0.025351,-0.049633,-0.037110
1765408901.857116,-9.906144,-0.271401,0.265423,0.020769,-0.049327,-0.039706
1765408901.858995,-10.009563,-0.503348,0.529053,0.023213,-0.042913,-0.042150
1765408901.861993,-9.945002,-0.410091,0.463295,0.023213,-0.047953,-0.044593
1765408901.863965,-9.924078,-0.196078,0.334768,0.021228,-0.049633,-0.055741
1765408901.866976,-9.827832,0.090268,0.164993,0.026267,-0.043830,-0.050396
1765408901.869045,-9.872667,0.081899,0.414873,0.026573,-0.037721,-0.035736
1765408901.871999,-10.086082,-0.239718,0.569703,0.020464,-0.036805,-0.034667
1765408901.872974,-10.266617,-0.414873,0.931372,0.023671,-0.038179,-0.038637
1765408901.877021,-9.974891,-0.532042,0.379005,0.027031,-0.043524,-0.042150
1765408901.880020,-9.736369,-0.351506,0.204448,0.028100,-0.043524,-0.048106
1765408901.880520,-9.959349,-0.070540,0.529053,0.024587,-0.041539,-0.054214
1765408901.883933,-10.053802,-0.084290,0.631277,0.028100,-0.045357,-0.043371
1765408901.886961,-9.996411,-0.310856,0.420851,0.025656,-0.050091,-0.041539
1765408901.888184,-9.983260,-0.332377,0.310856,0.025351,-0.045815,-0.048106
1765408901.891924,-9.874461,-0.532042,0.294118,0.024435,-0.043524,-0.042761
1765408901.893930,-9.923481,-0.622908,0.328192,0.035125,-0.046273,-0.051313
1765408901.896967,-10.115973,-0.370636,0.315638,0.031612,-0.048411,-0.064141
1765408901.899001,-10.081299,-0.098039,0.503348,0.031001,-0.036652,-0.061392
1765408901.901978,-9.962935,0.120756,0.725729,0.034667,-0.024893,-0.050702
1765408901.903968,-9.965924,0.080105,0.694644,0.029474,-0.042150,-0.040470
1765408901.906909,-10.148253,-0.157819,0.656384,0.024893,-0.054062,-0.040164
1765408901.907968,-9.870276,-0.489000,0.088474,0.028100,-0.047189,-0.038790
1765408901.911987,-9.589908,-0.594213,-0.087279,0.028558,-0.047189,-0.045051
1765408901.913972,-9.795551,-0.147657,0.362267,0.029627,-0.045815,-0.055894
1765408901.916919,-10.138689,0.044237,0.753228,0.027184,-0.043982,-0.050702
1765408901.919918,-10.069942,-0.157819,0.334768,0.024740,-0.050549,-0.043677
1765408901.920418,-9.950979,-0.334768,0.125538,0.025198,-0.037568,-0.048258
1765408901.923984,-10.034670,-0.377810,0.545791,0.029780,-0.037568,-0.051160
1765408901.927030,-10.034670,-0.377810,0.545791,0.029780,-0.039706,-0.051160
1765408901.929080,-10.197272,-0.410689,0.769966,0.032223,-0.047647,-0.056047
1765408901.932018,-10.080104,-0.081301,0.388570,0.027336,-0.040928,-0.059101
1765408901.935004,-9.790769,-0.062171,0.135701,0.031612,-0.045051,-0.048411
1765408901.935983,-9.848158,-0.157221,0.432807,0.033750,-0.047189,-0.047342
1765408901.938976,-10.176947,-0.195481,0.919416,0.027336,-0.042608,-0.049480
1765408901.939920,-10.046627,-0.377212,0.543400,0.022755,-0.058032,-0.048411
1765408901.944014,-9.686751,-0.506337,-0.182927,0.029016,-0.058032,-0.047342
1765408901.947018,-9.839190,-0.216404,0.243902,0.030238,-0.054520,-0.057421
1765408901.947955,-10.113581,0.052606,0.851267,0.031307,-0.034819,-0.055436
1765408901.949964,-10.069344,-0.064562,0.768771,0.030696,-0.039401,-0.041081
1765408901.953948,-9.945600,-0.299498,0.407700,0.026267,-0.055741,-0.043982
1765408901.956934,-9.994618,-0.557150,0.427427,0.026267,-0.056505,-0.049480
1765408901.958927,-10.081299,-0.540411,0.771162,0.034972,-0.043982,-0.048411
1765408901.962006,-9.757292,-0.478240,0.239718,0.036041,-0.044135,-0.051160
1765408901.964029,-9.670610,-0.398135,-0.056193,0.029780,-0.056352,-0.060934
1765408901.967004,-10.002390,-0.167982,0.376614,0.031001,-0.054520,-0.063835
1765408901.968972,-10.267813,0.026303,0.903874,0.036194,-0.041844,-0.053756
1765408901.971982,-10.101624,-0.112386,0.884744,0.036499,-0.038943,-0.047647
1765408901.973923,-9.738162,-0.374223,0.332975,0.025656,-0.047647,-0.051160
1765408901.976911,-9.656861,-0.505739,-0.016738,0.025656,-0.057727,-0.052993
1765408901.979965,-9.971304,-0.289335,0.438187,0.035430,-0.052534,-0.054520
1765408901.981948,-10.071735,-0.228957,0.939742,0.035125,-0.040470,-0.057574
1765408901.983921,-9.888808,-0.185318,0.558345,0.028405,-0.044440,-0.056505
1765408901.984953,-9.810495,-0.132712,0.142276,0.027336,-0.057116,-0.053451
1765408901.988923,-9.828429,-0.339550,0.063367,0.030238,-0.055589,-0.049633
1765408901.991914,-9.830223,-0.653993,0.421449,0.030391,-0.043066,-0.050091
1765408901.993935,-9.813485,-0.486609,0.377810,0.037110,-0.044135,-0.058643
1765408901.996912,-9.964728,-0.257652,0.521282,0.029016,-0.054672,-0.061545
1765408901.997955,-10.018531,-0.151243,0.387374,0.033445,-0.044288,-0.059559
1765408902.001931,-9.943806,-0.218795,0.497370,0.033292,-0.044288,-0.057269
1765408902.003942,-9.870873,-0.242707,0.570899,0.030696,-0.038637,-0.057421
1765408902.004915,-10.120754,-0.335366,0.901482,0.030696,-0.051618,-0.059407
1765408902.008954,-10.002390,-0.543998,0.486011,0.032376,-0.058185,-0.056810
1765408902.011988,-9.901959,-0.379005,0.054998,0.034056,-0.062766,-0.061545
1765408902.014014,-9.953370,-0.148254,0.394548,0.035125,-0.045509,-0.063530
1765408902.016958,-9.953370,-0.101626,0.517695,0.033445,-0.040928,-0.053298
1765408902.019025,-9.931850,-0.333572,0.405906,0.029016,-0.048106,-0.053145
1765408902.022046,-9.924676,-0.349115,0.107604,0.032070,-0.049633,-0.055589
1765408902.023989,-10.302486,-0.502152,1.061693,0.033445,-0.040164,-0.057574
1765408902.027037,-10.163795,-0.493783,1.093376,0.042302,-0.031918,-0.054367
1765408902.027957,-9.774628,-0.421449,0.306074,0.036041,-0.051771,-0.056200
1765408902.032045,-9.590506,-0.294715,-0.168580,0.028863,-0.055131,-0.066890
1765408902.034084,-9.924078,-0.092061,0.301291,0.040623,-0.052993,-0.058643
1765408902.037010,-10.152438,-0.249283,0.863821,0.040012,-0.044746,-0.051007
1765408902.038085,-10.063366,-0.392157,0.653993,0.029780,-0.048717,-0.063683
1765408902.039995,-9.838593,-0.412482,0.346724,0.030391,-0.047037,-0.067348
1765408902.045024,-9.500835,-0.357484,-0.241511,0.039554,-0.052840,-0.055283
1765408902.045524,-9.819464,-0.219990,0.338953,0.038179,-0.058948,-0.061392
1765408902.049019,-10.235533,-0.041248,1.048541,0.033292,-0.040928,-0.060781
1765408902.051980,-10.082495,-0.220588,0.680894,0.036041,-0.041692,-0.047495
1765408902.054014,-9.650884,-0.379005,0.057389,0.035277,-0.053451,-0.048258
1765408902.056984,-9.906742,-0.502152,0.233740,0.033750,-0.056658,-0.057421
1765408902.059029,-10.000596,-0.638450,0.514706,0.039706,-0.046273,-0.058948
1765408902.061989,-9.845766,-0.504543,0.346126,0.042913,-0.047953,-0.059101
1765408902.063946,-9.901959,-0.309660,0.374223,0.034667,-0.050855,-0.073304
1765408902.066932,-10.005977,-0.127929,0.391559,0.033598,-0.045968,-0.070402
1765408902.068934,-10.120754,-0.253467,0.743663,0.041692,-0.041233,-0.058643
1765408902.069953,-9.947989,-0.325203,0.681492,0.037568,-0.041233,-0.061697
1765408902.074067,-10.184121,-0.307269,0.662362,0.033903,-0.050244,-0.064294
1765408902.076970,-10.042442,-0.551172,0.359876,0.035736,-0.056505,-0.058948
1765408902.079014,-10.042442,-0.551172,0.359876,0.035736,-0.062308,-0.058948
1765408902.081938,-9.966521,-0.195481,0.662362,0.040012,-0.043830,-0.069333
1765408902.083933,-9.937828,-0.121951,0.769966,0.039095,-0.043830,-0.061697
1765408902.084921,-9.972500,-0.289335,0.437590,0.035736,-0.052229,-0.058643
1765408902.088929,-10.206240,-0.342539,0.685079,0.032834,-0.061087,-0.063988
1765408902.091935,-10.162600,-0.485414,0.866212,0.036652,-0.044288,-0.063072
1765408902.093932,-9.750716,-0.528455,0.484218,0.041233,-0.072846,-0.058032
1765408902.094935,-9.612624,-0.566714,0.035270,0.032070,-0.072846,-0.075136
1765408902.098939,-9.949782,-0.234338,0.080703,0.038485,-0.071166,-0.078343
1765408902.099924,-9.996411,-0.101626,0.514108,0.043982,-0.049480,-0.067348
1765408902.103970,-9.863700,-0.069345,0.653993,0.043524,-0.038790,-0.058796
1765408902.106983,-9.863700,-0.069345,0.653993,0.043524,-0.048564,-0.058796
1765408902.108971,-10.041844,-0.575084,0.604376,0.034361,-0.060628,-0.056047
1765408902.112011,-9.950979,-0.598398,0.316834,0.042302,-0.062156,-0.057421
1765408902.114006,-10.028693,-0.401722,0.632472,0.040470,-0.048869,-0.069486
1765408902.116950,-10.065758,-0.328790,0.875179,0.035125,-0.048869,-0.072235
1765408902.119971,-9.882233,-0.257054,0.343137,0.036194,-0.056505,-0.065210
1765408902.120976,-9.845766,-0.343137,0.084888,0.034667,-0.062766,-0.063377
1765408902.123026,-9.867287,-0.581062,0.260641,0.034667,-0.059254,-0.063377
1765408902.127117,-10.133906,-0.532640,0.639646,0.041692,-0.048564,-0.067348
1765408902.129070,-10.249879,-0.337159,1.158536,0.042150,-0.048564,-0.069791
1765408902.132033,-10.249879,-0.337159,1.158536,0.042150,-0.052993,-0.069791
1765408902.133996,-9.911524,-0.196676,0.269608,0.035888,-0.065973,-0.062614
1765408902.137022,-10.222381,-0.228360,0.625299,0.042608,-0.069028,-0.058032
1765408902.139019,-10.220587,-0.596604,0.945122,0.042761,-0.058338,-0.056352
1765408902.142004,-9.989238,-0.699426,0.613343,0.038637,-0.054214,-0.061392
1765408902.144000,-9.672404,-0.653993,0.068149,0.035736,-0.062308,-0.068875
1765408902.147148,-9.778812,-0.432807,0.174558,0.043524,-0.058643,-0.072388
1765408902.148987,-9.990434,-0.224773,0.680296,0.046731,-0.058643,-0.071319
1765408902.151974,-10.153036,-0.204448,1.176470,0.041997,-0.046120,-0.067653
1765408902.154006,-9.782400,-0.439981,0.565519,0.039248,-0.054062,-0.064446
1765408902.156959,-9.598277,-0.692252,0.074127,0.038485,-0.069333,-0.068722
1765408902.158962,-9.876852,-0.620516,0.394548,0.042761,-0.068417,-0.075595
1765408902.162004,-10.103418,-0.222382,0.813606,0.047953,-0.058185,-0.076511
1765408902.163965,-10.103418,-0.222382,0.813606,0.047953,-0.052382,-0.076511
1765408902.166997,-9.952772,-0.218795,0.622908,0.038943,-0.055741,-0.070860
1765408902.168974,-10.022716,-0.230751,0.652200,0.043982,-0.058032,-0.063377
1765408902.172011,-9.979673,-0.545194,0.465686,0.038790,-0.060934,-0.060781
1765408902.174982,-10.253465,-0.623505,0.860832,0.040317,-0.064904,-0.072998
1765408902.176979,-10.016738,-0.565519,0.474653,0.046273,-0.059559,-0.072998
1765408902.179959,-9.597679,-0.591822,0.118364,0.048106,-0.060628,-0.069180
1765408902.182056,-9.784193,-0.350311,0.521282,0.047189,-0.057116,-0.084147
1765408902.183988,-10.124939,-0.118962,1.099354,0.046578,-0.063683,-0.074373
1765408902.186949,-10.125537,-0.405308,0.868006,0.045204,-0.063683,-0.062919
1765408902.189007,-10.359276,-0.423242,0.969034,0.045204,-0.065363,-0.062919
1765408902.192048,-10.059181,-0.540411,0.536824,0.045815,-0.059559,-0.066279
1765408902.194024,-9.880439,-0.656384,0.381396,0.045815,-0.071013,-0.066584
1765408902.196640,-10.107005,-0.276184,0.527260,0.043677,-0.057116,-0.082161
1765408902.197998,-10.343135,-0.072334,0.884744,0.049022,-0.057116,-0.074984
1765408902.199972,-9.972500,-0.347920,0.722142,0.050549,-0.047189,-0.061850
1765408902.202998,-9.758488,-0.293520,0.493783,0.045204,-0.054978,-0.065973
1765408902.207085,-9.994021,-0.650406,0.839311,0.038332,-0.066737,-0.065821
1765408902.208966,-10.088473,-0.781922,0.838713,0.049480,-0.070402,-0.065973
1765408902.211960,-9.690338,-0.778336,0.200861,0.053298,-0.069791,-0.071471
1765408902.213967,-9.664036,-0.393352,0.193687,0.047189,-0.068875,-0.085063
1765408902.216945,-9.873264,-0.004782,0.494978,0.044288,-0.056658,-0.083383
1765408902.218974,-9.907937,-0.120158,0.602582,0.046120,-0.058948,-0.063835
1765408902.221971,-9.928263,-0.456121,0.490196,0.041233,-0.059865,-0.067195
1765408902.224043,-10.118362,-0.599593,0.926590,0.046578,-0.049175,-0.072235
1765408902.226482,-9.999999,-0.792683,0.952893,0.054520,-0.047037,-0.063225
1765408902.229032,-9.673002,-0.645624,0.344931,0.049327,-0.068264,-0.076205
1765408902.229979,-9.807508,-0.344931,0.402917,0.043066,-0.068417,-0.089492
1765408902.233014,-9.842180,-0.172764,0.547585,0.052382,-0.051618,-0.071929
1765408902.238055,-9.603658,-0.425634,0.320421,0.053298,-0.051924,-0.063988
1765408902.239028,-9.786584,-0.454926,0.553563,0.044440,-0.064294,-0.078191
1765408902.242025,-10.093256,-0.521282,0.746054,0.045815,-0.059865,-0.077885
1765408902.244048,-9.872069,-0.498565,0.436394,0.053145,-0.056047,-0.066737
1765408902.247028,-10.018531,-0.467480,0.747848,0.048717,-0.069944,-0.077427
1765408902.249044,-9.947392,-0.435198,0.742468,0.042608,-0.055894,-0.083383
1765408902.252003,-9.947392,-0.435198,0.742468,0.042608,-0.057421,-0.083383
1765408902.254023,-10.045432,-0.324008,0.610952,0.052076,-0.059865,-0.067501
1765408902.255439,-10.302486,-0.498565,0.879364,0.047037,-0.059865,-0.073915
1765408902.258970,-10.466283,-0.765782,1.285270,0.048869,-0.054825,-0.072693
1765408902.261983,-9.775226,-0.858441,0.361071,0.051771,-0.054367,-0.075289
1765408902.262982,-9.627569,-0.480631,0.097441,0.048411,-0.071929,-0.087965
1765408902.266974,-9.929459,-0.001196,0.594213,0.050855,-0.062766,-0.092699
1765408902.268958,-10.210424,0.107006,0.789096,0.056810,-0.060323,-0.069486
1765408902.272026,-10.010758,-0.444763,0.680894,0.046578,-0.057269,-0.056352
1765408902.274014,-9.967718,-0.674318,0.600191,0.045509,-0.062919,-0.068264
1765408902.276939,-9.940218,-0.902678,0.597800,0.049938,-0.061239,-0.068111
1765408902.278952,-10.215207,-0.723338,0.967838,0.060018,-0.074831,-0.076205
1765408902.281956,-10.479434,-0.376016,1.131635,0.050396,-0.064446,-0.087506
1765408902.283991,-9.989238,-0.328790,0.392157,0.047189,-0.067348,-0.074831
1765408902.284983,-9.684361,-0.408895,-0.019130,0.051465,-0.071319,-0.077580
1765408902.289019,-9.972500,-0.343137,0.583453,0.052840,-0.071319,-0.074984
1765408902.291988,-10.271400,-0.565519,1.148374,0.052840,-0.061239,-0.074984
1765408902.292958,-10.017933,-0.653993,0.655787,0.052382,-0.066432,-0.071777
1765408902.296981,-9.956957,-0.433405,0.578670,0.050855,-0.070555,-0.083689
1765408902.299040,-9.853538,-0.240316,0.480631,0.053451,-0.072388,-0.075136
1765408902.302026,-9.863700,-0.536227,0.627690,0.052229,-0.072388,-0.066584
1765408902.304017,-9.863700,-0.536227,0.627690,0.052229,-0.076664,-0.066584
1765408902.307006,-9.986848,-0.689861,0.363462,0.047342,-0.068875,-0.074526
1765408902.309032,-9.838593,-0.752032,0.713773,0.050549,-0.060934,-0.079718
1765408902.311986,-9.838593,-0.433405,0.551172,0.055894,-0.075289,-0.079871
1765408902.313961,-10.017933,-0.471664,0.788498,0.045662,-0.075289,-0.080940
1765408902.315079,-10.017933,-0.471664,0.788498,0.045662,-0.074067,-0.080940
1765408902.318975,-10.081897,-0.424438,0.612147,0.060170,-0.060934,-0.069028
1765408902.321990,-9.885221,-0.604376,0.570301,0.054672,-0.060934,-0.072082
1765408902.323976,-9.807508,-0.712578,0.308465,0.050396,-0.070250,-0.074220
1765408902.326992,-10.157818,-0.759206,0.851267,0.053756,-0.070402,-0.078802
1765408902.328957,-10.274986,-0.547585,0.835724,0.064752,-0.071319,-0.082772
1765408902.332018,-10.025107,-0.481827,0.710186,0.054978,-0.066279,-0.083383
1765408902.333993,-9.836799,-0.261239,0.617527,0.055741,-0.066279,-0.087812
1765408902.336999,-9.940218,-0.328790,0.454926,0.056047,-0.072693,-0.071471
1765408902.339028,-10.255857,-0.730512,0.964849,0.057879,-0.083078,-0.073151
1765408902.340013,-10.487803,-0.493185,1.125060,0.055283,-0.067348,-0.082925
1765408902.344025,-9.895982,-0.601387,0.558345,0.058185,-0.069028,-0.069791
1765408902.347102,-9.665230,-0.420253,0.342539,0.060018,-0.078496,-0.079871
1765408902.348221,-9.665230,-0.420253,0.342539,0.060018,-0.078954,-0.079871
1765408902.352060,-9.948587,-0.646222,0.763988,0.055436,-0.073457,-0.069028
1765408902.354106,-10.053204,-0.644428,1.023434,0.061850,-0.063683,-0.081551
1765408902.357040,-9.805116,-0.600191,0.710784,0.054520,-0.060323,-0.082314
1765408902.359119,-9.759683,-0.760402,0.630081,0.055894,-0.078038,-0.080329
1765408902.360087,-9.583930,-0.760402,0.070540,0.055894,-0.077885,-0.080329
1765408902.364031,-9.968913,-0.446557,0.822573,0.062919,-0.079565,-0.084758
1765408902.364978,-9.879243,-0.382592,0.720349,0.060170,-0.062614,-0.083078
1765408902.368981,-9.845766,-0.260641,0.711382,0.058796,-0.069791,-0.077122
1765408902.371976,-9.739956,-0.589431,0.550574,0.052840,-0.069791,-0.072998
1765408902.373983,-9.857722,-0.766380,0.736490,0.058643,-0.073304,-0.078191
1765408902.376968,-9.992825,-0.815997,0.774749,0.062919,-0.071624,-0.080634
1765408902.379019,-9.788378,-0.706600,0.462697,0.060170,-0.076358,-0.086285
1765408902.381967,-9.949186,-0.503945,0.651602,0.057727,-0.072693,-0.093004
1765408902.383978,-9.588712,-0.441176,0.215806,0.062308,-0.068264,-0.085827
1765408902.387026,-9.742945,-0.403515,0.494381,0.058796,-0.073762,-0.078649
1765408902.388993,-9.833811,-0.474653,0.866212,0.058948,-0.062919,-0.079260
1765408902.392047,-9.901959,-0.602582,0.927786,0.058796,-0.061697,-0.072082
1765408902.393993,-9.631754,-0.944524,0.241511,0.059407,-0.073304,-0.073762
1765408902.397019,-9.667024,-0.707795,0.429220,0.062003,-0.076664,-0.090103
1765408902.399074,-9.695121,-0.453132,0.439981,0.066737,-0.064294,-0.085521
1765408902.401996,-9.566593,-0.533238,0.454328,0.065515,-0.064294,-0.078954
1765408902.403977,-9.899570,-0.451339,0.741272,0.061697,-0.066737,-0.086132
1765408902.407009,-9.888808,-0.683883,0.718556,0.062461,-0.065515,-0.077274
1765408902.409969,-9.852941,-0.829149,0.886537,0.065210,-0.067501,-0.081245
1765408902.411964,-9.577354,-0.449546,0.367647,0.070860,-0.062614,-0.085521
1765408902.415021,-9.777020,-0.407700,0.705404,0.064599,-0.065821,-0.082314
1765408902.416974,-9.781204,-0.566117,0.643233,0.061850,-0.069333,-0.077733
1765408902.417968,-9.964130,-0.584648,0.593615,0.063988,-0.072235,-0.080481
1765408902.421997,-10.031682,-0.717360,0.775944,0.060934,-0.062766,-0.082620
1765408902.424004,-9.993423,-0.757413,0.726925,0.062614,-0.058338,-0.085063
1765408902.427050,-9.859515,-0.919416,0.610354,0.064599,-0.064752,-0.085827
1765408902.430083,-9.946198,-0.573290,0.873984,0.064752,-0.063072,-0.097586
1765408902.432059,-9.895982,-0.111191,0.604974,0.067348,-0.059559,-0.092699
1765408902.433040,-9.854136,-0.377810,0.596604,0.062461,-0.069180,-0.073457
1765408902.437018,-10.192491,-0.581659,0.967240,0.062614,-0.071777,-0.082314
1765408902.440113,-10.294117,-0.729316,0.808823,0.062766,-0.061392,-0.079565
1765408902.442081,-10.124939,-1.005500,0.869201,0.064141,-0.061545,-0.083994
1765408902.444014,-9.942610,-0.774151,0.552367,0.067959,-0.059865,-0.090408
1765408902.447007,-10.104015,-0.658776,0.953491,0.067653,-0.069333,-0.088881
1765408902.449031,-10.364656,-0.473458,1.254184,0.067195,-0.068264,-0.097433
1765408902.450038,-10.279769,-0.266619,0.978001,0.067042,-0.069333,-0.089034
1765408902.454058,-9.984456,-0.304878,0.597800,0.067959,-0.067348,-0.082772
1765408902.457051,-9.845766,-0.563128,0.466284,0.063683,-0.068264,-0.074067
1765408902.459055,-10.035867,-0.893113,0.858441,0.068111,-0.072846,-0.073915
1765408902.462023,-10.123744,-0.844691,0.976805,0.074678,-0.070860,-0.086896
1765408902.464034,-10.118960,-0.650406,0.857843,0.071471,-0.072388,-0.090866
1765408902.466993,-10.114776,-0.557150,0.741272,0.070250,-0.081245,-0.089950
1765408902.468973,-10.106407,-0.509326,0.746054,0.071166,-0.075747,-0.091019
1765408902.471987,-9.945002,-0.642635,0.815399,0.069944,-0.070250,-0.087506
1765408902.473990,-9.884026,-0.633668,0.604974,0.069028,-0.070250,-0.089492
1765408902.477034,-9.884026,-0.633668,0.604974,0.069028,-0.077122,-0.089492
1765408902.479034,-10.161406,-0.710186,0.656384,0.072388,-0.079718,-0.087506
1765408902.482041,-10.284551,-0.673123,1.121473,0.074373,-0.070402,-0.086743
1765408902.484008,-10.005977,-0.799259,1.015064,0.068111,-0.062461,-0.088423
1765408902.487079,-9.861907,-0.668340,0.522477,0.071319,-0.071166,-0.091172
1765408902.489033,-10.120157,-0.685079,0.712578,0.070097,-0.083689,-0.092546
1765408902.492082,-10.511715,-0.634266,1.272118,0.069791,-0.074984,-0.092393
1765408902.493971,-10.247488,-0.707795,0.877571,0.073609,-0.073915,-0.088881
1765408902.496988,-10.023313,-0.561932,0.620516,0.071929,-0.069333,-0.095600
1765408902.499987,-9.869678,-0.438187,0.311454,0.077274,-0.074373,-0.089034
1765408902.502022,-10.042442,-0.675514,1.079627,0.072388,-0.074220,-0.082161
1765408902.503050,-10.180533,-0.665949,1.069464,0.072388,-0.074526,-0.091324
1765408902.507050,-10.166186,-0.746054,0.953491,0.071013,-0.074526,-0.086896
1765408902.507994,-9.708273,-0.841702,0.397537,0.075595,-0.082925,-0.087201
1765408902.512027,-9.607842,-0.558345,0.307269,0.076664,-0.083841,-0.088728
1765408902.513028,-9.827234,-0.465088,0.814204,0.075442,-0.080329,-0.088117
1765408902.515110,-9.771639,-0.483620,0.492587,0.075595,-0.082314,-0.080940
1765408902.519103,-9.867287,-0.691057,0.516499,0.076816,-0.082314,-0.079260
1765408902.522031,-10.034670,-0.758010,1.087996,0.076664,-0.072082,-0.079260
1765408902.524052,-10.115973,-0.836920,1.220708,0.074831,-0.072082,-0.085368
1765408902.527042,-9.918698,-0.961262,0.749641,0.076969,-0.085827,-0.088270
1765408902.529075,-9.937230,-0.869201,0.398135,0.076511,-0.091630,-0.099266
1765408902.532049,-10.187708,-0.616930,1.068866,0.077885,-0.081551,-0.101709
1765408902.534073,-10.187708,-0.616930,1.068866,0.077885,-0.064599,-0.101709
1765408902.537023,-9.923481,-0.482425,0.918819,0.075442,-0.088728,-0.081551
1765408902.540085,-9.922284,-0.807030,0.627690,0.072998,-0.088728,-0.090408
1765408902.542098,-9.922284,-0.807030,0.627690,0.072998,-0.083689,-0.090408
1765408902.544059,-9.896580,-1.044954,0.905069,0.079107,-0.080023,-0.089644
1765408902.547016,-9.812290,-0.725729,0.740076,0.079412,-0.085674,-0.105832
1765408902.549058,-9.616212,-0.489000,0.364658,0.077427,-0.080481,-0.102167
1765408902.551999,-9.867287,-0.423242,0.842898,0.079718,-0.085216,-0.092088
1765408902.554043,-9.983260,-0.548780,0.823768,0.079107,-0.081551,-0.088881
1765408902.555059,-10.173361,-0.557150,1.171090,0.075442,-0.082620,-0.091172
1765408902.559162,-9.893590,-0.822573,0.856050,0.082467,-0.077733,-0.088117
1765408902.562054,-9.439860,-0.794476,0.395744,0.083383,-0.089339,-0.086437
1765408902.564040,-9.707077,-0.615734,0.673721,0.076358,-0.089339,-0.100487
1765408902.567066,-9.818865,-0.413678,0.842898,0.080481,-0.070860,-0.094837
1765408902.569014,-9.818267,-0.571497,0.732305,0.086132,-0.073609,-0.082467
1765408902.572145,-9.854136,-0.968436,0.939742,0.078802,-0.069486,-0.087812
1765408902.574009,-9.990434,-0.759206,1.097561,0.075595,-0.069486,-0.100793
1765408902.576977,-9.899570,-0.665949,0.860832,0.077122,-0.066432,-0.096211
1765408902.579070,-9.736967,-0.554758,0.604974,0.079107,-0.074526,-0.094990
1765408902.582030,-9.758488,-0.522477,0.651602,0.076053,-0.069486,-0.099113
1765408902.584001,-9.673599,-0.536824,0.802845,0.077274,-0.066432,-0.095295
1765408902.587055,-9.794355,-0.701817,0.737685,0.077122,-0.062156,-0.092393
1765408902.588019,-9.730392,-0.924199,0.690459,0.078343,-0.065210,-0.093157
1765408902.592037,-9.832614,-1.050932,0.847680,0.079718,-0.060323,-0.097586
1765408902.594041,-9.952174,-0.846485,0.945720,0.083536,-0.060018,-0.102625
1765408902.597053,-10.013748,-0.491392,0.868603,0.078343,-0.064446,-0.106749
1765408902.599059,-10.013748,-0.491392,0.868603,0.078343,-0.059712,-0.106749
1765408902.600000,-9.586321,-0.579268,0.632472,0.077885,-0.058490,-0.083841
1765408902.603007,-9.738162,-0.793878,0.750837,0.074067,-0.067501,-0.085368
1765408902.606987,-10.056191,-1.062888,1.103539,0.071777,-0.070402,-0.099571
1765408902.609064,-10.041247,-1.070062,0.967240,0.080787,-0.070402,-0.100487
1765408902.611994,-9.695719,-0.616930,0.394548,0.083994,-0.078496,-0.107512
1765408902.614036,-9.764465,-0.126136,0.593018,0.076816,-0.072693,-0.108276
1765408902.616994,-9.897775,-0.242707,0.882353,0.079412,-0.067042,-0.087659
1765408902.619003,-10.017933,-0.590626,1.099952,0.083689,-0.071471,-0.076511
1765408902.621990,-9.867287,-0.903874,0.698230,0.076358,-0.073304,-0.081856
1765408902.624028,-10.119559,-1.080822,1.027618,0.071624,-0.078038,-0.092699
1765408902.627070,-10.116570,-1.154950,0.885940,0.083383,-0.069791,-0.098197
1765408902.629422,-10.045432,-0.954089,0.902678,0.083230,-0.074526,-0.102014
1765408902.632025,-9.866689,-0.441176,0.688666,0.078191,-0.064294,-0.117286
1765408902.634023,-9.808702,0.008369,0.735294,0.078649,-0.062614,-0.099876
1765408902.637005,-9.793160,-0.516499,0.671927,0.076969,-0.069028,-0.077274
1765408902.639042,-9.907937,-1.013869,0.728120,0.078191,-0.078954,-0.078343
1765408902.642056,-9.994021,-1.304997,0.848876,0.079260,-0.070555,-0.096822
1765408902.643996,-9.986848,-1.055117,0.853061,0.082925,-0.068570,-0.096822
1765408902.645042,-10.046627,-0.692252,0.912841,0.084452,-0.070555,-0.111025
1765408902.648066,-10.023911,-0.331181,0.933166,0.083689,-0.067959,-0.106596
1765408902.652006,-10.021520,-0.367049,0.888929,0.081245,-0.069180,-0.094837
1765408902.654072,-10.057388,-0.566714,0.894309,0.081245,-0.074373,-0.088575
1765408902.657044,-10.274986,-0.850072,1.227881,0.077427,-0.081856,-0.087965
1765408902.659006,-9.967718,-1.347441,0.694644,0.079260,-0.079260,-0.090561
1765408902.662013,-9.827832,-1.152558,0.609756,0.083841,-0.084758,-0.104763
1765408902.664096,-10.151243,-0.437590,1.153156,0.083078,-0.074678,-0.120646
1765408902.667026,-10.224771,-0.266619,1.218316,0.086590,-0.074678,-0.100793
1765408902.669050,-10.032280,-0.525466,0.948709,0.085674,-0.084452,-0.091783
1765408902.672067,-10.044236,-0.666547,0.725729,0.081245,-0.087659,-0.090103
1765408902.674045,-10.175752,-1.042563,1.182449,0.079107,-0.081551,-0.089492
1765408902.675055,-10.193686,-1.200382,1.114897,0.085674,-0.085368,-0.095906
1765408902.679020,-10.173361,-1.047346,1.037183,0.083230,-0.087965,-0.103847
1765408902.680011,-9.998206,-0.795074,0.950502,0.080481,-0.083689,-0.115301
1765408902.683010,-9.885221,-0.618125,0.871592,0.081856,-0.080481,-0.111330
1765408902.687013,-9.885221,-0.618125,0.871592,0.081856,-0.094531,-0.111330
1765408902.689084,-10.114178,-0.685677,0.966045,0.082925,-0.082772,-0.097891
1765408902.692086,-9.979673,-1.040770,0.840507,0.081245,-0.082772,-0.094379
1765408902.694157,-9.911524,-1.210545,0.793878,0.085674,-0.082161,-0.100029
1765408902.697998,-9.862504,-0.993544,0.719751,0.090103,-0.085521,-0.112399
1765408902.699041,-10.084887,-0.423242,1.250598,0.087965,-0.075595,-0.115759
1765408902.702007,-10.090266,-0.358680,1.288259,0.084452,-0.074678,-0.102167
1765408902.704031,-9.935436,-0.763988,0.785509,0.077885,-0.086590,-0.087506
1765408902.707016,-9.890003,-1.087996,0.778336,0.085368,-0.095906,-0.096975
1765408902.709041,-9.836202,-0.887135,0.891320,0.087354,-0.085368,-0.104611
1765408902.712054,-9.711261,-0.710186,0.755021,0.091172,-0.085368,-0.100793
1765408902.714050,-9.711261,-0.710186,0.755021,0.091172,-0.089186,-0.100793
1765408902.717154,-9.785987,-0.713773,0.820182,0.081245,-0.089644,-0.100640
1765408902.720020,-10.078907,-0.789096,1.221305,0.081703,-0.084605,-0.099113
1765408902.720520,-9.878048,-0.887135,0.694644,0.088575,-0.083536,-0.097433
1765408902.725009,-9.771639,-1.012075,0.802845,0.086132,-0.083536,-0.096975
1765408902.727061,-9.707077,-0.928981,1.060497,0.086590,-0.076205,-0.101862
1765408902.730103,-9.690338,-0.988761,0.879962,0.085827,-0.086437,-0.103236
1765408902.732051,-9.764465,-0.769966,0.825562,0.080481,-0.089797,-0.108429
1765408902.734103,-10.014943,-0.662362,0.989957,0.088728,-0.083689,-0.103236
1765408902.737100,-10.066953,-1.093376,1.165112,0.085521,-0.083689,-0.096517
1765408902.739059,-10.118362,-0.992946,0.982783,0.085979,-0.084605,-0.112705
1765408902.740049,-9.925274,-0.957676,0.771162,0.087965,-0.085521,-0.111941
1765408902.743080,-9.881634,-0.842898,0.991152,0.092546,-0.085521,-0.109650
1765408902.747080,-10.137493,-0.567910,1.244620,0.091477,-0.082161,-0.112399
1765408902.749051,-10.295312,-0.619321,1.384505,0.086285,-0.084147,-0.103084
1765408902.750007,-9.930654,-0.963056,0.669536,0.088423,-0.084452,-0.099113
1765408902.755023,-9.946198,-1.166906,0.769966,0.093921,-0.089797,-0.104916
1765408902.757062,-9.966521,-1.132233,1.093376,0.090255,-0.078649,-0.115912
1765408902.760092,-9.966521,-1.132233,1.093376,0.090255,-0.078038,-0.115912
1765408902.762110,-9.796746,-0.585844,0.807030,0.090866,-0.084910,-0.112246
1765408902.764030,-10.097439,-0.442372,1.134624,0.087506,-0.090408,-0.111025
1765408902.767057,-10.015541,-0.789096,0.760402,0.087965,-0.087659,-0.095448
1765408902.769062,-10.040051,-1.207556,1.066475,0.095142,-0.088117,-0.096364
1765408902.772065,-9.863102,-1.245217,0.930775,0.092393,-0.069944,-0.108123
1765408902.775096,-9.858918,-1.098756,0.955284,0.091019,-0.090866,-0.111788
1765408902.777071,-9.880439,-0.851267,0.756815,0.089797,-0.090866,-0.116828
1765408902.780047,-10.098038,-0.539216,1.010282,0.094990,-0.086590,-0.112094
1765408902.782047,-10.096842,-0.650406,1.274510,0.090561,-0.071929,-0.106291
1765408902.784098,-9.830223,-1.074844,0.796270,0.089034,-0.080329,-0.095906
1765408902.787020,-10.048421,-1.269727,0.957676,0.091783,-0.084910,-0.105374
1765408902.789068,-10.157221,-1.227881,0.933764,0.091477,-0.083994,-0.114537
1765408902.792011,-10.130320,-1.005500,1.157341,0.091019,-0.079871,-0.119882
1765408902.794050,-10.152438,-0.603180,1.236250,0.101098,-0.079871,-0.115454
1765408902.797033,-10.105808,-0.667145,1.426351,0.089186,-0.086743,-0.106291
1765408902.799034,-10.105808,-0.786705,1.013271,0.091172,-0.089644,-0.103847
1765408902.802071,-9.717837,-1.159134,0.752032,0.092393,-0.084758,-0.101251
1765408902.804054,-9.742945,-1.170492,0.813008,0.095448,-0.094684,-0.105985
1765408902.805059,-10.170969,-0.909852,1.258369,0.091477,-0.095906,-0.119882
1765408902.809077,-10.370635,-0.639646,1.413199,0.094226,-0.093768,-0.113316
1765408902.812110,-9.702892,-0.704208,0.434003,0.101098,-0.094531,-0.101556
1765408902.814011,-9.514585,-0.773553,0.410091,0.095142,-0.098655,-0.100793
1765408902.817013,-9.740554,-1.063486,0.797465,0.095142,-0.095448,-0.100793
1765408902.820062,-10.099234,-1.219512,1.430536,0.096975,-0.086132,-0.099876
1765408902.822034,-10.034670,-1.319942,1.212338,0.094531,-0.088270,-0.110567
1765408902.825052,-9.907339,-1.227881,0.947513,0.088881,-0.092088,-0.120188
1765408902.827018,-9.942610,-0.925992,1.015064,0.099571,-0.092241,-0.120799
1765408902.829093,-9.912720,-0.818986,0.943926,0.102167,-0.092241,-0.112399
1765408902.832119,-9.882233,-0.813008,1.012075,0.101251,-0.091172,-0.110872
1765408902.834082,-9.908535,-0.948111,1.095170,0.095295,-0.081703,-0.114079
1765408902.837007,-9.909731,-1.085605,1.101148,0.099724,-0.086437,-0.107818
1765408902.839077,-9.766856,-1.110115,0.994739,0.098655,-0.086437,-0.118966
1765408902.842034,-9.603060,-0.920612,0.859039,0.099113,-0.086285,-0.119882
1765408902.844083,-9.653275,-0.856050,1.071258,0.098044,-0.084605,-0.112705
1765408902.847073,-9.803921,-0.817790,1.053324,0.098044,-0.099266,-0.112705
1765408902.849043,-9.906742,-0.765782,1.053324,0.103847,-0.087354,-0.111177
1765408902.852046,-9.898373,-0.714969,1.236250,0.105527,-0.087354,-0.111330
1765408902.854101,-9.703490,-1.030607,0.898493,0.098197,-0.081398,-0.100793
1765408902.857173,-9.837397,-1.219512,1.027618,0.099266,-0.093310,-0.104611
1765408902.859099,-9.837397,-1.219512,1.027618,0.099266,-0.083841,-0.104611
1765408902.862029,-9.837397,-1.028216,1.159732,0.106901,-0.080176,-0.110261
1765408902.864016,-9.845168,-0.689861,1.257771,0.102014,-0.088423,-0.118355
1765408902.867076,-9.900764,-0.606767,1.198589,0.096517,-0.086132,-0.113621
1765408902.870114,-9.585723,-0.848876,0.729316,0.095906,-0.082925,-0.105222
1765408902.872201,-9.543280,-1.009086,0.781922,0.101098,-0.082772,-0.107512
1765408902.875028,-9.807508,-1.208752,1.415590,0.099724,-0.082467,-0.110414
1765408902.877049,-10.040649,-1.175275,1.518412,0.103236,-0.081551,-0.113163
1765408902.879063,-9.899570,-0.890722,0.973218,0.102931,-0.087965,-0.118050
1765408902.882044,-9.570778,-0.705404,0.428025,0.100182,-0.083230,-0.118661
1765408902.884049,-9.656264,-0.697035,0.911645,0.099418,-0.082620,-0.108123
1765408902.887021,-9.995216,-1.014467,1.514227,0.096211,-0.074373,-0.103084
1765408902.889011,-10.029292,-1.439502,1.331898,0.099418,-0.082925,-0.103236
1765408902.892075,-9.692730,-1.519608,0.885940,0.094226,-0.081245,-0.120035
1765408902.894059,-9.501433,-0.852463,0.732305,0.107054,-0.082467,-0.125991
1765408902.897082,-9.580342,-0.489000,0.799856,0.109956,-0.082467,-0.114537
1765408902.899033,-9.580342,-0.489000,0.799856,0.109956,-0.081398,-0.114537
1765408902.902066,-10.108200,-0.925394,1.238642,0.101098,-0.075289,-0.098349
1765408902.904080,-9.950979,-1.558465,0.994739,0.099571,-0.084758,-0.096517
1765408902.907012,-9.952174,-1.553084,1.050335,0.101556,-0.074373,-0.120799
1765408902.909026,-10.013150,-1.016260,1.249402,0.107970,-0.074373,-0.125991
1765408902.910151,-10.013150,-1.016260,1.249402,0.107970,-0.069944,-0.125991
1765408902.914078,-10.031682,-0.600191,1.211143,0.102778,-0.081551,-0.111025
1765408902.917019,-10.181729,-0.847680,1.464610,0.105985,-0.073762,-0.103236
1765408902.920059,-10.096244,-1.358202,1.288259,0.107054,-0.073915,-0.098655
1765408902.922051,-9.857722,-1.667862,0.933764,0.108887,-0.080329,-0.109956
1765408902.924032,-9.793758,-1.358202,0.814801,0.109039,-0.085216,-0.130267
1765408902.927092,-10.056191,-0.772358,0.984577,0.112094,-0.078496,-0.132710
1765408902.929030,-10.076518,-0.465088,1.260162,0.110261,-0.078496,-0.113163
1765408902.932094,-9.857722,-0.805834,1.256576,0.110261,-0.073609,-0.113163
1765408902.934123,-9.675991,-1.278694,1.029412,0.101098,-0.083689,-0.100487
1765408902.937118,-9.853538,-1.388092,0.829746,0.108276,-0.097128,-0.108123
1765408902.939072,-9.922284,-1.318149,0.925394,0.111483,-0.096211,-0.113926
1765408902.942096,-10.169774,-0.847083,1.239837,0.109803,-0.088270,-0.124006
1765408902.944155,-9.936632,-0.616930,1.010282,0.109498,-0.079565,-0.111483
1765408902.947120,-9.794355,-0.888929,0.936155,0.109345,-0.089339,-0.095295
1765408902.948164,-9.659253,-1.349832,0.879962,0.109956,-0.088728,-0.100335
1765408902.952070,-9.679578,-1.416188,0.856050,0.111025,-0.085827,-0.106901
1765408902.954147,-9.753705,-1.397656,1.140005,0.109498,-0.084758,-0.116981
1765408902.957020,-9.753705,-1.397656,1.140005,0.109498,-0.077274,-0.116981
1765408902.958014,-9.984456,-0.814204,1.154950,0.114995,-0.082009,-0.116370
1765408902.962014,-9.814680,-1.099952,1.133429,0.111941,-0.082009,-0.107512
1765408902.963026,-9.756096,-1.064084,0.918819,0.113163,-0.082314,-0.112705
1765408902.967072,-9.673599,-1.162123,0.793878,0.110872,-0.080940,-0.115148
1765408902.969074,-9.837397,-1.148972,1.156145,0.110719,-0.084758,-0.118661
1765408902.972027,-9.862504,-1.021042,1.250598,0.111483,-0.071013,-0.120340
1765408902.974057,-9.778812,-0.920612,1.316953,0.115454,-0.073609,-0.114079
1765408902.977017,-9.802725,-1.053921,1.374342,0.115912,-0.074373,-0.104611
1765408902.980021,-9.563604,-1.287063,0.864419,0.114995,-0.083841,-0.104153
1765408902.982006,-9.744141,-1.237446,1.083214,0.114995,-0.087048,-0.118813
1765408902.985062,-9.803323,-0.912243,1.337876,0.117744,-0.073609,-0.116675
1765408902.987101,-9.919893,-1.044357,1.459230,0.118050,-0.078038,-0.105222
1765408902.989091,-9.849353,-0.944524,1.120277,0.113010,-0.085827,-0.113774
1765408902.992062,-9.693925,-1.030607,0.532042,0.117897,-0.088728,-0.106443
1765408902.994087,-9.497847,-1.459828,0.930177,0.124158,-0.077885,-0.098197
1765408902.997032,-9.693925,-1.208752,1.152558,0.122020,-0.075136,-0.115606
1765408902.998016,-9.959946,-1.131038,1.564443,0.115759,-0.073457,-0.114995
1765408903.002028,-9.856527,-1.410808,1.174079,0.115454,-0.078954,-0.114385
1765408903.004061,-9.729196,-1.155547,0.787900,0.120035,-0.084605,-0.122326
1765408903.005061,-9.985652,-1.066475,1.428742,0.120035,-0.078038,-0.118661
1765408903.009033,-9.599473,-1.361789,1.070062,0.119577,-0.067653,-0.110414
1765408903.012063,-9.459588,-1.097561,0.615734,0.127213,-0.089644,-0.119882
1765408903.014046,-9.701099,-0.944524,0.889526,0.117744,-0.087048,-0.123242
1765408903.015029,-9.952174,-1.001913,1.452056,0.122173,-0.076816,-0.109192
1765408903.019142,-9.780606,-1.264945,1.288857,0.121409,-0.076816,-0.112094
1765408903.022042,-9.757292,-1.023434,0.997130,0.118508,-0.079871,-0.123242
1765408903.024090,-9.983260,-0.814204,1.475371,0.121562,-0.082161,-0.113926
1765408903.027078,-10.023911,-0.869201,1.543520,0.127365,-0.081703,-0.104916
1765408903.028113,-10.236131,-1.201578,1.655308,0.114690,-0.095753,-0.104153
1765408903.032033,-9.861309,-1.451458,0.829746,0.111330,-0.091172,-0.114843
