time,acc_x_g,acc_y_g,acc_z_g,gyro_x_rad_s,gyro_y_rad_s,gyro_z_rad_s
1765410062.598841,-7.94690708977235,-5.013435214981821,-2.934765772150324,-0.006816669128618506,-0.005380390667720688,-0.0013322484758182486
1765410062.599041,-7.927424239368391,-5.017442499714574,-2.9138322814963344,-0.0065198443559004735,-0.005069670980079178,-0.0011802606385976475
1765410062.599241,-7.909130280024293,-5.021722760712051,-2.889084298606479,-0.006267545517872253,-0.004694077562201769,-0.0010454808418245908
1765410062.599441,-7.8918312392277965,-5.026101179015717,-2.8591122542229974,-0.0061260141410004925,-0.0042314614634038055,-0.0008782456829016617
1765410062.599595,-7.875324630909222,-5.0303545690682,-2.8227678015752335,-0.006164263623123012,-0.003666979731828791,-0.000625743970085374
1765410062.599845,-7.85941480131101,-5.034209126726272,-2.7792511505037347,-0.006451547687172795,-0.002994710080851331,-0.000233569930721261
1765410062.600095,-7.843921977469592,-5.037343917525764,-2.7281832519473386,-0.007054673017868318,-0.00221875574268694,0.000352741161154099
1765410062.600345,-7.828684034949651,-5.0394004225502025,-2.6696581258677665,-0.008035242570130982,-0.001353733979853787,0.001186246265561713
1765410062.600597,-7.813551159095753,-5.039997843413371,-2.6042712995001764,-0.009446925846420299,-0.0004245765309338472,0.0023172452758566443
1765410062.600847,-7.798375024627271,-5.038753294880513,-2.5331211868074357,-0.01133286465851061,0.0005343835251067045,0.003792090755340418
1765410062.601097,-7.782995446436895,-5.035305501540203,-2.4577813718684403,-0.013723335985329882,0.0014810141796616596,0.005652184666562104
1765410062.601347,-7.767228191174735,-5.029340246250808,-2.3802432246980496,-0.016633805894548243,0.0023676021957603414,0.007933172405277866
1765410062.601568,-7.7508575831437305,-5.020615606448093,-2.3028301019740676,-0.020063513852800863,0.003143560464656498,0.010664328146240368
1765410062.601768,-7.7336368562933195,-5.008984877159476,-2.2280863751670474,-0.023994716254758908,0.0037584479926061416,0.013868113400895414
1765410062.601968,-7.715298202128358,-4.994415030724038,-2.1586463479291087,-0.028392689963140892,0.004165086366812668,0.017559882732834594
1765410062.602168,-7.695573212229517,-4.976998820014348,-2.0970897587519723,-0.033206556421201947,0.004322539703618556,0.021747706970350878
1765410062.602368,-7.674222712257161,-4.956959363457373,-2.045792347683598,-0.03837093609406061,0.00419872783805588,0.02643228587779647
1765410062.602688,-7.651072855239297,-4.934647034485627,-2.0067817817454965,-0.04380837869401683,0.003772459054616077,0.031606928157148995
1765410062.602938,-7.626052470374544,-4.910529173482855,-1.9816100870790418,-0.04943244183622791,0.0030347025820140765,0.03725758448289361
1765410062.603188,-7.599226006418769,-4.8851731924438715,-1.9712526925407947,-0.05515122687693431,0.0019889785397353083,0.043362929544610726
1765410062.603438,-7.570817262680733,-4.859223312096872,-1.9760415703834844,-0.060871143014803154,0.0006508195485939551,0.04989450597360857
1765410062.603606,-7.541220788666391,-4.833371188500475,-1.995637000549824,-0.06650066383828725,-0.0009536592024596714,0.05681696684945475
1765410062.603856,-7.510999439384893,-4.808321534265866,-2.0290398834276004,-0.07195385825196372,-0.002789966997423899,0.06408847376844241
1765410062.604106,-7.480867767772635,-4.784755165559772,-2.074643957523713,-0.0771535125955136,-0.004818041736652955,0.07166130979891645
1765410062.604356,-7.451661929317308,-4.7632928174676605,-2.130324381065174,-0.08203370646968805,-0.006995423978553369,0.07948274650990439
1765410062.604626,-7.424297739560663,-4.744463013545388,-2.193556306681826,-0.08654175311417547,-0.009280548073076565,0.08749616955382603
1765410062.604959,-7.399719399952037,-4.728676470135629,-2.2615550239911006,-0.09063945752662739,-0.011635892887882427,0.09564243085143294
1765410062.605293,-7.378842146886359,-4.716208593573867,-2.3314281869109177,-0.09430367880063295,-0.014030750365713395,0.10386136984222596
1765410062.605658,-7.36249274310434,-4.707191007244939,-2.400330311152132,-0.09752621079087025,-0.01644340487580958,0.11209343821540325
1765410062.605908,-7.3513522477634075,-4.7016126289687685,-2.4656099573494292,-0.10031302117314184,-0.018862564356215618,0.1202813655682354
1765410062.606158,-7.345905594946019,-4.699330187967644,-2.524940963657172,-0.1026829135057146,-0.021287941002025183,0.12837180271028714
1765410062.606408,-7.3464020216345896,-4.700086975240815,-2.5764307576393124,-0.10466569853831025,-0.02372994497601613,0.13631686889711794
1765410062.606638,-7.352829525314884,-4.703537350323352,-2.6187006272553948,-0.10629998028778027,-0.026208527238574773,0.14407552037146043
1765410062.606888,-7.364905634643117,-4.709273754663094,-2.6509342895043586,-0.10763068143455458,-0.0287512786838211,0.15161466446804397
1765410062.607138,-7.382085860792865,-4.716853167733862,-2.6728923340412654,-0.10870645161505801,-0.03139095391791795,0.1589099636992104
1765410062.607388,-7.403589932968498,-4.725820919921968,-2.684891954393909,-0.10957711697581157,-0.03416263458350216,0.1659462909423578
1765410062.60764,-7.42844414685206,-4.735730967942233,-2.6877542204154357,-0.11029133137547636,-0.03710077352025425,0.1727178014060034
1765410062.60789,-7.455536280039644,-4.746162666286777,-2.682724253713942,-0.11089457096463164,-0.0402363586992004,0.1792275893138377
1765410062.60814,-7.483678225637641,-4.756734570443182,-2.671371778120708,-0.11142757512992255,-0.04359440215301371,0.18548691153308366
1765410062.60839,-7.5116710559954605,-4.767115893337292,-2.655480138777827,-0.11192528741382683,-0.04719190656906654,0.1915139893873522
1765410062.608641,-7.538367465711802,-4.777035967791388,-2.6369315575693406,-0.11241629874020645,-0.051036410529531444,0.19733243701455713
1765410062.608891,-7.562727213819216,-4.786291654999313,-2.6175957228001243,-0.11292274427742695,-0.05512517049550608,0.20296940415748374
1765410062.609141,-7.583862184237342,-4.794752445447824,-2.5992278658103802,-0.11346055713482732,-0.059444996793498794,0.20845355812826577
1765410062.609391,-7.601068864531377,-4.8023632141121855,-2.583381225461736,-0.11403994771477474,-0.06397271756001752,0.21381305405064044
1765410062.609625,-7.613847160184663,-4.809144929675594,-2.5713375536422802,-0.11466596948554098,-0.06867620647388076,0.21907364480411454
1765410062.609958,-7.621905362323526,-4.815193537306648,-2.5640584373277,-0.11533905107821571,-0.07351588694883814,0.2242570624393253
1765410062.610292,-7.625151852605836,-4.820676561579445,-2.5621595461341133,-0.11605541064762334,-0.07844661466725752,0.2293797701157858
1765410062.610632,-7.623674970946113,-4.8258262356991715,-2.5659087602805237,-0.11680731122687613,-0.08341982710188874,0.23445214923379748
1765410062.610882,-7.617713490035908,-4.83092796146469,-2.5752470194546873,-0.1175831596499886,-0.08838582445179886,0.23947815921862303
1765410062.611132,-7.607621226023122,-4.836303909208263,-2.5898280600605093,-0.11836749183060385,-0.09329602379072248,0.24445548596550334
1765410062.611382,-7.593830230474233,-4.842292967731525,-2.6090709840217756,-0.1191409171652147,-0.0981050283720981,0.2493761664429613
1765410062.611738,-7.576817445387082,-4.84922911286602,-2.632218645947,-0.11988010686478803,-0.10277238271139283,0.2542276331910253
1765410062.611988,-7.557079313645805,-4.857420200825412,-2.658395327087344,-0.12055790277692707,-0.10726392880666866,0.25899407458625673
1765410062.612238,-7.535117409059547,-4.8671286854664135,-2.686658741455212,-0.12114360230460237,-0.11155272446152316,0.26365797659978224
1765410062.612488,-7.511435853505567,-4.878555526694068,-2.7160435386926403,-0.12160345108885583,-0.11561952338330428,0.2682017092528088
1765410062.612622,-7.486548741034166,-4.891828685088918,-2.745595492737544,-0.12190135112934175,-0.11945284707485905,0.27260903463791636
1765410062.612872,-7.460993741954145,-4.906997391194017,-2.7743970325227783,-0.12199976816674338,-0.12304870113965537,0.27686642712214243
1765410062.613122,-7.435346956894327,-4.924032275809387,-2.8015857161545856,-0.121860802553044,-0.12641000474984865,0.28096411158201184
1765410062.613372,-7.410233975560775,-4.942829969649585,-2.8263678729091932,-0.12144737600566098,-0.12954581214947275,0.2848967564059544
1765410062.61368,-7.386332830525602,-4.963220106112991,-2.848029752690226,-0.1207244793117672,-0.13247040620097628,0.2886638052510848
1765410062.614013,-7.3643658776557706,-4.984973217185377,-2.8659479539706822,-0.11966041979616004,-0.13520233460329636,0.29226947370540224
1765410062.614347,-7.345079206813812,-5.007809020377827,-2.8796001407160876,-0.11822800761877446,-0.1377634475998586,0.2957224526245642
1765410062.614667,-7.329209701091831,-5.031405110178924,-2.8885767652511443,-0.11640563229922532,-0.1401779911452084,0.29903535121804237
1765410062.614917,-7.317441296239191,-5.055405957096837,-2.8925945511142603,-0.11417819760317835,-0.14247180540637952,0.30222390302183944
1765410062.615167,-7.310353338563637,-5.079431877583924,-2.89151215506461,-0.11153789192391052,-0.14467165915093574,0.3053059670446666
1765410062.615417,-7.308364947369875,-5.103087660828706,-2.885347559095522,-0.10848477222915785,-0.1468047149807578,0.3083003842899674
1765410062.615621,-7.311679702240305,-5.12597076353539,-2.87429594780192,-0.10502713942728734,-0.14889808797377044,0.3112257794490842
1765410062.615871,-7.320234946516712,-5.147679123939134,-2.8587464992809806,-0.10118168394567682,-0.15097844737236246,0.3140994129396137
1765410062.616121,-7.3336599916310705,-5.167818568466144,-2.839296274046959,-0.09697338305176487,-0.1530716126613726,0.3169361871604416
1765410062.616371,-7.351247798707679,-5.186009645111717,-2.816758737538521,-0.09243513975370851,-0.15520209869834808,0.31974789950521343
1765410062.616649,-7.3719450870168295,-5.201893790380436,-2.792163539129793,-0.08760716775914669,-0.1573925688078076,0.32254281646613053
1765410062.616982,-7.3943657251416175,-5.215139115289402,-2.7667435573184798,-0.08253614221162282,-0.15966316784223228,0.32532561346673305
1765410062.617316,-7.416831229309921,-5.225446529765634,-2.7419053380784053,-0.07727414555062201,-0.1620307290374515,0.32809768041072696
1765410062.617705,-7.4374401580197125,-5.2325569724498715,-2.7191800473094188,-0.07187743962986035,-0.16450787204318776,0.3308577403632959
1765410062.617955,-7.45416552937217,-5.236259920231153,-2.700153841156415,-0.06640509106188862,-0.16710203523407216,0.333602683494298
1765410062.618205,-7.464976644879525,-5.236402352354489,-2.6863788176741696,-0.06091747290265816,-0.16981451943787373,0.3363284943019158
1765410062.618455,-7.46797916801397,-5.2328966454777985,-2.679268153926744,-0.05547466947167026,-0.17263965829638425,0.3390311540064773
1765410062.6187,-7.46156479265885,-5.225726176084661,-2.6799816898419118,-0.05013482264932318,-0.1755642581975415,0.34170742814086447
1765410062.61895,-7.444559112159628,-5.2149486160257625,-2.6893111869421027,-0.04495246927825974,-0.17856746038624355,0.344355485455097
1765410062.6192,-7.416353850357166,-5.200697976597757,-2.7075772324081377,-0.03997692259139182,-0.18162117104203418,0.34697531994803027
1765410062.61945,-7.37700875969134,-5.183186419582066,-2.7345510060496183,-0.03525074635281307,-0.18469117765922582,0.3495689609384904
1765410062.6196,-7.327310352431303,-5.162705976386501,-2.7694127820820555,-0.03080836444506901,-0.18773900780264888,0.35214046947817995
1765410062.619933,-7.268778857284966,-5.139629720595023,-2.8107554263895413,-0.02667484498949166,-0.19072448319426724,0.35469573914437486
1765410062.620267,-7.203619618596625,-5.11441212567583,-2.856636973803996,-0.02286489741925417,-0.1936087999499356,0.357242134667558
1765410062.620562,-7.134619246027462,-5.087588641359294,-2.904682682629159,-0.019382122577567582,-0.1963578673811962,0.3597880025558245
1765410062.620812,-7.0649908305270674,-5.0597741226276005,-2.9522327283319227,-0.016218558607618675,-0.19894559389537722,0.3623420809971257
1765410062.621062,-6.998177954371459,-5.031658768664365,-2.9965255436275555,-0.01335456879430076,-0.20135681516286563,0.3649128372787173
1765410062.621312,-6.937633660604705,-5.003999538036915,-3.0348998707694985,-0.010759122211608747,-0.20358959261830073,0.36750777262892115
1765410062.621556,-6.886595283283123,-4.977605183746982,-3.0649942433927726,-0.008390520092606294,-0.20565665765899888,0.3701327465473692
1765410062.621806,-6.847876646930083,-4.953313967761669,-3.0849231601301437,-0.006197610678909677,-0.20758584635067992,0.37279137740869783
1765410062.622056,-6.823695766991916,-4.93196433938804,-3.0934136957818668,-0.004121506124439839,-0.2094194627198384,0.37548457182779243
1765410062.622306,-6.815550771389846,-4.9143599960541335,-3.0898920233683436,-0.0020977673511559693,-0.2112126048943058,0.3782102215494946
1765410062.622568,-6.824150982970255,-4.901231422408721,-3.0745146049983503,-5.8960964286363105e-05,-0.21303056254010241,0.38096308639050547
1765410062.622818,-6.84940459155606,-4.89319609501902,-3.048143545718292,0.00206257416758082,-0.21494544166862883,0.38373486369743975
1765410062.623068,-6.890459298586219,-4.89071934336093,-3.012270078248312,0.0043319649469661424,-0.21703220837639506,0.38651443597798385
1765410062.623318,-6.945788048133396,-4.89407777051266,-2.9688942855389384,0.006809276217111318,-0.21936438108346004,0.38928828853487146
1765410062.623609,-7.013308851909318,-4.903327251749304,-2.920372640260369,0.009547418258238814,-0.22200964198483508,0.3920410948638537
1765410062.623942,-7.090525985185321,-4.918277754039034,-2.8692474121641993,0.012590632199249318,-0.225025669301984,0.3947564767877904
1765410062.624276,-7.174679534585463,-4.938477587524898,-2.8180731708705746,0.01597362526048878,-0.22845649584071134,0.39741795212287484
1765410062.624616,-7.262891569654941,-4.963210189429492,-2.7692550545655483,0.01972135454488645,-0.232329666169793,0.400010072201087
1765410062.624866,-7.35230036911632,-4.991506639869169,-2.7249106975271573,0.023849387189745466,-0.2366543928894673,0.4025197173440696
1765410062.625116,-7.440178932108934,-5.022176124390862,-2.686762927881048,0.028364704404877605,-0.24142080896376777,0.4049374710861755
1765410062.625366,-7.524038798218415,-5.053854535141878,-2.6560651397569783,0.03326677717072625,-0.2466002977843304,0.4072589555874627
1765410062.625595,-7.601722435986206,-5.085069219443473,-2.6335577653246096,0.03854872659024511,-0.2521467894850669,0.40948599310451395
1765410062.625845,-7.6714858948883675,-5.114316286535997,-2.6194533554081225,0.04419838839290436,-0.25799887084338347,0.41162745455808386
1765410062.626095,-7.732069322160428,-5.140145842037885,-2.6134484393127106,0.05019912279146305,-0.26408256504170585,0.413699655992902
1765410062.626345,-7.78274893721793,-5.161249561549816,-2.6147611903260852,0.05653024892143823,-0.27031466345455185,0.41572617200008644
1765410062.626658,-7.823362584978628,-5.176543943909163,-2.6221938645396294,0.06316704501097756,-0.27660649802704523,0.4177369692264559
1765410062.626908,-7.854303404989595,-5.185241878920256,-2.634217046355093,0.07008034276340724,-0.282868010908579,0.4197668353646348
1765410062.627158,-7.87648148407551,-5.1869055791649545,-2.649069355847925,0.0772358453848206,-0.28901191500272455,0.4218531832083015
1765410062.627408,-7.891258306189226,-5.181475667496139,-2.6648639440661626,0.08459339119997103,-0.2949576797406275,0.42403341821347557
1765410062.62758,-7.900360491992373,-5.1692737488264795,-2.6796938386329954,0.0921064441825206,-0.3006350624952835,0.42634213820658867
1765410062.627913,-7.905777957554213,-5.150978502377957,-2.6917310598576094,0.09972210133216353,-0.3059869538589805,0.4288084676673407
1765410062.628247,-7.909649808662614,-5.127577971534038,-2.699316822082193,0.10738185959656371,-0.310971396650702,0.4314538165794926
1765410062.628585,-7.914141177205534,-5.100303130820076,-2.7010406593701473,0.11502328859302229,-0.3155627413054065,0.4342902976591029
1765410062.628835,-7.92131610316905,-5.070549403468382,-2.6958053333442025,0.12258262548351645,-0.3197519886091046,0.4373199362534571
1765410062.629085,-7.933014467083011,-5.039792902563073,-2.6828729305940286,0.1299981648168562,-0.3235464353810003,0.44053467752546566
1765410062.629335,-7.950743427819489,-5.009506721676599,-2.661886815974415,0.13721417963899948,-0.32696877931656954,0.4439170716478079
1765410062.631106,-7.975594423417894,-4.981080480085424,-2.6328653531277837,0.14418500509859938,-0.33005584948684735,0.4474414433396753
1765410062.631356,-8.008194706577365,-4.955744896729223,-2.5961671424511907,0.15087886358162408,-0.3328570982367813,0.4510753490650194
1765410062.631606,-8.048697769284002,-4.934503415033304,-2.552432940170153,0.15728101234222044,-0.3354329221957799,0.4547811792929727
1765410062.631856,-8.096811044290694,-4.9180746463139196,-2.5025141371832973,0.16339583508373534,-0.3378528000434777,0.45851783646780886
1765410062.631183,-8.151853628076795,-4.906851347035214,-2.447399782773451,0.1692475705491499,-0.34019317538427907,0.4622424739654289
1765410062.631516,-8.212832887807522,-4.9008823396849674,-2.3881532545802675,0.17487948186128402,-0.34253500087428773,0.46591229801816725
1765410062.63185,-8.2785275105513,-4.899882353976378,-2.325866666080831,0.18035142582337257,-0.34496090440157023,0.46948641749598435
1765410062.631762,-8.347565947706585,-4.903271049234645,-2.261637111899131,0.18573597238961295,-0.34755202128843343,0.4729276933037059
1765410062.632012,-8.418492607880015,-4.9102373146113765,-2.1965647333544367,0.1911134253574879,-0.35038461816897676,0.47620450670195613
1765410062.632262,-8.489818259687349,-4.9198201664293855,-2.1317687107209085,0.19656626236073013,-0.35352668319023994,0.4792923429312661
1765410062.632512,-8.560054896223699,-4.930994854915606,-2.0684136215673106,0.2021735933463966,-0.3570346687003863,0.4821750772082611
1765410062.632624,-8.627738496383172,-4.942752614602865,-2.0077354431361227,0.20800620089600644,-0.3609505574694383,0.4848458598241724
1765410062.632874,-8.69144546855243,-4.954164559120086,-1.9510550781038747,0.21412258605081796,-0.3652993968137693,0.48730753054708126
1765410062.633124,-8.749809490355009,-4.9644242032803145,-1.8997689333963468,0.22056624777276757,-0.3700874256001829,0.4895725423061498
1765410062.633374,-8.801544734549179,-4.972868109889261,-1.8553104140925407,0.2273642273244327,-0.3753009221332955,0.49166241715271924
1765410062.633625,-8.845479570754419,-4.97897846184154,-1.8190813688997265,0.23452678779906472,-0.38090592132582274,0.49360677438116646
1765410062.633958,-8.880602037326433,-4.982373511547485,-1.792357394969265,0.24204798643482447,-0.38684896088630755,0.4954419661565681
1765410062.634292,-8.906114478927401,-4.982791847094959,-1.7761759323862274,0.24990683527293722,-0.3930589927072394,0.49720935301682223
1765410062.634582,-8.92149036278866,-4.980075230986991,-1.7712212992193026,0.2580687438911374,-0.3994505291188973,0.49895326765109693
1765410062.634832,-8.926523472407183,-4.974153307359389,-1.7777241528435745,0.26648700825684657,-0.40592798923927137,0.5007187487071849
1765410062.635082,-8.921360126934834,-4.965032104753238,-1.7953919452060223,0.27510424402390193,-0.41239108027756444,0.502549162969992
1765410062.635332,-8.906508275291111,-4.9527870584521025,-1.8233821703201645,0.2838538269686973,-0.4187409144185486,0.5044838617259518
1765410062.635608,-8.882821218665448,-4.937560256543352,-1.8603243707380857,0.29266155227155116,-0.42488644939459963,0.5065560308789113
1765410062.635941,-8.851456844510311,-4.9195607546440865,-1.904391779360395,0.30144781187760344,-0.4307507618225775,0.5087908935340277
1765410062.636275,-8.81381564960487,-4.899066063497622,-1.9534182820906394,0.3101305739596529,-0.4362766133419299,0.5112044061386218
1765410062.636718,-8.771463149061216,-4.876422351315759,-2.0050497197713706,0.31862930981474646,-0.44143074957984807,0.5138025521863246
1765410062.636968,-8.726044337042211,-4.852040682644463,-2.056911563839663,0.32686977264379596,-0.44620640195139877,0.5165812815137701
1765410062.637218,-8.679198517171214,-4.826386839712803,-2.1067714718552706,0.33478925465206905,-0.4506235893634402,0.5195270744078967
1765410062.637468,-8.63248137803279,-4.799962983138322,-2.1526780021083725,0.3423417147405902,-0.45472707638221505,0.5226180415197851
1765410062.637681,-8.58729850154335,-4.773280774805626,-2.1930645149428236,0.34950204130672335,-0.45858219475690665,0.5258254218483611
1765410062.637931,-8.544852153357528,-4.746827706179577,-2.2268153982964023,0.3562687229751545,-0.46226905335524254,0.529115324117925
1765410062.638181,-8.506102318329477,-4.721030718487369,-2.253296211907079,0.3626643472081053,-0.46587583141662353,0.5324505671885873
1765410062.638431,-8.471743535089141,-4.6962226436246715,-2.2723498010194336,0.3687336182328704,-0.4694918469248761,0.5357925008549372
1765410062.63871,-8.442199911655077,-4.6726167040961,-2.284260008892064,0.3745389477609735,-0.47320097665154315,0.5391027259159483
1765410062.639043,-8.417640065882324,-4.650292466281875,-2.2896863872768467,0.38015406141249425,-0.477075856255526,0.5423446826969089
1765410062.639377,-8.398011200317788,-4.629194341018821,-2.289576747298994,0.3856563926062821,-0.4811731551752737,0.5454851304797301
1765410062.639728,-8.38308847380628,-4.609142172186293,-2.2850662539368733,0.39111922056873655,-0.48553011326982876,0.5484955720380341
1765410062.639978,-8.37253401290078,-4.589852912815971,-2.2773703579517,0.39660450795499363,-0.49016243959908384,0.5513536619367845
1765410062.640228,-8.365959808645806,-4.570972040549397,-2.267676114897974,0.4021572236204481,-0.4950636060920612,0.5540445706002965
1765410062.640478,-8.362989425944399,-4.552112488672799,-2.2570354299386928,0.4078016613835703,-0.500205523051144,0.5565621863304973
1765410062.640673,-8.363313578422533,-4.53289776192392,-2.2462654180401778,0.4135399609273926,-0.5055405539409867,0.5589099617686284
1765410062.640923,-8.366733698320177,-4.513005152881255,-2.2358638540375284,0.41935275520009135,-0.5110047928516991,0.5611011686383576
1765410062.641173,-8.373186665286184,-4.492204361117772,-2.2259494606089323,0.4252016385114011,-0.5165224725995975,0.5631583232847303
1765410062.641423,-8.382744929034683,-4.470385934516283,-2.216236177753514,0.43103299432633274,-0.522011299444203,0.5651116063661064
1765410062.641701,-8.395590598574877,-4.447573584965274,-2.206047390063649,0.43678266392839976,-0.5273884324644057,0.5669962429540994
1765410062.642034,-8.411968194233811,-4.423916031542766,-2.194371333590715,0.44238097688817607,-0.5325767371660366,0.568849013699728
1765410062.642368,-8.432125459969908,-4.399657703761719,-2.179954013465287,0.44775776518163624,-0.5375108388422937,0.5707042706918026
1765410062.642705,-8.456253003586674,-4.375091908104085,-2.161421690881269,0.4528470916557221,-0.5421424083284898,0.5725899732210631
1765410062.642955,-8.48443213612397,-4.350503667960157,-2.1374212037018245,0.4575915022398743,-0.5464440877998669,0.5745243117372727
1765410062.643205,-8.51659758557422,-4.326112131370999,-2.106763281864501,0.4619456488219623,-0.5504115511197991,0.5765134446500728
1765410062.643455,-8.552518537508563,-4.302023774342815,-2.068553112138471,0.46587913738906084,-0.5540633936480458,0.5785507298821129
1765410062.643684,-8.591797802002251,-4.278206585057372,-2.022295396489179,0.46937845563980723,-0.5574388303986038,0.5806176077061732
1765410062.644017,-8.633885128782568,-4.254491638351678,-1.9679674949659367,0.47244784527935946,-0.560593493977993,0.5826860274092959
1765410062.644351,-8.678097932756978,-4.230602988693302,-1.9060603567760308,0.47510902207405376,-0.563593878599189,0.584722062819671
1765410062.644606,-8.723642496245356,-4.2062110769969765,-1.8375889349072176,0.4773997231964455,-0.5665110954924419,0.586690175664665
1765410062.644856,-8.769631595043588,-4.180999721336125,-1.7640713858847386,0.4793711742217417,-0.569414584032639,0.5885574921349334
1765410062.645106,-8.815099048233469,-4.154732846524434,-1.687473308736471,0.4810846936932044,-0.5723663224980143,0.5902974790580553
1765410062.645356,-8.85901558892114,-4.127305604066212,-1.6101132829207048,0.4826077527913709,-0.5754159510651484,0.591892547736551
1765410062.645573,-8.900312218130109,-4.098766994286329,-1.5345292259222012,0.48400984456164436,-0.5785970703660911,0.5933353467555755
1765410062.645823,-8.937916656093261,-4.0693079482364665,-1.463309646540385,0.4853584769534445,-0.5819248385037139,0.5946287599676637
1765410062.646073,-8.970805904984026,-4.039218134758597,-1.3988989920221593,0.4867155074062574,-0.585394911085603,0.595784820597976
1765410062.646323,-8.99807362054212,-4.00882289269133,-1.3433925867519187,0.48813393327602245,-0.5889837714966569,0.596822843990498
1765410062.646599,-9.019005788299118,-3.978415649740607,-1.2983434349679916,0.4896551885935774,-0.5926505273876979,0.597767088270063
1765410062.646932,-9.033153530433722,-3.9482004608194794,-1.2646075381016035,0.49130698398632544,-0.5963402219271344,0.5986442218463208
1765410062.647266,-9.040389412155202,-3.918255409014477,-1.2422534391214477,0.49310174395770795,-0.5999885884986972,0.5994808399597024
1765410062.647696,-9.040934774460903,-3.8885223534782165,-1.2305548132566548,0.4950357323978335,-0.6035279898974876,0.6003012338957313
1765410062.647946,-9.0353505386733,-3.8588230256145755,-1.2280737008862033,0.49708901745108325,-0.6068940702712049,0.6011255755421394
1765410062.648196,-9.024491090969207,-3.8288967872543225,-1.232828347542673,0.49922649741467645,-0.6100324386535823,0.6019686395465663
1765410062.648446,-9.00942806846526,-3.7984526294595415,-1.242524941551236,0.5014002380316996,-0.6129045358059972,0.6028391396897363
1765410062.648665,-8.991356304716472,-3.7672274043669094,-1.2548193604102653,0.5035532944651009,-0.6154918007029048,0.6037396900843125
1765410062.648915,-8.971496681693383,-3.7350424358617937,-1.2675681152610339,0.5056249785321901,-0.6177974522882212,0.6046673125269639
1765410062.649165,-8.951009962661026,-3.701850200473674,-1.2790309272499383,0.5075572141128586,-0.6198456327020866,0.6056143239525328
1765410062.649415,-8.930932597826088,-3.6677624451118103,-1.2879995817638046,0.5093012936826958,-0.6216781572480072,0.6065693934154132
1765410062.64959,-8.912140852467335,-3.633052918301058,-1.2938432255176358,0.5108241241738698,-0.6233494810900103,0.6075185800737279
1765410062.649923,-8.895343771589497,-3.598132295128957,-1.2964742132286922,0.5121130047082084,-0.6249206444374885,0.6084462374833375
1765410062.650257,-8.881099028165172,-3.5634980559296783,-1.2962497788818284,0.5131781180196123,-0.6264529578219284,0.6093357614712153
1765410062.650661,-8.869840295462572,-3.529666347245428,-1.2938330921181027,0.5140522195943052,-0.628002117695351,0.6101702495980251
1765410062.650911,-8.861902830922874,-3.4970963050849413,-1.290040807561077,0.5147874391161612,-0.629613321142337,0.6109332167742183
1765410062.651161,-8.857536662838518,-3.4661202921296894,-1.2857013560489183,0.5154495874267495,-0.6313177768030084,0.6116095389123741
1765410062.651411,-8.856902859711417,-3.436894748200794,-1.2815406780041878,0.5161107674577848,-0.6331308204735434,0.6121867340463513
1765410062.651598,-8.860055136020213,-3.409383912274764,-1.2781036991162273,0.5168413220330518,-0.6350516822665999,0.6126565418336818
1765410062.651848,-8.866914287439625,-3.3833820736634648,-1.2757129073832407,0.5177021872976152,-0.637064820596496,0.6130165864723832
1765410062.652098,-8.877245320754453,-3.3585710171837047,-1.2744603425098893,0.5187385805238618,-0.6391426069897257,0.6132717764919327
1765410062.652348,-8.890645850449282,-3.334600685510293,-1.274226739296014,0.5199756751557992,-0.641249005134726,0.6134350546984687
1765410062.652643,-8.906549899625125,-3.311175102545452,-1.274721750157509,0.5214165623131365,-0.6433437648578285,0.613527184022525
1765410062.652976,-8.92424625005233,-3.2881239688963575,-1.2755400199626108,0.5230424498358824,-0.645386580916175,0.6135754390459159
1765410062.65331,-8.942907838336582,-3.2654440970776064,-1.2762263638917888,0.5248147906435655,-0.6473406686208008,0.6136113283480569
1765410062.65365,-8.961628755759277,-3.243303423398657,-1.2763398036731144,0.5266789039656552,-0.6491753031355656,0.6136677146159101
1765410062.6539,-8.979466017923624,-3.2220107106616305,-1.2755052080635028,0.5285686418704686,-0.6508670749784113,0.6137758374665636
1765410062.65415,-8.995482927937218,-3.2019620263762754,-1.2734456892706936,0.5304117133084354,-0.6523999034723814,0.6139627399689456
1765410062.6544,-9.008790523273653,-3.1835780885524443,-1.2699957554784294,0.5321353596411023,-0.653764118899016,0.6142494849171832
1765410062.654606,-9.018584598480157,-3.167245293019913,-1.265099384231318,0.5336721334034652,-0.6549550524319496,0.6146503818764276
1765410062.654856,-9.02417739948193,-3.153270013085728,-1.2587977020923904,0.5349655298445362,-0.6559715312378821,0.6151732724256288
1765410062.655106,-9.025023676835003,-3.141851971511623,-1.251210423361418,0.5359751602432093,-0.6568145457147783,0.6158207509743655
1765410062.655356,-9.02074058041396,-3.1330780925368913,-1.242514612997488,0.5366810812181779,-0.6574862313527572,0.6165920382053641
1765410062.655582,-9.011121447587783,-3.126933522917707,-1.2329224424103786,0.5370868478217784,-0.6579892174191283,0.6174850944561973
1765410062.655915,-8.996144979353698,-3.1233229410355574,-1.2226566233300498,0.537220853593603,-0.6583263315980944,0.6184984955119229
1765410062.656249,-8.975981971671587,-3.122094043909782,-1.2119208342831445,0.5371355775471892,-0.6585006304161857,0.6196326234560853
1765410062.656655,-8.951000764905167,-3.1230557441359537,-1.2008646647624255,0.536904523166847,-0.6585157653793712,0.6208898603452626
1765410062.656905,-8.92177062571083,-3.125985157674732,-1.1895473162634858,0.5366169235660425,-0.6583767446632369,0.6222736959858409
1765410062.657155,-8.889060211940004,-3.1306200631675263,-1.1779088192067027,0.536370629033535,-0.6580911171695557,0.6237869255460656
1765410062.657405,-8.853826321179863,-3.136637571198303,-1.1657596655095164,0.5362638739823791,-0.6576704576754422,0.6254293455172472
1765410062.657572,-8.817187236074707,-3.14362433874614,-1.152797810675324,0.536386771024425,-0.6571318390863815,0.6271954928758998
1765410062.657822,-8.780377105507798,-3.1510472182025473,-1.138654951706179,0.5368134012702489,-0.6564988441814925,0.62907298891956
1765410062.658072,-8.744683311692521,-3.1582350466101943,-1.1229640037013713,0.5375952861437352,-0.6558016649378647,0.6310419541591954
1765410062.658322,-8.711374690656779,-3.1643821779815338,-1.1054324212345934,0.5387568523198251,-0.6550759915524307,0.6330757628247606
1765410062.658674,-8.681631119610334,-3.1685816807250595,-1.0859055162242073,0.540293265419886,-0.6543606777955507,0.6351431267169366
1765410062.659007,-8.656483703945648,-3.169890563173872,-1.064408611430692,0.542170766031396,-0.6536944762911218,0.6372112038964136
1765410062.659341,-8.636771654438276,-3.1674221599831003,-1.0411622788415857,0.5443294418708526,-0.6531123323363458,0.6392492023666984
1765410062.659703,-8.623118792472075,-3.160453837993518,-1.0165687428550858,0.5466882157605525,-0.6526417540246202,0.6412318397712381
1765410062.659953,-8.615929862241929,-3.1485328501724648,-0.9911702703828353,0.5491516953032496,-0.6522996961652996,0.6431420353463404
1765410062.660203,-8.61540425602509,-3.1315605907680455,-0.9655831820127928,0.5516183962143675,-0.6520902957930473,0.64497234985105
1765410062.660453,-8.621562351733246,-3.1098370466013674,-0.9404146527926058,0.5539897098430845,-0.6520037201194857,0.6467249356766898
1765410062.660796,-8.634277702077751,-3.0840535834524068,-0.9161734946242764,0.556178846794007,-0.6520163169040987,0.6484100533947817
1765410062.661046,-8.653307237080032,-3.0552320793687677,-0.8931895368668276,0.5581188901035974,-0.6520921567441242,0.6500434717462371
1765410062.661296,-8.67831174215093,-3.024618843677051,-0.8715579281818807,0.5597690851636562,-0.6521859117227,0.6516432395272084
1765410062.661546,-8.708860089043755,-2.9935496288535335,-0.8511239216957522,0.5611186141579955,-0.6522468396519,0.6532263852570053
1765410062.661692,-8.744413006478354,-2.963305562284839,-0.8315194097126565,0.5621873476419655,-0.6522234627776353,0.6548060744932285
1765410062.662025,-8.78428610071735,-2.934979157440264,-0.8122532876887238,0.5630234028608161,-0.6520683653309334,0.6563896561043374
1765410062.662359,-8.827597675411043,-2.909366415927773,-0.792844133188893,0.563697724716022,-0.6517424212426343,0.6579778824032787
1765410062.662639,-8.873213377244664,-2.8868971649545316,-0.7729701619732522,0.5642962907449373,-0.6512177729050777,0.6595654082250384
1765410062.662889,-8.919704270126118,-2.867611429036054,-0.7526045958630643,0.5649108595434492,-0.6504790769334406,0.6611424607640144
1765410062.663139,-8.965335744323417,-2.8511838064487436,-0.7321075423636052,0.5656293658231974,-0.6495228817678091,0.6626973452633783
1765410062.663389,-9.008101459756956,-2.8369904479271204,-0.7122550800897541,0.5665270805552046,-0.6483553729720632,0.6642192785291423
1765410062.663607,-9.045809934248899,-2.824206377760809,-0.6941973451207893,0.5676595022891965,-0.6469889858041215,0.6657009930123832
1765410062.663857,-9.076222325906903,-2.8119171038546007,-0.6793481725423289,0.5690576504680288,-0.6454384982432814,0.6671406393126198
1765410062.664107,-9.097229965852277,-2.7992285656533635,-0.6692197213920494,0.5707260555714007,-0.6437172108758228,0.668542690521383
1765410062.664357,-9.107051558249715,-2.785362555353841,-0.6652250533287922,0.5726433762586903,-0.6418337404901446,0.6699177645464146
1765410062.664592,-9.104425017798803,-2.7697295048404165,-0.6684765015113681,0.5747652889396605,-0.6397898399362117,0.6712814805266378
1765410062.664925,-9.088768848821438,-2.7519756339867567,-0.6796068338165627,0.5770291138637209,-0.6375795320612635,0.6726526053606604
1765410062.665259,-9.060291837627373,-2.732005275627007,-0.698636517441597,0.5793595726958602,-0.6351897193155385,0.6740508069400863
1765410062.667071,-9.020035406010052,-2.709980628039581,-0.7249065455871823,0.5816751136259372,-0.6326022941376126,0.6754943353440653
1765410062.667321,-8.96983917371594,-2.6863009444705117,-0.7570912129339025,0.583894350036415,-0.6297976014470359,0.6769979348718479
1765410062.667571,-8.912227855736004,-2.6615630896230464,-0.7932961823079834,0.5859422701860938,-0.6267588686697618,0.6785712525538757
1765410062.667821,-8.850227258719244,-2.6365063234521577,-0.8312339915728546,0.5877559439270764,-0.6234769474774732,0.6802179353891835
1765410062.667138,-8.787127843357169,-2.611945457449823,-0.8684544897700934,0.5892894723561308,-0.6199545055846266,0.6819354941417022
1765410062.667388,-8.726223411411215,-2.5886974347331586,-0.9025955401203183,0.5905179084449208,-0.6162087871434426,0.6837158780984037
1765410062.667638,-8.670556553487001,-2.5675067934874196,-0.931614677486685,0.591439837597972,-0.612272283217184,0.6855465876009796
1765410062.667888,-8.622699575825177,-2.54897535861262,-0.9539686515120659,0.592078277901484,-0.6081910704695087,0.6874120826615328
1765410062.667632,-8.584591277387924,-2.533501046860304,-0.9687220281339843,0.5924795891446032,-0.6040210532650574,0.6892952519105341
1765410062.667882,-8.557440326461167,-2.521230566818556,-0.9755804513138153,0.5927102120918678,-0.5998227351859371,0.6911787847492995
1765410062.668132,-8.541698155655409,-2.512031325873258,-0.9748537461655661,0.5928513035300138,-0.5956553599934771,0.6930463978523458
1765410062.668382,-8.537098262488287,-2.505488092091792,-0.9673598665149349,0.5929916493593571,-0.5915712822683679,0.6948839512455938
1765410062.668664,-8.542753562663618,-2.500928812145537,-0.9542850770924747,0.5932195522833347,-0.5876112898354511,0.6966805236380701
1765410062.668997,-8.557299515960803,-2.497481454206105,-0.9370179641543378,0.5936146123216228,-0.5838013660867951,0.6984294968248617
1765410062.669331,-8.579068947657612,-2.494160384757281,-0.9169739105464366,0.5942403806319865,-0.5801511188044886,0.7001296221548335
1765410062.669671,-8.606283451200019,-2.489976575365111,-0.895425094994567,0.5951387598974206,-0.5766538752139306,0.7017859224625123
1765410062.669921,-8.637244041852988,-2.484060538762861,-0.8733519208282662,0.5963267811789179,-0.5732882909674981,0.7034101653836705
1765410062.670171,-8.670501199693941,-2.475781028883913,-0.8513337460193697,0.59779605272352,-0.5700212316552797,0.705020588666442
1765410062.670421,-8.704984290925799,-2.4648384337296534,-0.8294958983403292,0.5995148031071932,-0.5668115966301828,0.7066406139955668
1765410062.670667,-8.740073942453092,-2.4513120680672666,-0.8075239746021046,0.6014320925898866,-0.5636146199188866,0.7082964664337466
1765410062.670917,-8.775608299287825,-2.4356467675977482,-0.7847452610173786,0.6034835095432304,-0.5603860402632698,0.7100138854102135
1765410062.671167,-8.811824841277206,-2.418575764855712,-0.7602626426105447,0.6055975599239442,-0.5570854922035168,0.7118143895215228
1765410062.671417,-8.849251150725106,-2.4009906935420644,-0.7331141189909985,0.6077020145210977,-0.5536786181180987,0.7137117408794346
1765410062.671606,-8.888565878169985,-2.383780959468221,-0.7024278500371884,0.6097296574074228,-0.550137705797131,0.7157092737577941
1765410062.671939,-8.93045166864079,-2.3676700745893626,-0.6675500535277469,0.6116230969901418,-0.5464409860235377,0.7177986104330896
1765410062.672273,-8.975456159726972,-2.3530756801675845,-0.6281355940717206,0.6133384793467438,-0.5425709610766368,0.719960048141191
1765410062.672638,-9.023869889020906,-2.340014915217738,-0.5842018718468732,0.6148480370898161,-0.5385122435444888,0.7221646299473946
1765410062.672888,-9.075625181910924,-2.3280693578348686,-0.5361523550583126,0.6161414261589807,-0.5342493870679847,0.724377652169391
1765410062.673138,-9.130219312172912,-2.3164150733989297,-0.4847766442094906,0.6172258045608092,-0.5297651163105475,0.7265631463392329
1765410062.673388,-9.18666729173649,-2.303914423020254,-0.4312303666414684,0.618124639983338,-0.5250392415556692,0.728688726475953
1765410062.67364,-9.243491703183054,-2.289258222493988,-0.3769931968864078,0.6188753012218102,-0.5200484169972217,0.7307301132639556
1765410062.67389,-9.298756325662104,-2.271139940602349,-0.3238010830400093,0.6195255765125758,-0.5147668251597405,0.7326746385334033
1765410062.67414,-9.350146579778068,-2.2484380504206536,-0.2735514546670567,0.6201293660126832,-0.5091678603637481,0.7345231245149686
1765410062.67439,-9.395094858490028,-2.220379592915557,-0.22818567668494516,0.6207419041578365,-0.5032268748084505,0.7362897504591072
1765410062.674653,-9.430943880412643,-2.186659500165853,-0.189558242883239,0.621414943758385,-0.49692493374733765,0.7379998470121198
1765410062.674903,-9.455136047691699,-2.1474971443721405,-0.15930641835465625,0.6221923428998041,-0.4902532681360118,0.7396859282896019
1765410062.675153,-9.465411917849995,-2.103622404521902,-0.1387364501174138,0.6231064366654943,-0.4832178011460139,0.7413825941082343
1765410062.675403,-9.459998597260961,-2.0561952882180417,-0.12874008922873795,0.6241754716644632,-0.47584289320266043,0.7431211321242628
1765410062.675612,-9.437770617770164,-2.0066731461902045,-0.12974703279744193,0.6254022514648848,-0.46817340481660985,0.7449246785738917
1765410062.675945,-9.398370338246718,-1.956646257550473,-0.1417097175429509,0.6267739923264662,-0.46027437808862315,0.7468046621677075
1765410062.676279,-9.342279723390956,-1.9076655522953585,-0.1641125800871571,0.628263242781142,-0.4522280693881293,0.7487590040367749
1765410062.676626,-9.270839277254915,-1.8610856671207154,-0.19599930854035777,0.6298296344468517,-0.44412859175046626,0.750772239627767
1765410062.676876,-9.186212567915904,-1.8179428718302963,-0.23601544317016476,0.6314222536233856,-0.4360748480453572,0.7528174216479245
1765410062.677126,-9.091296017126595,-1.7788809998818407,-0.2824669414711956,0.6329825259308491,-0.42816263509410285,0.754859398234169
1765410062.677376,-8.989574740314957,-1.7441298375969168,-0.3333964363349305,0.6344475957499972,-0.4204768023628546,0.7568588749024602
1765410062.677682,-8.8849289964494,-1.7135309414412203,-0.386676902593486,0.6357541833674297,-0.4130842518525845,0.7587765970891063
1765410062.677932,-8.781403236064337,-1.6865982047370278,-0.4401178146399885,0.6368428103447976,-0.4060284187295425,0.7605770446351051
1765410062.678182,-8.682957801239219,-1.6625971965559292,-0.4915742514572812,0.6376621419192534,-0.39932568191865137,0.7622311878888269
1765410062.678432,-8.593227764321686,-1.6406289769205475,-0.5390474540454524,0.6381730610694474,-0.3929639543988013,0.7637180700662121
1765410062.678642,-8.515312492263654,-1.6197090219283683,-0.5807668508749827,0.638352012074264,-0.3869035488970327,0.7650251980056632
1765410062.678975,-8.45161426352863,-1.5988372250079157,-0.6152479246960887,0.638193157528373,-0.3810803048923035,0.7661478983643364
1765410062.679309,-8.403736615954795,-1.5770585106826336,-0.6413261104716532,0.6377089767608245,-0.3754108355756946,0.7670879064526054
1765410062.679574,-8.372445497231473,-1.5535148708238424,-0.6581718615712174,0.636929083280372,-0.3697995699580168,0.7678515037860063
1765410062.679824,-8.357690730629862,-1.5274893648886787,-0.6652939134112551,0.6358972538300908,-0.3641470503377328,0.7684475241384734
1765410062.680074,-8.35868178923399,-1.4984417845437625,-0.662536345629456,0.6346669283096806,-0.35835874502253,0.7688855180531796
1765410062.680324,-8.374009040902495,-1.4660347997636964,-0.6500715796534843,0.6332957007656587,-0.3523534925821016,0.7691743035267748
1765410062.680571,-8.401799161506968,-1.4301487746730508,-0.6283870881258521,0.6318394926201638,-0.3460706597064345,0.769321034297725
1765410062.680821,-8.439891931930875,-1.3908833589011789,-0.5982597931390099,0.6303471196721692,-0.33947521430351085,0.7693307954100932
1765410062.681071,-8.486024632309746,-1.3485444067956807,-0.5607119043532165,0.6288558332220004,-0.33256017963011486,0.7692066143118507
1765410062.681321,-8.538008537922023,-1.303615300367148,-0.5169472783391699,0.6273881900385481,-0.3253462820760395,0.7689496931446865
1765410062.681563,-8.593880234529244,-1.2567121340560197,-0.46827546034739226,0.6259503648487602,-0.3178789579262394,0.7685596590662969
1765410062.681813,-8.652010950563888,-1.2085231403135581,-0.41603605014382894,0.6245318199935593,-0.31022317531673077,0.768034701958004
1765410062.682063,-8.71116111242863,-1.159735203896264,-0.36153680993273685,0.6231061125254479,-0.30245671036297445,0.7673715897810739
1765410062.682313,-8.77047419984992,-1.1109542880337833,-0.3060164279116085,0.6216325583014736,-0.2946625816861347,0.7665656677817501
1765410062.682594,-8.829413030798342,-1.062630597560751,-0.2506375157353572,0.6200584954598749,-0.28692131911500557,0.7656110186748699
1765410062.682927,-8.88765251154465,-1.0150014610672546,-0.19650622221323868,0.6183219882594634,-0.2793036513184679,0.764500968687076
1765410062.683261,-8.94495331508576,-0.9680640544156586,-0.14470367789834926,0.6163549382432849,-0.27186407730277873,0.7632290633354765
1765410062.683617,-9.00104612342036,-0.9215861255230875,-0.09630740193022035,0.6140866523395361,-0.2646356875229407,0.7617905162641538
1765410062.683867,-9.055552572350669,-0.8751567867361886,-0.05238285907153484,0.6114479119637775,-0.25762655852266175,0.7601839844151267
1765410062.684117,-9.10795838271913,-0.8282727475107794,-0.013935561830855807,0.6083754953734433,-0.25081803636248456,0.7584133841971439
1765410062.684367,-9.15764143212122,-0.7804492538644466,0.018173224070410506,0.6048169578060054,-0.24416518072137297,0.7564893706167163
1765410062.684591,-9.203946894922302,-0.7313399462195558,0.04333403781929137,0.600735310919998,-0.23759951782953515,0.7544300773178256
1765410062.684841,-9.246293936702116,-0.6808462969130753,0.0613008065139813,0.5961131090014675,-0.2310340491696779,0.7522607765062336
1765410062.685091,-9.284292974370533,-0.6291964178491845,0.07228430251733062,0.5909553836955176,-0.22437021545385563,0.7500122717917831
1765410062.685341,-9.317849610072498,-0.5769760877632304,0.07700574509211174,0.5852909025430695,-0.2175062647418935,0.7477180706692454
1765410062.685631,-9.347233209832174,-0.5251019096827874,0.07669419509258545,0.5791713796365034,-0.2103462654268376,0.7454106539823924
1765410062.685881,-9.373096078909436,-0.4747363701851548,0.07302222302320535,0.5726685281302687,-0.20280887464224365,0.7431174007970225
1765410062.686131,-9.396441071625736,-0.4271554339383674,0.06798768277453937,0.5658691536776861,-0.19483494701267295,0.7408568654369174
1765410062.686381,-9.418546225081105,-0.3835889638319744,0.06376000562718678,0.5588687624188231,-0.18639317860928534,0.7386360867227597
1765410062.686588,-9.440860448403797,-0.34506019250605374,0.06251300874656324,0.5517643418297622,-0.17748324282640845,0.7364494325176717
1765410062.686838,-9.464883940350195,-0.31225072763000505,0.0662624907345626,0.5446470549564408,-0.16813623998590146,0.7342791944199376
1765410062.687088,-9.492043558169584,-0.28541205523087876,0.07671964937977678,0.5375955740290556,-0.15841263746138173,0.7320978312239296
1765410062.687338,-9.523570191882405,-0.26433528223004793,0.09516538583326845,0.5306706714370446,-0.148398123468146,0.729871493056274
1765410062.687567,-9.56038442201421,-0.24838072868275374,0.1223481064828431,0.5239114949526835,-0.13819791468123768,0.7275642818119977
1765410062.687817,-9.602998686542376,-0.23655994603410221,0.158408184107141,0.5173337193017619,-0.1279300796073715,0.7251426286561848
1765410062.688067,-9.651447351194891,-0.22765597130034337,0.2028345336730959,0.5109295498527687,-0.1177184004062683,0.7225791952055405
1765410062.688317,-9.705257401111377,-0.22036385343930062,0.25446119608615847,0.5046694043106986,-0.1076852150508489,0.7198558166635393
1765410062.688571,-9.763468874417477,-0.21343275285245367,0.3115116944841885,0.49850502375375777,-0.09794458546401318,0.7169651711327795
1765410062.688821,-9.824705261755632,-0.20579253387334995,0.3716939244051195,0.492373744487707,-0.08859606629683396,0.713911048450059
1765410062.689071,-9.887283560800977,-0.19665096370040408,0.4323396349822065,0.4862036660239102,-0.07971932603839119,0.7107072851077225
1765410062.689321,-9.949346711940606,-0.18555201711323474,0.4905748533360977,0.4799194477229621,-0.07136987500416335,0.7073756117641407
1765410062.689593,-10.009000216441047,-0.17239112426783834,0.543504941793514,0.4734484382107319,-0.06357614512452926,0.7039427987720658
1765410062.689843,-10.064438308456063,-0.15738895213206436,0.5883998745851542,0.46672678652681804,-0.056338130543764166,0.70043755244126
1765410062.690093,-10.114050105293476,-0.141030625130272,0.622867850291678,0.45970511761324506,-0.04962773991043299,0.6968875982282485
1765410062.690343,-10.156500826814886,-0.12398116460582825,0.6450060032517504,0.45235330676441027,-0.04339092792883196,0.6933173036292793
1765410062.690586,-10.190787115047465,-0.10698955539550095,0.6535172341800894,0.44466388981620936,-0.037551557637753516,0.6897460760328133
1765410062.690836,-10.216268868176199,-0.0907933944805258,0.647784720770645,0.436653711411138,-0.03201679956406893,0.6861876465077444
1765410062.691086,-10.232682514456204,-0.0760348239218103,0.6279004593004547,0.4283635407379032,-0.026683717483350283,0.6826502317563995
1765410062.691336,-10.240141521524018,-0.06319735671541367,0.594648937729019,0.41985557782615957,-0.02144654675434794,0.6791374532532799
1765410062.691569,-10.239128879007952,-0.05257152369376506,0.5494503885215006,0.41120903391405345,-0.016204058779178437,0.675649784142503
1765410062.691819,-10.230484039538085,-0.04425345811434187,0.49427054218113836,0.4025142520481194,-0.010866339585250077,0.6721862056199209
1765410062.692069,-10.215384527295884,-0.03817454375345915,0.43150611608691847,0.393866052536317,-0.0053603199219675116,0.6687457189149872
1765410062.692319,-10.195320708345696,-0.034154212458772225,0.3638569041531502,0.38535707198535346,0.00036648265587764815,0.6653284051264966
1765410062.692566,-10.172060746673829,-0.03196432084608494,0.2941948386613571,0.3770718051564641,0.006344301653765326,0.6619358450033876
1765410062.692816,-10.147601335457797,-0.03139298600352333,0.22543720427405572,0.3690818944130248,0.012581508454019629,0.6585708586881932
1765410062.693066,-10.124099415756708,-0.03229746764013329,0.16042702937700898,0.36144299141014524,0.01906670760308045,0.6552366532566878
1765410062.693316,-10.103782286740795,-0.034638592615907245,0.10182133964512992,0.35419328162781616,0.025771984520999637,0.6519355521253496
1765410062.693665,-10.088838308774116,-0.038492705733777055,0.05198845982309129,0.3473535456664219,0.03265667157154874,0.6486675261772334
1765410062.693915,-10.081296005343281,-0.04404082564757156,0.012917651015719414,0.3409284528644973,0.039671056262467766,0.6454287602098923
1765410062.694165,-10.082903773735977,-0.05153817880648185,-0.013853565119465425,0.3349086602057125,0.0467596057208994,0.6422104788367372
1765410062.694415,-10.095024323001681,-0.06127000469103782,-0.027288233297334086,0.32927324121879065,0.05386346619310922,0.6389982249378001
1765410062.694587,-10.118556367334715,-0.07350091212334521,-0.026870562912369233,0.32399200673925105,0.06092217148073256,0.6357717233135012
1765410062.694787,-10.153890792325106,-0.08842495836338592,-0.012598781419712468,0.3190273962389831,0.06787463493583741,0.6325053720508602
1765410062.694987,-10.200901345783215,-0.10612235968046232,0.015043536283839427,0.31433579436640535,0.07465959669730336,0.6291693069020561
1765410062.695187,-10.258964100510457,-0.12652686675050887,0.05512850792603729,0.3098683303778545,0.08121576076501694,0.6257309124732078
1765410062.695387,-10.326997439069098,-0.14940584161983572,0.10632945499850818,0.30557140004336397,0.0874818946656034,0.622156626674626
1765410062.695581,-10.403514730258387,-0.1743534251361426,0.16696647213018573,0.3013872524570387,0.09339716354191643,0.6184138970901211
1765410062.695831,-10.486683908089143,-0.2007962838008838,0.23505092830150112,0.29725497496753595,0.09890191674662122,0.6144731781658979
1765410062.696081,-10.574390969545385,-0.22801120392517799,0.30833028358761205,0.2931121052738173,0.103939062297325,0.6103098803751276
1765410062.696331,-10.66430732465089,-0.25515363762682236,0.38433679607272203,0.2888969451788135,0.10845608666837343,0.6059061823192607
1765410062.696609,-10.753962956208705,-0.28129576888692065,0.46044529694311603,0.2845514825660496,0.1124076960788404,0.6012525999859403
1765410062.696859,-10.840827484078405,-0.30547208333447695,0.5339450065642434,0.28002467533431147,0.11575893837136415,0.5963491920999505
1765410062.697109,-10.922399379397906,-0.32673027422784184,0.602127604593463,0.27527574425580503,0.11848851848286353,0.5912062802710842
1765410062.697359,-10.996300862520977,-0.344185370341926,0.6623895652837214,0.27027708174759124,0.12059190332488301,0.5858445784328618
1765410062.697565,-11.060374004050836,-0.3570745466342036,0.7123433458876586,0.2650164052553196,0.12208377939089086,0.5802946538245144
1765410062.697815,-11.112772940782966,-0.3648091106209404,0.749930439235824,0.2594978498867624,0.12299948368794884,0.5745956849187615
1765410062.698065,-11.152047463462525,-0.36701946202743313,0.7735289506307983,0.2537417976383527,0.12339514015344245,0.5687935468769928
1765410062.698315,-11.177213774938835,-0.3635890581423493,0.7820485186903009,0.24778337920281496,0.12334636632504782,0.562938335397696
1765410062.698634,-11.187808554494016,-0.3546743311857361,0.7750059279651519,0.2416697446514312,0.12294555248890543,0.55708151458163
1765410062.698884,-11.183922526127388,-0.34070856543312156,0.7525753233393423,0.23545634918010547,0.12229784173353532,0.5512729252921629
1765410062.699134,-11.166209819610371,-0.3223888718993397,0.7156071891499101,0.22920260978435394,0.12151603831290811,0.5455579070330091
1765410062.699384,-11.135870179438532,-0.30064668211802603,0.6656108052081751,0.2229673501777241,0.12071474938310217,0.5399747644216853
1765410062.699557,-11.094602772720236,-0.27660345406317305,0.6046967635428392,0.21680447241271167,0.12000414208512328,0.5345527580201845
1765410062.699807,-11.044532266535082,-0.25151433110965826,0.5354793282243117,0.21075927694203717,0.11948376946727925,0.5293107408980872
1765410062.700057,-10.988109188729688,-0.2267032649156348,0.46094202828602876,0.20486578854707393,0.11923694772844623,0.5242565113224466
1765410062.700307,-10.927987801978778,-0.20349353271624038,0.38427343817481663,0.19914532881295569,0.11932612880919373,0.5193869022709332
1765410062.70062,-10.866887033332413,-0.18313753358444618,0.30868383496088214,0.19360642356613977,0.11978962398873445,0.5146885717561991
1765410062.70082,-10.807443354286294,-0.16674944993937332,0.23721688215986741,0.18824597918114327,0.12063992822502187,0.5101394044962049
1765410062.70102,-10.752066970996003,-0.15524438029757193,0.17257215226093472,0.18305153621742312,0.12186377657633715,0.5057104027175422
1765410062.70122,-10.702812587543109,-0.1492880262037523,0.11695311154407555,0.17800432791664644,0.1234239152595542,0.5013679300794887
1765410062.70142,-10.661273982403197,-0.14926115115104474,0.07195195380594242,0.1730828289577412,0.1252623971018563,0.497076158474162
1765410062.701618,-10.6285096536848,-0.1552419325641295,0.03847920416305496,0.1682664577118668,0.12730506582446696,0.49279954508939017
1765410062.701868,-10.605005433397118,-0.16700715603405425,0.016743042068910446,0.1635390803183226,0.12946682542364396,0.4885051521509567
1765410062.702118,-10.590677898368275,-0.18405094805261749,0.006279818886721032,0.15889196244574447,0.1316572928153486,0.48416463038498564
1765410062.702368,-10.584918541446585,-0.20561811937811378,0.006032394118584101,0.15432584248460818,0.13378645495524183,0.47975571800534944
1765410062.702608,-10.586673786396538,-0.23074820098292628,0.014467552491691963,0.14985187389428928,0.13576996831987523,0.47526315235861677
1765410062.702858,-10.594551669789986,-0.25832575818970377,0.029719569466431416,0.1454913044372967,0.13753376911081286,0.47067895197873283
1765410062.703108,-10.606943371726253,-0.2871327027454531,0.049744844364263206,0.14127390629846176,0.13901773478735913,0.46600210333173325
1765410062.703358,-10.622147050938958,-0.31589923214684595,0.07247256298076717,0.13723531514670556,0.1401782435696313,0.4612377658385595
1765410062.703587,-10.638482652686466,-0.3433514999728011,0.09593855706222633,0.1334135567309746,0.14098958628420347,0.4563961676969653
1765410062.703837,-10.654389122895365,-0.3682556035518126,0.11839335331571814,0.12984512535257617,0.14144427459530778,0.4514913853705192
1765410062.704087,-10.668498973428385,-0.3894583872192797,0.13837970701721114,0.12656102142230358,0.1415523562889617,0.4465401795913244
1765410062.704337,-10.679688608600152,-0.40592576344824954,0.15477876189066564,0.12358315011948978,0.14133988443158896,0.44156101347157295
1765410062.704577,-10.687105683868245,-0.41677911063366757,0.16682705674522394,0.12092143144290453,0.14084669060747934,0.4365733166860234
1765410062.704777,-10.690176707735393,-0.42133007168790365,0.1741088263394011,0.11857188053568055,0.14012360143292593,0.43159698771113775
1765410062.704977,-10.68859912599674,-0.4191135401724836,0.17652933510070226,0.1165157991104772,0.1392292358241629,0.4266520519912051
1765410062.705177,-10.682322520776289,-0.4099175721912727,0.17427542370758967,0.11472009562823472,0.13822653204568242,0.4217583403240428
1765410062.705377,-10.671523533942336,-0.39380773427966964,0.1677692204868648,0.11313864413927846,0.1371791685610026,0.41693504077123517
1765410062.705615,-10.656578561870763,-0.3711426401332604,0.1576200063316184,0.11171450850204558,0.13614805583214531,0.4122000104376405
1765410062.705865,-10.638036967001883,-0.3425774168330993,0.14457747306353136,0.11038280488108074,0.1351880846250129,0.4075687939944463
1765410062.706115,-10.61659585945951,-0.3090523301654256,0.129487795824623,0.10907395842665436,0.13434531380648604,0.4030533680570632
1765410062.706365,-10.593076208692358,-0.27176468529334785,0.11325314922603386,0.10771712742856387,0.13365476418873173,0.3986607069097675
1765410062.706675,-10.56839944592918,-0.23212370320615605,0.0967954923071287,0.10624360031612674,0.13313895540406692,0.3943913341656892
1765410062.706925,-10.543563308856081,-0.19169031751974552,0.08102526684674978,0.104589999337197,0.13280727526167516,0.39023806453888393
1765410062.707175,-10.519615051738505,-0.15210590883146338,0.06681433445351025,0.10270114986565512,0.13265620094286418,0.38618513247403835
1765410062.707425,-10.497619692919555,-0.11501503160457163,0.05497107482476302,0.10053250321289327,0.1326703113474346,0.38220785462806445
1765410062.707603,-10.478621381214616,-0.08198719033418203,0.0462155257502714,0.09805202947915649,0.1328239652110736,0.37827290340147607
1765410062.707803,-10.463597375723522,-0.05444229680256808,0.04115370346986229,0.09524151635262182,0.13308348055823396,0.37433919997110526
1765410062.708003,-10.45340616312934,-0.03358395170487564,0.04025165798752984,0.09209722223180404,0.1334096236470217,0.370359377470798
1765410062.708203,-10.448733413598468,-0.02034407855215059,0.043810852786756976,0.08862984912925638,0.13376018973172568,0.36628171981990837
1765410062.708403,-10.450041230446658,-0.015341654276553015,0.05194730689312047,0.0848638282945851,0.13409245212410847,0.362052447462516
1765410062.708622,-10.457526661218196,-0.018857468918165424,0.06457737029391579,0.08083594568232695,0.13436529607950293,0.3576181966584409
1765410062.708872,-10.471094277864273,-0.030826107730812055,0.0814124257308906,0.07659337151544271,0.13454093228402006,0.3529285277112211
1765410062.709122,-10.490345639014327,-0.050845665511747025,0.10196359410209543,0.07219119869539649,0.1345861601495309,0.3479383042306095
1765410062.709372,-10.514587129412199,-0.07820498153210957,0.12555695348624515,0.06768963661439135,0.13447319669813163,0.34260980485392634
1765410062.709605,-10.542857312430188,-0.11192726432631202,0.15136011604269392,0.06315104187168669,0.1341801169165911,0.3369144494130782
1765410062.709805,-10.573974136575773,-0.15082781337989912,0.17842084887701395,0.05863698563863974,0.13369098695381781,0.33083404121373405
1765410062.710005,-10.606600075504316,-0.1935823794381281,0.20571685493199687,0.054205551159542044,0.13299579874359113,0.32436145156394564
1765410062.710205,-10.639320417749339,-0.23880178520030174,0.23221382043149988,0.04990902246583831,0.13209030713968928,0.3175007018817286
1765410062.710405,-10.670727952833452,-0.2851076798606613,0.2569275951807057,0.04579207673511845,0.1309758344658353,0.3102664294379198
1765410062.710595,-10.699506527697787,-0.33120360546396693,0.2789856551887578,0.04189054306707091,0.12965906979504108,0.3026827596417968
1765410062.710845,-10.724505862357656,-0.37593525740263045,0.29768223008895456,0.038230744995322134,0.12815185807736337,0.2947816569622608
1765410062.711095,-10.7448006705897,-0.4183346069863568,0.31252130288902824,0.03482939940317886,0.12647093880215754,0.2866008840675227
1765410062.711345,-10.759729043045951,-0.4576446778489639,0.3232430699570319,0.03169400473910726,0.1246375647384887,0.2781817530917972
1765410062.711604,-10.768908066345311,-0.4933246321982404,0.3298320331169429,0.028823626162699217,0.12267692977852343,0.26956689044045784
1765410062.711854,-10.772227792267236,-0.5250374945370638,0.3325073035611043,0.026209974228296972,0.12061736238504724,0.260798240899953
1765410062.712104,-10.769827067961423,-0.5526248622654958,0.3316970984916727,0.023838671323711164,0.11848928044619872,0.25191549711581235
1765410062.712354,-10.762056254825904,-0.576074296538578,0.3280001933511128,0.021690609099709556,0.11632394531808189,0.24295506168056935
1765410062.712643,-10.749432703742896,-0.5954854331919446,0.322138003649122,0.019743324564529152,0.11415209974991075,0.23394954949653782
1765410062.712843,-10.73259496903586,-0.611039656670793,0.3149020009290837,0.01797235342587567,0.11200261756547288,0.22492774552464032
1765410062.713043,-10.712260927206742,-0.622975730036365,0.30710153828334735,0.016352539076638375,0.10990130485267302,0.2159148794479243
1765410062.713243,-10.689193311994119,-0.6315714889289762,0.29951629472690394,0.014859274678347323,0.10786995298221065,0.20693307755623147
1765410062.713443,-10.664174094403549,-0.6371307988875816,0.2928556915100604,0.01346964145662626,0.10592566941565826,0.19800188077573747
1765410062.713579,-10.637987063605784,-0.6399751479335453,0.2877255288380027,0.012163395794723529,0.10408044455250962,0.18913873984206533
1765410062.713829,-10.611406367972732,-0.6404391614344288,0.2846005061695577,0.010923761796059694,0.10234088151432584,0.18035940322795582
1765410062.714079,-10.585188141513598,-0.6388682576738828,0.2838008569147334,0.009738001143151757,0.10070802399123781,0.17167812414615707
1765410062.714329,-10.560062725860714,-0.6356153677696916,0.2854722039602889,0.00859774697927563,0.09917725362514941,0.16310765789334514
1765410062.714568,-10.536725830769427,-0.631033545600256,0.2895692957521226,0.00749909477869912,0.09773827449935006,0.15465909769012517
1765410062.714768,-10.515827653446783,-0.6254629980898193,0.2958455356801146,0.006442442045342399,0.09637523442684798,0.14634166989992534
1765410062.714968,-10.497959433079616,-0.6192137391816522,0.30385063888372993,0.00543207067503708,0.09506703434156304,0.1381626369640357
1765410062.715168,-10.4836374312865,-0.612547088713041,0.31293850985287147,0.004475480849101622,0.09378785398871779,0.1301274230186566
1765410062.715368,-10.473284991609287,-0.6056594580606597,0.32228693247160795,0.003582512546421238,0.09250789583994394,0.12224000230622244
1765410062.71559,-10.467213887387384,-0.5986704906442705,0.330929931194574,0.0027643190473205736,0.09119433253793091,0.11450351333863515
1765410062.71584,-10.465606360173076,-0.5916158802035245,0.3378024397453255,0.0020322734639146374,0.08981243114027335,0.10692101340674291
1765410062.71609,-10.468499155666338,-0.5844441853482772,0.34179535372859227,0.0013968885984333122,0.08832681383592236,0.0994962745553776
1765410062.71634,-10.475770804876166,-0.5770170073207653,0.34181789355591763,0.0008668161229168379,0.08670280451508744,0.09223453211252516
1765410062.71663,-10.487133591053912,-0.5691126637438555,0.33686403211431576,0.00044797159223301076,0.08490780828114573,0.08514311775767378
1765410062.71683,-10.502131942151848,-0.5604343483738984,0.3260801880038887,0.0001428142886548054,0.0829126701330927,0.07823193196161651
1765410062.71703,-10.520148986557267,-0.5506240515395812,0.3088314685959698,-5.0198604722840524e-05,0.08069295137499717,0.07151372651153722
1765410062.71723,-10.540422452185949,-0.5392828766659923,0.2847629492031091,-0.00013696146365173293,0.07823005199064595,0.06500417269232922
1765410062.71743,-10.56207014715129,-0.5259970964509035,0.2538513249624754,-0.00012784217688607298,0.07551210704935893,0.058721692490511686
1765410062.717563,-10.584124316122123,-0.5103680711925893,0.2164417652411847,-3.754447273545765e-05,0.07253460071921262,0.05268704083795027
1765410062.717813,-10.60557340220024,-0.4920435698143186,0.17326544643726735,0.00011530676131400969,0.0693006646562798,0.04692264817526431
1765410062.718063,-10.625409033041672,-0.4707480783382863,0.12543478567378474,0.0003088523835759314,0.06582104659997623,0.04145175643901094
1765410062.718313,-10.642675231810749,-0.44630994198727675,0.07441520410357474,0.0005189330619735114,0.06211374571378417,0.03629740042462453
1765410062.718598,-10.656516051206113,-0.41868338484242495,0.021973759049581994,0.0007202243683762397,0.058203318784620955,0.03148129819519832
1765410062.718798,-10.666217431393811,-0.38796366056606657,-0.029893917078236652,0.000887501669463708,0.054119875723803765,0.027022719756701098
1765410062.718998,-10.671239405551903,-0.3543939787602002,-0.07905585230487391,0.0009969430591349848,0.049897810838014346,0.02293740322554767
1765410062.719198,-10.671235797196326,-0.318363415401006,-0.12335110474108003,0.00102737298112449,0.04557435449731704,0.019236582059796902
1765410062.719398,-10.666059989961454,-0.28039566503720237,-0.1607063435165855,0.0009613572569740407,0.041188063694653956,0.015926177576218874
1765410062.719573,-10.655756881546361,-0.24112924038417635,-0.18925408896834603,0.0007860759028268226,0.03677738345119461,0.01300620218457011
1765410062.719773,-10.640542490990317,-0.20129058181353246,-0.2074442302424051,0.0004939234176494853,0.03237939793301617,0.0104704114119038
1765410062.719973,-10.620773695982932,-0.16166230162270714,-0.21414050624723216,8.281747766397579e-05,0.028028857220465796,0.008306231069969834
1765410062.720173,-10.596911209528427,-0.12304908746083582,-0.2086944727672231,-0.00044377213917667354,0.023757523153453544,0.006494964489287003
1765410062.720373,-10.569479229975308,-0.08624342323160095,-0.1909910504829915,-0.0010770430918054952,0.019593832460513525,0.00501225837291977
1765410062.720589,-10.539025232291042,-0.05199247119271525,-0.1614620442787451,-0.0018032923816990768,0.015562836531964865,0.0038287875130886264
1765410062.720839,-10.506083097452343,-0.020966703540493913,-0.12106676360669781,-0.0026045301961660143,0.011686356861552935,0.0029111170896542185
1765410062.721089,-10.471142294372386,0.006269386286203993,-0.07124150623293264,-0.003459255663347237,0.00798329532573956,0.002222712423506948
1765410062.721339,-10.43462528858508,0.029283790897930526,-0.013821764400576033,-0.0043433838018499165,0.0044700465348321465,0.00172507687409393
1765410062.721602,-10.396874732004097,0.047799205491938154,0.04905742631216956,-0.005231314310233264,0.001160964077969437,0.0013789980152456559
1765410062.721802,-10.358151086797577,0.06170864722980021,0.1150763156299068,-0.006097122133273144,-0.001931166211683509,0.0011458680974730537
1765410062.722002,-10.318640155728634,0.07108195076191069,0.18185279513284472,-0.006915829989352546,-0.004794691747530903,0.0009890219956380573
1765410062.722202,-10.278468930682594,0.07616133773131202,0.24706423778214656,-0.0076647015761176045,-0.007418743370796509,0.0008750125683325373
1765410062.722402,-10.237727596185485,0.07734571676207483,0.3085611321936868,-0.008324476523080528,-0.009793016193825253,0.0007747309535137988
1765410062.722627,-10.196495347055258,0.07516483859769842,0.36446580871350964,-0.008880457306516897,-0.01190772015566445,0.0006642879488904187
1765410062.722827,-10.154867613898778,0.07024531670928152,0.41325102283927484,-0.009323357352488007,-0.013753721855778186,0.0005256001843837336
1765410062.723027,-10.11298224630038,0.06327087187975013,0.4537950026075548,-0.009649831221564036,-0.015322875812056413,0.0003466562298954119
1765410062.723227,-10.071042191181704,0.05493939694837476,0.48541140603400473,-0.009862631354190066,-0.01660852123631505,0.00012146101149348139
1765410062.723427,-10.029332214972111,0.045919783668070396,0.507854047571162,-0.009970366139481207,-0.017606103594930138,-0.0001503267685810673
1765410062.723613,-9.988227407989477,0.036811753699472344,0.5212973716279115,-0.009986865562346074,-0.01831386774598091,-0.00046403342411598683
1765410062.723813,-9.948191839726322,0.02811193919065115,0.5262949548945651,-0.009930191801704317,-0.01873355837945145,-0.0008108368944644368
1765410062.724013,-9.909766790716777,0.020189022558876075,0.5237197819476709,-0.009821362470640365,-0.018871054457632926,-0.001178796251606141
1765410062.724213,-9.87354915291869,0.013269832622456443,0.5146911364703732,-0.00968287937449936,-0.01873686349313267,-0.0015539668823823995
1765410062.724413,-9.840161658947263,0.007437034817014695,0.5004934870396909,-0.009537170026325778,-0.01834641319862067,-0.001921520040061668
1765410062.724691,-9.810217598936227,0.002637832426694,0.4824930083263008,-0.009405052273555498,-0.01772009747657771,-0.002266793398371425
1765410062.724891,-9.784283513247509,-0.0012976940687851651,0.462057464377792,-0.009304328516974828,-0.016883052354647075,-0.0025762171180151437
1765410062.725091,-9.762843654322522,-0.004630363919774147,0.44048477074927633,-0.009248607657406947,-0.015864655001903753,-0.002838078471968783
1765410062.725291,-9.746269593157033,-0.00767990169943845,0.4189444252537783,-0.009246438452808665,-0.01469776188243198,-0.0030430996270527674
1765410062.725491,-9.734797428798128,-0.010789826106051434,0.3984343686114938,-0.009300815338250362,-0.013417730155942543,-0.003184810565355015
1765410062.725657,-9.728513993205718,-0.0142923344850961,0.37975410693805733,-0.009409088625916532,-0.01206128958382651,-0.003259711800984519
1765410062.725857,-9.72735238912821,-0.018476234611863568,0.36349334989055293,-0.009563280629864014,-0.010665342609339374,-0.0032672425895651502
1765410062.726057,-9.73109621315231,-0.023560295853736157,0.3500341040114453,-0.009750782283555366,-0.009265769378653943,-0.003209590519132088
1765410062.726257,-9.739391057127518,-0.02967345323203306,0.3395632882251082,-0.009955381458803397,-0.007896306982877032,-0.0030913853021861857
1765410062.726457,-9.751761561723942,-0.03684256781231441,0.33209273988132965,-0.010158551307102456,-0.006587559874146886,-0.0029193112323863003
1765410062.726577,-9.76763244372912,-0.04498809221095547,0.3274839283323532,-0.010340903568401118,-0.005366181935634981,-0.00270165984948862
1765410062.726777,-9.78635226691518,-0.053927814150714536,0.32547536943182703,-0.010483692972982857,-0.004254253975446393,-0.0024478395926410467
1765410062.726977,-9.807218947308202,-0.06338853221938205,0.32571120343042337,-0.01057025177907782,-0.0032688688302460736,-0.002167865626604586
1765410062.727177,-9.829506012149949,-0.07302487984034083,0.32776961484952055,-0.010587240463624163,-0.0024219305111920337,-0.0018718622772154415
1765410062.727377,-9.852488642571478,-0.08244368196771877,0.3311899656251242,-0.010525618961913539,-0.0017201689641058535,-0.0015696117113052834
1765410062.72765,-9.87546863801455,-0.0912315746228836,0.3354978153065823,-0.010381269979018315,-0.0011653636522847015,-0.0012701728796616569
1765410062.7279,-9.897797579153838,-0.09898344182765256,0.34022734744382976,-0.01015523944205485,-0.0007547577636529726,-0.000981581567444722
1765410062.72815,-9.91889753247431,-0.10532947856151849,0.3449409853019856,-0.00985359439374054,-0.00048163347618618817,-0.0007106340037696029
1765410062.7284,-9.93827861767103,-0.10995907537819626,0.34924609373996346,-0.009486930536430958,-0.00033601004546893523,-0.00046275396358851946
1765410062.728611,-9.95555272334262,-0.11264004386911336,0.3528086539085419,-0.009069588564971894,-0.00030542216580359835,-0.0002419418687841818
1765410062.728811,-9.970442725968455,-0.11323201270315132,0.35536376806866726,-0.008618660004895131,-0.00037573575046018475,-5.0799980673274384e-05
1765410062.729011,-9.982786796581724,-0.11169326150252173,0.3567228816767322,-0.00815287644756007,-0.0005319590355978414,0.0001093788647739079
1765410062.729211,-9.992537677988288,-0.10808084734776816,0.35677767519803855,-0.007691476457694509,-0.0007590063348845371,0.00023847597162350687
1765410062.729411,-9.999757047513622,-0.10254447299659686,0.35550061051205634,-0.007253131279038068,-0.0010423716909514838,0.00033738139104020265
1765410062.729654,-10.004605233186602,-0.09531497585769622,0.3529421031382303,-0.006854988909295337,-0.001368674925251069,0.0004078113757195943
1765410062.729854,-10.00732673050908,-0.08668856109649997,0.34922431311269175,-0.006511874279955348,-0.0017260558034278414,0.00045211879233741724
1765410062.730054,-10.008232240808185,-0.07700807053232132,0.34453171018227685,-0.006235666652074835,-0.0021044101200783905,0.0004731047616768446
1765410062.730254,-10.007678241796365,-0.06664272393446681,0.339098853760291,-0.006034863812340993,-0.0024954775670703758,0.0004738368576294393
1765410062.730454,-10.006045247244145,-0.05596781987836796,0.3331960752811969,-0.0059143340556930615,-0.002892800518378395,0.0004574748517465168
1765410062.730606,-10.003715868873757,-0.04534575910987489,0.3271138598531781,-0.00587525136940697,-0.003291576925603253,0.0004271021059868793
1765410062.730806,-10.001053698528974,-0.03510946085689614,0.3211467572335908,-0.005915206654019585,-0.0036884341460148235,0.0003855623506674874
1765410062.731006,-9.998384020419415,-0.025548882059655293,0.3155776817076127,-0.006028485008896282,-0.0040811544867884264,0.00033530736622848766
1765410062.731206,-9.995977389106733,-0.016901060826730985,0.3106634513687063,-0.006206493417304989,-0.004468383669486511,0.0002782671150038169
1765410062.731406,-9.99403701349733,-0.009343944337018364,0.30662230789201467,-0.006438315841335718,-0.0048493482026765655,0.000215756292452898
1765410062.731678,-9.992690624626483,-0.0029941351829060126,0.30362396897032695,-0.006711366002868595,-0.005223598946777111,0.00014842951917530518
1765410062.731878,-9.991987182499278,0.002091515265327588,0.3017826053957603,-0.007012102508115222,-0.00559078903975873,7.629375714023948e-05
1765410062.732078,-9.991898523084293,0.005910819637989648,0.3011530869528873,-0.007326766346700867,-0.0059504873735319675,-1.217239123483714e-06
1765410062.732278,-9.992325861740216,0.008508311701617508,0.3017308168449769,-0.007642097333834477,-0.0063020258142444585,-8.510645211017447e-05
1765410062.732478,-9.993110809018791,0.009965316921276486,0.30345526593349675,-0.007945984801263925,-0.006644378694159379,-0.0001766223341943766
1765410062.732629,-9.994050119067442,0.010389033361377743,0.3062168764947619,-0.008228011501716488,-0.006976074658539032,-0.00027702812626132655
1765410062.732829,-9.99491292116745,0.009901613885775595,0.3098665433846639,-0.00847986046844624,-0.007295142920833089,-0.0003873533551206119
1765410062.733029,-9.995458945220012,0.008630121615554018,0.31422663659809424,-0.00869557015750627,-0.007599097364570378,-0.0005081522613840817
1765410062.733229,-9.995456326477647,0.006698039177038172,0.3191025393146864,-0.008871637352611173,-0.00788496037217109,-0.0006392946185804522
1765410062.733429,-9.99469782062023,0.00421877909522209,0.32429381453108924,-0.009006974881677144,-0.008149323838710502,-0.0007798126045843725
1765410062.733667,-9.993014539261788,0.0012914031818281016,0.3296042816479647,-0.00910273231589449,-0.008388441279195975,-0.0009278220085209639
1765410062.733867,-9.990286629207608,-0.002001460460777797,0.3348505091038165,-0.009161988345076939,-0.008598344928464695,-0.0010805270719172581
1765410062.734067,-9.98645068328393,-0.00559370705239386,0.3398685452345308,-0.009189330159531153,-0.008774984024077895,-0.0012343080566527415
1765410062.734267,-9.981503965448402,-0.009434203357207174,0.3445189847246176,-0.009190348473475515,-0.008914382416480248,-0.0013848826765812013
1765410062.734467,-9.97550557993861,-0.013484019221338852,0.3486905123783238,-0.009171090627635152,-0.009012814263115624,-0.0015275284262324493
1765410062.734605,-9.968574530619339,-0.01771286003644574,0.3523019156225642,-0.009137522204102584,-0.009066996441224637,-0.0016573507576387563
1765410062.734805,-9.960884474293202,-0.022095051502864553,0.35530245689480816,-0.00909504763353281,-0.009074295680268041,-0.0017695789237935407
1765410062.735005,-9.952655119988977,-0.026605351209162815,0.3576705909161479,-0.009048132663851094,-0.009032946268030452,-0.001859866712382624
1765410062.735205,-9.944140636208704,-0.031214848197736064,0.35941120639811125,-0.00900005699247827,-0.008942269854914411,-0.0019245719001612996
1765410062.735405,-9.935615866551593,-0.03588727405893595,0.36055169737307063,-0.008952806142812473,-0.008802883383902983,-0.0019609885346519554
1765410062.735632,-9.927361418301468,-0.04057608941556482,0.36113716992662565,-0.008907092831639627,-0.008616876294269495,-0.001967510670058363
1765410062.735832,-9.919648733375,-0.04522264880815817,0.3612250565311528,-0.008862485219263666,-0.0083879351231438,-0.0019437144888112688
1765410062.736032,-9.91272616331824,-0.049755628420133265,0.3608794563614635,-0.008817614849519153,-0.008121392889271955,-0.0018903562976513193
1765410062.736232,-9.906806946532106,-0.05409180064771294,0.3601656294900865,-0.008770438328918665,-0.007824182213544497,-0.0018092938289473366
1765410062.736432,-9.902059834934445,-0.05813816974128591,0.35914512229394735,-0.008718529401929201,-0.0075046761528649395,-0.0017033450829572218
1765410062.736655,-9.898602896603938,-0.06179541864121616,0.35787193157049485,-0.00865937958529772,-0.00717241175897492,-0.0015761020756581991
1765410062.736855,-9.896500725999445,-0.06496252973173279,0.3563899780177939,-0.008590686483366512,-0.0068377082494893646,-0.0014317177281737118
1765410062.737055,-9.895764967663377,-0.06754231628357503,0.35473202484816413,-0.008510611011577384,-0.006511208449639683,-0.001274684843063207
1765410062.737255,-9.896357772262467,-0.06944746690075954,0.3529200898332418,-0.008417989039735424,-0.006203381729710958,-0.0011096269316284303
1765410062.737455,-9.898197624454804,-0.07060660660582913,0.3509673518482217,-0.008312488740095644,-0.005924026978912822,-0.0009411190928664882
1765410062.73766,-9.901166908390298,-0.07096982031899315,0.34888143493702534,-0.008194709597911184,-0.005681808466960145,-0.000773551141229308
1765410062.73786,-9.905120530491024,-0.07051307562419518,0.34666868641359266,-0.008066220434737826,-0.005483851223751819,-0.0006110361204586991
1765410062.73806,-9.909894876397484,-0.06924106798062638,0.34433880512775683,-0.007929532987397764,-0.005335420151333271,-0.00045735855774253336
1765410062.73826,-9.91531641063736,-0.06718819850324514,0.3419091476552322,-0.007788007757888829,-0.005239707595089913,-0.00031595082890819654
1765410062.73846,-9.921209352221512,-0.0644176105130062,0.3394082106113342,-0.007645691836416829,-0.005197751242120401,-0.00018988414649209298
1765410062.738632,-9.92740199260811,-0.06101838816570119,0.33687792562759034,-0.007507094336200471,-0.005208493421204404,-8.186324816454099e-05
1765410062.738832,-9.933731337839228,-0.05710114247955215,0.3343744192440567,-0.007376913729505991,-0.0052689770888258314,5.780913400634075e-06
1765410062.739032,-9.940045945750434,-0.05279229552690637,0.3319669165100733,-0.007259741024324754,-0.005374658670299997,7.11019443382069e-05
1765410062.739232,-9.946207122771197,-0.04822745939270293,0.32973464429573635,-0.007159769255527361,-0.005519804393054044,0.00011255292112677685
1765410062.739432,-9.952088906124443,-0.043544405599583516,0.3277618903100719,-0.007080539756677939,-0.0056979233593827195,0.00012900760449069726
1765410062.739673,-9.957577345490943,-0.03887619432879265,0.326131667199749,-0.0070247495988471215,-0.00590218142811409,0.00011979087916356948
1765410062.739873,-9.962569546552501,-0.03434504495845145,0.32491865783796275,-0.006994135057856206,-0.006125743646819863,8.471987980521852e-05
1765410062.740073,-9.966972875113477,-0.030057474308601385,0.3241822875863506,-0.006989434673460359,-0.0063620125100192285,2.4154156913528557e-05
1765410062.740273,-9.970704673056833,-0.02610109328356382,0.3239608274004767,-0.007010423880216965,-0.006604757325730394,-6.095073553581696e-05
1765410062.740473,-9.973692729429349,-0.022543232736108573,0.32426728649543074,-0.007056004270126509,-0.006848155652296027,-0.0001689965605664115
1765410062.740678,-9.975876563881233,-0.01943130914294941,0.3250875243127484,-0.007124326935732703,-0.0070867839547724435,-0.00029771762349910306
1765410062.740878,-9.977209407375979,-0.016794605600626764,0.32638063690170044,-0.007212930946127453,-0.007315597450669811,-0.000444194750448753
1765410062.741078,-9.97766068020591,-0.014646997193281245,0.3280814054477512,-0.007318882563290992,-0.0075299281511539305,-0.0006049207496389253
1765410062.741278,-9.97721873695445,-0.012990132365466192,0.33010450004085884,-0.007438905770832691,-0.007725511290673115,-0.000775920180439532
1765410062.741478,-9.975893587577138,-0.011816663215893057,0.33235011335093295,-0.0075694983648183466,-0.007898533529278298,-0.0009529147659410438
1765410062.741656,-9.973719180019456,-0.011113228769190745,0.3347106013309034,-0.0077070305344605575,-0.008045688491682218,-0.0011315172382808348
1765410062.741856,-9.970754712339222,-0.010863011409719382,0.3370775423948953,-0.007847826683390766,-0.008164227111789681,-0.0013074326861750095
1765410062.742056,-9.96708445218938,-0.011047798751102192,0.3393485478023231,-0.007988236841044074,-0.00825199742940058,-0.0014766471828244858
1765410062.742256,-9.962815733650272,-0.011649546203048871,0.3414332383790316,-0.008124708155628066,-0.008307474840986843,-0.0016355871576780709
1765410062.742456,-9.958075114189759,-0.01265142410616477,0.3432579937018568,-0.008253865748620668,-0.008329786068297313,-0.0017812377037545466
1765410062.742575,-9.953002994735728,-0.014038279228741814,0.34476929557136216,-0.00837260556693443,-0.008318729165917452,-0.0019112122690655372
1765410062.742775,-9.947747249426172,-0.0157963912292619,0.34593565215120103,-0.008478193550592539,-0.008274789635358578,-0.002023770301281178
1765410062.742975,-9.942456547450123,-0.017912414063398434,0.34674818062983775,-0.008568359942889776,-0.008199149386214142,-0.0021177853537259618
1765410062.743175,-9.937274076144341,-0.020371506852719747,0.3472199911595659,-0.008641377271201409,-0.008093680942762372,-0.0021926744706176455
1765410062.743375,-9.932332276702558,-0.02315485015226868,0.3473845577558009,-0.008696114085689788,-0.007960916113545689,-0.0022483071603695364
1765410062.743572,-9.92774895593933,-0.026236916822296896,0.3472932112397745,-0.008732060231962931,-0.007803979407637802,-0.0022849143268382265
1765410062.743772,-9.923624792818933,-0.029582953289057756,0.3470117452109206,-0.008749321156090754,-0.007626482746344502,-0.002303013027540086
1765410062.743972,-9.920041976403125,-0.03314710667972678,0.3466160227792239,-0.00874858006622094,-0.007432387448775518,-0.002303355483303499
1765410062.744172,-9.917063620082532,-0.03687151297155489,0.3461865435817799,-0.008731030186302191,-0.00722584862712414,-0.0022869044782190887
1765410062.744372,-9.914733675557349,-0.040686496736630606,0.34580218760840925,-0.008698284679770475,-0.007011063182338602,-0.0022548323525049202
1765410062.744601,-9.91307720647823,-0.044511895744949556,0.34553365701095473,-0.008652276242137684,-0.006792143933997188,-0.002208535018346837
1765410062.744801,-9.9121009673232,-0.048259424060849994,0.34543728044024125,-0.008595158965606375,-0.006573037731490538,-0.0021496466370000823
1765410062.745001,-9.911794220890084,-0.05183590757584689,0.34554975344197114,-0.008529221375249349,-0.0063574944245917845,-0.002080038914366377
1765410062.745201,-9.912129682314722,-0.05514717632047563,0.3458842263650045,-0.008456813590187443,-0.006149079937279739,-0.002001792890414283
1765410062.745401,-9.91306452035969,-0.05810236765500024,0.3464280890358127,-0.008380286202286766,-0.005951216468001071,-0.0019171377764408872
1765410062.745706,-9.914541483055487,-0.06061833887471146,0.3471427834062584,-0.00830193598200605,-0.005767228596099401,-0.001828358859469586
1765410062.745906,-9.916490302014383,-0.06262381081470356,0.34796583274416576,-0.00822395492212429,-0.005600373812880445,-0.0017376848230980296
1765410062.746106,-9.91882947555259,-0.06406283089790213,0.3488149821407125,-0.008148382775267275,-0.005453838829456614,-0.0016471717323963049
1765410062.746306,-9.921468421153078,-0.06489720558035593,0.3495940681999362,-0.008077065745172194,-0.005330690822876854,-0.0015586022824317252
1765410062.746506,-9.924309960059272,-0.06510770390202329,0.3502001472935032,-0.008011624116684388,-0.00523378457757681,-0.001473414121514998
1765410062.74674,-9.927253150657373,-0.06469402276426157,0.3505314545466137,-0.007953430948522541,-0.005165636330315495,-0.0013926634396536713
1765410062.74694,-9.930196482735395,-0.06367366497290042,0.3504956933426901,-0.007903603164021314,-0.005128278822593843,-0.001317023079319924
1765410062.74714,-9.93304130230653,-0.06207998953835306,0.3500178936502341,-0.007863004357914047,-0.005123112028816049,-0.001246810635525188
1765410062.74734,-9.935695195309718,-0.05995975903710297,0.34904691787795294,-0.007832255720517682,-0.00515076435867658,-0.0011820419852402073
1765410062.74754,-9.938075124550029,-0.05737051591503622,0.3475599402886547,-0.007811749756469192,-0.005210979012432374,-0.0011225066073936062
1765410062.747631,-9.940110349513684,-0.054378059389678136,0.34556475961192534,-0.007801662010118768,-0.005302536551912704,-0.0010678592623490145
1765410062.747831,-9.941745280330306,-0.05105421622692681,0.3431002007053601,-0.007801958278171567,-0.005423219341626585,-0.0010177183958460525
1765410062.748031,-9.942942264680964,-0.04747504009965457,0.34023490546545865,-0.007812398009500583,-0.005569821153151994,-0.0009717586539837786
1765410062.748231,-9.943684044650231,-0.043719502584751796,0.3370646894572219,-0.007832537881090942,-0.005738206081083941,-0.0009297855803417605
1765410062.748431,-9.943975505588792,-0.03986863484142127,0.3337086095327119,-0.007861741394898819,-0.005923420310007118,-0.0008917843126598172
1765410062.748723,-9.943844424933506,-0.036004987887751826,0.3303039598107341,-0.007899199053972895,-0.006119855532548892,-0.0008579386856054697
1765410062.748923,-9.943341071982077,-0.03221223006454899,0.3270004200691665,-0.00794395922493696,-0.006321455620276072,-0.000828620793066834
1765410062.749123,-9.942536577557659,-0.028574673233660856,0.32395346717064905,-0.007994965145523036,-0.0065219521271967585,-0.0008043535175585567
1765410062.749323,-9.941520013040627,-0.025176503334797148,0.3213170730573462,-0.008051092001888225,-0.006715113239802712,-0.0007857504962436449
1765410062.749523,-9.9403942122113,-0.022100500476707516,0.31923578657936635,-0.00811117938237421,-0.0068949961169823566,-0.0007734399111275133
1765410062.749678,-9.939270557554863,-0.019426096851443572,0.3178364931451248,-0.00817405593180112,-0.007056199710456903,-0.0007679802594545295
1765410062.749878,-9.938263115605967,-0.01722675930381371,0.3172203481773972,-0.008238553316467747,-0.007194116947189463,-0.0007697774750325667
1765410062.750078,-9.937482549233062,-0.015566857359449796,0.3174555052409844,-0.008303506964029936,-0.007305178665280184,-0.0007790128037381588
1765410062.750278,-9.937030187101206,-0.014498301083078305,0.31857127562260895,-0.008367743488975093,-0.0073870707320484565,-0.000795589146285952
1765410062.750478,-9.936992568074116,-0.01405727799901748,0.32055430302063387,-0.008430059637160411,-0.007438897347727059,-0.0008191004858193846
1765410062.750714,-9.937436743397729,-0.01426142001902654,0.323347278601987,-0.008489202635790458,-0.007461262634828921,-0.000848825775822671
1765410062.750914,-9.938406588771246,-0.015107707852980032,0.32685059959327467,-0.008543863357622463,-0.007456249581537755,-0.0008837463272098084
1765410062.751114,-9.939920274774446,-0.016571366149012043,0.33092705634196673,-0.008592690205426013,-0.0074272878717339804,-0.0009225845049755086
1765410062.751314,-9.941968854145909,-0.01860591943717657,0.33540917228505207,-0.008634325594453696,-0.007378917803128188,-0.0009638614368336076
1765410062.751514,-9.944515770505253,-0.021144470520030614,0.3401084728940219,-0.008667462360131009,-0.007316473558614457,-0.001005972285888855
1765410062.751617,-9.947497079669388,-0.024102147276068246,0.3448258626446226,-0.008690915983560603,-0.007245720890284814,-0.0010472780796683598
1765410062.751867,-9.95082224029817,-0.02737957641031422,0.34936232474247486,-0.008703708511339118,-0.007172487458978027,-0.0010862108014061081
1765410062.752117,-9.954375360210825,-0.03086718580541537,0.3535291722061866,-0.008705158474755913,-0.00710231825123938,-0.0011213825293538845
1765410062.752367,-9.958016787044198,-0.034450077151313194,0.35715709832118203,-0.008694967084576054,-0.007040177768225669,-0.001151682475746219
1765410062.752644,-9.961585016153792,-0.03801314679047934,0.3601034476579987,-0.008673287775436859,-0.006990210009587712,-0.0011763427618321689
1765410062.752844,-9.964899095862542,-0.04144610431815914,0.3622574885105257,-0.008640768231706866,-0.006955557928777867,-0.0011949577779974195
1765410062.753044,-9.967761929025917,-0.044648062750069606,0.3635438319980808,-0.008598560940636553,-0.0069382342806547335,-0.0012074519040664027
1765410062.753244,-9.969964954472921,-0.047531436787024685,0.36392432397876473,-0.00854830481822345,-0.006939027200614669,-0.001214002478436299
1765410062.753444,-9.971294617712728,-0.05002496892100467,0.3633987479051664,-0.008492082704947296,-0.006957422575177299,-0.0012149350993130646
1765410062.753648,-9.971540862650162,-0.0520757843935659,0.3620046235569,-0.008432358085367745,-0.006991534004195369,-0.0012106131221589678
1765410062.753848,-9.970507599680406,-0.053650438610918526,0.35981628133400323,-0.008371891428205104,-0.0070380450764160945,-0.0012013416199010993
1765410062.754048,-9.968024738063363,-0.054734964702279884,0.35694322703868514,-0.008313633997841836,-0.007092181034221843,-0.0011873008048023262
1765410062.754248,-9.963961046197761,-0.05533394657196864,0.35352767314226147,-0.008260596884181426,-0.007147733312724581,-0.00116851790417383
1765410062.754448,-9.958236980020343,-0.055468639637541714,0.34974109572043716,-0.008215696358402025,-0.0071971581300819,-0.0011448795476830833
1765410062.754684,-9.950836669480381,-0.05517419549822383,0.3457797582487118,-0.008181582016656237,-0.0072317596413278866,-0.001116178558137658
1765410062.754884,-9.941818282513559,-0.054496150160484876,0.34185919390252356,-0.00816045917020809,-0.0072419547722223825,-0.0010821829145528765
1765410062.755084,-9.93132185899324,-0.053486446150528597,0.3382075628485119,-0.008153920729760265,-0.007217608251161995,-0.0010427144506215062
1765410062.755284,-9.91957349288501,-0.05219931003197507,0.3350576687800236,-0.00816280602409563,-0.0071484262432780134,-0.0009977300208621426
1765410062.755484,-9.906884646893616,-0.0506872955425071,0.33263740184383456,-0.008187102959225492,-0.007024402214861786,-0.0009474036521558687
1765410062.755634,-9.893645551618816,-0.0489977455864184,0.3311585560906217,-0.0082259049775162,-0.006836311155289065,-0.0008922099493785695
1765410062.755834,-9.880312028340203,-0.04716985096420929,0.3308042797688871,-0.008277427969417021,-0.006576242350001736,-0.0008330058262112106
1765410062.756034,-9.867385561511034,-0.0452324281181019,0.33171574828685163,-0.00833908749924935,-0.0062381485008148035,-0.0007711025199327868
1765410062.756234,-9.855386997135135,-0.043202494984417146,0.3339789401290809,-0.008407632927441393,-0.005818375884506462,-0.0007083167484980169
1765410062.756434,-9.844824906593995,-0.041084664591084195,0.33761263654624746,-0.008479330392864137,-0.005316130034020488,-0.0006469901909262344
1765410062.756701,-9.83616046547446,-0.038871326671713335,0.34255896854884277,-0.008550181818232092,-0.004733825718721879,-0.0005899682717231475
1765410062.756901,-9.829771595118439,-0.03654358267949842,0.34867793618465964,-0.008616164203913335,-0.004077269998184031,-0.0005405294572622658
1765410062.757101,-9.82591994487258,-0.03407293387769446,0.355747192784881,-0.00867347288895196,-0.0033556335236269966,-0.000502254461426076
1765410062.757301,-9.824724823768793,-0.031423837350372866,0.36346801806388046,-0.008718753219251371,-0.0025811793573650758,-0.0004788245374802246
1765410062.757501,-9.82614811484734,-0.028557507789578256,0.37147794024176695,-0.008749306529850733,-0.0017687424494659532,-0.00047374521132240166
1765410062.757615,-9.829993204272935,-0.025437593692101728,0.37936986761912805,-0.008763258188296763,-0.0009349861459769113,-0.000490011011709984
1765410062.757815,-9.835918966205126,-0.022038145575041506,0.3867165775168246,-0.008759676850625958,-9.749876521042796e-05,-0.0005297549100782828
1765410062.758015,-9.843467358999836,-0.01835335094867765,0.39309810464153716,-0.008738633805206258,0.0007261781845266241,-0.000593946807559572
1765410062.758215,-9.852101140140347,-0.014407254241575669,0.39812889419235425,-0.008701190563757608,0.0015194911747437381,-0.0006821993557426109
1765410062.758415,-9.861247269926825,-0.010261007242114973,0.4014822910063521,-0.008649308276718655,0.002267704251220741,-0.0007927069315756431
1765410062.758654,-9.870341580243176,-0.006015705599445522,0.40291126561996504,-0.008585688650410093,0.0029585657014380984,-0.0009223067580855864
1765410062.758854,-9.878870564144812,-0.0018102950134058974,0.4022646213133987,-0.00851357336730176,0.003582779105086018,-0.001066632829046373
1765410062.759054,-9.886406440519561,0.002184668414522677,0.39949708592856925,-0.008436531054425938,0.004134250422478857,-0.0012203399665933988
1765410062.759254,-9.892632393116859,0.005776458373547769,0.39467135683947163,-0.008358246513647331,0.004610096313927033,-0.0013773940668571853
1765410062.759454,-9.897356423533672,0.008762704099043681,0.38795158133597507,-0.008282313506312054,0.00501043678140414,-0.001531430892020592
1765410062.759683,-9.90051415577584,0.010947278280770485,0.37958993468706703,-0.008212032701894934,0.00533803548004536,-0.00167616570854411
1765410062.759883,-9.902162315302903,0.012158652210032763,0.369909034190125,-0.008150224635285828,0.005597860275554873,-0.001805806438234938
1765410062.760083,-9.90246508173925,0.012267840963120993,0.35928247229400306,-0.008099071204524482,0.005796611931911308,-0.001915417001495499
1765410062.760283,-9.901675366084284,0.011202244773819635,0.34811478938876456,-0.008059995679901124,0.005942236358248587,-0.0020012037016844614
1765410062.760483,-9.900112695525827,0.008953016260277313,0.33682153565185835,-0.008033586716060631,0.006043418501895071,-0.002060726434235661
1765410062.76067,-9.8981390158879,0.005575950198881809,0.3258097323494643,-0.008019570997783727,0.006109058125502961,-0.002093037592592369
1765410062.76087,-9.896133527431775,0.0011873939523825365,0.3154590321628915,-0.00801684056407159,0.006147743656205403,-0.00209872981549127
1765410062.76107,-9.894467786980414,-0.0040434215000772124,0.3061042669312055,-0.008023540851608783,0.006167260554771696,-0.0020798603495738553
1765410062.76127,-9.89348257015825,-0.009905020182208296,0.2980205494919224,-0.00803722079862516,0.006174181680455089,-0.002039735570412525
1765410062.76147,-9.893468020925894,-0.016156930811200936,0.29141216189470615,-0.008055035498989007,0.006173579015722386,-0.0019825759467494374
1765410062.761689,-9.894648273973155,-0.022544644173904643,0.2864060408926181,-0.008073978019521082,0.006168873141241712,-0.0019131138937122578
1765410062.761939,-9.897171227139852,-0.028814727450223156,0.2830501222349135,-0.00809110804104597,0.0061618134226781385,-0.0018361844760415864
1765410062.762189,-9.90110372576539,-0.0347285638642112,0.28131638987463664,-0.008103747733417821,0.006152567553810694,-0.0017563523625704716
1765410062.762439,-9.90643215504323,-0.04007395651997415,0.2811081595961311,-0.008109628358104025,0.006139893034335508,-0.0016775969173154924
1765410062.762671,-9.91306820571411,-0.04467467790377441,0.28227083962337624,-0.008106985609198127,0.0061213624335871054,-0.0016030693003502804
1765410062.762871,-9.92085923077458,-0.04839819237363536,0.2846051927670981,-0.008094609666206934,0.0060936190694631754,-0.001534940166693804
1765410062.763071,-9.929602090128647,-0.05116116800419437,0.28788198484782146,-0.008071857068949462,0.006052647679938943,-0.001474357031608921
1765410062.763271,-9.939058843249436,-0.052931773184813,0.29185679523728963,-0.00803863095264289,0.005994049471690849,-0.0014215136513114485
1765410062.763471,-9.948972418990298,-0.05372795623616419,0.29628375086544423,-0.007995337250880691,0.0059133107773949745,-0.0013758058353812172
1765410062.763654,-9.959080688232365,-0.05361198622977128,0.3009271767437361,-0.007942826112217409,0.005806055138860564,-0.0013360299458949018
1765410062.763854,-9.9691280657064,-0.052682634275050544,0.305570611468449,-0.007882327444965797,0.005668273592356787,-0.00130058754430336
1765410062.764054,-9.978874481699734,-0.051066576119122464,0.3100230847748426,-0.007815386301814524,0.005496531718824808,-0.0012676843613245677
1765410062.764254,-9.988101994539054,-0.048909838218760056,0.31412285336481854,-0.007743799512967435,0.005288148226003486,-0.0012355293409499347
1765410062.764454,-9.996619467911847,-0.046369183933688427,0.31773900782457104,-0.007669553283796792,0.005041332944797151,-0.0012025347052850156
1765410062.764625,-10.004265765048247,-0.043603081214250085,0.3207715529636559,-0.007594764605243351,0.0047552727021261,-0.0011674990829642303
1765410062.764825,-10.01091189983153,-0.040762453685342176,0.3231506417362321,-0.007521634311901515,0.00443016300195119,-0.0011297426663665767
1765410062.765025,-10.016462553495929,-0.03798219192480598,0.3248355416518742,-0.007452419869952074,0.004067192867019113,-0.0010891685880003467
1765410062.765225,-10.020857291659707,-0.03537465348299686,0.3258136842102144,-0.0073894280000118785,0.0036684935126332454,-0.0010462457731456286
1765410062.765425,-10.024071594103248,-0.03302590739734296,0.3260998284657879,-0.007335015368207791,0.0032370604626726376,-0.0010019321382623964
1765410062.765679,-10.026117379254046,-0.030994677545033836,0.325734941912798,-0.0072915785754162285,0.002776655422802813,-0.0009575685595880099
1765410062.765879,-10.027042278586451,-0.029313342217361604,0.3247840407001414,-0.007261517291846397,0.002291689108250909,-0.00091476795064068
1765410062.766079,-10.026926895749554,-0.02799023932395476,0.3233323428979825,-0.007247163751767067,0.001787082603234159,-0.0008753074601636229
1765410062.766279,-10.025879840739565,-0.02701284074952267,0.32147980130200504,-0.007250682086630317,0.0012681070036914513,-0.0008410186376060463
1765410062.766479,-10.024031120666669,-0.02635175556387262,0.3193348816087194,-0.007273948402219713,0.0007402074973033097,-0.0008136687889101473
1765410062.766663,-10.021524905982323,-0.025965635581485493,0.3170086713020612,-0.0073184256809102,0.0002088221399099636,-0.0007948354150797008
1765410062.766863,-10.018512482440634,-0.02580678414053065,0.3146099617739417,-0.007385046394275429,-0.00032079573779277806,-0.000785786723545503
1765410062.767063,-10.015145591936983,-0.025826836372657508,0.3122413233558285,-0.00747411163039784,-0.0008437454362763976,-0.0007873859809716712
1765410062.767263,-10.011569882867615,-0.02598166142181729,0.30999585322717216,-0.007585210918934398,-0.001355630358733998,-0.0008000319795354585
1765410062.767463,-10.00791819090798,-0.02623484841206848,0.3079543338670714,-0.007717163285943706,-0.0018526821308344282,-0.0008236362000454504
1765410062.767649,-10.00430381184391,-0.026559618530029142,0.30618283946658187,-0.00786797837159332,-0.0023318434727751234,-0.0008576285264586114
1765410062.767849,-10.000814459856588,-0.026939377222589822,0.3047311152179982,-0.008034838195852155,-0.002790798643089882,-0.0009009833917474417
1765410062.768049,-9.997507865401436,-0.027367187788034868,0.30363211241847254,-0.008214105368393112,-0.0032279494684548777,-0.0009522641869694416
1765410062.768249,-9.994409831872485,-0.027844330410064604,0.30290283706414406,-0.008401368306756531,-0.003642346314606308,-0.0010096882548960725
1765410062.768449,-9.991515177753042,-0.028378018815967368,0.3025463334999033,-0.008591533618848119,-0.004033589127857819,-0.0010712136005839598
1765410062.768639,-9.98879156516354,-0.02897839931072433,0.3025544427906131,-0.008778969993208584,-0.004401709401290149,-0.0011346432235968993
1765410062.768839,-9.986185878709211,-0.02965516561003839,0.30291101819391997,-0.008957700518054442,-0.004747034773544414,-0.0011977384060393968
1765410062.769039,-9.98363255564119,-0.03041437728284926,0.303595346485751,-0.009121634482038692,-0.005070035274994603,-0.001258332058051631
1765410062.769239,-9.981063033396277,-0.03125616555370532,0.30458543906555635,-0.009264825965190498,-0.005371159191601705,-0.0013144369420850827
1765410062.769439,-9.978415288918324,-0.03217379217568084,0.3058607028279535,-0.009381743944648413,-0.005650679518586378,-0.0013643468304547271
1765410062.769753,-9.97564234796337,-0.03315403732032839,0.3074034529452734,-0.009467536289297591,-0.005908576005816476,-0.0014067271187369332
1765410062.770086,-9.972718669972519,-0.034178410996412854,0.30919885286892673,-0.009518268436303415,-0.006144467849990242,-0.001440685188749542
1765410062.77042,-9.969643493340428,-0.03522455652123197,0.31123315844596267,-0.009531118615864096,-0.006357596125877847,-0.001465804371120766
1765410062.770648,-9.96644060927901,-0.036267526692538715,0.313490560207548,-0.009504516463815733,-0.00654684545406642,-0.0014821253885570354
1765410062.774612,-9.963154597310355,-0.03728106012974317,0.3159492926610308,-0.00943821991295689,-0.006710796275540914,-0.0014900705360961475
1765410062.777653,-9.959844128691918,-0.03823916112701803,0.3185777975719066,-0.00933333359070841,-0.006847807421515045,-0.0014903252530530588
1765410062.779634,-9.95657333826079,-0.03911804308542559,0.32133156554358744,-0.009192276776150168,-0.0069561342976334865,-0.001483706952747343
1765410062.780636,-9.953402467526157,-0.039898051502490324,0.3241510684570988,-0.009018708017532224,-0.007034085672521938,-0.0014710510605284801
1765410062.782651,-9.950379103883737,-0.040564958311647956,0.3269611806875669,-0.00881740889973977,-0.007080213966610274,-0.001453129678244285
1765410062.787631,-9.947531387380822,-0.04111027552952277,0.32967261536670056,-0.008594126284246354,-0.007093525843831693,-0.0014306005766584957
1765410062.789649,-9.944864355551617,-0.0415307829920914,0.3321858339324703,-0.008355373517264415,-0.007073694901529636,-0.0014039765195841454
1765410062.792666,-9.942360017576506,-0.041827818751821164,0.33439741031974507,-0.008108195211171605,-0.007021255929409145,-0.0013736109076999997
1765410062.794634,-9.939980943749541,-0.04200675144432763,0.33620815498427353,-0.007859904320070181,-0.00693775954430518,-0.0013397053192449305
1765410062.797596,-9.937676487732597,-0.04207661847338668,0.3375318283062544,-0.007617802528422763,-0.006825866415069014,-0.001302344474479164
1765410062.799601,-9.935390457944667,-0.04204962029031929,0.3383031775485262,-0.007388895308578841,-0.006689362021887218,-0.0012615532033243683
1765410062.802588,-9.933069051794629,-0.04194029294314023,0.33848421745271834,-0.00717961234080766,-0.006533077936778793,-0.0012173595392434972
1765410062.803088,-9.930668000050604,-0.04176457388044506,0.33806798759951223,-0.006995542871871387,-0.006362715864860838,-0.0011698484819877694
1765410062.805613,-9.92815810430583,-0.041539182339130745,0.33707939628181444,-0.00684119412811187,-0.0061845845457170956,-0.0011192013405907644
1765410062.809606,-9.925528719835269,-0.04128151602823237,0.33557319148896847,-0.006719780684861018,-0.006005272365281153,-0.0010657261576519138
1765410062.812586,-9.92278917069549,-0.041009838744418284,0.3336295173501773,-0.006633055744042576,-0.005831286176427632,-0.0010098865108776234
1765410062.814592,-9.919968412205606,-0.040743299732044776,0.3313477756791074,-0.006581200362544146,-0.005668688254523441,-0.0009523280458618399
1765410062.817634,-9.917113353795278,-0.04050146328874841,0.3288395354842608,-0.006562789413603672,-0.005522759758958593,-0.0008938916265416702
1765410062.818134,-9.914286168893575,-0.04030339420626459,0.3262210963951681,-0.006574849842439345,-0.005397713481468008,-0.0008355978623966352
1765410062.822655,-9.911560815341582,-0.04016665422896585,0.32360616864303415,-0.006613017461351242,-0.00529647432741433,-0.0007785936680496446
1765410062.824648,-9.909018973061668,-0.04010661301544862,0.32109907265071486,-0.006671786230556725,-0.005220543211132979,-0.0007240639359605274
1765410062.827612,-9.906745623450664,-0.04013627119829631,0.31878884863147394,-0.006744832872495377,-0.0051699556767760245,-0.0006731227470372985
1765410062.829652,-9.904824476799586,-0.04026650508644212,0.3167446123082626,-0.006825392410991266,-0.0051433388804284245,-0.000626702958836651
1765410062.833224,-9.90333345564567,-0.040506460857213655,0.3150124121930485,-0.006906657125670759,-0.00513806179969169,-0.000585460081593802
1765410062.834586,-9.902340530755687,-0.040863843939382125,0.31361380604896577,-0.006982171263619927,-0.005150465751055412,-0.0005496992510821307
1765410062.837608,-9.901900269957585,-0.04134502980939962,0.31254628712736887,-0.007046194475648193,-0.005176155717331605,-0.000519326992015281
1765410062.839589,-9.902051314768732,-0.04195512196224651,0.3117854139170981,-0.007094006795131658,-0.0052103290873836755,-0.0004938269302242486
1765410062.842603,-9.9028146911842,-0.04269813638797726,0.31128816916992286,-0.007122128988789244,-0.005248119234500937,-0.0004722625587144339
1765410062.844641,-9.904192676915573,-0.04357734253110273,0.31099700144073267,-0.007128438720829314,-0.005284935121471307,-0.0004533161761756553
1765410062.847814,-9.90616809255269,-0.044595557537120224,0.3108442559213067,-0.007112176420958057,-0.0053167797839190675,-0.00043537382124773146
1765410062.849689,-9.908704260712476,-0.045755069428937804,0.31075706475760356,-0.007073850283237693,-0.005340527805447279,-0.00041665814492794896
1765410062.852648,-9.911746183179817,-0.04705695836760843,0.3106629677723286,-0.007015061174420845,-0.005354138642598652,-0.0003953976258079553
1765410062.854626,-9.915223441919453,-0.04849985501691229,0.31049640058037603,-0.006938273228016872,-0.005356785416427137,-0.0003700076103568962
1765410062.855592,-9.919054882267925,-0.050078486815932556,0.31020575704231146,-0.006846556276655742,-0.005348889655865265,-0.0003392526663519128
1765410062.859608,-9.92315452279157,-0.05178252638315504,0.3097602494347664,-0.006743323734074061,-0.005332066140450757,-0.00030236404145718855
1765410062.861763,-9.927437687815022,-0.05359613315600236,0.3091554803231123,-0.006632084441472585,-0.0053089909481453725,-0.00025909854277127343
1765410062.864657,-9.931826255751545,-0.055498221558416515,0.30841660816933497,-0.006516220180705278,-0.005283208424354771,-0.00020973924539317978
1765410062.867655,-9.936252167586812,-0.05746312227207248,0.3075983013605362,-0.006398794372053572,-0.005258893994456171,-0.00015504723975992313
1765410062.869628,-9.940658836078402,-0.059461180926582174,0.3067812893199398,-0.006282394508686266,-0.005240593326690763,-9.617423702605897e-05
1765410062.871734,-9.945000611840001,-0.06145908268520712,0.3060659553937098,-0.006169011887851577,-0.0052329618933182115,-3.4541535637773434e-05
1765410062.874705,-9.949240775685078,-0.06342015221728797,0.30556376572979616,-0.006059965172903885,-0.005240528109065981,2.8310430917275365e-05
1765410062.879104,-9.95334859128608,-0.06530517512728727,0.30538733709641175,-0.005955875538829677,-0.005267497232002507,9.089075429042316e-05
1765410062.87965,-9.957295880195984,-0.06707413557862837,0.3056398071519706,-0.005856697595377831,-0.005317604813258664,0.00015192286511961467
1765410062.882785,-9.961053518428225,-0.06868876957060718,0.3064041607022233,-0.005761802491038739,-0.005394020841623558,0.00021047899419397273
1765410062.884659,-9.964588288298325,-0.07011537275618013,0.30773342653056684,-0.005670102127709598,-0.005499300181367225,0.0002660647641924581
1765410062.887701,-9.967860583713898,-0.07132718331544935,0.30964296128068447,-0.00558020014532952,-0.0056353704220976205,0.00031864819515509444
1765410062.889624,-9.970823370147626,-0.07230591932995381,0.3121059300121074,-0.00549055497010638,-0.005803543728187485,0.00036863926052733585
1765410062.892613,-9.97342249612613,-0.07304247155386857,0.3150524681043736,-0.005399639163385504,-0.006004535893348188,0.00041683073356264865
1765410062.89462,-9.975598168594194,-0.07353703404364471,0.3183722839607006,-0.005306077524332339,-0.006238475881034652,0.0004643095948503185
1765410062.897607,-9.977287357801435,-0.07379893319080792,0.32192009332362176,-0.005208747289009037,-0.006504893104323117,0.0005123458592215122
1765410062.899635,-9.978427031554409,-0.07384618340118958,0.3255233286639289,-0.005106829732038136,-0.0068026754864413,0.0005622661905695061
1765410062.902643,-9.978958217476317,-0.07370460232008617,0.328991782934144,-0.004999812781964601,-0.007129996566963712,0.0006153228214736487
1765410062.904672,-9.978830805324328,-0.07340635608321058,0.3321288954115729,-0.0048874553908472085,-0.007484214709530864,0.0006725708569092473
1765410062.907629,-9.978008739235786,-0.07298805732595132,0.3347441194542211,-0.004769731126142831,-0.007861754194839782,0.0007347657755794605
1765410062.909673,-9.976474995594053,-0.07248876276146508,0.33666544441738444,-0.004646767193684411,-0.008257986932782596,0.0008022874352072881
1765410062.912652,-9.974235723246755,-0.07194817035434366,0.3377510567475305,-0.004518787838391543,-0.008667140323939112,0.0008750905071810204
1765410062.914596,-9.971323161760878,-0.07140502050045029,0.3378994154326945,-0.004386063922023108,-0.009082256714499087,0.0009526783330198477
1765410062.917638,-9.967797235069034,-0.07089542014249062,0.3370574022788518,-0.004248867542661232,-0.009495224069323774,0.001034099145608509
1765410062.919587,-9.96374583618575,-0.07045076731052397,0.33522634504140936,-0.0041074312736742976,-0.009896892378466386,0.0011179680269239967
1765410062.922584,-9.959283762729717,-0.07009519763244018,0.33246551985770034,-0.003961913941568085,-0.010277290195383334,0.0012025203237730204
1765410062.924624,-9.954550178272621,-0.06984286782399045,0.32889247097079244,-0.003812377548769624,-0.010625957130877583,0.001285699276488953
1765410062.927614,-9.949704505861144,-0.06969571273098812,0.32467947705880235,-0.0036587810040557525,-0.01093240254189914,0.001365273748828712
1765410062.929688,-9.944920803277883,-0.06964237601848082,0.3200458075072346,-0.003500993723325939,-0.011186682064909066,0.0014389756584983478
1765410062.930622,-9.94038079493742,-0.06965877079094572,0.3152458401900153,-0.003338827058545551,-0.011380054555794257,0.0015046436211119498
1765410062.932617,-9.936265783708253,-0.06971029111336904,0.3105535047251597,-0.0031720774699854396,-0.011505653879069364,0.0015603596584215658
1765410062.937603,-9.932747719752534,-0.06975528928666215,0.30624390208823266,-0.003000574316302038,-0.011559096443264954,0.001604569415931798
1765410062.939665,-9.929979832785623,-0.06974923308665619,0.3025733928185159,-0.0028242269556152458,-0.011538951391554954,0.0016361809619988648
1765410062.942606,-9.92808739575934,-0.06964896894844469,0.2997599157534939,-0.002643070149231695,-0.011447019261684944,0.0016546387825456975
1765410062.944606,-9.927159293377196,-0.06941663562259642,0.2979656158986299,-0.0024573119144889665,-0.01128838786867488,0.0016599674603861823
1765410062.945634,-9.927241079307406,-0.06902290997407451,0.2972837480648047,-0.002267390096595154,-0.011071258221959802,0.0016527776751313627
1765410062.947607,-9.928330167762564,-0.06844936149022372,0.29773124461499484,-0.0020740399103379133,-0.010806557789679485,0.0016342288598584008
1765410062.952649,-9.930373773665805,-0.06768970874979335,0.29924759896886965,-0.0018783660792650299,-0.010507380086458294,0.0016059485935524024
1765410062.954618,-9.933270122499577,-0.06674977857159332,0.30170004926744953,-0.0016819059074434973,-0.01018830500582921,0.0015699172804932078
1765410062.957692,-9.936873169391145,-0.06564610059104867,0.30489438995927576,-0.0014866687108685528,-0.009864661245400896,0.0015283345972838807
1765410062.95969,-9.941000646238706,-0.06440334118252639,0.3085901222763195,-0.0012951416176495256,-0.009551787641593293,0.0014834876153626247
1765410062.963063,-9.94544491253681,-0.06305103544919718,0.3125183437690726,-0.0011102574378580763,-0.009264335062951044,0.0014376376267914253
1765410062.965918,-9.949985932651321,-0.061620126866838945,0.3164008967907869,-0.0009353254312248537,-0.009015633744626796,0.0013929345245082797
1765410062.967667,-9.954405643645654,-0.0601396195646689,0.3199696203870235,-0.0007739307531373563,-0.008817142499120814,0.0013513576767989943
1765410062.969656,-9.958502870783567,-0.05863338149311076,0.32298474654008436,-0.0006298114415619533,-0.008677997042447014,0.0013146763383352967
1765410062.972613,-9.962107761057759,-0.05711714062516671,0.3252514201292331,-0.0005067213693341691,-0.008604678462807113,0.0012844242800599073
1765410062.974619,-9.965094538049524,-0.05559609779283695,0.32663316326916053,-0.00040828556063482864,-0.008600823573433017,0.0012618882255223717
1765410062.977614,-9.967391373729393,-0.05406400928999852,0.3270611206670752,-0.00033785301048921913,-0.008667193176072483,0.0012481090654040388
1765410062.979677,-9.968986376741993,-0.05250458705474714,0.32653823283395944,-0.0002983506004289837,-0.00880180179650909,0.001243886407329588
1765410062.98266,-9.969929048469616,-0.05089544051611703,0.3251380157616053,-0.0002921382639921766,-0.0090001970267854,0.0012497693011594398
1765410062.9846,-9.970326964106151,-0.04921381388786087,0.3229982401664795,-0.00032086234529430773,-0.00925586394897835,0.0012660193908383655
1765410062.987596,-9.97033783116132,-0.04744260657916215,0.32031032062033393,-0.000385305197198589,-0.00956072378256467,0.0012925485080591901
1765410062.989621,-9.970157428863603,-0.04557508493838727,0.3173054603244429,-0.0004852351649351179,-0.009905695839622825,0.001328851161388415
1765410062.992639,-9.970004247174183,-0.04361736490127921,0.31423854064614826,-0.0006192683754905698,-0.010281294418627364,0.0013739610799221387
1765410062.994668,-9.970101939841586,-0.041588720869694305,0.31137059251070415,-0.0007847583664522705,-0.01067823192055233,0.0014264549560876574
1765410062.997662,-9.970660943823189,-0.039520419173535,0.3089506374810607,-0.0009777308067493119,-0.011087994841743254,0.0014845113202710993
1765410062.999618,-9.971860744912286,-0.037453772253308586,0.3071978145328104,-0.0011928792574513734,-0.011503355646121625,0.001546018542842263
1765410063.002655,-9.973834282649108,-0.03543772265473947,0.3062849708269928,-0.0014236352060417183,-0.011918785985241733,0.0016087207818832887
1765410063.004665,-9.976655863411217,-0.03352604196591975,0.30632509478466513,-0.0016623226366201196,-0.012330744817970809,0.0016703934408451569
1765410063.007625,-9.980333609750138,-0.03177444137961315,0.30736184338710015,-0.0019004032150813218,-0.012737825393032236,0.001729041351963106
1765410063.009676,-9.984806932345073,-0.03023825546932434,0.3093649374264283,-0.0021288094492450853,-0.01314075466083763,0.001783104680571627
1765410063.012639,-9.989948971680894,-0.028971327526439338,0.31223068201468746,-0.0023383495391291597,-0.013542244638038782,0.0018316418179562144
1765410063.014646,-9.995573628350144,-0.028026035349836234,0.3157876119301029,-0.0025201549266911237,-0.013946697698658575,0.0018744487543204827
1765410063.017641,-10.001446680957999,-0.027453396603999522,0.31980720045329736,-0.0026661369649386784,-0.014359771809108609,0.0019120823419595514
1765410063.019642,-10.007300412522476,-0.027301628340914423,0.3240194048736192,-0.0027694242078140684,-0.014787822873809078,0.0019457794869309742
1765410063.022667,-10.012851005412278,-0.027611987100917307,0.32813236861427497,-0.0028247613176764627,-0.01523725904801343,0.0019772929912291195
1765410063.024702,-10.017817715725405,-0.028412090262800557,0.3318549465611659,-0.0028288566243292396,-0.015713859069442268,0.002008682150939775
1765410063.025754,-10.021942545628136,-0.02970842050516786,0.3349201076857364,-0.002780662948256866,-0.016222115514608247,0.0020420940411777972
1765410063.029697,-10.025008865558469,-0.031480398353129116,0.337106933171231,-0.0026815666286098224,-0.01676466077470415,0.002079554546511601
1765410063.032686,-10.02685731894936,-0.03367787122278086,0.33825902031954175,-0.0025354496588987636,-0.017341820348369293,0.0021227717410957285
1765410063.034655,-10.027397493046234,-0.03622251190561278,0.33829762721340484,-0.002348588200036507,-0.017951321433118297,0.0021729518365115334
1765410063.035664,-10.026614282658983,-0.0390123305066864,0.33722866483611774,-0.002129363192253887,-0.01858817235507712,0.0022306405667235595
1765410063.039701,-10.024568506024124,-0.04192801422968059,0.33514336344313017,-0.0018877844561581557,-0.019244721906162127,0.0022956179119951615
1765410063.042665,-10.021391968163492,-0.04484014771386723,0.33221288529164367,-0.0016348611602256388,-0.019910902103515288,0.002366875662158967
1765410063.044694,-10.017277624370795,-0.04761688510993302,0.3286773360330259,-0.0013818786219701657,-0.020574649074780054,0.002442690442379725
1765410063.047708,-10.012465741124961,-0.050131701607044124,0.32482977746916347,-0.0011396565898814858,-0.02122248677945329,0.0025207801660564987
1765410063.049714,-10.007227154875961,-0.05227044667612537,0.3209962145171556,-0.0009178656448431514,-0.021840250423997173,0.0025985161513293444
1765410063.052634,-10.001845048812184,-0.05393664599207823,0.3175131137082068,-0.0007244684014420896,-0.022413918689142786,0.0026731642418119394
1765410063.054642,-9.99659698994437,-0.05505443420551268,0.3147045092496603,-0.00056533390368131,-0.022930512026301822,0.0027421393811884695
1765410063.057659,-9.991738990982881,-0.055569602429832526,0.31286082562154194,-0.0004440498361178081,-0.02337899987790663,0.002803263900607582
1765410063.059685,-9.987492910022741,-0.055450251140750806,0.3122210692500276,-0.0003619307983681935,-0.023751149957855582,0.0028550096151082715
1765410063.062624,-9.984037686591067,-0.05468857592770712,0.312959173285573,-0.0003181954529187645,-0.02404225232004524,0.002896683023139448
1765410063.064771,-9.981504055739283,-0.05330418359798372,0.3151744239639096,-0.000310265261117777,-0.02425165723805637,0.0029285015011220497
1765410063.067094,-9.979971853597686,-0.05134776098515942,0.3188855271166132,-0.00033412727175555164,-0.0243830736691177,0.002951524658721423
1765410063.071145,-9.979469028993144,-0.04890301695890601,0.32402812229529004,-0.00038470573564710383,-0.02444458441875485,0.0029674473696923104
1765410063.072624,-9.97997188267673,-0.04608521392474969,0.3304560148576827,-0.00045620080276881375,-0.02444835125656132,0.0029783055996606238
1765410063.074707,-9.981406547691691,-0.04303588703681235,0.33794654611296593,-0.0005423712038017433,-0.024410011180849758,0.002986165448140508
1765410063.076688,-9.98365204816227,-0.0399144758602968,0.3462102415066435,-0.0006367548443171175,-0.02434779722342326,0.0029928527345685087
1765410063.079679,-9.98654533235856,-0.036887900333616566,0.3549044181923564,-0.0007328343657560624,-0.02428144384038042,0.002999752877091107
1765410063.082688,-9.989888490814891,-0.03411880330228858,0.3636500318903771,-0.0008241656532664756,-0.02423095489681542,0.0030076909332280096
1765410063.084653,-9.993458081608415,-0.03175289035700326,0.37205080624678205,-0.0009044959761503108,-0.024215324753624742,0.003016895797058552
1765410063.087652,-9.997016264441523,-0.029905977713966907,0.3797136729735978,-0.0009679010848878766,-0.024251311246036716,0.0030270527212904043
1765410063.089663,-10.000323270504904,-0.028652085550508688,0.38626963913998774,-0.0010089636670582078,-0.024352359610243453,0.00303744529600923
1765410063.091737,-10.003150410157431,-0.028014857397854944,0.3913940496844435,-0.001022999900647639,-0.024527766057148334,0.0030471757253275047
1765410063.094649,-10.005292414332994,-0.027964986630359123,0.39482476223782775,-0.0010063209557215123,-0.02478214886846312,0.0030554279366604444
1765410063.095688,-10.00657789627253,-0.028425421160149112,0.3963765783691363,-0.0009564976578326694,-0.02511526018229641,0.0030617109096821296
1765410063.099641,-10.0068773360399,-0.029283953194692937,0.39595094175584145,-0.0008725844035343278,-0.025522122503241023,0.003066013211082345
1765410063.102724,-10.006108692489438,-0.030410509181703523,0.39354103719612077,-0.0007552583963095012,-0.0259934294114596,0.003068829413397455
1765410063.104682,-10.004240828667477,-0.03167538500888133,0.3892329653103887,-0.0006068453694271011,-0.026516139357669416,0.0030710694774143768
1765410063.105643,-10.00129445124931,-0.03296526961954011,0.3832031605934337,-0.000431226435255267,-0.02707421938991836,0.003073899481800491
1765410063.109639,-9.997339949440443,-0.034195395426476795,0.3757113809331529,-0.0002336376625731239,-0.027649528825589367,0.003078565665803135
1765410063.112654,-9.992491867813985,-0.035317295909366796,0.3670885500580183,-2.0377457715516955e-05,-0.0282228325292839,0.003086230170364508
1765410063.114668,-9.98690050714679,-0.0363218301242017,0.357719741921289,0.00020156358429072313,-0.028774897204543255,0.0030978205893375894
1765410063.11766,-9.9807417368929,-0.03723689596247632,0.34802379645690534,0.0004249281861394644,-0.029287586817360083,0.0031138901323750716
1765410063.119608,-9.974206247762194,-0.038119662611521964,0.3384315254354812,0.0006426379533787833,-0.029744866748336107,0.0031345040206280333
1765410063.122624,-9.967489314258616,-0.039044521804740315,0.3293641915088458,0.0008482162427328271,-0.030133648436280306,0.0031591871479351528
