time,acc_x_g,acc_y_g,acc_z_g,gyro_x_rad_s,gyro_y_rad_s,gyro_z_rad_s
1765407679.480647,-0.028246893046383864,-1.359392736802786,-6.924529110520352,0.006436319161324906,0.0067454158707600945,-0.004271347716641676
1765407679.480897,-1.1265487433236934,-1.3680033410104746,-6.913011630577532,0.0035389125293431253,0.0037342705835466295,-0.003189107959441387
1765407679.481147,-2.1970093556747163,-1.3764827258758863,-6.90198563758049,0.0006725894701724146,0.0007534335774868128,-0.0021086840203596094
1765407679.481397,-3.214670079933658,-1.3845826702117643,-6.891458738763324,-0.002099018478900346,-0.002130838706905527,-0.001053380432325195
1765407679.481791,-4.157393165014729,-1.3920561748105367,-6.881374583530998,-0.004715431708587415,-0.004851849080633887,-4.5326804729309705e-05
1765407679.481991,-5.006943151266441,-1.3986648269729247,-6.871608308548369,-0.007121555379292252,-0.007344928728886424,0.0008951958278634149
1765407679.482191,-5.749742308666552,-1.4041860294472372,-6.861968463281249,-0.009269449941925783,-0.009549751890128362,0.0017502678319871292
1765407679.482391,-6.3772744202043,-1.408419659492668,-6.852205709615986,-0.011119623347900932,-0.0114124759526515,0.00250469265470391
1765407679.482591,-6.8861473229635815,-1.41119367893301,-6.842027963871039,-0.012641884462886102,-0.01288772604302838,0.003146232932515463
1765407679.482812,-7.277850628027365,-1.4123683271559286,-6.831121151156689,-0.013815826422965609,-0.013940456451276305,0.0036657509340733804
1765407679.483062,-7.558261880669789,-1.4118387572983562,-6.819174272606665,-0.014631016723642276,-0.014547714848479094,0.004057281142316667
1765407679.483312,-7.73696343122454,-1.4095361985155184,-6.805906975856902,-0.01508696581427708,-0.014700314177679703,0.004318057645707108
1765407679.483562,-7.826434800821572,-1.4054278246604075,-6.791097397832456,-0.015192935869944678,-0.014404385055156736,0.004448511313452768
1765407679.483627,-7.841182719943088,-1.3995154663272051,-6.774607923971462,-0.014967639590917549,-0.01368274464443648,0.00445224237156021
1765407679.483877,-7.79686474685186,-1.3918332263444457,-6.756406708029755,-0.014438864691740697,-0.012575983901143617,0.004335966260906246
1765407679.484127,-7.709453851704743,-1.3824440858598341,-6.736583166048307,-0.013643043156009806,-0.011143148105933753,0.004109427812715934
1765407679.484377,-7.5944817602122585,-1.371435761961217,-6.715356067866049,-0.012624767013748553,-0.009461868044716984,0.0037852793311461508
1765407679.484598,-7.466389082482816,-1.358916320831708,-6.693073290007891,-0.011436235898724759,-0.007627797902147755,0.00337891478886106
1765407679.484848,-7.33800097664062,-1.3450102520046376,-6.67020280152257,-0.010136608667536144,-0.005753240213538966,0.0029082390048969444
1765407679.485098,-7.220138745353928,-1.3298557634497192,-6.647315040929863,-0.008791226807277673,-0.003964889932154883,0.0023933320307353186
1765407679.485348,-7.1213704643179625,-1.3136038344665553,-6.62505744814822,-0.007470682617475232,-0.0024007000259849906,0.0018559591859358716
1765407679.485565,-7.047897349556925,-1.2964190337635795,-6.604122427845198,-0.006249713601246956,-0.001205947200654014,0.0013188869031251786
1765407679.485815,-7.003566868203795,-1.2784814910161373,-6.585210397607876,-0.005205909034444503,-0.0005286479957969166,0.0008049907615734859
1765407679.486065,-6.989998533513818,-1.2599889490561182,-6.568989871578791,-0.004418217048790405,-0.0005145354619568672,0.00033617366616680645
1765407679.486315,-7.0068040556904165,-1.2411575026064927,-6.556056802624208,-0.0039652478386521944,-0.0013018491666802426,-6.785728380918122e-05
1765407679.486567,-7.051880294051466,-1.2222193579914895,-6.546895658721639,-0.003923384893663713,-0.003016212174488122,-0.00039087619039487447
1765407679.486817,-7.121751591875119,-1.2034159280465457,-6.541844836276316,-0.0043647420670934415,-0.005765866644271266,-0.0006213771928933105
1765407679.487067,-7.211937932480434,-1.184985184560318,-6.541068788551374,-0.005355038755070878,-0.009637516846835026,-0.0007536370268278223
1765407679.487317,-7.317327003515171,-1.167143529496091,-6.544538605036985,-0.006951503169754851,-0.014692989027125765,-0.0007884712482765587
1765407679.487679,-7.432531162933853,-1.1500641757716379,-6.5520220312711785,-0.009200943440776165,-0.02096686767979589,-0.0007335800293782436
1765407679.487929,-7.552213624620957,-1.1338555930401322,-6.563083446779619,-0.012138136401719096,-0.028465214496749238,-0.0006034265423854838
1765407679.488179,-7.671371448657121,-1.1185443971796079,-6.577094104588668,-0.01578467068780891,-0.037165422162149374,-0.0004186472307476019
1765407679.488429,-7.785566208047745,-1.1040666550099545,-6.59325265290638,-0.020148350681763228,-0.047017196171463584,-0.0002050464580950806
1765407679.488642,-7.891096649819946,-1.0902698938767716,-6.6106154663377446,-0.02522323079852762,-0.05794459475900357,7.731099765101278e-06
1765407679.488892,-7.98511108657955,-1.0769258188327997,-6.628135805577151,-0.030990309606982357,-0.0698490035125724,0.0001877325301251198
1765407679.489142,-8.065660361040118,-1.0637518227416294,-6.644710455807167,-0.03741886592585333,-0.08261288708804548,0.0003023065298609332
1765407679.489392,-8.131694978132575,-1.0504384096085355,-6.659232114925205,-0.04446835990105107,-0.09610413752873934,0.00031966871442515993
1765407679.489638,-8.183012507272373,-1.0366795796382189,-6.670645172370001,-0.052090758824498234,-0.11018081716482729,0.00021031597012632905
1765407679.489888,-8.22016361812065,-1.0222035775574316,-6.678001624629872,-0.06023309871268614,-0.12469607933232063,-5.179237042691683e-05
1765407679.490138,-8.244326905358953,-1.0068017312090713,-6.680513072294908,-0.06884007189996579,-0.13950305356385195,-0.0004883395920240849
1765407679.490388,-8.257163603138972,-0.9903532855952536,-6.677594675247092,-0.0778564378872952,-0.15445950467598596,-0.00111606378903519
1765407679.490619,-8.260663111413388,-0.9728442918375546,-6.668897998359194,-0.08722908447181858,-0.16943210606391834,-0.001946467323194402
1765407679.490952,-8.256989099180739,-0.9543788265628921,-6.654331418352746,-0.09690861516653443,-0.18430018994905956,-0.0029857910418618063
1765407679.491286,-8.248334321885315,-0.9351811480890979,-6.634068214054737,-0.10685039913491767,-0.19895884216315238,-0.004235207533617312
1765407679.4916,-8.236790651416543,-0.915587962797353,-6.608543071154743,-0.1170150789513698,-0.21332120687252154,-0.00569118046246143
1765407679.49185,-8.224239359880908,-0.8960308027685558,-6.578437646170999,-0.12736858208408575,-0.22731988124789695,-0.007345935821292953
1765407679.4921,-8.212265423137415,-0.8770094516242792,-6.544655456053604,-0.13788172394587697,-0.24090732537198306,-0.009187997339393685
1765407679.49235,-8.202098397169982,-0.8590583059734423,-6.508286081181173,-0.1485295229199743,-0.25405528390662047,-0.011202748071525192
1765407679.492556,-8.1945811206728,-0.8427085353260612,-6.470558839134146,-0.1592903651806871,-0.2667533017548137,-0.013372988043531294
1765407679.492889,-8.190166070734417,-0.8284497478193196,-6.43278684064169,-0.1701451535994914,-0.27900650283132755,-0.015679465812109314
1765407679.493223,-8.188937696634163,-0.8166952499640134,-6.396303507040314,-0.1810765513606247,-0.2908328686866154,-0.01810137547951797
1765407679.493618,-8.190657541165804,-0.8077546923496645,-6.362394855656559,-0.19206839501893336,-0.3022602819633637,-0.020616829254717944
1765407679.493868,-8.194827535811296,-0.8018169600257704,-6.332231776991276,-0.20310531385731678,-0.31332358276274636,-0.023203330911796043
1765407679.494118,-8.200765680884887,-0.7989448559523071,-6.306806965618556,-0.2141725581158435,-0.32406183215599854,-0.02583827881584906
1765407679.494368,-8.207687568092958,-0.7990817755647845,-6.28688118344809,-0.2252560044554796,-0.33451590047685326,-0.02849951586563757
1765407679.494656,-8.214787103094777,-0.8020692849846286,-6.27294305958531,-0.23634226840855257,-0.3447264185434282,-0.0311659233428813
1765407679.494989,-8.22131049078119,-0.8076732034340433,-6.265185446814041,-0.24741882010708283,-0.35473207244335025,-0.03381803558443642
1765407679.495323,-8.226618816252966,-0.8156146594756928,-6.263499736950417,-0.25847399127615445,-0.36456820252850114,-0.03643863811513637
1765407679.495634,-8.230235869092127,-0.825602133752024,-6.267488297234983,-0.26949678600960936,-0.3742656739278118,-0.03901330388072459
1765407679.495884,-8.231879008801394,-0.8373608753559764,-6.27649459543471,-0.2804764524430248,-0.38384999036100287,-0.04153081953733163
1765407679.496134,-8.23147222782467,-0.8506569436532769,-6.289649791552424,-0.2914018213873359,-0.39334061126174497,-0.04398345610104451
1765407679.496384,-8.22914250777637,-0.8653140499272033,-6.305932727690438,-0.3022604646333933,-0.402750419198353,-0.046367046102554536
1765407679.496594,-8.225202631483548,-0.8812221377878667,-6.324237921261704,-0.313037764277445,-0.41208529258739657,-0.04868084193932749
1765407679.496927,-8.220124668248245,-0.8983372729144004,-6.343445076687745,-0.323716007339657,-0.4213437721856193,-0.05092714522304053
1765407679.497261,-8.214507804164457,-0.9166729517634055,-6.362484592825614,-0.3342736280243936,-0.43051685347150015,-0.053110714014718244
1765407679.497597,-8.209042784885296,-0.9362832891440377,-6.380395401608737,-0.34468472143190215,-0.4395879701921514,-0.05523797180539876
1765407679.497847,-8.20447419667073,-0.957238779798273,-6.396372634751808,-0.35491894846132904,-0.44853324550506174,-0.05731605160249874
1765407679.498097,-8.201561498938469,-0.979595863681539,-6.4098029836519865,-0.364941934221443,-0.45732207782078,-0.059351707963913466
1765407679.498347,-8.20103965925492,-1.0033626523082324,-6.42028620206792,-0.3747162261920107,-0.4659181086235006,-0.06135013000229768
1765407679.498653,-8.203580194989419,-1.0284647227990757,-6.427642319839676,-0.38420282624955693,-0.4742806001464313,-0.06331370305913897
1765407679.498986,-8.20975378462392,-1.0547163035816072,-6.431905007848195,-0.3933632487368576,-0.4823662347662055,-0.06524080094119251
1765407679.49932,-8.219996621834605,-1.0818025971372816,-6.433301581489698,-0.40216198851151763,-0.490131325189019,-0.06712473810623493
1765407679.499913,-8.23458376161029,-1.1092776923293592,-6.432219949041021,-0.410569209453334,-0.49753438091759206,-0.06895305178387133
1765407679.500246,-8.253612808633733,-1.13657978015364,-6.429163594370617,-0.41856339477856924,-0.5045389136156266,-0.0707072901070937
1765407679.50058,-8.277000069309393,-1.163062339110776,-6.424697715644641,-0.42613365828023647,-0.511116303858169,-0.07236344167092251
1765407679.500736,-8.304489598833747,-1.1880375170213575,-6.419391598007342,-0.43328141965803757,-0.5172485173124872,-0.0738930665633344
1765407679.500986,-8.335674559743891,-1.210826347497619,-6.41376252592158,-0.4400211971966932,-0.5229304552451277,-0.0752650976646389
1765407679.501236,-8.370030059014452,-1.2308096987653319,-6.408224996330594,-0.44638035480917204,-0.5281717446701647,-0.07644818729414726
1765407679.501486,-8.406956194430958,-1.2474740559695345,-6.403047326926156,-0.4523977486998683,-0.5329978072598787,-0.07741339162376953
1765407679.501677,-8.44582857688932,-1.260447475152033,-6.3983175061217255,-0.4581213433807975,-0.5374500861880183,-0.07813692985015039
1765407679.50201,-8.486051252732906,-1.2695229922247795,-6.393921361931637,-0.46360498891299035,-0.5415853571205682,-0.07860273937223232
1765407679.502344,-8.527104771527226,-1.2746685760460084,-6.389537627649683,-0.4689046443956652,-0.5454741086092719,-0.078804574624457
1765407679.502655,-8.568581399249412,-1.2760237975412736,-6.384654675008623,-0.4740743773122726,-0.5491980429181048,-0.07874745445907692
1765407679.502905,-8.610200949193569,-1.2738841068751485,-6.378611475765214,-0.4791624632384816,-0.5528468032699395,-0.07844833031453848
1765407679.503155,-8.651804141386277,-1.2686746003841418,-6.370661031856352,-0.48420787105997065,-0.5565140688235838,-0.07793590991962189
1765407679.503405,-8.693324552316058,-1.2609163784984976,-6.360049969970087,-0.48923736475109136,-0.5602931933507053,-0.07724962998052151
1765407679.50426,-8.73474377268997,-1.2511895610407553,-6.346105185529162,-0.49426339500223043,-0.5642726274186634,-0.07643783634110889
1765407679.504593,-8.776036796603119,-1.2400973260953838,-6.32831765858105,-0.4992828935904098,-0.5685314475883346,-0.07555530637955832
1765407679.504927,-8.817115663315407,-1.2282344870881938,-6.306414233830239,-0.5042770215851617,-0.5731353561686064,-0.07466032414716837
1765407679.50467,-8.85777870922165,-1.2161618291464524,-6.280410198413302,-0.5092118697884157,-0.5781334637166802,-0.07381156451457409
1765407679.50492,-8.89767128448186,-1.2043846882417828,-6.250638407310129,-0.5140400801787887,-0.5835560584812113,-0.0730650304125959
1765407679.50517,-8.936263255378105,-1.193333273668741,-6.217752609502199,-0.5187033511944746,-0.5894134718626792,-0.07247122068040075
1765407679.50542,-8.97284928067547,-1.1833442128517058,-6.182702744898919,-0.5231357851387923,-0.5956960822674402,-0.07207262622275822
1765407679.505713,-9.006577328712035,-1.1746462595832903,-6.146680520332679,-0.527267996674551,-0.6023754297821889,-0.07190160566888994
1765407679.506046,-9.036507148519899,-1.1673551171033172,-6.111036769350261,-0.5310318045067498,-0.6094063325268806,-0.07197869343799178
1765407679.50638,-9.061694543959849,-1.1614811633053603,-6.077177009134068,-0.5343651943300316,-0.6167298325885163,-0.07231142115245513
1765407679.506605,-9.08129221770731,-1.1569502372581266,-6.046445677904508,-0.5372171303438174,-0.6242767727299127,-0.07289374956324146
1765407679.506855,-9.094655157219382,-1.1536338152475754,-6.02001166527907,-0.5395517580325626,-0.6319717911136157,-0.07370618387520551
1765407679.507105,-9.101437672806286,-1.1513828726185944,-5.998767962726081,-0.5413515894115691,-0.6397374920543213,-0.0747165830847291
1765407679.507355,-9.10166980739954,-1.150059939799807,-5.9832562032914405,-0.5426193682632405,-0.6474985150403185,-0.07588160685623395
1765407679.50761,-9.0958029578752,-1.1495653376839918,-5.9736227774934765,-0.54337845021842,-0.6551852180918062,-0.07714870411206054
1765407679.507943,-9.084717976152168,-1.149855046652714,-5.969608873486422,-0.5436716794521796,-0.6627367400084758,-0.07845853873737771
1765407679.508277,-9.069693225662544,-1.1509484889234416,-5.970573507426075,-0.5435588808500971,-0.6701032970504236,-0.07974774712318043
1765407679.509879,-9.052334612735608,-1.1529248731788606,-5.975545914663675,-0.5431132018884836,-0.6772476629412783,-0.08095190839192182
1765407679.510129,-9.034473891568103,-1.1559072932886756,-5.983301128027588,-0.5424166311447808,-0.684145845863585,-0.08200857949797379
1765407679.510379,-9.01804462496862,-1.1600349992615304,-5.992451099303535,-0.5415550871650462,-0.6907870127236813,-0.08286021743026473
1765407679.510629,-9.004946599436144,-1.1654261146090492,-6.001544055834234,-0.5406134955406138,-0.697172737318813,-0.08345679436955493
1765407679.509927,-8.996909761673596,-1.1721348662559954,-6.009165966651762,-0.5396712382563496,-0.7033156769833925,-0.08375792012380516
1765407679.51026,-8.995368494178432,-1.1801084003670723,-6.014038527025366,-0.538798276620496,-0.7092378068604315,-0.08373432341174035
1765407679.510594,-9.001356039787481,-1.1891484188853105,-6.015107891070034,-0.5380521459298068,-0.7149683484754079,-0.08336860224969893
1765407679.510588,-9.01542650810425,-1.1988825069411764,-6.01161862567792,-0.5374759229650163,-0.7205415158859992,-0.08265522016674656
1765407679.510838,-9.037608390335473,-1.208749304885935,-6.00316851338893,-0.5370971897948317,-0.7259941814381982,-0.08159978495637743
1765407679.511088,-9.067390318254985,-1.2180008579930586,-5.989741031252495,-0.5369279612651587,-0.7313635548575201,-0.08021769025664434
1765407679.511338,-9.103738543178128,-1.2257249619947572,-5.971712552148448,-0.5369655033032117,-0.7366849837807719,-0.07853223270217184
1765407679.511596,-9.145146339066951,-1.2308900136906151,-5.949830873564523,-0.537193932344567,-0.7419900038806101,-0.07657235654335068
1765407679.511929,-9.189716270361489,-1.2324137644547999,-5.9251622300710824,-0.5375864412060889,-0.7473047634346344,-0.07437022974725088
1765407679.512263,-9.235274762714809,-1.2292543034873558,-5.899006853898429,-0.5381079492319956,-0.7526489174605304,-0.07195890178955153
1765407679.512591,-9.279514150087232,-1.2205165827881443,-5.8727881560852735,-0.5387179478714281,-0.7580350594713028,-0.06937030477955503
1765407679.512841,-9.320151757230171,-1.2055625391359222,-5.847926075347356,-0.5393733231754446,-0.7634687537216963,-0.06663382045791078
1765407679.513091,-9.355090900258496,-1.1841097878973628,-5.825709164000523,-0.5400309771947462,-0.7689492213435922,-0.06377555258542421
1765407679.513341,-9.382566785673886,-1.1563043399876174,-5.8071812782696295,-0.540650123072832,-0.7744706740111054,-0.060818341290196094
1765407679.513772,-9.40126174741153,-1.122756237382999,-5.793057019970306,-0.5411941804299224,-0.7800241768966595,-0.057782460732727046
1765407679.514105,-9.41037881478403,-1.0845316886999026,-5.783675623243654,-0.5416322407777298,-0.7855998177604355,-0.05468686867329103
1765407679.514439,-9.409669591103793,-1.043099879714308,-5.778996366037119,-0.5419400998802776,-0.7911889189683199,-0.05155082051002554
1765407679.514626,-9.39942011895292,-1.000236759779949,-5.778631242968052,-0.5421008602314138,-0.7967860517757027,-0.04839560693287628
1765407679.514876,-9.380403897263548,-0.957892040137526,-5.7819050104603225,-0.5421051014688318,-0.802390655649216,-0.04524612218975118
1765407679.515126,-9.35381237205151,-0.9180299022371575,-5.78793076989384,-0.5419506221055242,-0.8080081071519137,-0.04213193888642555
1765407679.515376,-9.32117078485508,-0.8824585091054943,-5.795690850216882,-0.5416417827862118,-0.8136501337372446,-0.03908758472649402
1765407679.515568,-9.284244281395095,-0.8526669911521364,-5.804115849896481,-0.5411885162107255,-0.8193345385487268,-0.03615180739465487
1765407679.515901,-9.244938287114227,-0.829689064825222,-5.812157109780261,-0.5406050978753496,-0.8250842779389417,-0.033365770781100694
1765407679.516235,-9.205198439193639,-0.8140090796758004,-5.818849016611872,-0.5399087941051978,-0.8309259839381115,-0.030770310631927856
1765407679.516576,-9.166916813091516,-0.8055205160395165,-5.823358450774352,-0.5391185180905861,-0.8368880365974456,-0.02840253807491574
1765407679.516826,-9.131850981128704,-0.8035408122726889,-5.825020142783222,-0.5382536197639971,-0.8429982877883782,-0.026292183078768138
1765407679.517076,-9.101560668201744,-0.8068805946677314,-5.823357823329427,-0.5373329012143779,-0.849281552607095,-0.024458114736200024
1765407679.517326,-9.077364540417927,-0.8139595698680342,-5.818091197870981,-0.5363738918294148,-0.8557570223960904,-0.02290546882344991
1765407679.517542,-9.060317131165709,-0.8229557960511116,-5.80912933621019,-0.5353923618164439,-0.8624357870538848,-0.02162375476490717
1765407679.517875,-9.051202569066586,-0.8319710501754239,-5.796553230083429,-0.5344020255345583,-0.8693186624944025,-0.0205862000953827
1765407679.518209,-9.050538566598606,-0.8391937445568811,-5.7805923468441085,-0.5334143925668304,-0.8763945106121366,-0.019750431330742658
1765407679.51855,-9.05858319896024,-0.8430426595542407,-5.761599578657001,-0.5324387516194526,-0.883639230398786,-0.019060420554402303
1765407679.5188,-9.07533905548905,-0.842279062288627,-5.740026604495405,-0.5314823035368583,-0.8910155861960286,-0.018449491833503195
1765407679.51905,-9.100552963408,-0.8360802590222509,-5.7163999523898,-0.5305504792003479,-0.8984740049193339,-0.017844108604440054
1765407679.5193,-9.133713056614809,-0.8240727514207505,-5.6912979301704,-0.5296474740049856,-0.9059544089654425,-0.01716815177586338
1765407679.519594,-9.174047720828657,-0.8063268119008404,-5.66532881738295,-0.52877700372967,-0.9133890572632426,-0.01634742624715576
1765407679.519927,-9.220532196424426,-0.7833163548244604,-5.639110439314718,-0.5279432505173077,-0.9207062524008386,-0.015314166450165256
1765407679.520261,-9.271907672157239,-0.7558494509386121,-5.61325117602618,-0.5271519360301199,-0.9278346585226751,-0.014011320295036269
1765407679.520586,-9.326714977703082,-0.7249766018445778,-5.588333009671666,-0.526411433094745,-0.9347078914838067,-0.012396374979019466
1765407679.520836,-9.38334209308161,-0.6918856212225136,-5.564897293005399,-0.5257338012078904,-0.941269004579985,-0.01044447333647224
1765407679.521086,-9.440083030210186,-0.6577928122511452,-5.543432529539568,-0.5251356084945055,-0.9474744977509008,-0.008150579679501694
1765407679.521336,-9.495205281869481,-0.6238399452570961,-5.524361612218423,-0.5246383972285932,-0.953297518603633,-0.005530495055015473
1765407679.521551,-9.547022974778976,-0.5910057582116771,-5.508025869471937,-0.5242686679017791,-0.9587299913375132,-0.0026205869278684564
1765407679.521801,-9.593972225876602,-0.5600395878279183,-5.494665538001387,-0.5240572890767438,-0.963783495839982,0.0005238198093360407
1765407679.522051,-9.634684267212453,-0.531423206085829,-5.484399010819226,-0.5240382789904985,-0.9684888205185458,0.0038313439400670104
1765407679.522301,-9.668051614531365,-0.5053647759907864,-5.477204293404813,-0.5242469542145727,-0.972894221468071,0.007218572620645129
1765407679.522572,-9.693282935248073,-0.4818258238908644,-5.472905830617721,-0.524717504407004,-0.9770625172429099,0.010594909411810176
1765407679.522905,-9.709942409105496,-0.4605780524481939,-5.471169859822135,-0.5254801193135955,-0.9810672200436011,0.013867841120293259
1765407679.523239,-9.717969312685874,-0.4412820072489176,-5.471511442337708,-0.5265578490255056,-0.9849879629580003,0.01694818162555062
1765407679.523601,-9.717674855927802,-0.4235755410086401,-5.473314349340098,-0.5279634191505227,-0.9889055465122839,0.019754892256561737
1765407679.523851,-9.709716820270362,-0.40715864666895357,-5.475860896436372,-0.5296962543559252,-0.9928969868265431,0.022219171949560256
1765407679.524101,-9.695056788540112,-0.3918630386144082,-5.478365343825317,-0.5317399812843284,-0.9970309650687579,0.02428761140263808
1765407679.524351,-9.674907231756883,-0.37769828147246604,-5.480004095895667,-0.5340606744523206,-1.0013640252053322,0.02592428635067345
1765407679.524721,-9.650675291914874,-0.3648695103878938,-5.47993857618236,-0.5366060789685395,-1.0059377602874546,0.02711173032329637
1765407679.524971,-9.62390748438289,-0.35376451931566744,-5.477330593061162,-0.5393060042199602,-1.010777115407053,0.027850791846973418
1765407679.525221,-9.5962361991757,-0.3449108901103098,-5.471353756717462,-0.5420740313293008,-1.0158898509508543,0.028159450730344707
1765407679.525471,-9.5693258366821,-0.33890734178879584,-5.461207386481041,-0.5448105916141863,-1.0212671468497105,0.028070741040388873
1765407679.525628,-9.544814027155395,-0.33633730655731076,-5.446140786039756,-0.5474073425795825,-1.0268852642764044,0.02762999627348553
1765407679.525878,-9.524242187346898,-0.33767593200376755,-5.425494809220699,-0.5497526220729068,-1.0327081070819684,0.02689167736823507
1765407679.526128,-9.50897100829493,-0.34320308173898506,-5.398763724318084,-0.5517376456899317,-1.0386904564857058,0.0259160533207473
1765407679.526378,-9.500081531691265,-0.3529338289485164,-5.365674180477521,-0.553263042752232,-1.0447816082035004,0.024765985010632464
1765407679.526615,-9.498270493097701,-0.36657483218457587,-5.326271201913556,-0.5542452866357827,-1.0509291136001093,0.023504035048121173
1765407679.526865,-9.503756305070633,-0.3835111174583854,-5.280995565983389,-0.5546225546813578,-1.0570822894906138,0.02219009641122749
1765407679.527115,-9.5162152804719,-0.4028245455476557,-5.230734768849219,-0.5543595618961721,-1.0631951240624942,0.020879686192964472
1765407679.527365,-9.534764513077736,-0.42334317634777235,-5.176832322418791,-0.5534509642722428,-1.0692282337172871,0.019622972278835714
1765407679.527598,-9.558000136420091,-0.44371921936887515,-5.121046381413175,-0.5519230123467934,-1.075149669221811,0.018464494164244567
1765407679.527931,-9.584091101189328,-0.4625312777477708,-5.065456146896271,-0.5498332316944453,-1.0809345920254527,0.01744342789582727
1765407679.528265,-9.610921071383466,-0.47840388820948415,-5.012321703075454,-0.5472680144090237,-1.086564048428504,0.016594154528047786
1765407679.528581,-9.636264613563565,-0.4901344433368207,-4.963909927871136,-0.5443381479798827,-1.0920232053715417,0.01594683442971235
1765407679.528831,-9.657979144031493,-0.4968150326776436,-4.922304918970533,-0.541172494028101,-1.097299479665263,0.015527673854244937
1765407679.529081,-9.67419244869732,-0.49793501617095803,-4.889223953595002,-0.5379102316621132,-1.1023809930783683,0.01535861312394389
1765407679.529331,-9.683466956119325,-0.4934499725954037,-4.865858976794303,-0.5346922549261551,-1.10725570015429,0.015456286787411596
1765407679.529593,-9.684924666719139,-0.4838050111886172,-4.852760619539445,-0.5316524257811502,-1.1119113704243324,0.015830296559185966
1765407679.529843,-9.678319966556742,-0.46990580823482286,-4.849777688732668,-0.5289094112892266,-1.116336411738931,0.016481049976982215
1765407679.530093,-9.664052682340946,-0.453038487244416,-4.856059238905154,-0.5265597646611492,-1.1205213515247414,0.017397584665655566
1765407679.530343,-9.643121202333258,-0.4347476949028012,-4.870118673404735,-0.5246727528052889,-1.1244606697063655,0.018555865006654702
1765407679.530652,-9.617023080370766,-0.4166884370547571,-4.889951912980572,-0.5232872268997472,-1.1281546032048582,0.019917986126916244
1765407679.530902,-9.58761562021604,-0.4004696098875305,-4.9131967563736145,-0.5224106305286738,-1.1316105374465026,0.021432575434662763
1765407679.531152,-9.556951578550683,-0.3875057284896006,-4.937317830626186,-0.5220200754447144,-1.134843692971631,0.023036501505460456
1765407679.531402,-9.527106886451831,-0.3788899372616781,-4.959799253494737,-0.5220652918336487,-1.1378769856774393,0.024657838871123876
1765407679.531624,-9.500017898498397,-0.375298014547528,-4.978325861311393,-0.5224731690189939,-1.1407401116713136,0.026219917458135823
1765407679.531957,-9.477343279530999,-0.37693055087292465,-4.990936306745141,-0.5231535335962625,-1.143468018171337,0.027646195598905368
1765407679.532291,-9.460360266866397,-0.38349844188159166,-4.996137607534913,-0.5240057555934956,-1.1460989708143052,0.02886561471564413
1765407679.532599,-9.449899692212997,-0.394254600330427,-4.9929766254317505,-0.5249257258079875,-1.1486724441857235,0.029818011057536745
1765407679.532849,-9.446321269425253,-0.4080715554962459,-4.9810661938346,-0.5258127171737614,-1.1512270488970684,0.03045908141602686
1765407679.533099,-9.449529007708458,-0.4235597557005736,-4.960564429924031,-0.5265756464391659,-1.1537986602470627,0.030764354899892425
1765407679.533349,-9.459023247056319,-0.4392153312463102,-4.932109542995668,-0.5271382991568483,-1.1564188634811532,0.030731657432208865
1765407679.53359,-9.473980512923731,-0.4535804592571951,-4.896719415040654,-0.5274431644865781,-1.1591138188447558,0.03038169848722325
1765407679.53384,-9.49334819700874,-0.4653962215425119,-4.855671243542412,-0.5274536369878695,-1.161903657826988,0.029756641667146
1765407679.53409,-9.515940607069782,-0.4737281404956002,-4.810378125825381,-0.5271544808348958,-1.1648024927035827,0.028916782295911606
1765407679.53434,-9.540525816699544,-0.4780484833228077,-4.762276830602967,-0.5265506160133986,-1.1678190360356444,0.027935682996107138
1765407679.534595,-9.56589679964191,-0.4782660314724207,-4.7127364939001035,-0.525664454757001,-1.1709577237608304,0.02689427599853155
1765407679.534845,-9.590923934310437,-0.47470188887660164,-4.662993389526506,-0.524532156359056,-1.1742201577169376,0.025874520611590946
1765407679.535095,-9.61458882691845,-0.4680175399040538,-4.614112845043215,-0.5231992562569493,-1.1776066380708563,0.024953210553404846
1765407679.535345,-9.636001742653338,-0.4591074460989363,-4.56697614549547,-0.5217161530975154,-1.1811175294902228,0.02419646972439982
1765407679.53559,-9.654406786243957,-0.4489721494432483,-4.522288069916393,-0.5201339029458275,-1.1847541976258682,0.02365537243407693
1765407679.535923,-9.669180318107202,-0.43858892028731844,-4.480598806298852,-0.5185006776250836,-1.1885192844474042,0.02336299002959549
1765407679.536257,-9.679828831798124,-0.42879571377856995,-4.442331802551377,-0.5168591146750987,-1.1924161746408797,0.023333014526065354
1765407679.536692,-9.685992119119426,-0.42020118811186785,-4.407807952897034,-0.5152446459568122,-1.1964476333881175,0.02355995933687242
1765407679.536942,-9.687455377666922,-0.4131296788077639,-4.377258287873097,-0.5136847582281833,-1.2006137506384633,0.024020804374705433
1765407679.537192,-9.68417010176778,-0.4076060664978502,-4.350821772990654,-0.512199023931795,-1.2049094760373502,0.024677845922824175
1765407679.537442,-9.676279324488155,-0.40338155910212214,-4.3285297483173,-0.5107996588182763,-1.2093221214842058,0.02548243141502765
1765407679.537591,-9.664139775874002,-0.3999972398343615,-4.310282038289564,-0.509492332382895,-1.2138292120206085,0.02637920222189102
1765407679.537841,-9.64833308354595,-0.3968777224448155,-4.295821123876626,-0.5082769885133841,-1.2183970038331386,0.027310431563773465
1765407679.538091,-9.629660040149263,-0.39344281812956106,-4.284710495898362,-0.5071485172749566,-1.2229799139842883,0.028220037492509013
1765407679.538341,-9.609114412685294,-0.38922152569304264,-4.276322844221087,-0.5060972205445865,-1.2275210391290474,0.029056891722449952
1765407679.5386,-9.587834239482481,-0.3839508700950191,-4.269844131919632,-0.5051091015241566,-1.2319538540993513,0.02977714949486575
1765407679.53885,-9.567029715357126,-0.377643106087645,-4.264299888801584,-0.5041660731818974,-1.2362050555658846,0.030345484773278336
1765407679.5391,-9.547889756361938,-0.37060906704334023,-4.258607836396055,-0.5032462287684054,-1.2401983681483884,0.030735292308258753
1765407679.53935,-9.53147486988135,-0.36343241077906513,-4.251655062391656,-0.5023243433163127,-1.24385899698592,0.0309280681240499
1765407679.539614,-9.518609752067395,-0.3568976123919369,-4.242390277363433,-0.5013727623120443,-1.2471183225700104,0.030912271927860745
1765407679.539947,-9.509791627635948,-0.35188201789129747,-4.229916230974509,-0.5003627737811988,-1.2499184090207247,0.030682001541989638
1765407679.540281,-9.505128234672133,-0.3492279099122778,-4.213567221533178,-0.499266463082784,-1.252215938943275,0.030235778343740173
1765407679.540597,-9.504314199152867,-0.34961362257274603,-4.192961198383368,-0.49805893704235,-1.2539852731700167,0.029575666329517126
1765407679.540847,-9.506649252273197,-0.353442768793514,-4.1680216747245,-0.4967206935530841,-1.2552204175372181,0.028706845564999455
1765407679.541097,-9.511097555545645,-0.3607677087995947,-4.1389688280609835,-0.4952398235320603,-1.255935733004093,0.027637659474579034
1765407679.541347,-9.516383292455666,-0.3712583204040895,-4.106282097648839,-0.4936136941756039,-1.256165268610194,0.026380069959383395
1765407679.541657,-9.521112672955399,-0.3842207858416323,-4.07063981990548,-0.4918497984216605,-1.2559606739003095,0.02495038369903636
1765407679.541907,-9.523907611462585,-0.39866416639002206,-4.032844916790851,-0.48996555666416386,-1.2553877766713328,0.023370059709570786
1765407679.542157,-9.52353390295644,-0.41340604492556027,-3.9937476610030487,-0.48798699188263367,-1.2545220627561884,0.02166638707562064
1765407679.542407,-9.519008244088766,-0.42720372390895894,-3.9541756949476325,-0.4859463390740744,-1.25344342102049,0.01987283890601924
1765407679.542596,-9.509673579087641,-0.4388950107620254,-3.9148778160744007,-0.48387877743392027,-1.2522305976174923,0.018028949365251887
1765407679.542846,-9.495239133388848,-0.44753237036159466,-3.8764828883067146,-0.4818185825896963,-1.2509558419121005,0.016179607861929117
1765407679.543096,-9.47578750836574,-0.45249563367302365,-3.8394710577695483,-0.4797950803535022,-1.2496802260893358,0.014373714358482925
1765407679.543346,-9.451754092755131,-0.4535709409759053,-3.8041537858223786,-0.47782883064096154,-1.2484500773620308,0.012662196116980422
1765407679.543627,-9.423883578876243,-0.45098689415387505,-3.7706622256736027,-0.4759284684608778,-1.247294867382934,0.01109545115502618
1765407679.543877,-9.393166775083722,-0.44540300836752944,-3.7389472047156467,-0.4740885773930646,-1.2462267460497296,0.00972035530710386
1765407679.544127,-9.360760579741392,-0.43785040670015957,-3.7087953484353933,-0.4722888820684843,-1.245241688223559,0.008577039898472569
1765407679.544377,-9.32789513129914,-0.42962991903033754,-3.6798641902414513,-0.47049493633113715,-1.2443219907506753,0.0076957016258231495
1765407679.544585,-9.295773543699866,-0.4221776300174105,-3.651736011648983,-0.46866035917152704,-1.2434396995524963,0.007093733544211531
1765407679.544918,-9.265470900988321,-0.41691156576919447,-3.62398686536081,-0.466730527260939,-1.2425605089197218,0.006773464932624316
1765407679.545252,-9.237840756215464,-0.4150750280005132,-3.5962639934013687,-0.4646474771627373,-1.2416477143085611,0.006720775113500299
1765407679.545624,-9.213438698393798,-0.417592207855242,-3.5683619941536513,-0.46235562794375334,-1.2406658422398267,0.006904805364434208
1765407679.545874,-9.192472191297991,-0.42495069237174093,-3.5402862887103357,-0.4598078357193859,-1.2395836161660703,0.007278926153562528
1765407679.546124,-9.17478346536629,-0.437123619859771,-3.512292155354349,-0.45697124759434854,-1.2383759968039347,0.0077830124738164025
1765407679.546374,-9.15986864706016,-0.45354125432298653,-3.4848894257830105,-0.45383242063187784,-1.23702518274106,0.008346942590553871
1765407679.546636,-9.146932205057057,-0.47311727067208376,-3.458807714697625,-0.4504011934482553,-1.2355206231907672,0.008895095318742741
1765407679.546886,-9.134971406917993,-0.49432942774616967,-3.4349243471839084,-0.4467128484219204,-1.2338582186688365,0.009351512510488144
1765407679.547136,-9.122881662590897,-0.5153484474026666,-3.4141643471007095,-0.44282820518225313,-1.2320389557365201,0.009645326768057754
1765407679.547386,-9.109571582515901,-0.534203517070807,-3.3973862518613474,-0.43883145084547615,-1.2300672517895208,0.009716018382042798
1765407679.547614,-9.094076413602794,-0.5489683690171797,-3.3852686844217366,-0.4348257217992145,-1.2279492721349028,0.009518052764293702
1765407679.547864,-9.0756592975047,-0.5579489995225606,-3.3782116675434977,-0.4309266774515497,-1.2256914283217686,0.00902446507591852
1765407679.548114,-9.053891089274698,-0.5598534533274037,-3.376264213918763,-0.42725452295885874,-1.223299208195525,0.00822900910428654
1765407679.548364,-9.028701758978745,-0.5539258305013613,-3.3790857642766277,-0.42392512114243747,-1.2207764469762283,0.007146576909709083
1765407679.54865,-9.000399739689865,-0.5400300512544606,-3.3859441970717374,-0.4210409573687028,-1.2181251001848272,0.005811734060553264
1765407679.548983,-8.969659002936295,-0.5186731301999559,-3.3957485220543675,-0.41868276324806,-1.2153454958502388,0.004275415677176388
1765407679.549317,-8.937476156139759,-0.4909629652882777,-3.4071107092958988,-0.4169025581796326,-1.212436950435862,0.0026000809656409516
1765407679.549567,-8.905101384312838,-0.45850284165295807,-3.4184289582968055,-0.4157187397924576,-1.209398586057137,0.0008538743058435519
1765407679.549817,-8.873948064705129,-0.42323385525028845,-3.427984721355363,-0.41511365892174756,-1.2062302057091085,-0.0008954877276336918
1765407679.550067,-8.845486815793286,-0.3872450784503898,-3.4340473822011575,-0.415033870513126,-1.202933131739959,-0.0025863486355808983
1765407679.550317,-8.821131064061827,-0.3525763625217095,-3.4349813947520698,-0.41539299180724154,-1.1995109401765625,-0.004167620725600174
1765407679.550608,-8.802123182341024,-0.321038424444858,-3.4293494361303676,-0.416076867371911,-1.195970017544257,-0.005601750661780407
1765407679.550858,-8.78943204354984,-0.29407014934760306,-3.4160032736223664,-0.41695056821301135,-1.192319860356246,-0.006865989691426804
1765407679.551108,-8.783672600318496,-0.27264612573874936,-3.394154384469403,-0.41786664232963383,-1.1885730660527205,-0.007952063079648434
1765407679.551358,-8.785054840283332,-0.25724004989677574,-3.3634195065203794,-0.41867397710139354,-1.1847450253419753,-0.008864520379828074
1765407679.551606,-8.793364442162686,-0.24784263263525586,-3.323840343629056,-0.41922662823821916,-1.1808533855369137,-0.009618163044209468
1765407679.551939,-8.807973211761166,-0.24402663654025467,-3.275879546069566,-0.4193920171494425,-1.1769173834647102,-0.010234991874298298
1765407679.552273,-8.827875524894317,-0.24504715918469056,-3.2203959361188046,-0.41905799022882584,-1.1729571387520725,-0.01074110551703913
1765407679.55257,-8.851747160689865,-0.2499624875279688,-3.15860093715959,-0.41813835478901124,-1.1689929661002085,-0.011163924148281565
1765407679.55282,-8.87802348833047,-0.25775994262775576,-3.091996508172679,-0.41657664476553374,-1.165044735229933,-0.011530018557413592
1765407679.55307,-8.904993782767649,-0.26747218401207457,-3.022294388283314,-0.4143480162197607,-1.1611313065430122,-0.011863707936636509
1765407679.55332,-8.93090743576442,-0.27827203500234415,-2.9513182537151468,-0.41145931536543,-1.157270095171708,-0.012186471050494902
1765407679.553581,-8.954086435586392,-0.28953715225272203,-2.880894014712895,-0.4079474786828741,-1.1534768232969403,-0.012517112662485676
1765407679.553831,-8.973036863362026,-0.3008791570959256,-2.81273724487117,-0.4038764996133453,-1.1497654734470364,-0.01287254425229289
1765407679.554081,-8.986550397375865,-0.312135310310687,-2.7483490939175885,-0.3993332356294019,-1.1461483705157562,-0.013268968649541607
1765407679.554331,-8.993785585023,-0.32332508481077715,-2.6889323789375967,-0.3944223519902685,-1.142636254465906,-0.013723195762451365
1765407679.554576,-8.994319016238803,-0.334579208301584,-2.6353376658046663,-0.3892607143159239,-1.1392381974410046,-0.014253769058487796
1765407679.554909,-8.98815917663707,-0.3460536614971792,-2.588044980301305,-0.383971548076741,-1.13596125667905,-0.014881579572887438
1765407679.555243,-8.97572028348532,-0.3578435883268416,-2.547181298543728,-0.3786786700498558,-1.1328098050471447,-0.015629716245119007
1765407679.555563,-8.957758748149194,-0.3699109231391033,-2.51256894824379,-0.3735010587909229,-1.1297845319193205,-0.016522440629238952
1765407679.555813,-8.935280215700041,-0.38203577506261754,-2.483796291598535,-0.36854797475351575,-1.1268811679956197,-0.01758333211845578
1765407679.556063,-8.909429793873809,-0.39379740343170716,-2.460299029608846,-0.36391478282816253,-1.1240890587941654,-0.018832783420454677
1765407679.556313,-8.881381096107896,-0.40458718353083584,-2.441438260883251,-0.35967958367045505,-1.1213897745734673,-0.02028512794294797
1765407679.556569,-8.852239847308997,-0.41365296156245746,-2.426561665199343,-0.35590072535283457,-1.1187559844881758,-0.02194575743131351
1765407679.556819,-8.822974441798376,-0.4201709926110284,-2.415038315705261,-0.3526152358309955,-1.1161508385029804,-0.023808629460718093
1765407679.557069,-8.79437959326325,-0.423338276773997,-2.40626494385727,-0.3498381841295202,-1.1135280861396677,-0.025854551048760218
1765407679.557319,-8.767071846824638,-0.42247505540133284,-2.399649259173665,-0.34756294727963194,-1.110833099545528,-0.02805055286762613
1765407679.5576,-8.741509686205932,-0.4171250327918314,-2.394581264102474,-0.34576233952150365,-1.1080048551197703,-0.03035055460188477
1765407679.557933,-8.718028173404168,-0.40713998354755554,-2.3904048909220768,-0.34439055374144806,-1.1049787862742797,-0.032697386951721266
1765407679.558267,-8.696878595264883,-0.39273610230600803,-2.386400015301853,-0.3433858629210696,-1.1016902853871409,-0.035026091066162494
1765407679.558612,-8.678265913253153,-0.37451188206138336,-2.381780560102466,-0.34267401437321576,-1.09807853479098,-0.03726826597963076
1765407679.558862,-8.66237927184439,-0.35342145950016635,-2.3757098447887834,-0.3421722148804334,-1.0940903039290555,-0.03935708925806554
1765407679.559112,-8.649412727908603,-0.3307031684312302,-2.3673308754483244,-0.3417935594613809,-1.0896833702117492,-0.04123251979055058
1765407679.559362,-8.639574782104456,-0.30777004838905536,-2.3558073826102137,-0.34145170884728926,-1.084829291428797,-0.04284613647434715
1765407679.559586,-8.633086498879885,-0.28607594045106427,-2.340370682580013,-0.34106557108927565,-1.0795153431621451,-0.04416509601074202
1765407679.559836,-8.630169330117123,-0.2669755389527666,-2.320367044283246,-0.34056369857133967,-1.0737455077440885,-0.045174810191239305
1765407679.560086,-8.631025429273285,-0.25159750262938196,-2.295299906730504,-0.33988809439507706,-1.0675404684333427,-0.04588012846670332
1765407679.560336,-8.635814666841663,-0.24074587291682167,-2.2648617709962755,-0.33899714593161606,-1.0609366422899134,-0.046305019659081494
1765407679.560629,-8.644632271047671,-0.23483809860167223,-2.2289529590003454,-0.33786745986332073,-1.053984370691756,-0.04649091193229231
1765407679.560962,-8.657488519150135,-0.23388095353447172,-2.1876882833063322,-0.33649444646182497,-1.0467454508835965,-0.04649392908571159
1765407679.561296,-8.674289174189418,-0.2374811016328138,-2.141395551002593,-0.3348915895759355,-1.0392902164147237,-0.04638126999612614
1765407679.561615,-8.694815023045805,-0.24488555574633006,-2.090609700178382,-0.33308844869869986,-1.0316943576544522,-0.04622696889130934
1765407679.561865,-8.718701015336832,-0.25504749077103317,-2.0360640424637886,-0.3311275594648501,-1.0240356312251684,-0.04610728462205211
1765407679.562115,-8.745417807403392,-0.2667128269106402,-1.9786777945826262,-0.3290604984437344,-1.0163905646530256,-0.04609600132215722
1765407679.562365,-8.774259435242488,-0.2785214986071026,-1.9195377172019865,-0.32694343430805084,-1.0088312462055804,-0.046259959987131255
1765407679.562643,-8.804341011134255,-0.28911478552097086,-1.8598707954147005,-0.3248325053582295,-1.001422315823743,-0.04665515073959952
1765407679.562893,-8.834610421586241,-0.2972379311832403,-1.8010046176610799,-0.3227793626460045,-0.9942183242157898,-0.04732365942663738
1765407679.563143,-8.86387691013532,-0.3018267226736866,-1.7443137083004978,-0.32082720781914825,-0.9872616505276002,-0.04829167945787674
1765407679.563393,-8.890856035910568,-0.302068233681332,-1.6911542716087389,-0.31900763058626763,-0.9805811277856448,-0.049568685198642985
1765407679.56357,-8.91422618918084,-0.29742947308506174,-1.6427947483792704,-0.3173385087501248,-0.9741914431190903,-0.051147742282242115
1765407679.563903,-8.932689691333671,-0.2876527108313131,-1.6003516799313913,-0.31582317423717027,-0.9680933031546999,-0.053006831965398675
1765407679.564237,-8.945032774988958,-0.2727216284060903,-1.5647382496057152,-0.314450964055566,-0.9622742941332384,-0.05511100916420295
1765407679.564586,-8.950181512915666,-0.2528064688116972,-1.5366289530985107,-0.31319915660843534,-0.9567103061392596,-0.057415193381611475
1765407679.564836,-8.947252716801875,-0.2281977014699236,-1.5164405972380417,-0.31203615115099836,-0.951367340587971,-0.059867385210609164
1765407679.565086,-8.935599841685264,-0.1992365677575356,-1.5043268639695837,-0.3109256114051288,-0.9462035116842983,-0.06241208296530097
1765407679.565336,-8.91485466421823,-0.1662489160978222,-1.5001806830055688,-0.30983119427400857,-0.9411710929857896,-0.06499363974345701
1765407679.565627,-8.884965169534912,-0.12948766963216807,-1.5036379830770532,-0.3087214344720969,-0.9362185194040246,-0.06755927275950951
1765407679.565877,-8.846227745286882,-0.08908955065059851,-1.514079834166628,-0.3075743457636584,-0.931292302590808,-0.07006144382995858
1765407679.566127,-8.799308563421965,-0.04505250489757668,-1.5306354089632082,-0.3063813122841437,-0.9263388424731729,-0.07245939300022781
1765407679.566377,-8.745247219486538,0.00275979045671514,-1.5521917780050853,-0.30514987792945225,-0.9213061162543134,-0.07471973177760048
1765407679.566581,-8.685436434469679,0.05458216007778864,-1.5774167466457727,-0.3039051100039732,-0.9161452072755574,-0.0768161680476299
1765407679.566914,-8.621574485450575,0.11068146548486113,-1.6047986506103276,-0.3026893185696926,-0.9108116296664943,-0.07872859182520796
1765407679.567248,-8.55559104679554,0.17126625951280708,-1.632703627415435,-0.3015600450709294,-0.9052664314918366,-0.08044184552283072
1765407679.567591,-8.48955117516347,0.2363849599510012,-1.6594474376760033,-0.3005863821457708,-0.8994771003277899,-0.08194451062349284
1765407679.567841,-8.425545010029477,0.30582766103834463,-1.683376461748115,-0.29984384661655816,-0.8934183166144049,-0.08322798157827875
1765407679.568091,-8.365571846466556,0.3790460728190997,-1.7029514836657866,-0.2994081933712861,-0.8870725892946928,-0.0842860091834996
1765407679.568341,-8.311427442941463,0.4551035765994217,-1.7168274855807832,-0.29934870791475315,-0.880430774292876,-0.08511481233946311
1765407679.568619,-8.264603802720615,0.5326644978999796,-1.7239221963516038,-0.2997216135954418,-0.8734924377549026,-0.08571377640242014
1765407679.568869,-8.226210709880412,0.6100283173801804,-1.7234664758515246,-0.3005642467399659,-0.8662660038682161,-0.08608665837343762
1765407679.569119,-8.196926632184699,0.6852097550521603,-1.7150318678486047,-0.3018905847340526,-0.8587686291532827,-0.08624310774770054
1765407679.569369,-8.176983018646496,0.7560594695894385,-1.6985339450982673,-0.30368857429882756,-0.8510257595546165,-0.08620022139706399
1765407679.569587,-8.166181838295303,0.8204140002915565,-1.674212617615069,-0.30591952584744536,-0.8430703435738631,-0.08598381845628779
1765407679.56992,-8.16394297003192,0.8762597668345095,-1.6425920104061436,-0.3085196439336823,-0.8349416979076808,-0.08562915951978452
1765407679.570254,-8.169376349152536,0.9218957338358623,-1.6044236775275678,-0.3114035773837783,-0.8266840533686302,-0.0851809194770581
1765407679.570623,-8.18137281518671,0.9560817110112423,-1.5606183006066137,-0.314469714190239,-0.8183448399399611,-0.0846923083672884
1765407679.570873,-8.198706071289026,0.9781615628272667,-1.512172412803021,-0.3176068303981265,-0.8099727956265573,-0.08422329254658238
1765407679.571123,-8.220136102431818,0.9881513438312163,-1.460097470439235,-0.3207016292744154,-0.8016160106887817,-0.08383791808982306
1765407679.571373,-8.244503559278279,0.9867827256962366,-1.405358057211577,-0.32364665919577085,-0.7933200509777236,-0.08360081784832002
1765407679.571601,-8.270806168582673,0.9754942202013878,-1.3488241404284287,-0.3263480637220905,-0.7851263227274907,-0.08357310055887392
1765407679.571851,-8.298251254730403,0.9563671524845166,-1.2912400214778108,-0.3287326090999018,-0.7770708118872572,-0.08380793878989136
1765407679.572101,-8.326281443688055,0.9320086068346883,-1.2332107867306614,-0.330753475505732,-0.7691832489100641,-0.08434624956256943
1765407679.572351,-8.354573176314258,0.9053882506968046,-1.1752058512671302,-0.33239438695205326,-0.7614866655109488,-0.08521288717012417
1765407679.574914,-8.38301010567643,0.8796402211954059,-1.117578429799551,-0.3336717656977087,-0.7539972807255032,-0.08641375602869698
1765407679.575247,-8.411636002309868,0.8578456199529524,-1.0605989219892134,-0.33463471630703473,-0.7467246758610026,-0.08793420106533995
1765407679.575581,-8.440594365411958,0.8428145058970254,-1.00449839293069,-0.33536278386881374,-0.7396722391516943,-0.08973892370768588
1765407679.574992,-8.47006387465922,0.8368866768424675,-0.949515636041335,-0.3359615976309455,-0.732837850483168,-0.09177350267311925
1765407679.575242,-8.50019887196149,0.8417676668541995,-0.8959394863679265,-0.33655668109260933,-0.7262147510003147,-0.09396740988378793
1765407679.575492,-8.531081666108218,0.8584120188373816,-0.8441387800423419,-0.33728584421051544,-0.7197925298860968,-0.09623825329648258
1765407679.575742,-8.562689881259598,0.8869618422034105,-0.794575097858103,-0.3382906579207146,-0.7135581649764349,-0.09849687260009632
1765407679.5756,-8.594879298786372,0.9267450356564488,-0.7477964942313108,-0.339707558730082,-0.7074970538059641,-0.1006528493523448
1765407679.57585,-8.627381086351782,0.9763331992385729,-0.7044134368916787,-0.34165915235575506,-0.7015939506854494,-0.10261995702864984
1765407679.5761,-8.659811001438603,1.0336536488581902,-0.6650615376484886,-0.34424627052542833,-0.6958336984761343,-0.1043210802939865
1765407679.57635,-8.69168699567669,1.0961440968159004,-0.6303580725728968,-0.3475412705613827,-0.690201643910961,-0.10569219731473158
1765407679.576597,-8.722451766545774,1.1609342478666727,-0.6008587978857024,-0.3515829578340903,-0.6846836682128682,-0.1066851431134909
1765407679.57693,-8.751498582597646,1.2250370617103592,-0.5770185853085277,-0.3563733814789944,-0.6792658354543574,-0.10726903050669286
1765407679.577264,-8.778200773532658,1.285533811072711,-0.5591566422372948,-0.3618766342776822,-0.6739337316423823,-0.10743036436701432
1765407679.5776,-8.801945918820387,1.3397401572783592,-0.5474263982358174,-0.3680196920051764,-0.6686716191334342,-0.10717201440991835
1765407679.57785,-8.822174664138576,1.3853437201148613,-0.5417910091768403,-0.3746952421024028,-0.6634615586570647,-0.10651129509904
1765407679.5781,-8.838422266316186,1.4205062822004346,-0.5420063709372769,-0.38176635133009396,-0.6582826560040295,-0.10547744435299397
1765407679.57835,-8.850359555844541,1.44392634156946,-0.5476136331083151,-0.38907269934064864,-0.6531105767419143,-0.10410881097294353
1765407679.578559,-8.857829546552503,1.4548612119558257,-0.5579423160550676,-0.39643798022171317,-0.6479174474622561,-0.10245005301096212
1765407679.578809,-8.86087637854201,1.453112411189143,-0.5721236759468106,-0.40367798212510836,-0.6426722303336309,-0.10054959550881797
1765407679.579059,-8.859764149684295,1.438982290125443,-0.5891127148340343,-0.41060882433535545,-0.6373416188036725,-0.09845748957311522
1765407679.579309,-8.85498366483393,1.4132117596604117,-0.6077169688675464,-0.41705486640580136,-0.6318914589155088,-0.09622368775069072
1765407679.579563,-8.847244597651772,1.3769078082923318,-0.6266313426869194,-0.42285588389963413,-0.6262886606698638,-0.09389665777783439
1765407679.579896,-8.837449277914743,1.33146657535104,-0.6444805000583336,-0.42787319962047515,-0.6205035271788037,-0.09152223598758963
1765407679.58023,-8.826643752843792,1.2784953734634845,-0.6598723618399904,-0.4319945504594913,-0.6145123819165088,-0.08914266535212453
1765407679.580571,-8.815943845385096,1.2197365130162574,-0.6714662944427704,-0.43513755459213477,-0.608300306553557,-0.08679582171427867
1765407679.580821,-8.806439232230982,1.1569962785614767,-0.6780565467667966,-0.43725171992600503,-0.6018637251518673,-0.08451465332384024
1765407679.581071,-8.79908527323928,1.09208212866069,-0.6786658857370046,-0.4383189966001271,-0.5952125075732405,-0.08232683066801172
1765407679.581321,-8.794597416624189,1.0267492604389048,-0.6726381191072209,-0.43835292018764394,-0.588371239075152,-0.08025455709300287
1765407679.581548,-8.793364373854718,0.9626550360436826,-0.6597141784442413,-0.4373964255695931,-0.5813793395054606,-0.07831447121595941
1765407679.581798,-8.795393523495887,0.9013182594585903,-0.6400772255577396,-0.4355184503165908,-0.574289829075716,-0.0765176007026175
1765407679.582048,-8.800296205886749,0.8440810003880193,-0.6143579949708055,-0.432809500673646,-0.5671667129604658,-0.07486938243583754
1765407679.582298,-8.807313756549506,0.7920729814532185,-0.5835994294121022,-0.4293764189309079,-0.5600811524042679,-0.07336980287739021
1765407679.58259,-8.81537943182649,0.7461807749511457,-0.549186067762867,-0.42533665515737046,-0.5531067596813108,-0.07201370783117741
1765407679.58284,-8.823207901024126,0.7070248890739387,-0.5127471632438161,-0.42081238958793676,-0.5463144649989847,-0.0707912912827764
1765407679.58309,-8.829402689421324,0.6749472135369701,-0.4760437190992448,-0.4159248505106878,-0.539767443482928,-0.06968872669003479
1765407679.58334,-8.832572361121807,0.6500099392542634,-0.4408492561958868,-0.41078911537442475,-0.533516565229868,-0.06868887487970111
1765407679.58357,-8.831447513389927,0.6320055531198846,-0.4088326074814604,-0.4055095920615195,-0.5275967491486763,-0.06777200147940514
1765407679.583903,-8.824991697248576,0.6204762343275944,-0.38144934892969484,-0.40017629693823775,-0.522024472178666,-0.06691646328481059
1765407679.584237,-8.812499564591782,0.6147403423494837,-0.3598477396284523,-0.3948620041602465,-0.5167965394579436,-0.06609936505569011
1765407679.584539,-8.79367536142715,0.6139238367262412,-0.34479509639803896,-0.3896203269266529,-0.5118901010321686,-0.06529722534726774
1765407679.584789,-8.768685118415705,0.6169951284431988,-0.33663015246656575,-0.38448477719115487,-0.5072638224340952,-0.06448670538400171
1765407679.585039,-8.73817660753501,0.6228026737814589,-0.3352456102187197,-0.3794688182616133,-0.5028600573436925,-0.06364544359683116
1765407679.585289,-8.703262276901706,0.6301153794485527,-0.34010333672151694,-0.37456687724392235,-0.4986078136903312,-0.06275300282600542
1765407679.585547,-8.665462728203263,0.6376663356943577,-0.3502825743206545,-0.3697562332352593,-0.4944262692447403,-0.0617918846924221
1765407679.585797,-8.626612818297305,0.6442002023121028,-0.36455820923817983,-0.3649996512266743,-0.4902286030198974,-0.06074851145082163
1765407679.586047,-8.588738560234503,0.648523732610423,-0.3815013425061504,-0.36024859344590854,-0.48592595169431646,-0.059614039775431546
1765407679.586297,-8.553918151307618,0.6495578189278606,-0.39959024456550835,-0.35544681304428183,-0.48143133653909903,-0.05838486676318386
1765407679.586545,-8.524142096109365,0.6463883253031387,-0.41731909732238337,-0.3505341262488078,-0.47666341752602764,-0.05706271611271166
1765407679.586795,-8.501185230564483,0.6383117744041596,-0.4332950445921165,-0.3454501664170738,-0.4715499372847695,-0.05565424535097276
1765407679.587045,-8.486499584367387,0.6248710126084246,-0.44631828542353036,-0.3401379332984906,-0.4660307381795807,-0.0541701872239104
1765407679.587295,-8.481133705405824,0.6058762215968109,-0.45544271031676437,-0.3345469569153851,-0.4600602538375378,-0.052624118244260505
1765407679.587547,-8.48568194446376,0.5814084159806735,-0.46001585032716963,-0.32863591091905214,-0.4536093645970264,-0.05103101153785142
1765407679.58788,-8.500265615177343,0.5518049040473871,-0.4596978358444063,-0.32237454843540675,-0.4466664774555212,-0.04940576009601491
1765407679.588214,-8.524546169392025,0.5176280372611788,-0.45445992701116233,-0.31574488507631954,-0.4392376906531258,-0.04776185193917433
1765407679.588607,-8.557768203734298,0.47962000672214555,-0.4445637238608062,-0.30874160010762103,-0.43134595672722104,-0.04611035377257015
1765407679.588857,-8.598827245260935,0.43864800281685906,-0.4305228455144607,-0.30137166809068466,-0.423029252391257,-0.04445931878885191
1765407679.589107,-8.646354365468564,0.39564546153705704,-0.41305039634082263,-0.2936532823045973,-0.41433787292330665,-0.04281367161536633
1765407679.589357,-8.698807772310904,0.3515554088167352,-0.392997492163911,-0.2856141834652699,-0.4053310737433999,-0.04117554165792252
1765407679.589574,-8.754561647013876,0.30728066035497825,-0.37128900860734515,-0.27728954516144355,-0.3960733619779707,-0.03954493893230634
1765407679.589824,-8.811984766719805,0.26364355953430213,-0.3488616957235915,-0.2687195879317504,-0.38663076946442343,-0.03792062577577623
1765407679.590074,-8.869504770965708,0.2213562326293004,-0.3266078237943333,-0.2599471072083675,-0.37706740314331144,-0.036301045311551275
1765407679.590324,-8.925656794592298,0.18100162272393316,-0.30532616746114055,-0.25101510727186366,-0.36744248887092096,-0.03468520251690838
1765407679.59058,-8.979117083953003,0.14302547348337333,-0.285681652127075,-0.24196472329897514,-0.357808036464528,-0.03307342269140753
1765407679.59083,-9.028723640982381,0.10773918713320443,-0.2681743765072105,-0.23283358101452264,-0.348207176501306,-0.03146791909123155
1765407679.59108,-9.0734871433615,0.07533269516160915,-0.25311771365500835,-0.22365469471361996,-0.33867315247905444,-0.02987309716053475
1765407679.59133,-9.112595810232813,0.04589535133980534,-0.24062482521819523,-0.21445595057392478,-0.3292289006779242,-0.028295528435581717
1765407679.591569,-9.145417179800337,0.019441719009315985,-0.230603635054648,-0.2052601708958899,-0.3198871281370847,-0.026743556853337583
1765407679.591819,-9.171498542507234,-0.004061795123562852,-0.22276084101313,-0.19608570833878058,-0.31065080165899345,-0.025226554929909658
1765407679.592069,-9.1905667888211,-0.02467388413370539,-0.21661481381177183,-0.18694747751471033,-0.30151396375566053,-0.023753917359639224
1765407679.592319,-9.202527779035623,-0.0424626278369966,-0.21151595506522228,-0.17785829592595842,-0.2924627884512165,-0.022333946908855477
1765407679.592557,-9.207464842497865,-0.05749905045698812,-0.20667259179864578,-0.16883037747932475,-0.28347680149935445,-0.020972827032538336
1765407679.592807,-9.205635723161617,-0.06985946139934941,-0.2011810624972444,-0.15987679878305197,-0.27453022696430995,-0.0196738664152082
1765407679.593057,-9.197467317923456,-0.07963407916364652,-0.19405962891712858,-0.15101274888839986,-0.26559346278478124,-0.018437144425722238
1765407679.593307,-9.183547809911579,-0.08693846372486894,-0.18428645079249198,-0.14225639440797663,-0.2566347009599567,-0.017259607442952823
1765407679.593556,-9.164616037378496,-0.09192441282947887,-0.1708417684508076,-0.13362925115632723,-0.24762168936680493,-0.016135588037865217
1765407679.593806,-9.141547890461288,-0.09478785979065123,-0.15275389312670118,-0.12515603402855405,-0.23852360012434512,-0.015057654732356316
1765407679.594056,-9.115339086003802,-0.09577239941696515,-0.1291479493366778,-0.11686403113209096,-0.2293129354655164,-0.014017657803339679
1765407679.594306,-9.087083153997362,-0.09516791852420592,-0.09929553569113872,-0.10878209981638577,-0.21996737032817065,-0.01300782155309108
1765407679.594587,-9.057943493724085,-0.09330427515262768,-0.06266252546221628,-0.10093941411320233,-0.21047141501964445,-0.01202174344518687
1765407679.594837,-9.02911915756517,-0.09054021910107572,-0.01895162896514396,-0.0933641136217059,-0.20081779337754466,-0.01105518744216162
1765407679.595087,-9.001805140788472,-0.08724810860448322,0.031863259905580116,-0.08608200882375107,-0.1910084599787465,-0.010106592415457466
1765407679.595337,-8.977148918138566,-0.0837956671160344,0.08951283678828817,-0.0791154750372343,-0.18105520041413947,-0.009177249503532069
1765407679.595625,-8.95620580696241,-0.08052684027635455,0.15341959188379883,-0.07248261837740667,-0.1709797656705627,-0.008271136939516682
1765407679.595875,-8.939896503317817,-0.0777442307714334,0.22269802813067313,-0.06619674274709245,-0.16081350298205255,-0.007394442657291837
1765407679.596125,-8.928970454608567,-0.07569522945514895,0.2961696594916787,-0.060266107647057664,-0.15059648002491563,-0.00655484902837438
1765407679.596375,-8.923978276917808,-0.07456296461505459,0.37239376830733967,-0.05469394783809312,-0.14037615237319365,-0.005760685128555807
1765407679.59656,-8.925255354031766,-0.07446211461816447,0.44971328495092766,-0.0494787211766111,-0.13020566946678758,-0.00502005958152162
1765407679.59681,-8.932917390167471,-0.07543898415713836,0.5263133446404102,-0.044614551626842865,-0.12014193322087421,-0.0043400751390235545
1765407679.59706,-8.946867281755893,-0.07747509581742318,0.6002886316829114,-0.04009183339569708,-0.11024352112628617,-0.0037262055837573274
1765407679.59731,-8.966811611264779,-0.08049352477042214,0.6697151274870312,-0.035897956457011194,-0.10056857556059498,-0.0031818918442468183
1765407679.597635,-8.99228474972408,-0.08436694098248472,0.7327226907565959,-0.03201810827042628,-0.0911727471137773,-0.002708385004164342
1765407679.597835,-9.022678871284091,-0.08892593919193577,0.7875664343653409,-0.028436108578189002,-0.08210726377311105,-0.002304826272120546
1765407679.598035,-9.057278513044928,-0.09396625182919714,0.8326958218495972,-0.025135242325458697,-0.07341719113516411,-0.001968512957898575
1765407679.598235,-9.095298243486912,-0.09925415520222178,0.8668200380168432,-0.022099060004316298,-0.06513996261484503,-0.001695268434518583
1765407679.598435,-9.135921692545427,-0.10453050043598514,0.8889669323122356,-0.01931210898436754,-0.057304283650109734,-0.0014798255510934386
1765407679.598628,-9.178339966642959,-0.10951472312426086,0.8985316315077461,-0.016760548715452957,-0.04992952294599956,-0.0013161496388201994
1765407679.598878,-9.221787430663957,-0.11391048425062134,0.8953104567622775,-0.01443259890737786,-0.04302567695538927,-0.0011976618621607356
1765407679.599128,-9.265572999554404,-0.1174142326325267,0.8795164060201625,-0.012318782394090781,-0.036593932859930546,-0.0011173647149167838
1765407679.599378,-9.309105489624956,-0.11972721696324239,0.8517741829777684,-0.010411952766621393,-0.030627776708368734,-0.0010679061757817101
1765407679.599576,-9.351912178298623,-0.12057066927301302,0.813095115778847,-0.008707129440687281,-0.02511451836801564,-0.0010416352527085765
1765407679.599776,-9.393650286739184,-0.11970331074392249,0.764834555716722,-0.007201184540980314,-0.020037054457235182,-0.0010306946294965811
1765407679.599976,-9.43411140190185,-0.1169400681451732,0.708635797692801,-0.005892427174104909,-0.01537567723511884,-0.0010271748748060803
1765407679.600176,-9.473218869802903,-0.11217073404698766,0.6463649006757634,-0.0047801125940465,-0.011109759513970948,-0.0010233355724925243
1765407679.600376,-9.511018161639045,-0.10537694619210822,0.580040165998927,-0.0038638802203852236,-0.007219190008894294,-0.001011889929763126
1765407679.600632,-9.54766045851672,-0.09664525618304484,0.5117589881490624,-0.003143114740431044,-0.003685486071068375,-0.0009863438452950655
1765407679.600832,-9.583380292308911,-0.08617363284544019,0.44362389429366356,-0.002616237880835568,-0.0004925604430848924,-0.0009413658015675439
1765407679.601032,-9.618468712553408,-0.07426911017576865,0.37766913060211565,-0.0022799650357842875,0.002372844437697798,-0.0008731395397211256
1765407679.601232,-9.65324372703279,-0.06133560781271157,0.31578919243995884,-0.002128582170817164,0.004921024355091089,-0.0007796341049169428
1765407679.601432,-9.688019644060859,-0.047852639711210815,0.2596712219657787,-0.002153305815420039,0.007159454640210251,-0.0006607353165565942
1765407679.601558,-9.723076793885973,-0.03434683295511395,0.2107340779304644,-0.002341788407126779,0.009093181605634854,-0.0005182186366887873
1765407679.601758,-9.758633269661303,-0.021358614027648302,0.17007771000721325,-0.002677829698181399,0.01072543417230479,-0.0003555819082386947
1765407679.601958,-9.794820668411703,-0.009406586059325475,0.13844663825512582,-0.0031413499016260515,0.012058404288632234,-0.00017777457818116306
1765407679.602158,-9.831665806305235,0.0010474229712917628,0.1162104429912853,-0.003708664279982553,0.013094121794011421,9.141218547854982e-06
1765407679.602358,-9.869079784083995,0.009629168191500854,0.10336248797453608,-0.004353069792950022,0.013835339367223025,0.0001983650968316395
1765407679.60257,-9.906854960733057,0.016075498977594894,0.09953647027396803,-0.005045719077258591,0.014286348432427761,0.00038273157835855135
1765407679.60277,-9.94466979179754,0.020248825854820268,0.10403933925906576,-0.0057567266867331055,0.014453660992714754,0.00055504528560991
1765407679.60297,-9.982101038223602,0.022142473740478813,0.11589841069226817,-0.006456434581286613,0.014346509195548687,0.000708358424495466
1765407679.60317,-10.018642313327595,0.021877793031081092,0.13391976387173082,-0.007116756519548371,0.013977131207246085,0.000836198226639058
1765407679.60337,-10.05372741286829,0.019693923983384275,0.15675437558574676,-0.007712516832176519,0.013360829863995156,0.0009327708441189249
1765407679.603547,-10.086756639400836,0.01593080454252104,0.18296816014021597,-0.00822269449641795,0.012515813624838943,0.0009931675529414596
1765407679.603747,-10.117124436540195,0.01100599528054853,0.21111210029972952,-0.008631482269233152,0.011462857821945494,0.0010135839455683458
1765407679.603947,-10.144246943680157,0.005386351464899361,0.23978884590713728,-0.008929077537487097,0.010224849992984638,0.0009915447049625068
1765407679.604147,-10.167588390104035,-0.00044374430543904617,0.2677125085148753,-0.009112136730955052,0.008826295383934172,0.0009261137707223098
1765407679.604347,-10.186685396141776,-0.006015391805667768,0.29375880693927714,-0.00918384668567438,0.007292851406863154,0.000818063555165969
1765407679.604641,-10.201168200914978,-0.010907196282095556,0.31700314634052695,-0.009153592879786662,0.005650933418916464,0.0006699739674116117
1765407679.604841,-10.210777823306213,-0.014774345848097527,0.336744854940177,-0.009036233523241965,0.003927397725698888,0.0004862298564177962
1765407679.605041,-10.215378428485682,-0.017372972071420394,0.3525169204797372,-0.00885101691348601,0.002149278541933284,0.00027288694208486397
1765407679.605241,-10.21496462104281,-0.01857794355355102,0.364081994290154,-0.008620207192036876,0.00034354674000643587,3.738807541151381e-05
1765407679.605441,-10.209663750205076,-0.018392143570231872,0.37141670928027765,-0.008367511930190853,-0.001463135608203112,-0.00021186285420285057
1765407679.605537,-10.19973354390516,-0.016945623066898678,0.3746872480532731,-0.008116430316350546,-0.0032446851323763215,-0.0004660287134198829
1765407679.605737,-10.1855555642488,-0.014484016752995781,0.3742195369746951,-0.007888654879023923,-0.00497591164045243,-0.000716400422480678
1765407679.605937,-10.167624976565213,-0.011347024571320738,0.3704672453871213,-0.007702656060719011,-0.006632895667413632,-0.0009549156843334188
1765407679.606137,-10.146536797761705,-0.007939096576977965,0.3639798756061959,-0.0075725571797815305,-0.00819343968926385,-0.0011745759134571283
1765407679.606337,-10.122968380974612,-0.0046952863094759665,0.3553721264021783,-0.00750737353254381,-0.00963759061012955,-0.0013697342369275469
1765407679.606619,-10.097657871782388,-0.002045414566244524,0.3452950642339084,-0.00751065311775517,-0.010948212262996629,-0.0015362557047763343
1765407679.606869,-10.071378825266434,-0.00037944673103082715,0.3344094960071825,-0.007580524770156752,-0.012111562631057797,-0.0016715621512718372
1765407679.607119,-10.044911769443761,-1.672535941119262e-05,0.3233618392165218,-0.00771013265473497,-0.013117811702187301,-0.0017745731888704358
1765407679.607369,-10.019014012524858,-0.0011814887353879745,0.31276256512490935,-0.007888410087148459,-0.01396143319155075,-0.001845556769386604
1765407679.607571,-9.994389400715411,-0.003986599101525816,0.30316718842329937,-0.008101119692363639,-0.014641414900904752,-0.001885913812790875
1765407679.607771,-9.971659891654452,-0.008426390940374699,0.2950598121993759,-0.008332066415367566,-0.015161250306692216,-0.0018979315695050855
1765407679.607971,-9.951340555110926,-0.014378401398635861,0.2888391847696773,-0.008564380779077292,-0.015528696751699074,-0.0018845371072891129
1765407679.608171,-9.933819172220428,-0.02161305189084409,0.28480714323217343,-0.008781772156220898,-0.015755313796712033,-0.0018490661504151397
1765407679.608371,-9.919341375376353,-0.029810228093098724,0.28315947435160504,-0.008969661760109337,-0.01585582025692616,-0.0017950462272797096
1765407679.608572,-9.908002271867367,-0.03858171291155374,0.28397957856104616,-0.009116120501539754,-0.015847318227008522,-0.0017259887603817527
1765407679.608772,-9.899745424261768,-0.04749813780309048,0.2872355988875786,-0.009212557803537764,-0.015748427519699425,-0.0016451933573024386
1765407679.608972,-9.894369788704644,-0.056118565940456486,0.29278179915699576,-0.009254131341139558,-0.015578367957704745,-0.0015555793385838036
1765407679.609172,-9.891544811464652,-0.06402036384457449,0.30036500967027435,-0.00923986957771241,-0.015356029027781475,-0.0014595638528089806
1765407679.609372,-9.89083330730848,-0.07082694362492288,0.30963676237329363,-0.009172516897851701,-0.015099072588869862,-0.0013590014989401983
1765407679.60955,-9.89172090814569,-0.07623127256624943,0.3201711427178332,-0.009058126904418741,-0.014823118050978811,-0.0012551938169181006
1765407679.60975,-9.893650012855895,-0.08001354541110856,0.3314876012564108,-0.00890544440554773,-0.014541059367493739,-0.0011489720842789623
1765407679.60995,-9.896055710935684,-0.08205190363391993,0.3430773836871673,-0.008725129589325234,-0.014262558157324131,-0.0010408497742411841
1765407679.61015,-9.898401192412011,-0.08232556155437892,0.3544319081391605,-0.008528887344881293,-0.013993745375225316,-0.0009312276763379809
1765407679.61035,-9.900210418266056,-0.08091029202508293,0.3650711456246886,-0.008328570506058813,-0.013737149040606557,-0.0008206186886386259
1765407679.610561,-9.901096105009321,-0.07796696438744306,0.3745698690476846,-0.008135327528943798,-0.013491853735992761,-0.0007098498301888698
1765407679.610761,-9.900781393551433,-0.07372453786634234,0.38257971867897694,-0.007958860660149713,-0.013253886813410653,-0.000600201863301884
1765407679.610961,-9.89911392569601,-0.06845937244582655,0.38884537218262,-0.007806849104057637,-0.013016809716588912,-0.000493460440988733
1765407679.611161,-9.896071423921207,-0.062472850931414484,0.3932136203097991,-0.007684575475962314,-0.012772471697794087,-0.0003918713894763958
1765407679.611361,-9.89175840519545,-0.05606918831883859,0.3956349303084078,-0.007594775564259194,-0.012511866055560532,-0.0002980109427399424
1765407679.611588,-9.886394450462603,-0.0495350708248097,0.396158077121636,-0.007537711467917082,-0.012226020095494948,-0.00021459504786880467
1765407679.611788,-9.880295255588175,-0.04312252956264391,0.39491920136484887,-0.007511446948481442,-0.011906847045120572,-0.00014425856475578925
1765407679.611988,-9.873848197582934,-0.037036228960552864,0.3921268876038533,-0.007512284193469647,-0.011547890881307563,-8.933669777385382e-05
1765407679.612188,-9.86748437197289,-0.03142601805754216,0.3880447318224534,-0.007535307031307622,-0.011144906369770415,-5.1679105672575905e-05
1765407679.612388,-9.86164914015482,-0.02638504070486197,0.38297268720682903,-0.00757496912123624,-0.010696235601506107,-3.252123810673804e-05
1765407679.612581,-9.85677313965605,-0.021953029177280568,0.3772282806111799,-0.007625666653798329,-0.010202964925361437,-3.242582144365759e-05
1765407679.612781,-9.853245435690102,-0.01812386624616842,0.3711285871861952,-0.007682242705222145,-0.009668871111270199,-5.1291295277242755e-05
1765407679.612981,-9.851390222406033,-0.014856212275345969,0.364973770083128,-0.00774038299460577,-0.009100190917416848,-8.840911308921388e-05
1765407679.613181,-9.851448309624647,-0.012085872374856312,0.3590329879702351,-0.007796877688643335,-0.008505266795819663,-0.00014254477327501312
1765407679.613381,-9.85356433497044,-0.00973854853253537,0.35353329787818555,-0.007849738608701733,-0.007894126893202139,-0.0002120203536013505
1765407679.613594,-9.857780080273574,-0.007741718089697039,0.3486518209712017,-0.007898174401427737,-0.007278050714043878,-0.00029478543182162185
1765407679.613794,-9.864033669451798,-0.006034622078866476,0.34451115087821294,-0.007942437176987328,-0.006669157309099666,-0.00038847304259255906
1765407679.613994,-9.872164044433651,-0.004575666326175633,0.3411778599185357,-0.007983563121984817,-0.006080033731071009,-0.0004904448413313474
1765407679.614194,-9.88191997142089,-0.0033468537447907424,0.338663886748131,-0.008023038444066708,-0.005523400975319642,-0.0005978346083718816
1765407679.614394,-9.89297286232253,-0.00235512898129089,0.3369305776083214,-0.008062431176976415,-0.005011797524028564,-0.000707601142045431
1765407679.614557,-9.90493286112575,-0.0016307033658796125,0.3358952341244321,-0.008103035529226338,-0.004557250865906385,-0.0008165991865896186
1765407679.614757,-9.917367762296385,-0.0012225738586268205,0.33543999507504946,-0.008145574083270806,-0.004170907647087186,-0.0009216706484955066
1765407679.614957,-9.929824181915846,-0.001191638244888384,0.3354225909258872,-0.00818999366754298,-0.0038626064261390283,-0.0010197511147244885
1765407679.615157,-9.941850027097097,-0.0016020597623292248,0.33568815788266637,-0.00823537722105436,-0.0036404020887367636,-0.001107982246975352
1765407679.615357,-9.953016948927107,-0.002511755895744927,0.33608116008190536,-0.008279980654576686,-0.0035100772369162396,-0.001183820420132096
1765407679.615571,-9.962941316791596,-0.0039629928454936545,0.3364565718514007,-0.008321391559234453,-0.0034746912399383216,-0.0012451348832119517
1765407679.615771,-9.971302412365091,-0.005974069149545955,0.3366897367511225,-0.008356794694418645,-0.003534220251139196,-0.0012902921853508913
1765407679.615971,-9.977856987299134,-0.00853300512805467,0.33668466993309354,-0.008383316752146371,-0.0036853364171730778,-0.0013182251838078707
1765407679.616171,-9.98244980268975,-0.011594008610289032,0.3363807703666912,-0.008398410340887024,-0.003921362970386607,-0.0013284839405367781
1765407679.616371,-9.985019934594899,-0.01507723863414662,0.33575771264670423,-0.008400227454005914,-0.00423242285664336,-0.0013212635771893673
1765407679.616576,-9.985602500078702,-0.018872041145768414,0.3348378765181412,-0.00838793069133758,-0.004605777566426663,-0.0012974030045868744
1765407679.616776,-9.984325412608142,-0.022843412974029063,0.33368555322532245,-0.008361898277540145,-0.005026338820492097,-0.0012583503761332076
1765407679.616976,-9.981401052648318,-0.026841031620284624,0.332402526730663,-0.008323793797232021,-0.0054773289992347506,-0.0012060963517427955
1765407679.617176,-9.977113188807083,-0.030709871382855716,0.3311201611222037,-0.008276489396000616,-0.005941059151762518,-0.0011430820542535872
1765407679.617376,-9.971799901742997,-0.03430127292615883,0.32998855669791194,-0.008223849222510175,-0.006399783166592741,-0.0010720908433214692
1765407679.617561,-9.965833619633706,-0.037483330534130145,0.3291636698653137,-0.008170396240933709,-0.0068365770576721595,-0.0009961303337921203
1765407679.617761,-9.959599621117851,-0.04014958646513864,0.32879351290839154,-0.008120898380139295,-0.007236186060311139,-0.0009183067566683877
1765407679.617961,-9.953474367014573,-0.04222527367466408,0.3290045516478455,-0.008079917798922157,-0.007585780845711016,-0.0008416925958135028
1765407679.618161,-9.947804830688181,-0.0436706839449505,0.3298892836080144,-0.00805136929715284,-0.00787557059402799,-0.0007691914851518839
1765407679.618361,-9.942889832609346,-0.04448156801086794,0.3314959187472575,-0.008038131445918806,-0.008099233725979014,-0.0007034079804914309
1765407679.618613,-9.938964327425769,-0.044686750284379496,0.3338210905862278,-0.008041748469646842,-0.008254140026312426,-0.0006465304180318324
1765407679.618813,-9.936187524204977,-0.04434337378235048,0.33680641021130653,-0.008062252983795445,-0.008341348404498955,-0.0006002333281080002
1765407679.619013,-9.934635560306049,-0.04353036385596882,0.34033937610208637,-0.008098128759206043,-0.008365378111144755,-0.0005656049100716333
1765407679.619213,-9.934299185958029,-0.04234077059599548,0.3442587356916584,-0.008146418828657253,-0.008333770085816167,-0.0005431055616327608
1765407679.619413,-9.935086524801418,-0.040873647385586985,0.34836392791525755,-0.008202969661471899,-0.008256472663940976,-0.000532563061769291
1765407679.619533,-9.93683051302595,-0.039226117010860144,0.3524278264578122,-0.008262789481479065,-0.008145096418200305,-0.000533207120208672
1765407679.619733,-9.939300267637138,-0.0374862549660236,0.35621176477323285,-0.008320488861024903,-0.008012088466532038,-0.0005437413666179118
1765407679.619933,-9.942215483156643,-0.035727323443122225,0.35948173766966185,-0.008370764156289522,-0.007869880393958278,-0.000562446001166301
1765407679.620133,-9.945262909298844,-0.03400375418374381,0.36202465728802036,-0.008408880218800133,-0.0077300649715911105,-0.0005873006419258722
1765407679.620333,-9.948113928667162,-0.032349179721608425,0.36366359090422706,-0.008431109358516528,-0.00760265293192262,-0.0006161153225562461
1765407679.620533,-9.95044224237283,-0.030776704901521332,0.3642710081294456,-0.00843508743163301,-0.007495451495214695,-0.000646657972708025
1765407679.620733,-9.95194068148611,-0.02928139154513577,0.3637791148246404,-0.008420053687561766,-0.007413591960101652,-0.0006767685447521193
1765407679.620933,-9.952336195070725,-0.02784463252872345,0.36218637651781216,-0.008386950184748219,-0.007359218600958928,-0.000704453808518491
1765407679.621133,-9.951402231042348,-0.026439856030014204,0.3595595578188518,-0.008338370525047538,-0.00733134153654575,-0.0007279631253081921
1765407679.621333,-9.948968111022767,-0.02503888557148076,0.35603109720625714,-0.008278363470962913,-0.007325853529796663,-0.0007458517973625525
1765407679.621546,-9.944925470344964,-0.023618249044669,0.35179213266842363,-0.008212110598173086,-0.007335709870807137,-0.0007570406582072638
1765407679.621796,-9.939232160539554,-0.02216476501460125,0.34708175722542806,-0.008145507919079848,-0.007351267732777972,-0.0007608766270780074
1765407679.622046,-9.931914113957053,-0.020679848561839517,0.34217320025049763,-0.008084690599176781,-0.00736077719431418,-0.0007571909375808739
1765407679.622296,-9.923065571405512,-0.019182127481483725,0.33735772758267785,-0.008035546169974676,-0.007351010145350425,-0.0007463432514363196
1765407679.622594,-9.9128477774441,-0.017708085006733945,0.3329270573358905,-0.008003262010064746,-0.007308003763871914,-0.0007292348435905392
1765407679.622761,-9.901485877439345,-0.016310572806744916,0.329155033059854,-0.007991946261501074,-0.007217884898044487,-0.0007072759425574145
1765407679.622927,-9.88926361023185,-0.015055221452164636,0.32627949064246203,-0.008004349230552984,-0.007067736140803772,-0.0006823016355608281
1765407679.623094,-9.876515603151546,-0.014014990206547536,0.3244857755688929,-0.008041697403526253,-0.006846463432876508,-0.0006564437422936245
1765407679.623261,-9.863617321331168,-0.013263286129464045,0.3238937128137036,-0.008103638526495566,-0.006545622525814565,-0.000631976568486533
1765407679.623427,-9.850972627447247,-0.01286623983257519,0.32454948148125107,-0.00818828797498742,-0.006160154500462269,-0.0006111575923706938
1765407679.623642,-9.83899856168933,-0.012874853626971113,0.32642290296870236,-0.00829236428225572,-0.005688971989062944,-0.000596079615092526
1765407679.623842,-9.828106785272967,-0.01331778204860903,0.32940964597053646,-0.008411400910554055,-0.005135332724623607,-0.0005885432029131592
1765407679.624042,-9.81868143985078,-0.014195422862304092,0.3333371920329104,-0.008540018880054016,-0.004506940450085244,-0.0005899525238911264
1765407679.624242,-9.811054026399795,-0.015475833693130304,0.33797329141848337,-0.008672242594037516,-0.0038157298486026364,-0.000601235214448116
1765407679.624442,-9.805477286403805,-0.01709282897030422,0.34303616835345374,-0.008801842025752427,-0.003077320829279771,-0.0006227849986013952
1765407679.624625,-9.802101708295929,-0.01894654793760042,0.3482067149927083,-0.008922687236970034,-0.002310159093176745,-0.0006544218139578336
1765407679.624875,-9.800959412786511,-0.020906940383513636,0.3531437699397627,-0.009029102505920143,-0.0015343883304125645,-0.000695360374533786
1765407679.625125,-9.801959810001781,-0.022820924099815305,0.3575035894102358,-0.009116205573683853,-0.000770529058936257,-0.0007441824984490315
1765407679.625375,-9.80489912948384,-0.024523888739286532,0.3609632483562025,-0.00918021333328752,-3.807491612099302e-05,-0.0007988265275152694
1765407679.625599,-9.809482423482628,-0.02585518744838585,0.36324530149494594,-0.009218689622347134,0.0006458483100126644,-0.0008566278543046377
1765407679.625799,-9.815353660447608,-0.026675579044682908,0.3641393613280316,-0.009230706165064252,0.0012676032077065067,-0.0009144449105987376
1765407679.625999,-9.82212853778527,-0.026883394152031195,0.36351707293030805,-0.009216891079481586,0.0018178138380029586,-0.0009688761261184636
1765407679.626199,-9.829425527958982,-0.02642638410249134,0.3613395806464727,-0.00917935658258935,0.0022917349394617034,-0.0010165338946681915
1765407679.626399,-9.836892029447185,-0.025307706045626408,0.35765828837113894,-0.009121521621687534,0.0026892325481045693,-0.001054318974722268
1765407679.626595,-9.844223477368823,-0.023586334720538085,0.35260934055624055,-0.009047857994429661,0.003014424866089215,-0.0010796470890867243
1765407679.626795,-9.85117436091356,-0.021373032718032026,0.3464016077076121,-0.00896358126028593,0.0032750338252507255,-0.0010906116954643044
1765407679.626995,-9.857561770539036,-0.01882236245209013,0.3392989487284482,-0.00887429463974576,0.0034815073183566514,-0.0010860964596196225
1765407679.627195,-9.863263682046686,-0.016120304459857192,0.3315993979791024,-0.008785596887836984,0.003646001748773367,-0.001065850956402907
1765407679.627395,-9.86821465639754,-0.013467558379568019,0.3236146298450508,-0.008702684717917915,0.0037813329620858135,-0.0010305180751866627
1765407679.627588,-9.872400881509227,-0.011060482531438324,0.3156520420672246,-0.00862999485610455,0.003899989287121697,-0.0009815886241001759
1765407679.627788,-9.87585526433995,-0.0090729735837619,0.30800027302243865,-0.008570924360347768,0.0040132731399724324,-0.0009212816962506393
1765407679.627988,-9.878652374663442,-0.007642020444202285,0.3009180256169928,-0.008527648331719402,0.004130620605523818,-0.0008523850053989195
1765407679.628188,-9.880902716652924,-0.00685789970896587,0.2946257461448078,-0.008501037982081903,0.004259136000996391,-0.0007780955805767567
1765407679.628388,-9.882745897933795,-0.006758734204628835,0.28929961693579154,-0.008490674866817493,0.004403358126366026,-0.0007018711990197776
1765407679.628592,-9.88434252429179,-0.0073291594874997255,0.2850673645739806,-0.008494954578058177,0.0045652497742771515,-0.0006272720456007698
1765407679.628792,-9.88586495328489,-0.008503367464799228,0.28200561641340255,-0.008511269742627014,0.004744379758104467,-0.0005577736014031386
1765407679.628992,-9.887487369562205,-0.010172662746072206,0.2801388696287656,-0.008536255321817829,0.004938248867606009,-0.0004965608298722176
1765407679.629192,-9.889375951423082,-0.012196687847633204,0.2794404273004967,-0.00856607184109847,0.005142700137902349,-0.0004463379275503719
1765407679.629392,-9.89168007952259,-0.014416548768682624,0.2798358184410029,-0.008596700886042126,0.005352355093188309,-0.00040918469020614256
1765407679.629603,-9.894525483797134,-0.016668063884916685,0.2812091216854366,-0.008624234210564635,0.005561031273498987,-0.0003864678372440766
1765407679.629803,-9.898009917927578,-0.018794147964180438,0.2834121868656494,-0.008645146729363085,0.005762114409949392,-0.00037879803139802124
1765407679.630003,-9.902201525537913,-0.02065607823843674,0.28627622122184215,-0.008656546443742004,0.005948873493195816,-0.00038602443023345883
1765407679.630203,-9.907139653204657,-0.02214341964169311,0.2896248598763423,-0.008656389802929241,0.006114717150416277,-0.000407270156845257
1765407679.630403,-9.912837469406464,-0.023181839973267136,0.2932876172540809,-0.008643645409618225,0.006253395770707122,-0.0004410167049561627
1765407679.630611,-9.919285382620197,-0.023737640821675645,0.29711232476152943,-0.008618389270783604,0.006359154576247572,-0.0004852343491342364
1765407679.630811,-9.926454107500925,-0.02381819129664544,0.30097491113972924,-0.008581821060015848,0.006426839202641955,-0.0005375360774097336
1765407679.631011,-9.934296466359656,-0.02346850424279584,0.30478500011898924,-0.008536197266477656,0.006451953263535919,-0.0005953215523454431
1765407679.631211,-9.942747537628916,-0.02276517112496533,0.3084864211112759,-0.008484680557025443,0.00643067185518595,-0.0006558883714653032
1765407679.631411,-9.951723356002043,-0.021809011892733595,0.3120526839911189,-0.008431107941870861,0.006359823699769707,-0.0007165153083670248
1765407679.631646,-9.961118876211923,-0.020717114745814356,0.3154784377934388,-0.008379686272456997,0.006236862332775016,-0.0007745435610157105
1765407679.631846,-9.970806193549862,-0.01961423484294684,0.3187686109600248,-0.00833463215872963,0.006059851421784051,-0.0008274783349491759
1765407679.632046,-9.980633964191387,-0.018623526234593017,0.3219271825623768,-0.008299784087168648,0.0058274889994183645,-0.0008731099719855828
1765407679.632246,-9.990428689217445,-0.017857193484828008,0.32494742551415345,-0.00827822524663225,0.005539185478890855,-0.0009096353395474651
1765407679.632446,-9.99999824396743,-0.017408128974794525,0.3278050973305209,-0.008271960055202678,0.005195191192550541,-0.0009357613212051971
1765407679.632616,-10.009137810732433,-0.017343478303232684,0.3304554896790512,-0.008281681154056359,0.004796750330484733,-0.0009507845887391521
1765407679.632816,-10.017638098192373,-0.01770059009433887,0.33283459068045695,-0.008306650977888538,0.004346248536645741,-0.0009546482235123767
1765407679.633016,-10.025295357336413,-0.018485426595629868,0.33486398836943115,-0.008344710497291753,0.003847322181086425,-0.000947971380038124
1765407679.633216,-10.031922316948952,-0.01967334213911123,0.3364586041755036,-0.008392418707639656,0.003304906377290044,-0.0009320415717846505
1765407679.633416,-10.037358913781432,-0.021212000611421592,0.33753599891690933,-0.008445316774468746,0.0027252130610194597,-0.0009087577597548418
1765407679.633608,-10.041481737897458,-0.023026046219541373,0.33802601295562207,-0.008498300079258655,0.002115642280194362,-0.0008805161902643156
1765407679.633808,-10.044211440290615,-0.025023070468751994,0.3378797810697876,-0.008546071468390167,0.0014846320526038083,-0.0008500384030905961
1765407679.634008,-10.045517668702685,-0.027100460202823994,0.3370772898996484,-0.008583638561702519,0.000841446515016132,-0.0008201522981446675
1765407679.634208,-10.045421161400446,-0.029152749087939085,0.33563251011599027,-0.008606805166003,0.00019589648861472234,-0.0007935505008207851
1765407679.634408,-10.043992598351187,-0.031079003438714378,0.3335951643006841,-0.008612596061288712,-0.000442012383989653,-0.0007725597811326325
1765407679.634565,-10.04134799929598,-0.032789574912994855,0.331048688291645,-0.00859955494092715,-0.001062497638174174,-0.0007589555913684494
1765407679.634765,-10.037640868246672,-0.03421145877830536,0.3281046463345584,-0.008567871487041422,-0.001656458726354321,-0.0007538451223510601
1765407679.634965,-10.03305171285024,-0.03529172383001066,0.3248944415169476,-0.008519320447245335,-0.002215933693908111,-0.000757624386312839
1765407679.635165,-10.027775961392182,-0.03599896757884227,0.3215596240835234,-0.008457024427876816,-0.0027345048580673494,-0.000769999230929462
1765407679.635365,-10.022011628435482,-0.03632317258161221,0.3182423768989646,-0.008385076975824865,-0.003207609797716659,-0.0007900553998406093
1765407679.635562,-10.015948118825438,-0.0362744443935756,0.3150775339117225,-0.00830808032656941,-0.003632723141963817,-0.0008163668033320519
1765407679.635895,-10.009757170769534,-0.03588093608544274,0.3121867454253393,-0.008230660135872089,-0.004009382475727222,-0.0008471337583055873
1765407679.636229,-10.00358634577084,-0.03518604313313772,0.3096746445621791,-0.008157015532263825,-0.004339040541483415,-0.0008803384211133574
1765407679.636573,-9.99755500638687,-0.034244923161333145,0.3076265290276287,-0.008090549019088776,-0.00462474245096978,-0.0009138977910133917
1765407679.638563,-9.991752501694993,-0.03312061876365689,0.3061071164655407,-0.00803360359987402,-0.004870653592305552,-0.0009457938840138389
1765407679.641616,-9.986238264317011,-0.03188032779761111,0.3051601169537136,-0.007987319776302093,-0.0050814945478646345,-0.0009741692727814618
1765407679.64361,-9.981043602797325,-0.030592356614828675,0.30480852405863523,-0.007951614143200598,-0.005261959537578441,-0.0009973902159401494
1765407679.646601,-9.976174963632172,-0.029323917468806377,0.3050555457126482,-0.007925273086979837,-0.005416194370722709,-0.0010140913052047592
1765407679.648626,-9.971618235004971,-0.02813944927457529,0.3058859465795473,-0.007906148393697701,-0.005547392370675629,-0.0010232184595499248
1765407679.651601,-9.967343435276321,-0.0270989375476307,0.3072674319919059,-0.00789143488433529,-0.0056575451094477295,-0.0010240793037716001
1765407679.653594,-9.96330915300839,-0.026255968285707622,0.3091518514269522,-0.007878002413598458,-0.00574736604222634,-0.0010163957012219713
1765407679.655635,-9.959466427423559,-0.025655761544438955,0.31147643270608716,-0.007862746859540942,-0.005816386554147018,-0.0010003420058448402
1765407679.658575,-9.955762122720504,-0.025333738590175407,0.3141655668501124,-0.007842920281142666,-0.005863203445969418,-0.0009765526078409022
1765407679.661562,-9.952141993975701,-0.025315016141595363,0.31713352580046567,-0.00781640216636607,-0.005885839058319857,-0.0009460919445326442
1765407679.66356,-9.948553563284209,-0.02561476224461431,0.3202881120358007,-0.007781882478732001,-0.005882165407609289,-0.000910389629077296
1765407679.666578,-9.944948803059381,-0.026238969868177617,0.32353500423445847,-0.007738941495294968,-0.005850341806737305,-0.0008711457704807953
1765407679.669572,-9.941286578488791,-0.02718515024519357,0.32678252593832585,-0.007688028116556253,-0.005789217822848123,-0.0008302087901962671
1765407679.671552,-9.937534826582436,-0.0284427118061323,0.3299465387319679,-0.007630353841308569,-0.00569865792386989,-0.0007894267469327547
1765407679.673657,-9.933672516391846,-0.0299931501436754,0.3329551205380679,-0.007567730312540458,-0.005579751380603392,-0.0007504778594851133
1765407679.678864,-9.929691501172424,-0.03181033653885369,0.3357526996098148,-0.00750238099717689,-0.005434881914058011,-0.0007146953689224287
1765407679.679364,-9.925598332333077,-0.03386106023741721,0.33830330868438363,-0.007436751685266663,-0.005267646349037058,-0.0006829102700537
1765407679.679636,-9.921415915010913,-0.03610574996559219,0.3405925673241801,-0.00737333444418481,-0.005082629598198644,-0.000655336713899637
1765407679.684546,-9.917184684710413,-0.038499222291259724,0.3426280413113512,-0.007314511083347306,-0.004885061715737619,-0.0006315173241060449
1765407679.686538,-9.912962897227546,-0.04099143526722756,0.3444378112838788,-0.007262416522278877,-0.004680396475214584,-0.0006103334086970896
1765407679.68854,-9.908825592575575,-0.04352844509383264,0.3460672191981105,-0.00721881819934724,-0.004473858124532938,-0.0005900755325602572
1765407679.689547,-9.904861790731788,-0.046053893912840496,0.34757377738229156,-0.0071850052604096005,-0.004270005709490489,-0.0005685678457950428
1765407679.693546,-9.901169640340607,-0.048511261094288445,0.3490203080660541,-0.0071616826919096935,-0.004072362036074062,-0.0005433421003915516
1765407679.696547,-9.897849624952922,-0.05084678877770429,0.3504666556419249,-0.0071488707086743266,-0.003883144397511995,-0.0005118571951703663
1765407679.698554,-9.894996384420706,-0.05301260792099859,0.3519606897906807,-0.007145816965023469,-0.0037031196151899844,-0.00047175317465889184
1765407679.701608,-9.89269008658519,-0.0549693707738623,0.35352966525534424,-0.007150937427681653,-0.0035315927724437327,-0.0004211164104587688
1765407679.703585,-9.890988523239079,-0.05668779344249187,0.3551732049347023,-0.00716180850621427,-0.0033665273685603817,-0.00035872093642421165
1765407679.7066,-9.88992111615217,-0.058148899693127046,0.3568590926362691,-0.007175233109355775,-0.003204780690523312,-0.0002842073499451751
1765407679.708549,-9.88948574537504,-0.05934320615069674,0.35852268286654665,-0.007187393187071718,-0.003042423368839841,-0.00019817041465293052
1765407679.711584,-9.88964883178245,-0.06026932532758234,0.3600701879662997,-0.0071940834249942165,-0.0028751026985879826,-0.00010214630107983082
1765407679.712602,-9.890348556974125,-0.0609323930035398,0.36138550082155085,-0.0071910023348062315,-0.002698408726379989,1.490317522788833e-06
1765407679.716616,-9.891500605485474,-0.061342505035083074,0.3623396416870008,-0.007174065861926175,-0.002508208101688271,0.00010969964555381645
1765407679.718575,-9.893005503283199,-0.06151321699754712,0.362801545505142,-0.007139707979321825,-0.0023009192405526076,0.00021900147574869204
1765407679.721593,-9.894756599963916,-0.061460225507774933,0.36264885344178766,-0.007085138681078109,-0.002073710648599006,0.00032573470127409163
1765407679.723598,-9.896647925930704,-0.061200504089816414,0.36177756562773467,-0.007008536217164124,-0.0018246124147121825,0.00042633239849220383
1765407679.726597,-9.898581372975546,-0.0607521828295382,0.3601097211827394,-0.006909155584423566,-0.0015525418347528774,0.0005175856079486989
1765407679.728534,-9.90047281639705,-0.06013519545344589,0.3575986717732704,-0.006787341712468038,-0.0012572579793225106,0.0005968640133809453
1765407679.729538,-9.902256940726966,-0.059372275291161514,0.3542319682327193,-0.006644445728940852,-0.0009392701132105498,0.0006622667629583458
1765407679.73358,-9.903890653195726,-0.05848958325998455,0.35003223285666574,-0.006482656066892629,-0.0005997251550723612,0.0007126918206607219
1765407679.736531,-9.90535506692919,-0.057516365125821214,0.3450565296636238,-0.006304770501226222,-0.00024029293838840764,0.0007478307729094962
1765407679.737601,-9.906656124766586,-0.05648352825855338,0.33939468655050914,-0.006113945484154409,0.00013693777781391506,0.0007681091679152848
1765407679.741563,-9.907823978702298,-0.055421587078093984,0.3331668194412933,-0.00591345987492973,0.0005295423533332193,0.0007745944964649233
1765407679.742063,-9.908911212718817,-0.05435870468773268,0.3265200784912349,-0.005706520280860668,0.0009348132408452403,0.0007688855804953658
1765407679.744569,-9.909989994645612,-0.053319399621991344,0.31962458258729765,-0.005496120514505221,0.0013497744473510193,0.0007529851722384693
1765407679.748566,-9.911148344200091,-0.05232399788688829,0.31266866282744427,-0.005284956044520766,0.0017711521729569931,0.0007291509246712572
1765407679.751539,-9.912485802684477,-0.051388407500977,0.30585366473559733,-0.0050753893182256945,0.002195304779125844,0.0006997246445383987
1765407679.752571,-9.914108752938311,-0.050523633681566316,0.2993884918345948,-0.004869460875519962,0.00261812600580327,0.0006669539293102742
1765407679.756553,-9.916125499075731,-0.04973477216518929,0.2934838803518656,-0.004668938960936735,0.003034941780113753,0.0006328335499313631
1765407679.758576,-9.918641066098878,-0.04901977096366935,0.2883461751611901,-0.004475394404124227,0.0034404208965551847,0.0005989954742287019
1765407679.761591,-9.921751569687672,-0.04836860043574461,0.2841701919001726,-0.004290280563887334,0.003828515464882187,0.000566664138013285
1765407679.763618,-9.92553803816229,-0.04776336970274825,0.28113077350162524,-0.004114994690531037,0.004192440565360533,0.0005366748166123257
1765407679.766598,-9.930059831016836,-0.04717949256867781,0.27937301796088526,-0.003950900336222105,0.004524698388740503,0.0005095377918093815
1765407679.768574,-9.935348134929361,-0.04658758221006169,0.27900167577474916,-0.0037993017091622573,0.004817156188892419,0.00048552536002421606
1765407679.771575,-9.941400141512801,-0.04595564320938144,0.2800705708327751,-0.0036613776201322485,0.005061198060744439,0.00046476196821247716
1765407679.772075,-9.94817440409515,-0.04525137375746745,0.2825730796841152,-0.0035380971268240465,0.005247976476696405,0.0004473047686936311
1765407679.776595,-9.955587773533157,-0.04444472356085628,0.2864348870397334,-0.0034301427140100214,0.00536878151612831,0.00043320701974774653
1765407679.778575,-9.96351430509842,-0.04351091642940956,0.29151033703786927,-0.003337858041314069,0.0054155266543548545,0.00042255783074953427
1765407679.781555,-9.971786475824727,-0.04243382051815359,0.29758351230461993,-0.003261222388336784,0.005381328477695844,0.00041549193450964554
1765407679.783599,-9.980198949164016,-0.041209066998886365,0.30437478858711936,-0.0031998423883517375,0.005261137927557177,0.0004121678339486939
1765407679.786557,-9.98851508636618,-0.03984607610857316,0.3115532275468964,-0.003152949104081668,0.005052364354115048,0.0004127225363459667
1765407679.788538,-9.996476342710372,-0.03836839303065805,0.3187546612591345,-0.0031193938072399618,0.004755425508222421,0.000417220338279156
1765407679.791637,-10.003814402150498,-0.03681234377186732,0.3256045060675636,-0.0030976430550416815,0.004374158672863991,0.00042561534876587296
1765407679.793595,-10.010265462000614,-0.03522457914989252,0.3317434403288481,-0.003085776833563401,0.003916034712756177,0.0004377407589283814
1765407679.796651,-10.015585735116165,-0.033659222185304635,0.3368535096240826,-0.0030814919055658866,0.0033921239955311266,0.00045332489156101177
1765407679.798578,-10.019567071516175,-0.03217504389987377,0.3406821352359271,-0.003082111994433038,0.002816777390574177,0.0004720212071859991
1765407679.79958,-10.022051519445537,-0.0308326325531048,0.3430617554928184,-0.0030846124583821704,0.002207014528451495,0.0004934347688340343
1765407679.80456,-10.022943607011012,-0.029691238436473248,0.34392323485374876,-0.0030856757480977595,0.0015816511935972742,0.0005171343155096597
1765407679.806574,-10.022219178028418,-0.028805099599050202,0.34330166452320326,-0.0030817952066580665,0.0009602352297856238,0.0005426516255439307
1765407679.80858,-10.019929822902002,-0.028219532689263586,0.341333860232724,-0.003069434284396916,0.00036188562636339745,0.0005694794641592715
1765407679.811543,-10.016202337162962,-0.027967551110145,0.3382478183108358,-0.0030452313182976094,-0.00019585977872342135,0.0005970805919288071
1765407679.813518,-10.011233126525983,-0.028067836526588643,0.3343453572665313,-0.0030062256534137896,-0.0006980841382077056,0.0006249126930144656
1765407679.816575,-10.005277878901994,-0.02852442694123943,0.32997972093718686,-0.002950075103117614,-0.0011333269213839338,0.0006524629304607277
1765407679.818563,-9.998637093209204,-0.02932779752250241,0.32553000937484783,-0.0028752379326911063,-0.0014941439884610993,0.0006792803129122778
1765407679.819587,-9.991638310061397,-0.03045657103361701,0.32137427897878634,-0.0027811006446333384,-0.0017773511540317333,0.0007049990495349251
1765407679.82358,-9.98461615424187,-0.031879171723927756,0.31786316041058177,-0.0026680414994274177,-0.001983942727287197,0.0007293557860136105
1765407679.82661,-9.977891441819265,-0.03355520848515862,0.31529569864879164,-0.002537427162875593,-0.0021187057265049775,0.0007522074099686734
1765407679.828569,-9.971750607825934,-0.03543684092550462,0.313898804318052,-0.002391546091232929,-0.0021895723231593403,0.0007735497360102261
1765407679.831604,-9.966426727556788,-0.03747047674351952,0.3138114839095557,-0.0022334872234373543,-0.002206768533374114,0.0007935263571365283
1765407679.833642,-9.96208347627592,-0.03959883114141639,0.31507495980333267,-0.002066976109972566,-0.002181829369426239,0.0008124111030682981
1765407679.836521,-9.958803355220498,-0.04176298650482322,0.3176296364793888,-0.0018961825571556722,-0.0021265619017893597,0.0008305535775765086
1765407679.838545,-9.956581349700132,-0.04390402635950151,0.3213194663196881,-0.0017255132520944392,-0.0020520464512957057,0.000848293849969161
1765407679.83952,-9.95532495550925,-0.045964162251950415,0.3259037552309105,-0.0015593989563637924,-0.001967765270636433,0.0008658699334276415
1765407679.843537,-9.954861176955884,-0.04788773060150932,0.3310759233485257,-0.0014020804674382908,-0.0018809312668339477,0.0008833478047952572
1765407679.84457,-9.954950548338749,-0.04962262269405775,0.33648814096501123,-0.001257393898974722,-0.0017960620473856362,0.0009005924762192471
1765407679.848528,-9.955307533820738,-0.051122443675885386,0.3417801051351379,-0.0011285557539251578,-0.001714820696614358,0.0009172767225954818
1765407679.851537,-9.955625968383158,-0.05234912802737296,0.3466095856785169,-0.0010179520959510216,-0.001636128473745973,0.0009329073349943687
1765407679.852037,-9.955607470912224,-0.053275284432347955,0.3506817678618283,-0.0009269436666857689,-0.0015565359357539443,0.0009468496985905036
1765407679.856556,-9.95498999287293,-0.05388557684869009,0.35377402613820474,-0.0008557078460031068,-0.0014708107159319196,0.0009583480611870413
1765407679.85865,-9.953573263065431,-0.05417696794110408,0.35575302878755394,-0.000803143703221826,-0.0013726700774662828,0.0009665562952696213
1765407679.861536,-9.951238280960549,-0.05415826569244928,0.3565822251239266,-0.0007668630619322454,-0.001255566945040779,0.0009705981418333655
1765407679.864634,-9.947959029564176,-0.053849672161433146,0.3563193842914052,-0.0007432789087421538,-0.001113435188141516,0.0009696642474710701
1765407679.866628,-9.943805629241748,-0.05328274053618872,0.355105273636535,-0.0007277888050024575,-0.0009413141302649678,0.0009631345018377775
1765407679.868585,-9.938938935297402,-0.05250048758347398,0.3531454902422248,-0.0007150408006391709,-0.0007358006849658346,0.00095070105814789
1765407679.871579,-9.933597205835566,-0.05155686143781846,0.3506878952686415,-0.0006992626754844435,-0.0004953104492932477,0.0009324676689277695
1765407679.873578,-9.9280760046195,-0.050514774819093534,0.34799805071368856,-0.0006746299314887586,-0.00022015439666630288,0.0009090111574296069
1765407679.874691,-9.922702925169476,-0.049442494209391806,0.3453346969480642,-0.0006356445905101168,8.754910568935875e-05,0.0008814005216789362
1765407679.878601,-9.917809119586009,-0.04840886198633349,0.3429270330200499,-0.0005774971301191614,0.00042410234923187485,0.0008511721915573007
1765407679.879622,-9.913700022510476,-0.04747812143850408,0.34095547419446415,-0.0004963862948270494,0.0007845688531888999,0.000820259606059611
1765407679.883651,-9.910627855931963,-0.04670494007360106,0.339537340588008,-0.00038977404904578025,0.0011631930743872282,0.0007908784101540573
1765407679.886516,-9.908768334985561,-0.046129927835587226,0.33871841824828003,-0.00025655710319990265,0.0015538552774304931,0.0007653777699657747
1765407679.888518,-9.908203626333416,-0.045775897824227724,0.3384707629464644,-9.714453419990323e-05,0.0019505065700220793,0.0007460797104592432
1765407679.89156,-9.90891318850067,-0.04564538504121981,0.3386966607903817,8.655923890459317e-05,0.0023475282953475743,0.0007351347322741339
1765407679.89354,-9.910773559667147,-0.045720230325548734,0.3392382258180192,0.00029126142650571417,0.002739976939123251,0.0007344173397558182
1765407679.896532,-9.913567373194548,-0.04596392751785666,0.33989165969530366,0.0005124746709446891,0.0031237051463956986,0.0007454691129631335
1765407679.897032,-9.917000997088337,-0.04632674580811458,0.34042487241417,0.0007447983531258512,0.0034953763181508977,0.0007694765513662288
1765407679.90154,-9.920729364597573,-0.04675267694620848,0.3405970366269141,0.0009822854814176823,0.0038524037660825363,0.0008072574535688908
1765407679.904546,-9.924385814543607,-0.04718660971369077,0.3401785657023068,0.001218879614067419,0.004192847712223614,0.0008592312365720858
1765407679.905046,-9.927614096296018,-0.04758021369436148,0.3389698578247509,0.001448885375659084,0.004515303596538075,0.000925363824751349
1765407679.90854,-9.930099259433135,-0.047895732183280394,0.3368171268725559,0.001667418411793464,0.004818815977706772,0.0010050964716459545
1765407679.911507,-9.931594187294632,-0.04810774341762004,0.3336240114409253,0.0018707767506359453,0.0051028467693943706,0.0010972796931507933
1765407679.913507,-9.931939168023268,-0.04820344825236322,0.3293583581772532,0.0020566888412971236,0.005367309181633166,0.0012001347333824555
1765407679.916523,-9.931072950446396,-0.048182054425531216,0.3240542668808372,0.002224416953892588,0.005612655015676217,0.0013112589620951046
1765407679.919541,-9.929034850017997,-0.04805362685493046,0.3178099183051157,0.0023747166763928625,0.00583998272082181,0.001427684400603091
1765407679.921537,-9.925958403736024,-0.047837673680984606,0.31078189798745703,0.002509668110063519,0.006051121267105125,0.001545994249650301
1765407679.924512,-9.922057768872188,-0.04756175091899827,0.30317675485137313,0.002632404286521058,0.0062486416516269435,0.0016624993129179613
1765407679.926557,-9.917608534407869,-0.04726027168959499,0.29524041704132703,0.0027467707871925936,0.006435756386970369,0.0017734690352004694
1765407679.928513,-9.912924901797453,-0.04697338536251726,0.2872459448120906,0.0028569567845193916,0.006616087746055181,0.0018753983848862066
1765407679.931545,-9.908335338461583,-0.04674543472938428,0.279480086390618,0.0029671379520893105,0.006793312720373079,0.0019652781383514674
1765407679.933552,-9.904158755223053,-0.046622439348575136,0.2722291263689039,0.003081163260839222,0.006970720578257286,0.0020408315776267094
1765407679.934583,-9.900682898004503,-0.04664843887281136,0.2657643514559339,0.003202302947250365,0.007150742355900828,0.0021006879375442076
1765407679.938575,-9.89814609703105,-0.04686113661821737,0.2603272358046554,0.0033330615815785262,0.0073345246679233705,0.002144475673496846
1765407679.941566,-9.896723104078031,-0.04728769056131219,0.2561145893156446,0.003475054866637101,0.007521620236962099,0.002172828933433689
1765407679.944581,-9.896515548947317,-0.04794147992680974,0.2532644664147211,0.003628950481638286,0.007709856951402276,0.002187307680430629
1765407679.946584,-9.897547318051087,-0.048820342966234546,0.251844162825632,0.003794475300535686,0.007895426677971266,0.002190240015040835
1765407679.947084,-9.899764800142721,-0.049906358698797795,0.2518418469493823,0.003970488728409215,0.00807320298411762,0.0021845056716168453
1765407679.951611,-9.903041666925034,-0.05116687975407539,0.2531633817629372,0.004155114136368281,0.008237259940134974,0.0021732889689069315
1765407679.952111,-9.907187777795272,-0.05255635495969612,0.255635708754407,0.004345910384325873,0.00838153509712666,0.0021598343894875375
1765407679.956533,-9.911961753677286,-0.05401861643008864,0.2590175549867901,0.004540059270248343,0.008500562022962893,0.002147236442144658
1765407679.957542,-9.917086613795707,-0.05548959376751985,0.26301714758136846,0.004734548015305844,0.008590184420971984,0.0021382852176659636
1765407679.959551,-9.922267634503305,-0.05690050516142365,0.26731537839707753,0.004926337001043984,0.008648153948811532,0.0021353715197411248
1765407679.962533,-9.927211285906045,-0.05818135778959165,0.2715917894511898,0.005112512755796967,0.00867451714468947,0.0021404394096604727
1765407679.966526,-9.93164379239447,-0.05926436062653225,0.2755501418718662,0.005290427293291951,0.00867172099797177,0.00215496847548246
1765407679.968549,-9.935327788886173,-0.060086895574621144,0.2789404779153598,0.005457819579776343,0.008644410340708873,0.00217997329437056
1765407679.971569,-9.938075842184976,-0.06059397473214785,0.2815754425263724,0.0056129106326817365,0.008598945353047322,0.0022160159893160848
1765407679.973559,-9.939760071310726,-0.06074040293341628,0.2833397248417946,0.005754464211194949,0.00854271960230102,0.0022632317272144086
1765407679.9767,-9.940317506907224,-0.06049292886447717,0.28419244457912407,0.005881808955538864,0.008483391111233567,0.002321363444448339
1765407679.979534,-9.939751190508275,-0.059832400456950416,0.2841631352524619,0.005994823161692378,0.00842814219196881,0.0023897950081583842
1765407679.981536,-9.93812733566375,-0.05875553559387824,0.28334260865126987,0.006093888437059311,0.008383062324494645,0.002467570145067039
1765407679.983537,-9.935569048900016,-0.05727577540796063,0.28187021481605257,0.006179821209347819,0.00835271298321919,0.002553393257871363
1765407679.986552,-9.932247172591541,-0.05542297445904206,0.27991888843833374,0.006253791181905505,0.00833989484317829,0.0026456232012201067
1765407679.987052,-9.928368921663846,-0.05324213091376087,0.2776792175114696,0.006317235683849389,0.008345605688438739,0.0027422806137444985
1765407679.991545,-9.924165139438738,-0.050791574330532746,0.27534375128074207,0.006371779487168296,0.008369158435003455,0.0028410857342811425
1765407679.993616,-9.919877048775884,-0.04814089167086517,0.2730927779617317,0.006419168887116986,0.008408422976572714,0.0029395303493235914
1765407679.996552,-9.915743273094241,-0.04536859063324861,0.2710826809648946,0.006461225226021039,0.008460155832378668,0.003034974976164663
1765407679.997052,-9.911987728185226,-0.042559348226160226,0.2694376369236878,0.00649981828221905,0.008520381470246915,0.003124757068786416
1765407680.001583,-9.908808834747546,-0.039800784426349746,0.2682449172974642,0.0065368564349510385,0.008584789334883939,0.003206296850701165
1765407680.002515,-9.906370437092262,-0.037179940986447446,0.26755362566676544,0.006574289348568052,0.008649113866387568,0.0032771905308093376
1765407680.006555,-9.90479482941415,-0.0347798162245196,0.2673765007236157,0.006614119745269363,0.008709470673312777,0.0033352840792580402
1765407680.008465,-9.904158260401388,-0.03267623541527232,0.2676943136575894,0.0066584215327404024,0.008762629160379334,0.0033787245379625335
1765407680.011598,-9.904489072564655,-0.030935085163182455,0.26846218767280644,0.00670935945427506,0.008806209961219433,0.003405991735664552
1765407680.012567,-9.905768288043834,-0.02960979519056549,0.269616918415907,0.006769200310284961,0.008838802475306887,0.0034159221435719174
1765407680.016602,-9.907932174302994,-0.028739116755632014,0.27108426235336547,0.006840300537210335,0.008860001489351815,0.0034077442226708053
1765407680.017102,-9.910876195150124,-0.02834558029998714,0.27278519366054377,0.006925052998508762,0.008870364939475005,0.003381143169043809
1765407680.021547,-9.914459744960766,-0.028435162108475198,0.27464027251209805,0.007025779546930916,0.008871301704010117,0.0033363595268857474
1765407680.023578,-9.918511258209524,-0.02899845651774454,0.2765717184819305,0.007144566625560527,0.008864907467701116,0.0032743075542388694
1765407680.026565,-9.922833757111162,-0.030013167908921147,0.2785036435702875,0.0072830581912099015,0.008853772320088908,0.003196687038430087
1765407680.028582,-9.927211367630347,-0.03144731715116184,0.28036167606599266,0.007442237660231209,0.0088407818916163,0.0031060625654890425
1765407680.031562,-9.931417350874817,-0.033262447714625006,0.28207321820678677,0.007622238766599046,0.008828924305405281,0.0030058926403952564
1765407680.033572,-9.935223727849337,-0.0354163347480368,0.2835688433741432,0.007822219582017068,0.00882110295190606,0.002900498531103916
1765407680.034577,-9.938412045877483,-0.037865035873881916,0.2847845828031197,0.008040319602496302,0.008819950675052686,0.0027949655956540195
1765407680.038511,-9.94078460116123,-0.04056433675389814,0.28566466164253945,0.008273704751541043,0.008827651786012487,0.002694971836947505
1765407680.039515,-9.94217547353017,-0.04347068008055601,0.28616448447878956,0.008518692894067778,0.008845797344772515,0.002606544173713085
1765407680.043598,-9.942460825214052,-0.046541606877072934,0.2862538175685887,0.008770943360177804,0.008875310122293957,0.0025357525898200713
1765407680.046516,-9.941567902734638,-0.049735646074110504,0.2859199641533387,0.0090256883244738,0.00891647062016893,0.002488362698772579
1765407680.048501,-9.939482059188386,-0.053011528021231144,0.28517057242037336,0.00927798136268027,0.008969058249480107,0.002469475378815093
1765407680.051526,-9.936251020685479,-0.056326705849169406,0.2840358045651681,0.009522938755096279,0.009032595597111632,0.0024831858288715614
1765407680.053517,-9.931985671609215,-0.05963548142142784,0.28256968621472467,0.009755953803131137,0.009106650974327161,0.002532291742886322
1765407680.056554,-9.926856795075443,-0.06288733578210126,0.2808501798348857,0.009972875373430966,0.009191127727785112,0.0026180720093953035
1765407680.058517,-9.92108743309175,-0.06602609191633194,0.2789770826479725,0.010170156072589523,0.00928646576058281,0.0027401480750797688
1765407680.061563,-9.91494091128489,-0.06899024871602613,0.2770668643539934,0.010344984718130364,0.009393705177802768,0.0028964344258168295
1765407680.063536,-9.908705132044478,-0.07171439961675169,0.2752442419468222,0.010495415421160408,0.009514401222575603,0.0030831828408232425
1765407680.066553,-9.902674280003302,-0.07413135364416973,0.27363120879313513,0.010620493244642846,0.009650418114077672,0.003295124797910406
1765407680.068748,-9.897129421774219,-0.07617463773721454,0.2723349547905327,0.010720362967991694,0.009803654657914346,0.0035257154398902115
1765407680.071628,-9.892319678734623,-0.07778144826907644,0.2714365386893828,0.010796341109343759,0.009975757804491963,0.0037674776399860698
1765407680.073601,-9.888445786328159,-0.07889645106020735,0.27098223020872764,0.01085093381101385,0.010167864891051507,0.004012432351820196
1765407680.079028,-9.88564775716693,-0.07947669278740371,0.2709789282578586,0.010887791232390085,0.010380397298676122,0.004252583496227395
1765407680.07913,-9.883997866690605,-0.07949727875703534,0.27139406658090853,0.010911597037481423,0.010612919608439027,0.004480410464409427
1765407680.07963,-9.883499442526224,-0.07895679656018746,0.27215949654043997,0.010927894667337953,0.010864077061069254,0.004689316177681252
1765407680.083558,-9.88409124252542,-0.07788120080239452,0.27317845082771297,0.01094285272593839,0.01113162363269679,0.0048739848676173135
1765407680.086577,-9.885656610128336,-0.0763252363815125,0.2743347219333372,0.010962978124208983,0.011412548766176776,0.0050306182336211525
1765407680.087077,-9.888036114734936,-0.07437122045118826,0.2755032868051518,0.010994799085346708,0.011703299830299463,0.0051570359802222245
1765407680.091554,-9.891042195043172,-0.07212557785864614,0.2765616501707246,0.01104455106550349,0.012000081838796257,0.005252642049840717
1765407680.093587,-9.894474478404703,-0.06971360064161322,0.2774011262604725,0.011117898133840521,0.012299202293103875,0.005318270143840196
1765407680.096583,-9.898134707468357,-0.06727267009061315,0.2779370752552749,0.011219710932055628,0.012597420035240645,0.005355932912986269
1765407680.099551,-9.901840339804442,-0.06494407461586546,0.2781168973947552,0.011353906078084152,0.012892251944327502,0.005368509036230356
1765407680.101547,-9.905435894172765,-0.06286379989594099,0.27792460741159475,0.01152333792587869,0.013182193464784388,0.005359409835428682
1765407680.103553,-9.908801099858904,-0.06115310334010003,0.277381111570927,0.011729728758239476,0.013466823549203208,0.005332267985614379
1765407680.106507,-9.911855025832528,-0.05990994094930674,0.2765398775631877,0.011973629435604802,0.013746788285240471,0.005290680639919249
1765407680.108529,-9.914555836040412,-0.059202150627801375,0.27547860840919336,0.012254412776496554,0.014023677578642557,0.0052380210823537
1765407680.111556,-9.916896614863079,-0.05906286217455102,0.2742885984555837,0.012570307892415124,0.014299815781983166,0.005177319487349726
1765407680.112056,-9.918898427213708,-0.05948827657713901,0.2730640065184501,0.012918481906469522,0.01457798165028481,0.005111212434381252
1765407680.116514,-9.92060202949073,-0.06043789909692472,0.27189289921225684,0.013295168192196203,0.014861065007098918,0.005041965336726214
1765407680.118577,-9.922059445354856,-0.06183735440891579,0.2708509098943991,0.013695832290340909,0.01515166593923988,0.004971569682734075
1765407680.121528,-9.92332622047878,-0.06358385086207782,0.26999737802620644,0.014115362414287666,0.015451651038236494,0.004901904339402868
1765407680.123498,-9.924454786403443,-0.06555413795494311,0.2693733251113396,0.014548272257795883,0.01576169841213972,0.00483493179763487
1765407680.126597,-9.925489151113963,-0.0676144414846705,0.269000704885238,0.014988907450297817,0.016080881920673546,0.004772883900094608
1765407680.128549,-9.926461144958047,-0.06963143556214665,0.2688827836299112,0.015431649908301875,0.016406355500346685,0.004718386027105097
1765407680.131554,-9.927388509077804,-0.07148297607149497,0.2690057340435647,0.01587111388271555,0.016733194128836743,0.004674478953275479
1765407680.133545,-9.928274962539813,-0.07306727621220171,0.26934125314997337,0.016302324283924533,0.017054431181902995,0.004644520344525202
1765407680.134546,-9.92911199531154,-0.07430956232104241,0.2698494774985667,0.016720866971619903,0.017361310823933596,0.004631974289980613
1765407680.13955,-9.929881747778248,-0.07516587893664875,0.2704811762913269,0.01712300769341728,0.017643755545587978,0.004640118802689968
1765407680.141534,-9.930560211833658,-0.07562424711575665,0.27117849101973834,0.017505789849870407,0.017891034708165863,0.004671713069475044
1765407680.143568,-9.931120175506374,-0.07570349504496102,0.2718743130282295,0.017867131595864824,0.018092605875876393,0.004728668923756355
1765407680.146619,-9.931533674632417,-0.07544983019181747,0.27249133412134574,0.018205940069983353,0.01823908004957416,0.004811769142951973
1765407680.148631,-9.93177401280058,-0.07493102773235207,0.27294233617106994,0.01852224314227388,0.01832323309805598,0.004920472103906493
1765407680.150555,-9.931817575534676,-0.07422837101901542,0.2731331308064811,0.018817314448993965,0.01834095689120616,0.005052836213479491
1765407680.154539,-9.931645687461522,-0.07342717410898555,0.2729688164201907,0.019093747401876086,0.018292027651049713,0.005205583844336643
1765407680.155039,-9.931246618143767,-0.07260735487702615,0.27236295494229784,0.01935542859438234,0.018180575173634646,0.005374302303675844
1765407680.159541,-9.930617557913042,-0.07183556728279733,0.27124825214721765,0.019607374352083113,0.01801516683810791,0.005553754738070741
1765407680.161578,-9.92976613733528,-0.07115975775552216,0.2695868201755388,0.019855421136196406,0.0178084690423754,0.005738257511459257
1765407680.163523,-9.928711050968685,-0.07060614693314521,0.267378336679444,0.020105789728707496,0.017576504367643627,0.005922079876491938
1765407680.166516,-9.927481553574014,-0.07017815853686526,0.2646650318040275,0.02036456375186344,0.017337571851658913,0.006099833473106196
1765407680.168541,-9.926115838916024,-0.06985697204723494,0.261532828033728,0.020637133181947417,0.017110930350837997,0.00626683163943848
1765407680.17156,-9.924658485314485,-0.06960388351333903,0.2581080155633597,0.020927660628338073,0.0169153617659866,0.006419402353405085
1765407680.173518,-9.923157313406383,-0.06936494567408356,0.2545490760460161,0.02123863741173064,0.01676774331101151,0.006555134788795642
1765407680.176491,-9.921660191223175,-0.06907803555666851,0.251034129739942,0.021570600322320017,0.01668177252803585,0.006673036404980715
1765407680.178591,-9.920212448332117,-0.06868169305894556,0.24774575533496504,0.021922065035139382,0.01666699161709116,0.006773581568776738
1765407680.18157,-9.918855467288726,-0.06812431324525173,0.24485582736094547,0.022289695491745764,0.016728227317365108,0.006858643296181331
1765407680.183571,-9.917626620431506,-0.06737205261746819,0.24251284960889355,0.022668682346497056,0.016865497935931825,0.006931313205647422
1765407680.186893,-9.916560121422552,-0.06641426170286635,0.24083306296303955,0.02305326651428427,0.017074363578427888,0.0069956283063294985
1765407680.188624,-9.915687894490135,-0.06526608542803633,0.23989513566666046,0.02343732967388046,0.017346635637204916,0.007056232110951132
1765407680.191516,-9.91503957674986,-0.06396850380275554,0.23973740430494977,0.023814982618853522,0.01767133134238585,0.007117996375232617
1765407680.193533,-9.914641293637782,-0.06258610311583744,0.24035675562383577,0.024181101290879903,0.018035759245478903,0.00718562142422796
1765407680.196526,-9.914513546619864,-0.06120246390089876,0.24170894472725143,0.024531774295170523,0.018426639481937946,0.007263230221126313
1765407680.198509,-9.9146690383146,-0.05991288921151713,0.24371084749134167,0.02486463134476622,0.018831180662068684,0.007353982457206625
1765407680.201504,-9.915111364423506,-0.05881471049786277,0.24624547636731997,0.025179027095133255,0.01923804566368084,0.00745975282152735
1765407680.203522,-9.91583522003193,-0.0579963455880263,0.2491703663331255,0.025476067168457146,0.019638146767191455,0.007580926461182209
1765407680.2065,-9.91682818923945,-0.057526942108311364,0.2523291620536481,0.02575848248199078,0.02002522037250723,0.007716353932480815
1765407680.208504,-9.918073553817155,-0.05744828515388321,0.25556524884774956,0.02603037603035429,0.02039614065683825,0.007863479349982378
1765407680.211619,-9.919553139289198,-0.057769787516520024,0.25873550491219954,0.026296875151068187,0.020750941468412817,0.008018622086606041
1765407680.213573,-9.921249096495147,-0.058466495036365265,0.2617218670744124,0.026563721651765532,0.02109253363760795,0.008177369426034453
1765407680.216543,-9.923143686215383,-0.05947974581025008,0.26443849583579965,0.026836827735298663,0.021426135043237364,0.008335029630183833
1765407680.21856,-9.925216663851053,-0.060720417574702326,0.2668331619864314,0.02712182329713451,0.021758470427067772,0.00848709569642762
