time,acc_x_g,acc_y_g,acc_z_g,gyro_x_rad_s,gyro_y_rad_s,gyro_z_rad_s
0.0,-6.064084,0.573888,7.887971,-0.009163,-0.007025,-0.000611
0.0025,-5.31458572,-0.18108519999999997,7.788043480000001,-0.0055162,-0.0002508799999999991,-0.029272720000000002
0.005,-4.9897972679885605,-0.16245093532888466,8.847023724003813,0.04329856488083889,0.05442486871306007,-0.12063702326024786
0.0075,-3.8701721676717558,-0.3389041369847327,9.093989563854961,0.07152397408396946,0.139815745,-0.17639050515267174
0.01,-3.3846525883206104,-0.457005893206107,8.665798813282443,0.1077877272519084,0.232587,-0.2299652685496183
0.0125,-3.2976683841603056,-0.7323940379770985,8.98680720629771,0.12378928893129772,0.3752206282442749,-0.26844844007633584
0.015,-3.492557444809675,-1.2617202814710549,8.60902250682395,0.13555504677636795,0.446848,-0.2720497457811261
0.0175,-4.41399830207817,-1.115573938875119,8.462316718551001,0.16159623412774077,0.5469037374261203,-0.29152401037178266
0.02,-4.907473723050523,-0.4900751303717829,7.892475096663488,0.17387040087702574,0.684237660934223,-0.30583382284080074
0.0225,-5.5035133989323155,-0.34115261281220177,7.806940090600573,0.160505,0.7335468183412774,-0.32212661975214485
0.025,-5.858020885033366,-1.1329417372735937,7.017134085795998,0.15460791916110575,0.7718274335557674,-0.3331153561487131
0.0275,-6.1043084088083885,-0.2294876646329839,6.544000939142039,0.14397328938036225,0.8466952494947569,-0.3384818382459485
0.03,-7.748202235954201,-0.26163111916030485,8.389297883740461,0.11149288541984738,0.8826216496183206,-0.33342548946564887
0.0325,-6.080354307480918,0.25094754145038256,5.977921296793893,0.06035313885496177,0.9490032030534351,-0.3274491594656488
0.035,-7.174550473403234,-0.18966585052431273,6.555990609914197,-0.0073671109628214064,1.0005223838322215,-0.3265614195996186
0.0375,-5.991151,0.648613,4.36394,-0.069944,1.0178282932316491,-0.343612
0.04,-6.1253512905243115,-0.2668753803241174,4.8476447195424255,-0.1397092011820782,1.0691198465586271,-0.3170986359580553
0.0425,-7.201727403431834,0.15457270204004317,5.482138712831248,-0.12413819321258394,1.0913067688465206,-0.32813056236415633
0.045,-7.177264132812196,-0.46802069841753635,4.382994661925627,-0.21446434295519531,1.1163652034318399,-0.2723480623832221
0.0475,-9.286053582290075,0.0687700272519079,6.056662707786257,-0.22492914366412217,1.097260618015267,-0.24792486519083967
0.05,-8.679450928274878,-0.11001389692197333,4.662227022906225,-0.3070673248389406,1.1364395579098068,-0.22204785812455258
0.0525,-9.106195075767404,-0.29194376800762784,4.891014800953295,-0.2904865214489989,1.1149843642326027,-0.1906120296663489
0.055,-8.70781503382269,0.300647867988561,4.486288547721641,-0.3612380858722593,1.133766,-0.14900217719733078
0.0575,-5.839820332163977,-0.9011720787797836,1.9130912994470954,-0.33613242406101057,1.10811,-0.13744388167778834
0.06,-8.942969183249811,-0.6261682521403018,4.3411692938296325,-0.4285046319255551,1.120938,-0.08076787667859704
0.0625,-8.782365121067684,-0.9925442230695901,3.3216351601525265,-0.35532427264061006,1.153314,-0.05439988560533841
0.065,-8.78806480053442,-0.48215638935252314,2.8918331188078055,-0.34369032378211706,1.123329937471737,-0.020329488920863253
0.0675,-8.122326485267157,-0.5473531213740497,2.4516803637404276,-0.3234302242748087,1.1314049771755719,0.012721710229007999
0.07,-8.150358329122149,0.16866559114502672,1.5861828635114747,-0.2751894962595423,1.137542720305343,0.05235838416030587
0.0725,-8.84349329855815,-1.2177626191291948,1.9619732361455893,-0.2506799397858674,1.1257403868950746,0.07597743263383297
0.075,-9.105175241372713,0.18540958894184717,2.564184289418479,-0.20279217578646325,1.1384646924690185,0.08732750428979959
0.0775,-10.882343419599616,-0.8207688261201136,3.3868447545853155,-0.17356617879885605,1.11748280907531,0.13694210760724498
0.08,-11.683338427480917,-0.4862046864122124,2.668304830458019,-0.1037193858778625,1.116975228854962,0.15388100603053437
0.0825,-11.435658864671105,-0.3375553854718848,2.883130728160148,-0.04794016808388938,1.073029909666349,0.18457626795042914
0.085,-9.796635325834123,-0.09942472987608658,1.0621301681601638,-0.05913328640610145,1.0409785368922786,0.21153504800762643
0.08750000000000001,-11.487494768057207,-0.39119665792612035,2.053615249106071,0.05700989630512478,0.9802559423122768,0.2514983935637659
0.09,-10.682258400305049,0.7922889244613904,0.5975798278360259,0.08868440183031455,0.9273001421925647,0.2345356687130599
0.0925,-10.493774294337467,0.4701748502955184,0.6285159279313637,0.10146941407054332,0.8245344467111535,0.22871103744518584
0.095,-11.314418559999998,1.4076039199999981,1.2739840399999967,0.13950295999999995,0.77683108,0.1916894
0.0975,-12.292655182459484,0.6943593266730231,1.3294948998665372,0.1553554249380363,0.7145665589323166,0.15829335081029544
0.1,-11.443019840038136,0.7264364979980975,0.266659587035276,0.1586966200190658,0.604902291706387,0.1355014512869399
0.10250000000000001,-11.655538754623471,0.7487117536320451,-0.42146873060054485,0.15688009258341287,0.5131084777883694,0.086919429857007
0.105,-11.98465573227836,0.8745656570829327,0.09280934692087575,0.1489941345662535,0.3771133638894187,0.04814413944709253
0.1075,-11.743281747530983,0.9288527164918983,0.13314159504289708,0.1443714451858914,0.24105762795042895,0.008306849990467094
0.11,-11.123195976851575,1.2401459114242874,0.24357500584707634,0.0744714853073463,0.1500539301949025,-0.004953676791604209
0.1125,-10.75131067168732,1.0428714945662523,0.5760014955195432,0.012638037750238243,0.060864327740705326,-0.02972439923736886
0.115,-9.837734655256257,-0.017642132014302533,0.3228801601907124,-0.018637177973778295,-0.013398074755661583,-0.004825917091775943
0.11750000000000001,-9.786424491488548,-0.09761490118320863,0.37587797893129665,-0.01291502599236636,-0.004751423854961969,-0.004908051984732719
0.12,-10.096642636042912,-0.15720314498212212,0.44224321134684724,-0.0051986512991657,0.005376626126340932,0.0008553781168057042
0.1225,-9.906686593849821,-0.016582671752085935,0.255713046960669,-0.001264277282479135,-0.0034647509415971106,0.003037548128724711
0.125,-9.9546333170441,-0.002423575685339692,0.3405032324195471,-0.009339635280095352,-0.008623120381406436,-0.0017358426698450538
0.1275,-9.893321846335878,-0.0729682526717559,0.3079037339694653,-0.009219017557251904,-0.005784887251908377,-0.0024154912213740485
0.13,-9.785845971628335,-0.1079371587120514,0.20085878001839882,-0.007039164121435138,-0.007433355915363404,-0.000962606550138034
0.1325,-9.921891259093075,0.002928002959427965,0.2596641934128814,-0.006457298615751805,-0.0032229500715988514,0.0015228507875896056
0.135,-9.959514443480337,-0.0030661630512497373,0.37591149706794225,-0.00938472133492254,-0.009853469368295516,-0.000905251966627025
0.1375,-9.818960519666277,-0.008599699642429872,0.24754620119190573,-0.010576787365912011,-0.0060027370679381405,-0.00019223766388579014
0.14,-9.914344319618593,-0.04400160619785125,0.30693186793801747,-0.007550853682955727,-0.007830326102502644,-0.0007762637902265414
0.14250000000000002,-9.92400653551313,0.01727878811455917,0.40254554405728865,-0.00975612730310284,-0.007831869976133747,-0.0002653791408113251
0.145,-10.14296683442192,0.28623962531583297,0.7411076513944845,-0.004606537210964849,0.009600133301548838,-0.013879269558998946
0.1475,-9.955138591752082,0.25909970269368304,0.4537342177353898,-0.008362804100119034,0.008525566054827039,-0.002522946460071924
0.15,-9.887307315852203,0.23802649082241242,0.26706174636471736,-0.005956405959475494,0.010222495828367158,-0.002378811680572351
0.1525,-10.069154320953517,0.16018309439809217,0.37682239432657766,-0.006655279856972559,0.002291,-0.00033342746126345697
0.155,-9.924331326950197,0.11685878656758894,0.18775495256284583,-0.007371090162845849,-0.007441909837154151,-0.002713771623715416
0.1575,-9.909465586251383,0.10347928837312252,0.18973688553992094,-0.00914330793992095,-0.005669692060079051,-0.0011943725660079048
0.16,-10.000949647509957,-0.011216950622909175,0.3461981366926877,-0.012593388558228447,-0.007166047006531782,0.003961041344591364
0.1625,-10.061865448255537,-0.11707100686633767,0.3891393034411344,-0.007363872598375008,-0.00640012045563167,0.003322908427592798
0.165,-10.046368449210954,-0.20472490916285183,0.35659744700131873,-0.007503163103421524,-0.0033519242020327404,-0.00022956173170921674
0.1675,-9.964662665339436,-0.13955602059120154,0.2924007427108385,-0.0081247102087051,-0.0031029799425867006,-0.002589650936457454
0.17,-9.98724224003404,0.04217356434163728,0.31741376332972354,-0.007641183732013002,-0.007177258081386353,-0.004267111524060027
0.17250000000000001,-10.053194798734335,0.09697192220640602,0.41440258164938937,-0.008508372146062204,-0.007053142246634689,-0.002780155150858726
0.17500000000000002,-10.122054628081557,0.035276291728451634,0.4745773097775722,-0.009278923795180728,-0.007025,0.002577659059314223
0.1775,-10.050295555950447,-0.07260181758634796,0.40229211325949654,-0.007942951119862176,-0.004778267040774478,0.0019032703978997495
0.18,-9.90521001232516,-0.17495243913585126,0.30745401601513866,-0.010094906463770398,-0.007789,0.0005928169329023128
0.1825,-9.853315297396515,-0.13047125491129868,0.18488397241031324,-0.010978709778443584,-0.007789,-0.00041748021446029937
0.185,-9.843375,-0.121951,0.161406,-0.011148,-0.009467817876134887,-0.000611
0.1875,-9.925869529347297,0.030975175596687776,0.36305660399415485,-0.009792257184607892,-0.010232,-0.001104070750121773
0.19,-9.941528106624398,0.03556060996501964,0.3967449136204635,-0.006794269296020986,-0.007260539457804981,0.0020471903804110225
0.1925,-9.870647486194082,-0.01071596901363537,0.26896159779921835,-0.00796664859580576,-0.006554267500199345,0.0023870031576429316
0.195,-9.83451419741329,-0.08791979188330655,0.1871936476758507,-0.006221074521880058,-0.0072243701912479774,0.001937015993517016
0.1975,-9.921888989258699,-0.1437455576509419,0.34168767557694996,-0.008540795246871126,-0.009245950314949798,-0.0019519694292394496
0.2,-10.028659391796594,-0.08692929781722179,0.45644871863756303,-0.007052901415207491,-0.0086577714080115,-0.0033664377068841466
0.2025,-10.02665479819621,0.04087423369633074,0.4759958118173824,-0.008717108147437444,-0.005840776637083218,-0.0037504209226832995
0.20500000000000002,-9.901798869330301,0.05631917104263781,0.2832815789516756,-0.007210219870380885,-0.003394910722001122,0.0006834151495168049
0.20750000000000002,-9.82127869721969,-0.02130998588235347,0.18132534441776899,-0.006514532336134462,-0.007541230866746705,0.0013160456134453714
0.21,-9.95459986441859,-0.07516683044185898,0.3898094521188735,-0.006849547261438305,-0.007396239517752734,0.0002713208921574573
0.2125,-10.036219265573573,-0.10010598655735722,0.5220618823316653,-0.006077131882572791,-0.005755330906022067,-0.0008873021761408136
0.215,-9.988346124414472,-0.06990315059663608,0.4063983944938117,-0.0050985307553157696,-0.003928714776261506,-0.0021347423770231677
0.2175,-9.860033666299588,0.0017126601047286194,0.2154226219771502,-0.007385531250396699,-0.002276483789273247,-0.002007455699777848
0.22,-9.797971488929578,0.0439090036338028,0.22421923512676062,-0.006482227267605635,-0.0032190370140845075,0.0010770159154929579
0.2225,-9.83622974425352,-0.0036682862816901987,0.3002442770547732,-0.008612198547730833,-0.003594817771517997,0.0013272629264475747
0.225,-9.890511911359107,-0.03815387336787572,0.34857639107214033,-0.010774617807891596,-0.006364267070546042,0.000855354627341569
0.2275,-9.889536544640844,-0.01961165993524388,0.3136526917759921,-0.01042157976735819,-0.0034901413598752637,1.8402057800692554e-05
0.23,-9.827003887007624,-0.010171000533672248,0.22435957965692543,-0.00803288240787801,-0.005498,-0.0007680549428208392
0.2325,-9.875789484974588,-0.029087338221092846,0.32342303114358373,-0.006125093640406598,-0.005498,-0.0008946301905972052
0.23500000000000001,-10.00063378720715,-0.03646824233641885,0.4437625961059686,-0.006582329039259498,-0.0031865501244813252,-0.0012526580785189958
0.23750000000000002,-9.986628787934887,-0.05147395729332918,0.4187530711777847,-0.006965546249601024,-0.0026753149377593327,-0.002019092499202048
0.24,-9.843460363667953,-0.02550143038610072,0.27147716359073415,-0.007514165173745154,-0.0024619859073358894,-0.002019645019305032
0.2425,-9.851518347917642,0.012351164913430024,0.2587759325877396,-0.008570710060832949,-0.003557776218998599,-0.0002252342068320098
0.245,-9.922037733604794,0.01815421851079558,0.3273716698431982,-0.007185764971677201,-0.00243190822099992,0.0006232031360315219
0.2475,-9.963721664027585,-0.02661664528035461,0.44264272019374423,-0.00810599134389623,-0.0011174220934241864,0.0020693961251128795
0.25,-9.885933128544423,-0.09234752811909264,0.3043619291115312,-0.008221305056710775,0.001069,-0.0009637611058601135
0.2525,-9.773823478959061,-0.0700724870263408,0.21105583781021892,-0.011338069647730879,0.000479770999682638,-0.002094590333227546
0.255,-9.779595207220522,-0.009212990755471844,0.1580957828759711,-0.009475112393504355,-0.0021238062038126605,-0.0012598552883031338
0.2575,-9.852866378062288,0.009474152095395046,0.29972058527339807,-0.009852688594963521,-0.0013702990131011198,-0.0032694819989017077
0.26,-9.885474152053872,0.012343411700069473,0.3320398834952702,-0.009462196942974718,-0.0011721017690128808,-0.0024778084827106975
0.2625,-9.915625125252525,0.01100292012185345,0.33941034555074556,-0.00869163844797178,-0.0013430256533589874,-0.0005096619849286428
0.265,-9.852635067576088,-0.03891912885906062,0.278091982825035,-0.006715879244576244,-0.00044360428905883725,0.0004600603777118783
0.2675,-9.834044815064773,-0.07903243892617473,0.24874101984079894,-0.006465477921023879,0.00043116373341658113,0.0005852610394880607
0.27,-9.954119368018267,-0.06746875601921103,0.3343396436091652,-0.00734284106763248,-0.0027384901976222264,-0.0016916716132588075
0.2725,-10.035059759357532,-0.05858545725533416,0.4172540096086929,-0.008729824517754519,-0.0016033102905282958,-0.0029523404991733037
0.275,-9.980536505837442,0.021510273803085705,0.3695821620486707,-0.006727762812152079,0.003207,-0.0019744980753936435
0.2775,-9.887811665678383,0.018518988522347672,0.2424596259710501,-0.00889262943852396,0.003207,0.0009542429075871132
0.28,-9.886031468782612,-0.014254906927537782,0.25805824686957096,-0.009893015826086874,-0.000245992086956563,-0.0005324180289855403
0.28250000000000003,-10.047133108644188,-0.08360128973462087,0.46232989596380775,-0.008105721727531386,-0.0013039629979944897,-0.0022437477804206998
0.28500000000000003,-10.048887826562193,-0.10815902670584425,0.46934632237675494,-0.009823271707476352,-0.0007063416780933652,-0.0031396907084557737
0.28750000000000003,-9.942443933066631,-0.044168145368169334,0.28814491356419136,-0.010420545843230402,-0.0005752203025378199,-0.003161105238154761
0.29,-9.830260564625982,0.004128403218503505,0.09244025569881525,-0.008395066850393705,-0.001468861358267641,0.000153
0.2925,-10.01580945294385,0.01773694330659651,0.344571314351729,-0.00890336451574284,-0.004323859430144867,0.000153
0.295,-10.162484341974762,0.005641398141956161,0.4704782409116718,-0.009904821328075715,-0.0030666479463722696,0.00018253125236592432
0.2975,-10.158529854252366,-0.04676011241955809,0.49124054188328065,-0.009146505719242908,0.0017321584637223718,0.0011922404763406887
0.3,-9.966371306970789,-0.09076357251700695,0.28313324184073657,-0.006904009651860737,0.0027579827611044724,0.0007719980472188859
0.3025,-9.901654992131252,-0.05715207515646271,0.21490572893477414,-0.008442256797118842,-0.004162870597839112,0.0011563500344137642
0.305,-9.896621515116577,-0.050416794688597964,0.20901473194825892,-0.008643865043117219,-0.00336,0.0011796521079527338
0.3075,-10.060288622315554,-0.023389421759821193,0.3656740292462469,-0.006981917294793999,-0.00336,2.842885659533898e-05
0.31,-10.020324,-0.002391,0.342539,-0.00733,-0.003312860491493385,-0.001527
0.3125,-10.020324,-0.002391,0.342539,-0.00733,-0.0019253308128544422,-0.001527
0.315,-9.9196593191864,-0.05406861510131204,0.2468080938809099,-0.008162642273115445,0.00010822225293067144,-0.0004550096048443443
0.3175,-9.909926554140206,-0.09007968296250297,0.2682200141728127,-0.011021580951789463,-0.0017567630867168732,-0.0003304601692415183
0.32,-10.02061599291262,-0.02574940566805338,0.35649791094775796,-0.009699839209431346,-0.004429,-0.0018278368700878399
0.3225,-10.023105378255453,0.01816106492211842,0.34993033102803717,-0.00945883059190031,-0.002774747476635504,-0.0016010786915887846
0.325,-9.957156724920164,0.012479018687167226,0.24382733636901174,-0.009659167569485516,-0.00105624969840331,0.0007891708811354466
0.3275,-9.906277501453499,-0.011672797328006695,0.21056040906409748,-0.010256876533693674,-0.0028734186240526576,0.002511701829504728
0.33,-9.906672210694785,-0.03310350703939859,0.24845327331044711,-0.010541703652117054,-0.005977622023867929,0.002128598852378609
0.3325,-10.063458921461502,-0.06435851146640532,0.3826956857871515,-0.011196527964688577,-0.008987756821971577,0.0008198073271211287
0.335,-10.142706302169344,-0.0911713934085291,0.4558751749165627,-0.00705619665018542,-0.0057947718974041725,0.000764
0.3375,-10.067645304789863,-0.0984354392923363,0.33626022866192723,-0.007798235908529055,-0.0019598222805932916,0.000764
0.34,-9.898725964053108,-0.045588548185417466,0.22657502197064883,-0.008091903689727465,-0.007699023074772965,-0.00014043583973912118
0.3425,-9.945246391496811,-0.021514786366759114,0.2796149414101102,-0.009130303176836262,-0.007789,-0.0006711515884181309
0.34500000000000003,-10.023728191558224,-0.008667380110444057,0.3937699806098454,-0.009316,-0.006523301397358926,-0.00044705746938775067
0.34750000000000003,-10.07387222865458,-0.03828886500000066,0.43444349545801514,-0.011003816354961865,-0.008487724532442797,-0.000305
0.35000000000000003,-9.974477541078501,-0.0707181796103157,0.31666042030883523,-0.009145420179480942,-0.004140591333171656,-0.001040874589700029
0.3525,-9.855889860315305,-0.03980430426388577,0.21581011172447326,-0.007850913305845269,-0.005435945951976705,0.0010301668590831752
0.355,-9.843191115449581,-0.03001258970027859,0.23576350997660137,-0.008677595485236759,-0.009370148706406654,0.0009277411298050178
0.3575,-9.888953460550459,-0.028508764516584347,0.28875271271700725,-0.008705,-0.00843381140437545,9.272666196189947e-05
0.36,-9.961621995606642,-0.026277714687100943,0.3716578039335891,-0.00870607627075351,-0.007021771187739469,-0.0012176925670498166
0.3625,-9.91959190906769,-0.017271745849297613,0.3096137093231165,-0.009089415836526178,-0.005871752490421461,0.0003165026819923304
0.365,-9.803831664440573,-0.05202880416869973,0.15882109111188628,-0.010064734792610662,-0.012415979797838938,0.000611
0.3675,-9.812887,-0.011956,0.22836,-0.012217,-0.01041222161496624,-0.001222
0.37,-9.812887,-0.011956,0.22836,-0.012217,-0.006775328107106576,-0.001222
0.3725,-9.964588364198876,-0.016979212850516717,0.3896044602750426,-0.01093388758401823,-0.00441006153796078,0.001345065115143622
0.375,-9.972705388637536,-0.01851778718286467,0.39836830238817933,-0.009124610789760037,-0.003971,0.0013853972853788443
0.3775,-9.948331496366238,-0.02001200915593706,0.34011991977110134,-0.009061021402002871,-0.00532316801144493,0.0019308640915593769
0.38,-10.016021228796166,-0.049366764908744566,0.3907252045031649,-0.00897391483807534,-0.005880445284827629,0.0018634258096232995
0.3825,-10.053771382400296,-0.059382138083942757,0.4662248673459106,-0.009269034243224974,-0.006077621131936337,0.0003878287838751265
0.385,-10.029329536780503,-0.06259514271157021,0.42011727329600085,-0.009611462156321474,-0.005568303979809121,0.0002986483792097159
0.3875,-9.912158467213501,-0.03194255113179259,0.29602571791150667,-0.009232687956463441,-0.002284215884533466,4.6407918605567147e-05
0.39,-9.824018223727231,-0.042265061522652164,0.20641317933676054,-0.008068707706679097,-0.00733,0.0016352383745912667
0.3925,-10.000325924076767,0.027745216531171873,0.38744484712838273,-0.007703980112051513,-0.006361672504470129,-0.0015480222624865867
0.395,-10.014895868222673,0.044183823354392776,0.4356400949624512,-0.010376355231851254,-0.004739248320419586,-0.0010705445750387379
0.3975,-9.878890317038561,-0.018100789557368463,0.27203588562197983,-0.01291250964922007,-0.004734,-0.0001842888621426804
0.4,-9.73976091681164,-0.03908248005693456,0.106082507765303,-0.012065,-0.005206420654752507,-0.000611
0.4025,-9.871612342274238,0.00998981539775471,0.2993982643618554,-0.012065,-0.007106062925826367,-0.000611
0.405,-10.080994776458027,-0.003674236632966347,0.5049953043962307,-0.011481616117232755,-0.003691482162898961,-0.00163168309439965
0.40750000000000003,-10.01931556247453,-0.05531753819257373,0.38211516022674835,-0.010947616933946757,-0.0014872965133092102,-0.0004144567236279834
0.41000000000000003,-9.770303653523776,-0.05794788838907998,0.13252735099620344,-0.010615897913578004,-0.0014077577002350689,-0.001292817660459261
0.41250000000000003,-9.765392225408304,-0.07759233697342278,0.1502829345989275,-0.009650295473995046,-0.003820499921653742,-0.003802246513590102
0.41500000000000004,-9.92450691023278,-0.0652607238764841,0.30663401809026286,-0.009473965909738723,-0.005519836009501208,-0.002128069814726832
0.4175,-10.028234572041171,-0.033497090318290006,0.4188001014853515,-0.009855039847980996,-0.006914616437054622,-0.001493776810768017
0.42,-9.945323843122925,0.01668705554817278,0.3350389093244747,-0.011423083898117402,-0.0011096745957917854,-0.0015042230786268104
0.4225,-9.830784208913148,0.012720681214997647,0.21653373021990255,-0.009016053719348218,-0.004276470330643869,0.0002691161778199558
0.425,-9.836288764776214,0.006730806670337546,0.2773083614253123,-0.009527190167545021,-0.005813294674742387,-0.00017357250058994283
0.4275,-9.957583100816487,-0.014964893088963975,0.36162334059938617,-0.01242473401085502,-0.006317251204279083,-0.001180660753559345
0.43,-10.016422111099672,-0.027425296406176854,0.35884847290594296,-0.010407862292934028,-0.004748795320542823,0.00013955211043518447
0.4325,-9.98126324663197,-0.04909139333828992,0.31343805775464695,-0.01130435589591078,-0.0036830618289962844,-0.0003724690855018577
0.435,-9.902064306810399,0.0011328123906150947,0.2621098012301839,-0.009053052834495878,-0.005345,-0.002081506366518709
0.4375,-9.907032908053266,-0.0018485145846544068,0.27502833069118576,-0.011084377932783766,-0.005345,0.0005839844641724796
0.44,-9.962850905220758,-0.08630584488303641,0.34366585504570113,-0.009665734066615028,-0.006691535287374128,0.0026717272254066595
0.4425,-10.069670016483347,-0.09310331393338499,0.4509714860790087,-0.011030263640588693,-0.005823272123934933,0.00031466483036405495
0.445,-9.985613956164068,-0.04917056644821234,0.31612773395050364,-0.010303566530705771,-0.006485566530705771,-0.002596
0.4475,-9.912152736970357,0.020197424897761777,0.23719583818511797,-0.009432534262552932,-0.006525233822141565,-0.0031085713853599545
0.45,-9.903554046011836,0.05609299779092698,0.23287939422485246,-0.008886383526627229,-0.007450359873767245,-0.003945451108481252
0.4525,-9.939163438788167,0.0471914768757396,0.31596384097514835,-0.011412893273372795,-0.004544956392899393,-0.0016712614248520588
0.455,-9.959069126028895,-0.043629260638813186,0.3473102889964853,-0.013598163417415075,-0.006530006038266288,0.00025567920343613906
0.4575,-9.905710897087076,-0.07936437041155824,0.2738813081921119,-0.01397321051464272,-0.0042789045747754625,-0.0027455164545099786
0.46,-9.803578220991096,-0.017875153213062274,0.19529489469741998,-0.011046102617035912,-0.0012570751130395476,-0.003767897382964089
0.4625,-9.885558344421426,-0.01565878681266649,0.25999748640426223,-0.013268120935187915,-0.004253419343000902,-0.0002052014915655435
0.465,-9.937872325504589,-0.017885032513761487,0.3278945667522942,-0.011941186642201822,-0.005769649688073409,0.0007431406972477158
0.4675,-10.003939237745378,-0.041902429850941045,0.37932292494909237,-0.011529427306345194,-0.00924782486600965,-0.0016600741418913681
0.47000000000000003,-9.937539909963515,-0.10379330649876509,0.3063978876403425,-0.010997785213604797,-0.0006473123361184965,0.0013603107637990383
0.47250000000000003,-9.847046078998483,-0.052198876928473956,0.24927251558886782,-0.00984996858304759,-0.003411484044334617,0.002264987334343365
0.47500000000000003,-9.889580443826869,0.036517154446548135,0.2806677193472098,-0.014322193424787213,-0.008975079777672743,-0.002106253713339716
0.47750000000000004,-9.981102701344255,0.048576328181161324,0.3830781488123359,-0.012564807429535026,-0.008754617056131049,-0.00034780742953502614
0.48,-10.02213133690553,-0.03665742531614096,0.3828888411058771,-0.015413513870567835,-0.0030645612943218476,0.0028296223059757226
0.4825,-9.971016108238354,-0.09739394812958135,0.3449610444880587,-0.014745964821470793,-0.0025110351785292075,-9.281589737524898e-05
0.485,-9.95026402303618,-0.1155512478410971,0.33792053478836603,-0.0154086083211161,-0.0018483916788839005,-0.002838230359423017
0.4875,-9.97761660390367,-0.07957488319019881,0.34470895470542284,-0.012724966740736294,-0.00484313303705482,-0.0026398669629451805
0.49,-10.017405795848127,-0.07208200876725854,0.39817650213017775,-0.0118323301972387,-0.007242611775147972,-4.651364891517897e-05
0.4925,-9.994352405698226,-0.05340606753557001,0.3501360046677207,-0.009975037477604065,-0.002749,-0.00032271324784823713
0.495,-9.938011601809142,-0.049052580490777854,0.30785610183159606,-0.013882954688051329,-0.0027573222646351207,0.0006104787939053731
0.4975,-9.835968423518844,-0.05709474638011226,0.15755572381074592,-0.010416010944667204,-0.004811589440256614,0.00048182432076984775
0.5,-9.836774085780402,-0.0057600979891477815,0.21496673771145866,-0.010169307612511969,-0.008080104771784233,-0.0026307266996488986
0.5025000000000001,-9.989832545684651,0.046260383236515726,0.38203019688797063,-0.013491917966805055,-0.007568869585062229,-0.003908396307053971
0.505,-10.027748272308152,0.05498802266818425,0.40074266759959243,-0.011185114999101417,-0.005993114999101417,-0.0003049473000658952
0.5075000000000001,-9.966916039894565,0.042971453519438985,0.2963511572132005,-0.009746016205595124,-0.0045540162055951235,7.885425507698785e-05
0.51,-9.899468105693106,0.02955924416102,0.23579284385811136,-0.013326722844161028,-0.005213441938620968,-0.0007339981251494556
0.5125,-10.035877436939018,-0.06138142447189954,0.3936894156237517,-0.015752364575528057,-0.006490623387803884,0.0010530528816261142
0.515,-10.063366,-0.178144,0.430416,-0.011606,-0.0068487920430778775,0.000458
0.5175,-10.063366,-0.178144,0.430416,-0.011606,-0.005849641663805229,0.000458
0.52,-9.833659174295926,-0.085225142044317,0.2053630402859189,-0.012523,-0.0027594278484631926,-0.002449273109363834
0.5225,-9.933725687227383,-0.03295124247796119,0.26112136681121356,-0.012523,-0.003394852745611936,-0.002831527405289487
0.525,-10.042964666501302,0.02441531513098214,0.43017116818924284,-0.010954794228325975,-0.006109,-0.000764
0.5275,-10.035000589361728,0.05058245340189936,0.3922475955109207,-0.011245342844697196,-0.006109,-0.000764
0.53,-10.033475,0.055595,0.384983,-0.011301,-0.002161228976193217,-0.000764
0.5325,-9.799924177303302,0.03827663727474638,0.17221454366116978,-0.014966967046319758,-0.004792494539974591,-0.001268908534263954
0.535,-9.91803882441335,0.019688404650161136,0.3287139677502703,-0.01499925481162541,-0.005337666393972023,-0.00016008981700752547
0.5375,-10.014751493385958,-0.00655170496352088,0.42692657320894545,-0.015478331515368971,-0.006103311230714023,0.0006061820834828303
0.54,-10.080104,-0.080105,0.408895,-0.016341,-0.002760004418271541,-0.000305
0.5425,-10.080104,-0.080105,0.408895,-0.016341,-0.0037797082794843156,-0.000305
0.545,-9.935727473545928,-0.13609848032365054,0.32422348279866403,-0.01564885852451206,-0.003917813003331844,0.0001989359162302629
0.5475,-9.906994005858515,0.004649334973337863,0.2652185638487971,-0.012575916473515828,-0.006786905320535604,-0.001181052916222311
0.55,-9.9415230036715,0.04368080850241734,0.2992188917874441,-0.01066435362318833,-0.007636,0.0005923453140096068
0.5525,-10.046469183085168,0.08648508687552113,0.4291135823942821,-0.011167059735556867,-0.006703093612864806,-0.0002029488838594425
0.555,-10.079257571643737,0.08888007781778125,0.4798855364924115,-0.014661,-0.005161829510258568,0.0004491999308230313
0.5575,-9.994503517012813,0.0696626414024055,0.34536265729738247,-0.014661,-0.002140816193695469,-0.0004319632984828222
0.56,-9.867734082840784,-0.00015579996500764644,0.2436606277684121,-0.014512328563702893,-0.0015373851534913638,0.00046146171783045467
0.5625,-9.93353985724511,-0.023087875218705263,0.2960052014474312,-0.015149446476857007,-0.0030659677906791794,0.0009709892635597264
0.5650000000000001,-10.005160730496158,-0.13009567003494352,0.37506095689727664,-0.015873670580013995,-0.005920552173305454,0.0016716569252271311
0.5675,-10.013536290154498,-0.16780497689380391,0.3563598221434379,-0.01549585736217271,-0.0040244437046674224,0.0005207289803220013
0.5700000000000001,-9.837306143621797,-0.11822690530547932,0.12917123831631921,-0.012828829125176706,-0.0021425595099733687,-0.0035115861159101553
0.5725,-9.782173147309566,-0.035035813639076194,0.15722933367048855,-0.013331954565729545,-0.004909337710067546,-0.0032604351185801786
0.5750000000000001,-9.992298009591583,0.038517131328110424,0.3816856458530191,-0.01515607022663398,-0.008654045625784876,-0.002429978975064229
0.5775,-10.083757939680678,0.017526800540572752,0.467523658573223,-0.015252005243078397,-0.009707449727919638,-0.000419105787239121
0.58,-9.972637353499763,-0.027086536517728552,0.33984560371442496,-0.019101444821116156,-0.005996589289235251,-0.001209610952456646
0.5825,-9.820068128667511,0.01580951328549371,0.15264822350921747,-0.015387266137610817,-0.004908654081891128,-0.0026165660166033466
0.585,-9.909731,0.088474,0.319225,-0.016799,-0.009335363585077396,-0.002291
0.5875,-9.95516596556201,0.05840466243594081,0.3535903125555181,-0.017685335035872923,-0.006379480526135952,-0.00199555498804236
0.59,-10.028783022316365,0.00968412083020219,0.4092715072804913,-0.019121439935087102,-0.00384939238127779,-0.0015168533549709661
0.5925,-9.927661947998715,-0.08083818405379611,0.2778319602177348,-0.01862752056356064,-0.002093705936599418,-0.00033546621837973853
0.595,-9.862134868323098,-0.1381078730278693,0.20285446261691048,-0.0136935575247993,-0.005712320245630559,0.0011966106188001748
0.5975,-9.989403173722488,-0.09605969869870137,0.36782448252842265,-0.011058776167056325,-0.007575842080141924,-0.0009306183536241506
0.6,-10.06161604659896,-0.087279,0.3981776136277752,-0.01129192366556447,-0.006280958431743051,-0.00031769974019840567
0.6025,-9.861533471804737,-0.06527071157388359,0.22351034850066018,-0.01326996032704102,-0.005692086968858966,-0.0001902060983528042
0.605,-9.811198472076708,0.0008210894855001909,0.19327319054724015,-0.01531175579513562,-0.006197589204864353,-0.002237157273152467
0.6075,-9.842494604605116,0.024662592939925797,0.23726295042589718,-0.016779604023864383,-0.006567,-0.0030738123598558734
0.61,-9.918031222451413,0.038732799340776114,0.28650929222517546,-0.01725282279874771,-0.006567,-0.0033574958662649875
0.6125,-9.964865935837171,-0.015841401744609643,0.3787770425975301,-0.01776990244729829,-0.00579806605282286,0.00010188165737830311
0.615,-9.98183936993976,-0.06791651120481898,0.37319049737951987,-0.019074137801204833,-0.004469514939759003,-0.0010830971686746874
0.6175,-9.843186947393432,-0.09291069220168208,0.1687503299871687,-0.017905118182768624,-0.008226332853680568,-0.0018631562990067824
0.62,-9.816079341823885,-0.08278271273107449,0.14700494764434735,-0.01820958044385306,-0.008683275396093712,-0.0011779916361735509
0.6225,-9.917788347846228,-0.06815026267716498,0.2655578617971327,-0.01729562091709121,-0.009430182853172785,0.0009160350069477241
0.625,-10.077096884158946,-0.021536561748717556,0.5007785965852538,-0.018931434423091646,-0.0065646154965163465,-0.0003002309930326927
0.6275000000000001,-10.071818278232907,-0.02633587828497063,0.44606654863792844,-0.017214984313605353,-0.0058292234009646865,0.0011705531980706258
0.63,-10.011696584676043,-0.01648958339434092,0.3473905906587734,-0.017283855050236246,-0.002950263240102102,0.001575580761418563
0.6325000000000001,-9.906162447290498,0.003255854963341607,0.19419587509911096,-0.018153444770542572,-0.003036823578993105,0.0016627105762233227
0.635,-10.021571159508293,-0.043520390045228105,0.3217060919819096,-0.01653933198190884,-0.00513795865939929,0.003168402653368904
0.6375000000000001,-10.097651568893633,-0.11586855728824881,0.420008739182537,-0.013275463854234976,-0.0054498748194353325,0.0024350609980301825
0.64,-9.99103473504629,-0.1528608474191975,0.3457038495501052,-0.012069653643007962,-0.00151924223485463,0.00014989587786259266
0.6425,-9.89126163017054,-0.1233356925970445,0.2749466836056532,-0.012849656579502992,-0.00021895349683289408,-0.0003703899236641138
0.645,-9.829483257719437,-0.06329729334176804,0.2526074555495814,-0.011769016916020893,-0.0041341319310454075,-0.002139668878696824
0.6475,-9.933079680986872,-0.04743515600189806,0.3289422294986546,-0.014048421806104664,-0.006667264684485178,-0.0025194314977067794
0.65,-10.010065350515465,-0.03932377083946975,0.4180376020618565,-0.015972447782686975,-0.007596511503845529,-0.0008178398298150677
0.6525,-10.01482935065174,-0.023973924450206505,0.38087882418856944,-0.01688529524572775,-0.010535421251620453,-0.0007163217159693437
0.655,-9.869226705576033,-0.02384257455572108,0.19462263280683853,-0.016803428013489143,-0.00867618161712805,-0.0022488685405066015
0.6575,-9.843664016406557,-0.01991010617520199,0.17987464285781524,-0.017054244169084777,-0.0070438207356285955,0.0001375855038820233
0.66,-10.041412899759866,-0.010849017869951162,0.4074799026571048,-0.017263887587712464,-0.012151488878839828,-0.0010896853453921816
0.6625,-10.17727813310463,0.029226762201777286,0.5726694557773259,-0.017513237096522687,-0.00977980715733668,-0.0018385514111960012
0.665,-10.133696011874788,0.004815814540558162,0.446563720471219,-0.014816527189498437,-0.007147824126556677,0.001193918707505947
0.6675,-9.967717344696922,-0.01137811668764481,0.2438792331235523,-0.015167362961245443,-0.006772232891685991,0.0021339588141768744
0.67,-9.90832284712162,-0.1044692853236586,0.2020823167599204,-0.015121244405946387,-0.011384555439541238,3.3607411916143724e-05
0.6725,-9.99938903139596,-0.09542988708117174,0.36914031838773953,-0.014740272127065211,-0.012716701882033676,-0.0011361836188043678
0.675,-10.018531,0.03170907516872515,0.4255186120083784,-0.015695569094717268,-0.004999623644402892,-0.0027047132883407324
0.6775,-9.98484284081825,0.066583552677977,0.35142523716860163,-0.01712224391590226,-0.007012141979056733,3.5487831804519206e-05
0.68,-9.769248,0.018532,0.147059,-0.018021,-0.006806152024169395,0.004276
0.6825,-9.893291104105959,-0.026359987675811915,0.2693299609523806,-0.016662867429832865,-0.010318002649006626,0.00012650729107538308
0.685,-10.05449897868962,-0.05624302579307833,0.4290081056455315,-0.01610856296504484,-0.007940176862813899,-0.0041594447988758144
0.6875,-10.142583905966392,-0.014769048422038758,0.5178279386380936,-0.018264777563089172,-0.004002261022308097,-0.004253380115931847
0.6900000000000001,-10.065814440145491,0.055965848768102865,0.4458072361567469,-0.01986849033010778,-0.0028037750271086327,-0.004693405849975993
0.6925,-9.873521449172639,0.11848270644951146,0.23995392654071598,-0.021058717211726384,-0.0043311473094462625,-0.0034973663061889176
0.6950000000000001,-9.898838495057918,0.08580743438223812,0.2272566974324344,-0.01789504864864854,-0.008980496042471158,0.0002816463899614815
0.6975,-9.985323035657542,-0.021460616939389526,0.3642779703750598,-0.019504476847602474,-0.005610909802183877,0.0028236079442949926
0.7000000000000001,-10.026164890080558,-0.15772782890465695,0.41711967122760696,-0.01879045230251289,-0.004887,0.0021453757845376533
0.7025,-9.938282393275612,-0.11790788613756592,0.3192430208369403,-0.01712337898027897,-0.004120688234728231,0.002138
0.705,-9.782509587447114,-0.0387282474662011,0.20166850067122524,-0.019524419112454304,-0.0039945712390647035,-0.004065533647208605
0.7075,-9.791981295899475,0.024085407733418614,0.2714612655765871,-0.017486308929537127,-0.0060318474980117845,0.000901317518689394
0.71,-9.965286210207244,-0.0625490506253375,0.401393984141287,-0.01715583639574696,-0.006872,0.003509053508740319
0.7125,-9.978465375010513,-0.09003677097374926,0.37993052093470275,-0.01879165778819008,-0.006872,0.0031241914098636353
0.715,-9.884664845493765,-0.15958560005596265,0.14237519710854968,-0.01847925930278653,-0.0038192960895418447,0.000916907347557454
0.7175,-9.769204836918393,-0.18169285924241235,0.14629105405301518,-0.016811866956034257,-0.008946154967566324,-0.003186356085528994
0.72,-9.971665221686948,0.04875061776392267,0.41317147420418293,-0.018672208937114087,-0.00966220893711409,-0.006686971375816815
0.7225,-10.118219448527068,0.08144373519333414,0.5514582880882458,-0.018000230192434498,-0.008990230192434497,-0.005055112796594909
0.725,-10.024586430158731,0.05286574832451559,0.3401821236331577,-0.016141878659612013,-0.006578530335096997,0.001319254497354519
0.7275,-9.89493674103896,-0.015476625714286686,0.2617894251948041,-0.014087429610389581,-0.007092142597402605,-0.0011193529870130216
0.73,-9.885859620942274,0.024696550520231342,0.27202851576846804,-0.018812404690791026,-0.00504,-0.0019622874083458776
0.7325,-10.074472114777103,0.006331317687860976,0.4601453251690584,-0.020080260856758275,-0.00504,-0.0009485006508828722
0.735,-9.995991176268308,-0.05881558502540799,0.33301531257966227,-0.019405081798290185,-0.006650756506247397,0.0011825180056196573
0.7375,-9.846842257619414,-0.06518652894123285,0.20822492662162748,-0.020170497770072352,-0.004257342763197183,0.0010866059305314744
0.74,-9.747467943741107,-0.0068690850965370575,0.10182614077386024,-0.020275434853435477,-0.0022731568732900637,0.0010369983553505863
0.7425,-9.843504489326978,-0.03822800730712169,0.2351025847291514,-0.01902383198311574,-0.00702957563980311,-8.919833346363493e-05
0.745,-10.066292873463803,-0.10055424507875893,0.4353850391980908,-0.02014678572474145,-0.007895835958631671,-0.0006146610851233088
0.7475,-10.059809553915672,-0.11352004998568047,0.3924985310548917,-0.01887214441368335,-0.0031826661893395967,-0.000996719802704861
0.75,-9.81928282099982,-0.08827732592725318,0.1933784845009855,-0.01996762354416771,-0.0014907815803619424,-0.0005727767425192618
0.7525000000000001,-9.779972024282387,-0.02800127198231958,0.1806487731135397,-0.0194891477250194,-0.004072922682912321,-0.0012422671229767818
0.755,-10.0223858510312,0.04687331953322209,0.4153034739890459,-0.018670285887115994,-0.005807628987854252,-0.0048754426577756575
0.7575000000000001,-10.100759903732271,0.009495850796890169,0.48636924559425154,-0.021170348968136236,-0.005303392770426597,-0.0023968602812554918
0.76,-10.008517196273662,-0.014308498092921226,0.30039679772147326,-0.02107515397139975,-0.003973151574200434,0.00045338991514864806
0.7625000000000001,-9.933662267457136,-0.12064029427976572,0.35976027610959943,-0.022099905752283315,-0.0025619642685466696,0.00032967710302835745
0.765,-9.890041836784105,-0.04396023165068666,0.32852376338223377,-0.01811210147164142,-0.002291,-0.002384453029918003
0.7675000000000001,-10.09972977439518,-0.08350891118682874,0.473666516074344,-0.01904626179654388,-0.011395761392240238,-0.0037260467036192087
0.77,-10.046893806522592,-0.010832511864092675,0.35618322957586834,-0.015032178425979393,-0.008622914300242653,-0.0006630017566161737
0.7725,-10.01098404002863,-0.012517846924850853,0.3499605963642148,-0.018989017262823003,-0.007043883031411553,-0.000611
0.775,-9.79980099357849,-0.0004070781178335892,0.15712197700276845,-0.01770995557137208,-0.004186607402135302,-0.0006120115302491114
0.7775,-9.88308421493713,-0.05146597099881313,0.2195821126073539,-0.017077244232502974,-0.012164740811387801,-0.0007388854946619201
0.78,-10.08406120133471,-0.03838079983157237,0.4696976075347574,-0.018490846231826497,-0.013666955833796703,-0.0021498559339000666
0.7825,-10.115934179613888,-0.04883906876300934,0.4034624596774457,-0.019508015768650182,-0.007051605062366003,-0.0031678585334074735
0.785,-9.884930744563034,-0.012297209918433347,0.20312304925658067,-0.020911269410393864,-0.0005049353530644724,-0.001997074108599373
0.7875,-9.87063153836478,-0.031780231446540706,0.18468399622641524,-0.024298598742138335,-0.0057826691823898895,-0.002115098113207546
0.79,-9.97039060207355,0.016282617935724004,0.2816394334054405,-0.02182989901730526,-0.008149268856613127,-0.0027503527935723217
0.7925,-10.020923,0.041846,0.331181,-0.020311,-0.00908234701971028,-0.003054
0.795,-10.062113190902108,0.07380981828983305,0.3367109115040371,-0.019560092490007112,-0.005184743450113609,-0.005486712620111238
0.7975,-10.044426535132848,-0.024939923075475615,0.3833835971502466,-0.023324906861039246,-0.002925526094521526,-0.0019725571408417773
0.8,-9.990359052357054,-0.017641819810776817,0.30656235624845546,-0.021953305767173952,-0.0019253652324146323,-0.0005998884903331822
0.8025,-9.936253788652747,-0.06380495444301844,0.2553339295509157,-0.021273364479178814,-0.0030854579167152608,0.00016297452467047447
0.805,-9.913098538745281,-0.02140623407181359,0.2953854824162584,-0.01787827956944334,-0.00018591348381400118,0.0010257934741745797
0.8075,-9.936764568042411,-0.05161775625672739,0.2999170422845208,-0.018520952465258252,-0.002243645966744313,-0.0016754542019439267
0.81,-9.939486558802235,-0.014162523035296394,0.3125623612386488,-0.018497614839757107,-0.004245064190968611,-0.0006779391401599546
0.8125,-9.85279729865913,-0.054492126691119,0.2228580746798148,-0.019749147134868618,-0.0013567672418976608,-0.001255472431002345
0.8150000000000001,-9.738788230157366,0.004345189527898946,0.23058091479256157,-0.022888241030043003,-0.005467388154506574,-0.0009189616022889711
0.8175,-9.834781789356523,-0.030710731408695714,0.332301228730435,-0.020892438469565212,-0.00814257586086957,-0.0001606425043478248
0.8200000000000001,-10.13383288780605,0.02745052308260263,0.57077542414064,-0.023977624493858925,-0.01328305676808211,-0.0010683911471461637
0.8225,-10.04124388795055,-0.0339404577570846,0.41427943343983253,-0.026034877238500446,-0.00955575924219313,-0.0002973422461266731
0.8250000000000001,-10.023244535351179,-0.04570115453628472,0.3842961504229668,-0.02640958325184314,-0.006266608412883244,-0.0001578057120683362
0.8275,-9.8164874833993,-0.12889062525727635,0.17121509063562168,-0.02317799978579742,-0.008006504018626319,-0.0016486797764842917
0.8300000000000001,-9.938644823699372,-0.00017847474865248514,0.3180069385456392,-0.018817841776476194,-0.015208536281112989,-0.001985
0.8325,-10.166772166682922,-0.054431014516496415,0.5352514254054949,-0.019688304852917282,-0.013979410836990076,-0.0009521129790346099
0.835,-9.973453452822971,-0.023612986028708843,0.3282067345454588,-0.021945171100478434,-0.00716902449760777,0.00028208555023921634
0.8375,-9.828374869958443,-0.08992854343681313,0.17133416136233873,-0.01968446513484883,-0.008818878334555543,-0.0034102915179663007
0.84,-9.771929910314174,0.04813340703281127,0.06768706168024317,-0.019545021894344886,-0.00840643553176636,-4.012656737264857e-05
0.8425,-10.015527322654927,-0.0888056664938045,0.35394021253098806,-0.023045059748858485,-0.013839247690802407,0.0014249479452054948
0.845,-10.10487549703368,0.010349889151554858,0.4813327336917117,-0.02306,-0.005192,-0.002885780142487065
0.8475,-10.007948432163213,-0.032278222765544574,0.30574549058289935,-0.02306,-0.005192,-0.001199841075129513
0.85,-9.740811751071748,-0.03744383860865061,0.1041413815171344,-0.02398380066743678,-0.005839387986137813,-0.0012401939930689065
0.8525,-9.771385460100117,-0.08249922875625786,0.18982825048902702,-0.02490909395456297,-0.01015562881786683,-0.0033983144089334153
0.855,-9.88173651304238,0.05534714092652562,0.30309358164627925,-0.019893715990845214,-0.009284676063451994,-0.00423842152947678
0.8575,-9.841665368640202,-0.012921603210481712,0.25560271313708394,-0.02317987753768453,-0.006756541204324796,-0.0012054872385762285
0.86,-9.848865100187753,-0.026303,0.24091772836355882,-0.022999302594410076,-0.006536198916151054,-0.0017099969788777396
0.8625,-9.895587273359983,-0.026498952809780006,0.3200355253820838,-0.02388973455208089,-0.007375845661885748,-0.0006544537267810924
0.865,-9.950488967147894,0.04830053690571334,0.3502495783705618,-0.024266339264048906,-0.008505043423465785,-0.0004658431836350818
0.8675,-9.935034775822194,-0.014613179496433717,0.30321986890182795,-0.024408105729516936,-0.012076366662839406,-0.000206612761420482
0.87,-10.020802500549157,-0.020662540874466562,0.4270472330461387,-0.023921781969562766,-0.00841660889282552,-0.00046066211772284333
0.8725,-10.039644530572522,-0.0621229516014416,0.3840199376239655,-0.0245805449169667,-0.006261,-0.0011789073417721716
0.875,-9.931237303030304,-0.008996702981229296,0.28228081192491716,-0.026319178628389155,-0.007814081585081584,-0.00045176321923690336
0.8775000000000001,-9.883045173737372,-0.0013063737848115018,0.251519495139246,-0.026057173992557144,-0.007879261134421136,-0.002023362221404363
0.88,-9.9139791979441,0.01869386331055887,0.3199502567080747,-0.026100291291925464,-0.008695840906832297,-0.002916882987577633
0.8825000000000001,-10.013260946217393,-0.05820143865217582,0.4372393439130464,-0.025727428086956515,-0.008446722695652168,0.0008125631739131361
0.885,-9.927228076459121,-0.08928499566008866,0.2460432574079738,-0.023989193465968593,-0.008986916832863465,-0.0007705859363672995
0.8875000000000001,-9.799486772758755,-0.10594734550141002,0.13294485512685963,-0.025021299685863904,-0.007181153250100636,-0.0012857944422070213
0.89,-9.833438687717218,0.031063647764663825,0.1867714817460422,-0.02175302980606134,-0.0057843441480339205,-0.001252320474467705
0.8925000000000001,-9.966903426083867,-0.005369408628196279,0.3748864265962927,-0.02441224988553474,-0.005024389298380857,-0.000967492879425886
0.895,-9.94186039183381,-0.011318289570200889,0.3172146579942665,-0.02600001229226359,-0.007431428853868183,-0.0012540895845272043
0.8975,-9.807390616857367,-0.046845445638291086,0.1093736930449899,-0.024893,-0.005876113793805807,-0.000305
0.9,-9.7337899160127,-0.07575996181633046,0.0410306337985976,-0.024893,-0.004437015000299514,-0.000305
0.9025,-9.818963356004486,-0.004432726823795093,0.20879007708192665,-0.023495181459034776,-0.009163,-0.004522461952861988
0.905,-10.057658560493831,0.12471427795414604,0.5097971247266346,-0.025035177636684322,-0.009163,-0.001698014814814785
0.9075,-10.059181,0.125538,0.511717,-0.025045,-0.0056271959619047995,-0.00168
0.91,-9.94825818058961,-0.08859690380907821,0.3296955439026658,-0.025351,-0.005339299625643422,0.000611
0.9125,-9.855371455248791,-0.09397471988769297,0.21236494347215829,-0.025351,-0.00508987232880986,0.000611
0.915,-10.016831531819534,-0.05994042394341075,0.42207551051536724,-0.02707368013077332,-0.005803,-0.004204421812994091
0.9175,-10.0920980091898,-0.055842232657671076,0.5211894097247808,-0.025265489572608938,-0.005803,-0.002490972711169245
0.92,-10.131715682865382,0.063271986729729,0.49051004778867124,-0.02753313084784871,-0.009469795044411193,-0.005364933302572449
0.9225,-10.037789168153797,0.04454199372485412,0.3629890308922784,-0.027767052796885138,-0.00560038803698899,-0.0018541918591823687
0.925,-9.831803386996272,-0.06611744977745723,0.16198471079033008,-0.027658246180680884,-0.00983764584385899,0.00265744559124257
0.9275,-9.88647174754962,-0.0796897795741609,0.2566176541609524,-0.028910154853843375,-0.008392747722843744,-0.0008100576254059782
0.93,-10.006269678814817,0.0071820138518540605,0.3490470932592611,-0.027327984518518474,-0.008094,-0.0025496375555555807
0.9325,-10.078259017398373,-0.06495232719783192,0.41409022763685654,-0.026597441685636856,-0.00731019861246613,0.0011430346449864475
0.935,-9.980073049932622,-0.09775026146293987,0.32123923124157155,-0.027044044023099373,-0.004276,0.002425011087583887
0.9375,-9.866735503775493,0.0009015828527260835,0.18286725162019146,-0.030480739996432606,-0.004333692252809323,-0.002686117069980379
0.9400000000000001,-9.790918089562064,0.0023589011952567947,0.16513744356158155,-0.028862244742317907,-0.004435042061456736,-0.0010691080958141817
0.9425,-9.969378976123881,-0.036063514651181613,0.338037046329543,-0.027958197848213562,-0.011667417214291488,-0.001198499278974111
0.9450000000000001,-10.118246436708922,-0.015849488047936486,0.4297363965522028,-0.030210760580779056,-0.012678410500115225,-0.0004665151048628488
0.9475,-10.072945192532737,-0.09091828901309514,0.3927279407282017,-0.032264543015011186,-0.00722830272756306,0.00042876810603641326
0.9500000000000001,-9.892078706480365,-0.03756739137557367,0.1809102031638974,-0.029301514398136934,-0.00614427786075655,0.000611
0.9525,-9.856339720096363,-0.09444714515056643,0.22319257997269756,-0.02698678266763028,-0.01013043283064324,0.000611
0.9550000000000001,-10.096188612969573,-0.13200353580505503,0.5014750181928411,-0.02609584660370754,-0.014164658547277503,-1.4123712253738905e-05
0.9575,-10.20000796034232,-0.00896545886646284,0.4731293774002898,-0.025388286749555976,-0.010403422425318876,-0.0008944800968835718
0.96,-10.065160132540441,-0.1069092477862,0.35658510177072933,-0.02869936536063141,-0.005789918171446449,5.817319684293893e-06
0.9625,-9.910862874720635,-0.09858258582480262,0.2277594650621228,-0.027698068281628498,-0.004664073501601928,0.0005064658591857511
0.965,-9.893874887367181,-0.08327352451878943,0.23870759873247618,-0.02756593013311344,-0.007942860266226877,-0.0005830565578984206
0.9675,-9.931164246038403,-0.05004494285310366,0.3313785444551783,-0.027754300777476735,-0.008319601554953473,-0.0035068160018848237
0.97,-10.096334231831051,-0.04363483661627069,0.40730394853371654,-0.029462283945284357,-0.008399,-0.001090298113750941
0.9725,-10.026218452080537,-0.10888423359539871,0.34544325671140863,-0.029983051457334618,-0.0025461579578139257,-0.0017055226078619447
0.975,-9.874533533411325,-0.03738462374824614,0.26191539171736156,-0.028884529386991122,-0.001374,-0.0007828338090781586
0.9775,-9.828952017479509,0.0012330689702188327,0.1383073602142318,-0.027582322460439807,-0.007394106993427013,5.0774746409264215e-06
0.98,-9.890539159374065,-0.003022310331052473,0.24684888601714117,-0.03098210664464891,-0.007340081956436259,-0.0010664836360776931
0.9825,-10.063552138007395,-0.06611579695840314,0.4218333557379913,-0.02909389477077924,-0.008347677986946623,-0.0008149969017850082
0.985,-10.005977536516893,-0.12438626647252843,0.454474733345467,-0.027694478402912077,-0.00405039734273692,-0.0011995162689113837
0.9875,-9.875178066240784,-0.062248782113020915,0.2525045510565073,-0.025126391400491353,-0.004321121719901729,0.0011676223095823538
0.99,-9.821107271369863,-0.05253779506849313,0.1727701939726029,-0.02759219931506848,-0.006982681643835606,-0.0008736816438356053
0.9925,-9.953203163182986,0.005981808968248965,0.37674494715938606,-0.02837785214812516,-0.005798311975778254,-0.001652655480164598
0.995,-10.138739702373048,0.02856804001981668,0.5834507001733957,-0.03036341191974238,-0.009258536120881834,0.0010253226356205037
0.9975,-10.14974014674536,0.030619235853071407,0.5343608430845683,-0.028915683395200713,-0.007348911193600951,8.545559680047591e-05
1.0,-9.97691,-0.026641680327868848,0.27639468032786885,-0.025429860655737702,-0.008361450819672132,0.0010389508196721312
1.0025,-9.932274164019004,-0.1051946498325398,0.26445922312952735,-0.026696774343796217,-0.011213110279616731,0.0005795546880598284
1.0050000000000001,-10.001326486984317,-0.06504298778881407,0.3107680889381063,-0.0259192785921226,-0.011606,-0.001222
1.0075,-9.992321387096851,0.028761443672934206,0.31677169808452066,-0.0262067488471208,-0.011606,-0.001222
1.01,-9.99669042037724,0.049203643737668695,0.2742357114545022,-0.026267,-0.010207544509509899,-0.001222
1.0125,-10.026276938823528,-0.0011864289555806803,0.34217256153661185,-0.031637903577430807,-0.009804276734693867,0.000679905018007145
1.0150000000000001,-10.070192196873654,-0.03807363556940897,0.42868185100935363,-0.029364770251737927,-0.00901917219851349,-0.0010445641428915456
1.0175,-9.959139624185681,-0.09250597665550432,0.3488193595389026,-0.027217877791105165,-0.006288495764467559,0.0025194317532519143
1.02,-9.881530113398291,-0.11910451338385673,0.19627812614459159,-0.0305699292289186,-0.004614970215325385,0.002768397945386738
1.0225,-10.033276062033064,-0.009186836130300975,0.38841913339662504,-0.03107886816827632,-0.010395421810443676,-0.003436868168276319
1.025,-10.07635081252556,0.05358139874978053,0.4918712993632075,-0.030965489384822097,-0.00682031996261034,-0.0024302345387627
1.0275,-10.052912991785943,0.06456764749897798,0.45415209036162757,-0.031246057129169842,-0.004855733158847866,-0.0005593745142255637
1.03,-9.796462938499099,0.04816030333931752,0.15348762183123477,-0.029056275533213615,-0.005328896818671466,0.0022480347432675372
1.0325,-9.718433941586275,-0.023206013389445647,0.11273983005503438,-0.029527254101651013,-0.005345,0.001523700472644877
1.035,-9.834017846122396,-0.03823924385088835,0.21692710983160632,-0.03248102314249205,-0.009700778255719255,0.0007740847288352345
1.0375,-9.906587814924903,-0.026039070118576636,0.3263303829565256,-0.031529819383399174,-0.008774819383399173,0.001013386324110681
1.04,-9.943597946182347,-0.0025932632667389384,0.31242185089720237,-0.030096813110546048,-0.00325867027485158,-0.005888089114905079
1.0425,-9.884120265368194,0.0359063133125447,0.23147704865435415,-0.02970394048452867,-0.0016819299304389652,-0.0012543246246102518
1.045,-9.903079675951387,0.0015348069807907569,0.3838545857185396,-0.03266546492826348,-0.00901111172402979,0.0015136883763230532
1.0475,-10.029872285619762,0.039867226994905455,0.45904541808859567,-0.03090783616464125,-0.009136891518620153,7.619201881556336e-06
1.05,-10.081681073016261,-0.10841073200368176,0.4645330944093259,-0.03408834819269709,-0.00869652581773545,-0.001700547296716814
1.0525,-9.973586046900277,-0.08840767280760978,0.3460507631126117,-0.030944228931574114,-0.005846484023320046,-0.0033710617465480147
1.055,-9.90228504706443,0.007615347469610129,0.24711308183999112,-0.028910743080956394,-0.0075124586382774965,-0.0013618148057520042
1.0575,-9.943121779820451,0.06289322184794069,0.3497014190895412,-0.034890467024708285,-0.011202093264479383,0.00016435603082551992
1.06,-9.990274593997276,-0.045433,0.3214773870927261,-0.03489176615421027,-0.01190580322859335,0.000650107187407549
1.0625,-9.92202252837446,-0.045433,0.26212819646132907,-0.03318602295993846,-0.009252562814367715,0.0011241660453281258
1.065,-9.843134125024426,-0.07667686305652394,0.19780657228192744,-0.03697261895324483,-0.009591570383810165,0.001222
1.0675000000000001,-9.794923368541467,-0.08838095321258392,0.17862416536383774,-0.03438486596758805,-0.007268138741658611,0.0018408325198602134
1.07,-9.949435069292715,-0.09203734561721683,0.27417236794583805,-0.031055414977632607,-0.013604963694837605,-0.004002095422560947
1.0725,-10.065906186376301,0.04429323104243443,0.37647307286789466,-0.029991935881505203,-0.011598602414731778,-0.0032395523811048804
1.075,-9.997649976634879,0.06841519284741154,0.34051927425068246,-0.03425053419618519,-0.005379934332425197,-0.003198484945504084
1.0775000000000001,-9.890992707883445,0.04858656500900209,0.24325980290390736,-0.036762960094942,-0.0024163495727613626,0.00029120056965151664
1.08,-9.904755006948143,-0.06609039400642894,0.20802389686094488,-0.03784195067462141,-0.003377079146397486,0.0026130791463974856
1.0825,-10.080426370212768,-0.17108184807509438,0.46206890867084205,-0.035250545076345396,-0.007747103374217817,0.0005835450763453935
1.085,-10.156044585940428,-0.031138859234043137,0.5004123589106403,-0.033120734808510674,-0.005395511591489348,-0.0025164744170213154
1.0875000000000001,-10.03334398327051,0.009634492644379072,0.3598024606200533,-0.030978962553191377,-0.006368870589665706,0.00020918575076002421
1.09,-9.854136,-0.005978,0.148254,-0.035125,-0.006624137653240054,-0.000916
1.0925,-9.944860021602477,-0.02799844723721761,0.28345984072299635,-0.036418673648329014,-0.00813428242130163,-0.00012845038151269243
1.095,-10.10054414509773,-0.06546674663619213,0.515127891733922,-0.03862662136191679,-0.007930621361916789,0.0011943141897856674
1.0975,-10.117341360734551,-0.022979088426861388,0.4894374491614132,-0.0371125992686003,-0.0064165992686003,-0.0028444554445143724
1.1,-9.89187386973746,-0.09958205064439521,0.23626302995225626,-0.03695655379474941,-0.0033680698568017875,0.0005984475417663004
1.1025,-9.74809092198445,-0.11527381118090196,0.12509285719693897,-0.031718722625836374,-0.01187876099342941,0.0007516333932123545
1.105,-9.859278292460864,-0.04283573020663778,0.21270391192235266,-0.030094880563556654,-0.013893157758296812,-0.000305
1.1075,-10.078102873350025,0.0042656536881639714,0.45998515144645513,-0.03235109175954909,-0.013015787889793387,-0.000305
1.11,-10.0501940322781,-0.03450206564090555,0.3622445753386617,-0.037194451291363256,-0.0098212674997012,-0.0018093507729065375
1.1125,-9.89542151078031,-0.11157269133253439,0.1260123661944736,-0.04245228917166876,-0.0066095364865945815,-0.001072965154061611
1.115,-9.811301410768497,-0.10649049354653947,0.08366843041527444,-0.04063443783293557,-0.0071731819952267255,-0.0031979672267303002
1.1175,-10.05937756470699,-0.05728179269873139,0.42339483380112053,-0.036475900718796174,-0.005760121144880654,-0.0030722727506639056
1.12,-10.13632243668575,-0.04914380333549685,0.45150929435467807,-0.03364112547182048,0.0006662357509592612,-0.0033556883942165955
1.1225,-10.054381581246993,0.050912315871135365,0.4994295939541603,-0.031323049386119524,0.000764,-0.001211665407917889
1.125,-10.001740865823235,0.04625765591589451,0.44012911992159653,-0.032771989843193156,-0.000759211867426942,8.670687811831784e-05
1.1275,-9.910894797227371,-0.0192708702708468,0.26215956454977807,-0.037717785766215144,-0.010175593753860573,0.0022746657091945364
1.1300000000000001,-10.126464486788834,-0.019638026023020092,0.5926214505332611,-0.03790643548038519,-0.004704772403100332,0.00039154182757796755
1.1325,-10.08344831820047,-0.0856394062482114,0.410164980840087,-0.03559766050119336,-0.00672,0.0013539797326969356
1.135,-9.862504,-0.11956,0.202056,-0.036652,-0.008198931555343524,0.002291
1.1375,-9.890037735980385,-0.1111900036596307,0.29853314085989063,-0.037552154123064015,-0.009436488261675547,0.0022346252227471164
1.1400000000000001,-9.936892899632843,-0.0969464753357644,0.4627118134138693,-0.03908397925491845,-0.008862132215511543,0.0021386902063026923
1.1425,-10.06961831605684,-0.04089051478847074,0.5098540154162331,-0.03616002016215773,-0.01141022905033322,-0.00041422905033321926
1.145,-10.116695772911452,-0.058540617913769376,0.4890705479879459,-0.03842145736671305,-0.009073542633286948,-0.000916
1.1475,-10.022400095485004,-0.13136255270261543,0.3042697751276351,-0.036351871930440365,-0.008131943047224009,0.0005887711295468832
1.1500000000000001,-9.881948515513791,-0.16153292096300745,0.17970010788020566,-0.03071147891955338,-0.011046912648267973,-0.0018935580270113468
1.1525,-9.941077647004096,-0.11047871542669774,0.34953200931695894,-0.03297140120556929,-0.012042542001638032,-0.0026243172022932235
1.155,-10.134940897327143,-0.0046562897825538525,0.5209333260493477,-0.035583,-0.012211546327876788,-0.001831787852430963
1.1575,-9.97142386488889,0.05926997244444443,0.26849642992592726,-0.03610837688888888,-0.010168884888888877,-0.0014556282962962922
1.16,-9.836282954448778,0.059496330715735686,0.1435574002494944,-0.03696049850615935,-0.01126608353656643,-0.001812043262123859
1.1625,-9.756621100389829,-0.003549035583972307,0.10690302245438822,-0.03721066555434275,-0.008769318290971377,-0.0003134935911429375
1.165,-9.812942811815772,-0.04883165029820436,0.19323898666666944,-0.0361699377611241,-0.009949040643247482,0.003612884839968728
1.1675,-10.002804645458234,-0.03708694424980492,0.3889731733333319,-0.03466951636533959,-0.011323403722092106,0.00036319965651836813
1.17,-10.09439850656752,0.0041462268841434904,0.35875038771887996,-0.03603932362676895,-0.00535124748380929,-0.0024408666154952462
1.1725,-9.938061838865778,-0.01900219531191017,0.23238542018903097,-0.03541050502835536,-0.004589066238185225,0.0002035934215501977
1.175,-9.809713407660082,0.01453666432076688,0.1192811868581668,-0.03648615839616998,-0.007450906499102402,0.0006126078276481115
1.1775,-10.059565443209971,-0.017502954178418274,0.4331544415426556,-0.03847894657109466,-0.009338997379041676,0.002714085637709381
1.18,-10.093399533746759,-0.11307618446942272,0.4879143625843119,-0.037575861025324314,-0.010836888410129676,0.003510256281655333
1.1825,-9.949214828030874,-0.03977812751543703,0.3247720014655543,-0.038173905368171064,-0.004260826574821739,0.0014191018741091096
1.185,-9.818188282928737,0.016429033035630647,0.23320279838717145,-0.03921999068883612,-0.0015982903657956677,-0.0021942511710214547
1.1875,-9.831630247453115,0.009459171625376243,0.276303719379486,-0.040060217816624215,-0.006217779404954851,-0.0007575327622134753
1.19,-9.869934400098456,-0.0017966053894387848,0.3218644540631767,-0.04016450998300419,-0.010384980033991619,0.0007328706487721691
1.1925000000000001,-9.95149078917893,-0.018328131484499386,0.3648466677231456,-0.038756617106018805,-0.013200765787962388,0.0020467401254176307
1.195,-9.833354450040748,-0.0790050854168209,0.18766740626156753,-0.0406132655946647,-0.008111033975546241,-0.0037111124120046083
1.1975,-9.701265271458148,0.013123417995345804,-0.012436948694327016,-0.036578002529492,-0.01223927539683815,-0.003818
1.2,-9.721902237751197,0.12053163755980664,0.15490044966506716,-0.03756335425837316,-0.012676163971291877,-0.0022948722966507516
1.2025000000000001,-9.722022,0.120756,0.155428,-0.037568,-0.014813531816178893,-0.002291
1.205,-9.986128894528177,-0.026816205695275125,0.3615604492892872,-0.036969466898027076,-0.012877867592108305,0.003543473249346538
1.2075,-9.953503586712586,-0.13799328041327566,0.29635828438321804,-0.03794352205385097,-0.008760009304946746,0.002432251083281143
1.21,-9.78708803254146,-0.0919155757228855,0.13011419734185267,-0.038932005006755914,-0.003573551814273509,0.0004821774720550609
1.2125000000000001,-9.75409596881789,-0.0522495903035123,0.12990913758785952,-0.03843699244408943,-0.004903313738019244,-0.00030059725239620707
1.215,-9.959028537309221,-0.0311059147765659,0.2652184112950815,-0.043668905978195977,-0.009004218339523336,-0.0022882242578172534
1.2175,-10.129389378823344,-0.0519070170116401,0.43249119875524766,-0.042663606014727996,-0.005590831913849041,-0.00039109360044340346
1.22,-10.102799956183366,-0.10065751389528929,0.4888494950917632,-0.03908584363867483,0.0008915763724477962,-0.0009282151457853179
1.2225,-9.950908470123148,-0.05434339399380461,0.3205241814697758,-0.03794121551124179,-0.0021615983633907023,-0.0024552190450464278
1.225,-9.903778644074992,-0.07408437007428495,0.39677736016979603,-0.03985582362928909,-0.006255782313406592,-0.0032063195613725
1.2275,-9.860174303214656,-0.06010189782542583,0.30577416002560076,-0.039859,-0.0086926433570686,-0.003335201734538765
1.23,-9.907978044244333,0.029939251523929324,0.26247269818639785,-0.04352460024559194,-0.010382903063602022,-0.005342903063602022
1.2325,-9.925248513564231,0.050663154395465405,0.2787560005541557,-0.04377716971662468,-0.009500560695843853,-0.004460560695843854
1.235,-9.836867778612735,0.045086141481301724,0.18708680567128083,-0.04444,-0.008060197639312882,-0.000458
1.2375,-9.816076978545855,0.018701148374469827,0.21264193165608825,-0.04311707501790229,-0.003629390041533429,-0.0007773782307729125
1.24,-9.928595035187854,0.0710698781400676,0.42870054840884053,-0.04090048336850147,-0.005617214214923371,-0.0013125039022294342
1.2425,-10.075881666806678,0.04276039119809274,0.5820837656133624,-0.04482075490214777,-0.004925790071599107,-0.0008402492219570691
1.245,-10.063573624619034,-0.05701632923807708,0.5026071916069256,-0.046729641870401156,-0.007774038309993058,0.000757877284595373
1.2475,-9.871060480277883,-0.02237951878424177,0.21517389462381958,-0.044338141056287944,-0.005521516636930559,7.622319412630774e-06
1.25,-9.836779173661359,0.001147335624698504,0.24720783441871683,-0.04048013024602026,-0.008084792329956585,0.0024351731789676793
1.2525,-9.839228842371774,-0.09696995699098329,0.3354494564438899,-0.044939479210444416,-0.007846056900839296,0.0010780935623251767
1.2550000000000001,-10.072749661253827,0.006288826977024849,0.43653075555582266,-0.04442776389945411,-0.010385,-0.0037938202963584697
1.2575,-10.128781073739278,0.041638085927171074,0.4463081967748518,-0.04519647220349153,-0.010385,-0.0029294952474653337
1.26,-9.986789535378769,0.001322202697696298,0.2593259796057935,-0.0421979641082878,-0.011136588520541443,0.0017644712989788856
1.2625,-9.856495329087977,-0.015397397417271705,0.19847372953995263,-0.04610829646489097,-0.008977375238095277,4.532829701375265e-05
1.2650000000000001,-9.79625995257386,-0.00294716985775002,0.1833164699209714,-0.04613090777142855,-0.008576673424924037,-0.002709793478419385
1.2675,-9.819503281001824,0.01191392489240164,0.15816658172644305,-0.04574143668571427,-0.009063671640121593,-0.0013469633945288365
1.27,-9.869633180779338,0.05248858172262807,0.21691629869960752,-0.04322864574059515,-0.005871035377877567,-0.0013548910050533434
1.2725,-9.745746598605207,-0.041917496011464495,0.2214505524934328,-0.04531513961069979,-0.0007790704513971628,0.0018768536756627388
1.2750000000000001,-9.725909554191544,-0.011226550513492514,0.1705487866849746,-0.04550609714592788,-0.002117651468832171,0.0037889333890614827
1.2775,-9.879912172080727,-0.07210404074606527,0.3028446964378579,-0.0465943650053509,-0.005151762611221624,-0.0032941008714266187
1.28,-9.987761285000001,-0.033871855109451954,0.3774382559701498,-0.04468130038308454,-0.005808896970149252,-0.001227909855721335
1.2825,-9.949405675423105,-0.07128042873813775,0.358491236734374,-0.04434959607873892,-0.005803,-0.0016787068716179058
1.285,-9.906470707011632,-0.08691336718727723,0.3106458216093063,-0.046437936577260766,-0.0037957666366010816,-0.00412657862805592
1.2875,-9.892714439756258,-0.10083839902975766,0.2702429591433495,-0.04693200664970706,-0.00931595748683672,-0.0037213772821392687
1.29,-9.947598581297996,-0.09045499662308451,0.3306903909696512,-0.04418448070520022,-0.011115590082233949,-0.003816290686860322
1.2925,-10.020701213415204,-0.05097880682556383,0.3909615397883166,-0.04693031802536962,-0.011783602074816187,-0.006739772888422053
1.295,-10.054179597600378,0.022670406003735117,0.35989109813259007,-0.04474100583566763,-0.004579336489262382,-0.0062532345284781075
1.2975,-9.870790573909112,0.0124285957578583,0.22917808773731205,-0.043619163320883864,-0.004205660946156225,-0.004508871403672512
1.3,-9.830223,-0.017453866116677118,0.25261907307012493,-0.04925047151443738,-0.008680095698291205,-0.0004484506069533634
1.3025,-9.936800251782497,0.024001254716859557,0.31528448036679513,-0.049354875733590736,-0.008482627200772202,-0.0035525062870012756
1.305,-9.979746901667568,-0.029131496460463348,0.3567846620763879,-0.04677229300340686,-0.003665,-0.0039336830338891895
1.3075,-9.8493658675632,0.00046628620405361754,0.24438754305181518,-0.04648525229573844,-0.003665,-0.003837793889187731
1.31,-9.738569332276077,-0.003958363516863029,0.12676896875921317,-0.046426,-0.0034659428862745044,-0.003818
1.3125,-9.800500237787006,-0.021062795676599903,0.22377677821201758,-0.04800756643869077,-0.006523132877381535,-0.0014456503419638497
1.315,-10.038345153681698,-0.04056445517438359,0.462261829644085,-0.045374651670039366,-0.009610074348291817,-0.0003066842566361229
1.3175000000000001,-10.092113658041715,-0.11616324823436108,0.490618752434327,-0.04408800246457565,-0.008224853399140199,-0.00017868197420792283
1.32,-9.930730545657937,-0.16617258469702512,0.28046394816779535,-0.045814117461455785,-0.006414678910003538,-0.004579031294370881
1.3225,-9.858778466359725,-0.10030244206149411,0.21697812611119938,-0.0473446397387287,-0.009091704498964483,-0.00611147469491796
1.325,-9.937736344621227,0.03010651721681278,0.3431641481833271,-0.04801668515791968,-0.006872,-0.004851095511754936
1.3275000000000001,-10.094036669826652,0.04871369878888718,0.47267050543814465,-0.05086845828544303,-0.006872,-0.004375488729517906
1.33,-10.10290964155065,0.04680957909881513,0.4308634226538193,-0.048740230298322036,-0.007490150484773179,-0.0013632801243007656
1.3325,-9.949025899996892,-0.09441418761342549,0.3266493706960838,-0.051974262865133646,-0.008485613405842144,0.00012909963952766773
1.335,-9.802882010129776,-0.10634478214073112,0.17558071568519926,-0.05058827321824026,-0.00545489059649959,-0.0010853447410405785
1.3375000000000001,-9.845422435075607,-0.10037405381593015,0.2711104962019339,-0.05068377990236933,-0.004977981402547897,-0.002610954780331073
1.34,-10.126214258372478,-0.05565690644839884,0.5335227834400885,-0.04917068838908658,-0.004904255857651319,-0.003171057357057974
1.3425,-10.021848603273508,-0.08090375300311177,0.33684628056153587,-0.048742886435351365,-0.006251830192230972,0.0008191133157852865
1.345,-9.77794059648974,-0.1721857151309271,0.15090256240622915,-0.04882468217975944,-0.0039871137721160434,0.001809828619957568
1.3475,-9.66900726230086,-0.1746502851269953,0.0335893604120506,-0.043284553105292306,-0.0060014812864668705,-0.0010868038310921464
1.35,-9.803555669398655,-0.13787956439001114,0.22641270902811098,-0.047463700863557744,-0.007181609923064859,-0.002294609923064859
1.3525,-9.952661233876592,-0.053237798436174016,0.3976636586151696,-0.04419482404145073,-0.007558629712670755,-0.0026716297126707545
1.355,-9.977415043279098,-0.01521377695869856,0.3174535261201512,-0.04432062470588235,-0.005246777784730935,-0.0009569203629537083
1.3575,-9.916703366632024,0.0007259912991831275,0.2893410132145492,-0.04565859601088835,-0.006137482019302046,-0.0015966696164314976
1.36,-9.940218,-0.004782,0.296509,-0.046884,-0.006868583317090328,-0.00336
1.3625,-9.940218,-0.004782,0.296509,-0.046884,-0.0062104915282099335,-0.00336
1.365,-9.793362285854363,-0.04149688815188622,0.16571437009372866,-0.0462976749435232,-0.009613633059360695,0.0011828196683489126
1.3675,-9.838679580415878,0.021086173062380226,0.20879170302457342,-0.046273,-0.012131569763705045,0.001374
1.37,-10.004616450550193,-0.040088373146608625,0.28571132170279345,-0.04985139313993573,-0.014464647135712003,0.0017876193531177287
1.3725,-10.03429388153402,-0.07633617606598003,0.32414836282061926,-0.04976042864824741,-0.014177428648247411,0.0003822859447422343
1.375,-10.004344678082624,-0.06840770444654683,0.32139127524440236,-0.0498770917060864,-0.005008653106275623,0.0003050147587511826
1.3775,-9.89403950916935,-0.017802256090824156,0.2850181545581843,-0.05068526570293281,-0.0059180141911068865,0.0013149015780510665
1.3800000000000001,-9.910817740889609,-0.1121689046324099,0.3658259554828353,-0.0498345940447107,-0.010190623821157187,0.0025474059552892964
1.3825,-10.098086418665822,-0.07683038949211804,0.45311714166534206,-0.04769978330202192,-0.007562944066231419,-0.0028014932590353253
1.385,-10.222337575880115,0.009557585623388154,0.6158866686746107,-0.04899363927281662,-0.006872,-0.005627358324530163
1.3875,-10.050393614564523,0.08021411503058425,0.3993915384940325,-0.05051953881444798,4.082023011930513e-05,-0.005304717725021853
1.3900000000000001,-9.89677218542895,0.07750196180784659,0.2833082279188059,-0.05218328827063608,-0.009469957520975151,-4.694205683318086e-05
1.3925,-9.904185723122557,0.040992562197590864,0.2883769972952717,-0.05347209318555143,-0.009927,0.0015206467267363448
1.395,-10.092218027552594,-0.03604401969421835,0.45971952404184546,-0.053470105713300374,-0.01264627647775609,0.001402752532474993
1.3975,-10.051919216146516,-0.052961747227976946,0.386361673353776,-0.05206700967929065,-0.006663476446507096,-0.00026125046821908523
1.4000000000000001,-10.043802309684542,-0.08239516558359801,0.3422333266561497,-0.0504623402208201,-0.006553450063091564,-0.0015168430914827102
1.4025,-9.860991470781297,-0.0650539517625397,0.21487036028945783,-0.04828417184349311,-0.0052141290420702965,-0.001985
1.405,-9.780425653351196,-0.05930539031033638,0.2276290947265003,-0.04771491253404789,-0.004911246537173514,-0.0020895069256529715
1.4075,-9.882226658228307,-0.017410673998950764,0.2710701650584346,-0.05165813080379717,-0.0069010886037303735,-0.0007221253637360764
1.41,-10.013198867686873,0.004119072789199325,0.424169363944087,-0.05119944445546917,-0.007741430005247314,-0.003548273529551977
1.4125,-9.837878626170793,0.0023430403305800124,0.24785209112947137,-0.05281627267217636,-0.0051455453443527265,-0.004033011404958584
1.415,-9.694551574710742,0.04465004885950473,0.10107167160330371,-0.054360250280991756,-0.008233500561983517,-0.0013855736528925245
1.4175,-9.698893145339914,-0.015279724827256369,0.2315897018309177,-0.054239846062728865,-0.009388892220983911,-0.0027702000955261803
1.42,-9.699903,-0.027499,0.25825,-0.054214,-0.009769830314026512,-0.003054
1.4225,-9.96329494241397,-0.05324354777831739,0.3701412624721324,-0.05307605537566646,-0.01091194462433354,-0.0034333148747778468
1.425,-9.9959543025,-0.09791384250000087,0.34708227999999897,-0.051953769999999976,-0.007602112499999921,-0.005285427500000039
1.4275,-10.013038863679299,-0.06903666588006178,0.3277067925667452,-0.0492682094684736,-0.005585770156617713,-0.0026892094684735956
1.43,-9.90679823302437,-0.16016018544194632,0.22840889792642438,-0.05375342392259898,-0.0071769847013855095,-0.002442844075489718
1.4325,-9.889854986487,-0.10756498876981385,0.2209101402060872,-0.053756,-0.0070508862999365835,-0.002443
1.435,-9.887604208784202,-0.06358508238401053,0.20157582915060623,-0.05299797048298832,-0.006417980295027346,-0.006995151044492151
1.4375,-9.928638780261682,0.012626831925233645,0.2970334761869159,-0.0504918996635514,-0.007962077383177571,-0.004285253981308411
1.44,-9.972016871697733,-0.0016980182770770305,0.4284860719395435,-0.05210646847355157,-0.00883497831738034,-0.0039479783173803394
1.4425000000000001,-9.971724486980962,0.04617721950813214,0.33053318336791726,-0.052229,-0.008858,-0.0005719533066425361
1.445,-9.922979946368098,-0.12397934358041518,0.29175951407975037,-0.05207630632978086,-0.006571586938091175,0.0019813320512514043
1.4475,-9.799859589399226,-0.10013270658561607,0.1563508247509271,-0.05182392317044288,-0.007702585455119607,-0.00028699739164759607
1.45,-9.939634537164839,-0.05632942231573972,0.37335829099434337,-0.051771,-0.007941,-0.0035023520981122386
1.4525000000000001,-10.001796636617014,-0.001123123940410524,0.3567007667083124,-0.05356149537722258,-0.010626743065833867,-0.0027448841134069773
1.455,-10.0692873167788,-0.07631994896364556,0.4443378543436435,-0.05507941828519655,-0.011148,0.0017916318858309404
1.4575,-10.059920623421545,-0.05056864681703423,0.3750015542903667,-0.054250706659066845,-0.007501658640175855,-0.0021644837651657338
1.46,-9.998846842255988,-0.017340158380399814,0.3193277539161569,-0.05305096988942806,-0.007123618041524136,-0.0018418225375865303
1.4625000000000001,-9.968913,-0.003587,0.2989,-0.052534,-0.0068698903545927215,-0.001222
1.465,-9.974333099938594,0.0975257536230492,0.30338540048653917,-0.051786835540859874,-0.009381504718941783,-0.004082703944260719
1.4675,-9.98765761818139,0.02572157729806253,0.3540923713320742,-0.05708172332546061,-0.0057886335994331226,-0.003231386041568248
1.47,-10.13032,-0.153544609438423,0.5350664419211809,-0.05699601543349755,-0.003668316793103528,-0.00036383388669946324
1.4725,-10.115110104931022,-0.13836013844358205,0.5585182238769031,-0.056226197849310246,-0.0016993428440041753,-0.002138
1.475,-10.08850068072161,-0.0666666444876758,0.5023462758519023,-0.05547076814054944,-0.003871048708878747,-0.002138
1.4775,-9.959962906751176,-0.11487603947017794,0.39479935242970754,-0.05369808710547697,-0.004715587563790032,-0.004620500458313055
1.48,-9.883073484969895,-0.07632035264011161,0.22789350737378544,-0.04837839362667907,-0.009083636484483518,-0.003166168253821232
1.4825,-10.04180263398591,-0.09963206921895942,0.42739106754134065,-0.05016699843950298,-0.008830919088391245,-0.0002657771496400287
1.485,-10.027696985263155,-0.10755112421052639,0.3960949199999956,-0.05581069473684237,-0.007974776842105225,-0.0043582231578949875
1.4875,-9.904010122653693,-0.04729727246630939,0.2985611202774881,-0.05678625677378201,-0.0059693795869547525,-0.0035955933179172136
1.49,-9.643882996016261,-0.05882141869440447,0.03981974078431483,-0.054017825222381646,-0.005939679780009563,-0.002475676073648976
1.4925,-9.836157487947792,-0.07231224083523356,0.20554365118433338,-0.05530476284502449,-0.012304881422512244,-0.0015998649396411061
1.495,-9.98183809700187,-0.13385266882689026,0.3593018635685594,-0.053771331114254875,-0.010624686845113303,-0.001925879074189377
1.4975,-10.015182944347236,-0.10441053460019178,0.37632853989927034,-0.05105302051723156,-0.00690889095806681,-0.00256021088563184
1.5,-9.928825463970492,-0.14436799407192727,0.3523958880252931,-0.04965119075220656,-0.005655525358977736,-0.0030449195099459883
1.5025,-9.77021908778689,-0.10235767153846248,0.2132563808953372,-0.05074404273644385,-0.0014518406620429667,-0.0024370235750315393
1.5050000000000001,-9.696808371138866,-0.13335110310066375,0.08143916052901681,-0.04919933692872877,-0.010705042027921262,-0.0012362009698750284
1.5075,-9.696316,-0.133907,0.080105,-0.049175,-0.009716904190671585,-0.001222
1.51,-10.034298932152511,0.11189867898166134,0.31527526025579256,-0.04796714854247104,-0.004336113938223915,-0.005599720217181487
1.5125,-9.995921439663192,0.08339863772253464,0.35687968680032006,-0.05151569324779464,-0.004276,-0.003233101074579033
1.5150000000000001,-9.987445,0.077116,0.364658,-0.052229,-0.001533668592451764,-0.002749
1.5175,-9.842972249096986,-0.03896004927855083,0.2186910367415152,-0.05655579896798866,-0.0026728683707597078,0.0025961634400383745
1.52,-9.956292580812198,-0.08607183707990972,0.36338079012980984,-0.05589471285459091,-0.005801645716327285,-0.00030314667143030785
1.5225,-10.099397223774663,-0.044383558984756454,0.5011672439712122,-0.05725664731099588,-0.007165647310995879,-0.0038973600835718754
1.5250000000000001,-10.110409917242219,-0.04992974469798764,0.535585118804149,-0.05712440551555824,-0.007483,-0.0012864545210491806
1.5275,-9.99819404418402,-0.058907861170321894,0.3292853982611446,-0.06147580928339529,-0.004759227631641521,-0.004099859377622899
1.53,-9.936150460685724,-0.046994828904901295,0.3183662257407553,-0.0593203707720326,-0.0066614270266846356,-0.0030852423279752843
1.5325,-9.953361471914391,0.04515458539302755,0.3046444898638761,-0.059376347992761036,-0.005986711703517201,-0.004275080947360125
1.5350000000000001,-10.00853190852581,0.06470427123348743,0.3566945413397603,-0.0591135966018904,-0.0057665590066340415,-0.003151198661421737
1.5375,-10.137705045922626,0.055872051500029045,0.49874817873540106,-0.0583613158104855,-0.0033219542417658966,0.0005147850642871028
1.54,-10.110642244510384,-0.05477153068733759,0.48269300640464924,-0.05565601318960819,-0.007688150642524067,0.00023798681039180974
1.5425,-9.996761290207715,-0.07830718191001013,0.36425655992975314,-0.055849688281959665,-0.007396685503542665,4.4311718040333195e-05
1.545,-9.83550640301293,-0.15072307017626074,0.1996882907685127,-0.05574861080611046,-0.00733,0.0005806065193889328
1.5475,-9.849248823940849,-0.08420412958703404,0.2521099584425416,-0.05864266798080717,-0.004671324946118038,-0.0015648552316527278
1.55,-9.921171536824286,-0.024076330680855858,0.3209369806506257,-0.05770694899020437,-0.007823274906276457,-0.002118723497399919
1.5525,-10.065961000701416,-0.004366551060587805,0.4854355901076303,-0.05722317617124199,-0.007919649045833838,-0.0016343166380457146
1.555,-10.002345657186062,-0.02305811702776063,0.3241560322031959,-0.057557645098641454,-0.0010202863036032923,-0.003441116857649082
1.5575,-9.923057379429583,0.06904835423123944,0.3227365842708252,-0.05996169160216541,-0.000764,-0.0031351692785004277
1.56,-9.827463591981388,0.09801174673348764,0.23180258974763357,-0.061195950298908224,-0.006810043386432813,-0.002297981464113077
1.5625,-10.000993817433327,0.059865501521388934,0.4741455760992781,-0.06310654698407017,-0.00786105924467514,-0.00029166726328977996
1.565,-9.992610817261383,-0.12484028995605508,0.43251773267944177,-0.06173340580769909,-0.0057679567281889044,0.0019515832401711707
1.5675000000000001,-9.947434867604146,-0.14687715874846297,0.3425338517771096,-0.06060723260326942,-0.005674569752153274,-0.0018017130532608514
1.57,-9.90148550951893,-0.08744046649006407,0.20329464471322867,-0.05942573891290763,-0.005651,-0.005441762803948609
1.5725,-9.900764,-0.086083,0.200861,-0.059407,-0.004281466972042326,-0.005498
1.575,-10.105006188311833,0.03385910194027844,0.49732288132914393,-0.057527418403625,-0.005994436784012966,-0.0005832632276055495
1.5775000000000001,-10.119943774054054,0.07342898878378548,0.49820110689189107,-0.060253712297297445,-0.006109,-0.005107628648648899
1.58,-10.00202083879905,-0.022019375962178747,0.3122855454278893,-0.05932979460992902,-0.004796034278959763,-0.002032772936170057
1.5825,-9.924550198237942,-0.01961777770418001,0.31048032392282965,-0.05975026952411576,-0.0065948076591640006,0.0003998067459807242
1.585,-9.97124985049357,-0.06593658607717581,0.3025578343164829,-0.061010962294944605,-0.012136654061621326,0.0008900125683517989
1.5875000000000001,-9.932998626084354,-0.09293796698773701,0.25305551175590524,-0.06503463352677258,-0.010220799377804266,-0.00045121117559085845
1.59,-9.997607,-0.11956,0.282162,-0.062919,-0.007626462404495612,-0.001833
1.5925,-9.997607,-0.11956,0.282162,-0.062919,-0.004083984389310657,-0.001833
1.595,-9.855548915287834,-0.12987031197473872,0.23748174562545604,-0.06350446474131649,-0.005841112232207882,-0.002710718008258428
1.5975000000000001,-9.760689411658491,-0.05795198277628033,0.08983731787825233,-0.06340733826719368,-0.004853647826086892,-0.005197424392095005
1.6,-9.92469166708413,-0.054701481899811645,0.25100325259925305,-0.063377,-0.00846790897920623,-0.004939661342154969
1.6025,-9.94749576347715,-0.004493508290187798,0.38290687693192893,-0.0620348308724832,-0.005532527615851662,-0.004155198261425365
1.605,-9.793372971595373,-0.07967926989431236,0.23357326997484038,-0.06251901652742828,-0.006180473155510837,-0.001031591585304452
1.6075,-9.660812088369289,-0.13520619214924579,0.004914223288208614,-0.06299257524611336,-0.006505483985649303,-0.0019165708261181863
1.61,-9.677603850508492,-0.16369204702415802,0.003115016346328559,-0.0633757907754126,-0.008727030555369615,-0.0007674258292274126
1.6125,-10.028050337018154,-0.11278769142701667,0.4384950253722232,-0.057983922781970246,-0.011384242926099568,-0.002499562118430943
1.615,-10.122657427599428,-0.06718899997008651,0.5565416284152556,-0.05939970355292678,-0.0058316163274186065,-0.005330410779794673
1.6175,-9.985211275339289,-0.04035183671380112,0.4472951462832795,-0.06293066179951015,-0.00630649797930325,-0.0020726751623351795
1.62,-9.860871243132266,-0.09985370856999938,0.2046025194554854,-0.06181958519795161,-0.009804414802048396,0.00048070722118143214
1.6225,-10.025743353787469,-0.09022977880819838,0.39532512673380305,-0.05900984227224259,-0.00936597548157793,-0.00018329706669827065
1.625,-10.196915528610354,-0.10433915709039214,0.5728091303163132,-0.057302381412154955,-0.005572170122023457,-0.0007528647672076768
1.6275,-10.16897237486278,-0.10217054914963015,0.5058789790724699,-0.0581432448842574,-0.005498,-0.000764
1.6300000000000001,-9.977318710277133,-0.12334506066019324,0.2615407386266491,-0.05784444832480136,-0.00336,-0.0007628429373345276
1.6325,-9.837899132170635,-0.10305901752750758,0.1361361083518651,-0.056619104437775784,-0.00336,-0.0011398243648131899
1.635,-9.796962011653921,-0.03244186352294426,0.16445110798757195,-0.05754947238049714,-0.009345402045889128,-0.0001744566491395747
1.6375,-9.862326152879579,0.012137395908174812,0.30618982807893425,-0.06049356757148605,-0.00807262455094646,-0.004214465050342254
1.6400000000000001,-9.948542319630873,0.126203346983511,0.29948166605605964,-0.06079089902410888,-0.007492899024108875,-0.0019367456546312521
1.6425,-9.887217970609658,0.05050450650831123,0.27608219836262804,-0.06238492400633418,-0.0068664790847189055,0.0003882529437847044
1.645,-9.788232615319352,0.011585052330791042,0.13585963707816842,-0.05909855440419444,-0.005106247092469003,0.0003290934366062863
1.6475,-9.868651362018527,0.046771475507881806,0.2427931462018511,-0.059452193664878916,-0.008946469410043824,0.0015658967593043856
1.6500000000000001,-9.976449025048685,-0.0007061239037345068,0.30891844201262064,-0.06223614700521866,-0.011062587974141374,0.002625627665706105
1.6525,-10.171204929118987,-0.10021614681370096,0.4567092328125433,-0.06516740483807322,-0.012501202419036607,0.0012516075960532945
1.655,-10.140979202069131,-0.1475592305503185,0.37934256864072,-0.06379201371041815,-0.006548075487873572,-0.0006048927241962927
1.6575,-9.98204418373564,-0.04349313621300265,0.2902271496959042,-0.06250573133666712,-0.001516733385592657,-0.0025617940883903194
1.6600000000000001,-9.980349937745641,0.04037877192594069,0.3499544581429957,-0.06304709642924723,-0.000650832674685719,-0.002887038299770258
1.6625,-10.119408600351807,0.07627235461741544,0.5291335982409916,-0.0650259702726474,-0.005374752330694987,-0.0019246149516270526
1.665,-10.18521995249026,-0.017692013970954795,0.5659657155083243,-0.06565920480340065,-0.00627859039319872,0.00047930199078998013
1.6675,-10.097741961988259,-0.09783904437103663,0.39801223945518716,-0.06363612553268104,-0.005663804230136991,0.000611
1.67,-9.883501983549854,-0.15444624548012093,0.1282525288024551,-0.06566452725626902,-0.002041611351682091,-0.00039715265076448723
1.6725,-9.843279577954616,-0.1103706532146215,0.19878800468957167,-0.059671519448471225,-0.007860896265364256,-0.002025174078159534
1.675,-9.848855106940874,-0.029430750642672344,0.30964503239074603,-0.06087188997429309,-0.006872,-0.0024059156812339163
1.6775,-9.857474029296347,0.0368990314820348,0.33962476493334115,-0.06240334879416512,-0.006872,-0.0014486755592754265
1.68,-9.953602963590729,-0.03166781710424435,0.48756627164092203,-0.06895922467181448,-0.0076097024710424475,-0.002400972142857104
1.6825,-9.864417789188494,-0.07753275490096034,0.30069006263257947,-0.06557235419808291,-0.011119806108626352,-0.00231916030670926
1.685,-9.750300815398372,-0.027528110622571038,0.16168188909026454,-0.06445791156408144,-0.011912,-0.003171343161115712
1.6875,-9.763344337666245,-0.007456309020882228,0.12298427838960102,-0.06287576614310646,-0.0130694147559728,1.5805560570500204e-05
1.69,-9.871608847351505,-0.04329290986098497,0.18371801233435509,-0.06143008544502621,-0.0143220014804116,0.0022326001011012345
1.6925000000000001,-9.999250750310603,-0.040903409264866394,0.382504194418614,-0.06285243781489004,-0.014111992071172143,0.00010074165131876596
1.695,-10.081859210113166,-0.03565265453867695,0.3969085535774188,-0.06292049312741312,-0.0044294931274131075,-0.001955868752496307
1.6975,-10.01425984261483,-0.04921427004659837,0.3560149970123817,-0.06212090332046332,-0.0036299033204633176,-0.0006767344694448099
1.7,-9.946660475116497,-0.0627758855545198,0.3151214404473446,-0.06132131351351353,-0.002830313513513528,0.0006023998136066872
1.7025000000000001,-10.031814448023633,0.003642212271396328,0.4707923234218745,-0.06536590241887916,-0.013762414513274916,-0.00364227115044245
1.705,-10.042757644433662,0.003644979355730868,0.36906688699687085,-0.0678038080083132,-0.009695066089365871,0.0018697749636302657
1.7075,-9.831644274243354,-0.07732260337009643,0.10569379053335667,-0.0665556875429398,-0.009518773191104666,0.0027958676261073934
1.71,-9.720956407157235,-0.16156572877478337,-0.0023494128029876715,-0.06761734467546554,-0.007106030969686046,0.002602494362683062
1.7125000000000001,-10.00065721433718,-0.14700894224303654,0.4834054481027833,-0.06439801065081639,-0.012544013148414673,-0.0005704376681076708
1.715,-10.077430655259368,-0.16582614723823308,0.43786768610470556,-0.06189807351344853,-0.006679768768011339,-0.0021084246805956304
1.7175,-9.955305744762212,-0.09371505487605895,0.28807362448122564,-0.06299175736778362,-0.006567,-0.00175769100040371
1.72,-9.663247509695838,-0.010301710126346272,-0.04551320442676243,-0.06157705914833882,-0.005069139475900816,-0.004076380655123973
1.7225000000000001,-9.899897362345083,0.09818979821571433,0.24400858371198136,-0.06606495794806463,-0.014080738155170192,-0.00487701154054489
1.725,-10.187602416578324,0.03633765253011664,0.6836013209638723,-0.06658651624096384,-0.01223797599999983,0.0024018885783135885
1.7275,-10.147436150166497,-0.12122160202611028,0.5290754160837936,-0.06483921284452433,-0.011095700864535277,0.0036899760400219044
1.73,-9.9706245710761,-0.17622069144253066,0.2336755889776499,-0.06459798934408208,-0.010843,-0.00042874382313419675
1.7325,-9.969511,-0.176351,0.231946,-0.064599,-0.009194625155230106,-0.000458
1.735,-9.942974200946361,-0.06175939890459484,0.3525030509516844,-0.06426177151002549,-0.007856475743774712,-0.003692999358845467
1.7375,-10.109814817117174,-0.03877284168687485,0.5460377935884579,-0.06577692568758506,-0.006436212515526088,-0.00416683390311706
1.74,-10.20260417071761,0.05809224120009753,0.6113029254322802,-0.066126,-0.005656386519715897,-0.0038233865197158977
1.7425,-10.057214943627644,0.031862453944338495,0.4034238971401204,-0.06460376975047989,-0.006157856142034537,0.00024266551823406372
1.745,-10.027497,0.026303,0.361071,-0.064294,-0.008635208038791007,0.001069
1.7475,-9.9334810931337,-0.10656684516242335,0.26801396423080065,-0.0649062331774801,-0.00888803480605901,0.0027845367410910147
1.75,-9.969831809839498,-0.1730442759944173,0.4104474947662247,-0.06739611095603629,-0.008858,-0.0019086088625261699
1.7525,-10.015974133628523,-0.12683168582125984,0.4199080067133363,-0.0660266658505616,-0.007096827061696237,-0.005685035181507382
1.7550000000000001,-9.952916626644965,-0.03988249865611544,0.280335834205996,-0.06460044664961614,-0.00816411459660556,-0.005216641023017757
1.7575,-9.933831932780175,0.10690648071523987,0.2421418397615867,-0.06309151201631248,-0.010507273067210467,-0.0017855853564425414
1.76,-9.926559929735488,0.13413172953919789,0.24957362871573932,-0.06468719418551766,-0.011912,0.0008404121340514686
1.7625,-9.93556287400359,0.07186037145422014,0.31859766563734165,-0.06717905253141827,-0.011912,0.001511224667863543
1.7650000000000001,-9.829640462696023,-0.0932285027992093,0.18394085490431542,-0.06782659607414948,-0.00953576755414243,0.004073140262763185
1.7675,-9.872135186151539,-0.1169194385098093,0.2241785199352102,-0.0648486377179194,-0.009728259158917757,0.0034969235635010937
1.77,-9.95554426840354,-0.16707981465486718,0.3371915080212391,-0.06701187440707963,-0.0020383451610619424,-0.0009719017203539891
1.7725,-9.931506204903835,-0.15376692054277305,0.3560516475563419,-0.06493328127433631,-0.0013770308578171186,-0.001916548063716801
1.7750000000000001,-9.893833334573198,0.011835380257522066,0.3187089994754382,-0.06225439246542665,-0.00034439995231276663,-0.0009685046256556174
1.7775,-10.038120227702438,0.10850797714469437,0.4839320985859938,-0.06724346320199039,-0.0072548598892547035,-0.0029019064152155383
1.78,-10.279679009389632,0.07490276406149537,0.6571933593850409,-0.06698913937127121,-0.0074292042955483965,-0.0007894768379990472
1.7825,-9.96881978370547,-0.0797938808054328,0.24541969307279968,-0.06542037959728343,-0.005384069424520472,0.0055911211199809645
1.7850000000000001,-9.814966586193247,-0.10705460798284439,0.15915798187536742,-0.0675186560085787,-0.001759092343619476,0.0029200196211126798
1.7875,-9.865693644053147,-0.1407317560429018,0.2649271853049506,-0.06693345538658554,-0.003686419369297345,0.0013091252441171219
1.79,-9.996317440670284,-0.17211585824334213,0.4373525047097898,-0.066737,-0.006785371113089986,0.000916
1.7925,-10.111762884722253,-0.12767679709613897,0.49455890607909114,-0.06600074747999538,-0.008141624288530675,-0.002449824195755495
1.795,-10.125537,0.075323,0.39933,-0.066432,-0.0006411357016601683,-0.001985
1.7975,-10.125537,0.075323,0.39933,-0.066432,-0.0016332425885851546,-0.001985
1.8,-10.075397171387666,0.05056262002859743,0.372447331330456,-0.06604783719599405,-0.00334154506437813,-0.0012620875536476345
1.8025,-9.879843919575768,-0.11663535200431405,0.38674286420995874,-0.062842504058961,-0.0053564426388639265,0.0029229015135718117
1.805,-9.874585017832105,-0.16621479484690393,0.3645825936604955,-0.06351416068548144,-0.004300892468092782,0.0034984276781113164
1.8075,-9.87631125109599,-0.21868253149713254,0.2687790804512891,-0.06492944385386816,-0.010256385222063132,0.0003159082808021781
1.81,-9.883795625040593,-0.16891585764804096,0.26204333168338095,-0.06416454421680992,-0.012455315193409788,-0.002360614508118491
1.8125,-9.833611584217666,-0.12520994215271683,0.2788024445065028,-0.06426506758158462,-0.007073757200989387,-0.00194835147211362
1.815,-9.670224109117475,-0.00673596528799246,-0.02979737266913285,-0.06162243680517311,-0.011591224950305193,-0.002278098560651407
1.8175000000000001,-9.923572458277715,0.05840851732016543,0.26428500124911813,-0.06378977650601461,-0.015375629736318184,-0.003911909917947978
1.82,-10.041832392942435,0.02408099940472437,0.4641798881361929,-0.06397169755342574,-0.009148912035240172,0.0025474359188048
1.8225,-9.958249044866957,-0.060621520507173336,0.23357930629204043,-0.061874420715518776,-0.008291275614024641,0.006932367402821612
1.825,-9.85526359148225,-0.16424811004616904,0.11906148778857012,-0.06198072797325266,-0.009369791514090084,0.006665208485909917
1.8275000000000001,-9.971969364171706,-0.10516557264652672,0.29615554894330565,-0.06614777795442497,-0.0043286108235293785,-0.0034440302787493078
1.83,-10.07660858029889,-0.061649390804450276,0.48483865937043463,-0.0653837122416534,-0.003650120470588216,-0.0028500039173290767
1.8325,-10.09176376910017,0.02179225561969521,0.5289686183361625,-0.06294542662139217,-0.00336,-0.0010397973514431045
1.835,-9.9363865204837,0.10434916362892632,0.28543719540127666,-0.06327641577668146,-0.0029317325785104013,0.0016781418770304072
1.8375000000000001,-9.825515158597035,0.048536558031521515,0.19643818766694265,-0.06703367642882947,-0.003413060630489738,0.004086043809409345
1.84,-9.954125466719168,-0.038092354868769426,0.33989273435258743,-0.06627548766404194,-0.007408429321959911,0.005973037410323765
1.8425,-10.15717125238245,-0.10468142899264592,0.5186247791918042,-0.06722501371787458,-0.009741647645649143,0.00647507147839022
1.845,-10.17219635941969,-0.09038118540932683,0.5802730959170981,-0.065538961865285,-0.0074857888497409705,0.0016628680207254566
1.8475000000000001,-9.918195127156542,-0.04712705692699841,0.2460430835758189,-0.06956362674602262,-0.006401106041540187,-0.0030716129430343304
1.85,-9.81185880386316,0.09952456886200291,0.0683875739818456,-0.071471,-0.01096484528741002,-0.0017654801954851296
1.8525,-9.977606971429687,0.18492694024931944,0.26416466654460746,-0.0702649640280483,-0.013410922532138716,0.0016388213478769477
1.855,-10.204161259826847,0.18296996243173821,0.6696367422129168,-0.06874396272857008,-0.008321627281895195,0.004087885506612103
1.8575,-10.044481040114064,0.0038239258930744535,0.49641092589307445,-0.06859757454574258,-0.0013708564752477233,0.009498670777029547
1.86,-9.81741760648649,-0.20546171054054008,0.1720173539189238,-0.0694596340540541,-0.007278377972973127,0.007884310472972743
1.8625,-9.94674872741313,-0.1937386106177604,0.29681029662162384,-0.07061853320463324,-0.011239636969112038,0.00199176375482615
1.865,-10.167764442055478,-0.0378452612642117,0.4751340497680757,-0.06841010321055027,-0.011776221718963167,-0.0008214493860845769
1.8675,-10.063469996075039,0.020142311688310408,0.420060021356423,-0.06936526984126982,-0.008089969350649446,0.00018446891774888906
1.87,-9.835604123601568,0.035713368260193896,0.06375545920361608,-0.0740225179815858,-0.007469851775678601,0.0013345122181036002
1.8725,-9.766993737561199,-0.014455767889146605,0.12064637360739192,-0.07457699460508084,-0.004745521718244743,0.0026834998614318996
1.875,-9.845426159924386,-0.12744717731568997,0.33858639420289854,-0.06910463352236926,-0.00499769804662886,0.005254341650913673
1.8775,-10.013359794971604,-0.16796186530599289,0.48771117155204735,-0.0681401946246057,-0.005530137646687686,0.003629919331230322
1.8800000000000001,-10.1379191763283,-0.19983818385409308,0.5676829466666694,-0.07278246091672695,-0.006527818852891822,-0.0016174181425488887
1.8825,-10.079964258117325,-0.16004230204638367,0.36609479874487877,-0.0686531639836288,-0.006939298390177363,-0.004687829577080565
1.885,-9.889534368292097,0.0858779621042528,0.3122001466586596,-0.0669057585251021,-0.006426619212106651,-0.0035498576363199533
1.8875,-9.84346423223217,0.20317465267057533,0.30634103973448606,-0.06907837883606048,-0.009210571426366112,-0.0012026194967583006
1.8900000000000001,-9.812952861193882,0.10471935508632602,0.3592382820769646,-0.07229834218549598,-0.009927,0.00529875678835757
1.8925,-9.864288179314643,-0.1159208850148228,0.24035985913228125,-0.072388,-0.016568799911860995,0.007039624511815256
1.895,-9.936914786423818,-0.2360792164203158,0.26147165748511436,-0.07003298869352012,-0.01686405958669,0.004186600896672472
1.8975,-9.981132814016705,-0.2935159474114625,0.3134386196717566,-0.06771636754391006,-0.012275227952778998,-0.0016258048488335926
1.9000000000000001,-9.776626235764864,-0.0341544696175487,0.08743697577902468,-0.06749873222379589,-0.011602802762040123,-0.008258334135977478
1.9025,-9.767140641871459,0.18347597706994304,0.04584834994329204,-0.07086,-0.011323469659735208,-0.007713865160680311
1.905,-9.84712594647133,0.17607003741020785,0.1337318368746071,-0.07086,-0.006908977914303671,-0.0009025810775046533
1.9075,-10.069488996913394,-0.0878260735876647,0.46845957951702943,-0.067702214932746,-0.005001727702351933,0.0021816098293086306
1.9100000000000001,-10.102357264955133,-0.170367211983152,0.4647924417066431,-0.06910440661417339,-0.004120593114814087,-0.0015517272587439478
1.9125,-10.061800549569673,-0.14817577752548294,0.3940086014038917,-0.07193913963254603,-0.00324053940059815,-0.003799544454617672
1.915,-9.94657425184019,0.07450001046631283,0.2588260345664856,-0.06892825505068569,-0.003957675339296378,-0.005329466671437109
1.9175,-9.945002,0.077714,0.257054,-0.068875,-0.0032393259188544204,-0.005345
1.92,-10.146165837768152,0.18093316000961612,0.6104102819047486,-0.07436058757415404,-0.008250971938431741,0.001295050117043198
1.9225,-10.203416258621433,0.07259269700467966,0.5884836862504351,-0.07628513863587143,-0.011301,0.007997179747383811
1.925,-10.178144,0.002391,0.493185,-0.075747,-0.01419965817323903,0.009163
1.9275,-9.757610939969089,-0.17134779839258046,-0.0135139935084988,-0.075747,-0.013670578114374037,0.0059331679752704924
1.93,-9.81284684552145,-0.22796939445408945,0.24545379579409357,-0.07633138463381829,-0.009787313368382565,0.0018263627338306488
1.9325,-10.077972410885154,-0.08403615371539935,0.528063827794602,-0.07381113662406888,-0.005739951880830875,-0.007052556807526845
1.935,-10.119794623131462,0.17258213488922336,0.4890239796159497,-0.07595878144756285,-0.004734,-0.008872869778434257
1.9375,-9.916726322917503,0.15097744573861355,0.23114821624226844,-0.07492397357217447,-0.007116861595308861,0.0001709269820869136
1.94,-9.766075568324244,0.047696124788778924,0.09648242184567633,-0.07516979209976615,-0.005473144692127884,0.0038090632081059566
1.9425000000000001,-9.866462159360783,-0.1898328022399837,0.3503043454387877,-0.07647803604821252,-0.011828018090465842,0.002179351665763528
1.945,-9.910180280617553,-0.30570939664951535,0.37492259237269837,-0.08016523483477798,-0.011176918285482108,-0.004001481270314348
1.9475,-9.850754373284465,0.09957032725939985,0.16237915598486674,-0.07592683453298651,-0.010447565831165755,-0.00787840036415228
1.95,-9.895222153204067,0.23037764178292508,0.2565011874438385,-0.07677853908725465,-0.009217119295341709,-0.007499658382596365
1.9525000000000001,-9.900546084721755,0.23372488020236074,0.38672119440135566,-0.076816,-0.005474528634063889,-0.0014592480944347619
1.955,-9.848158,-0.004782,0.316236,-0.075289,-0.012132591213334206,0.006109
1.9575,-9.848158,-0.004782,0.316236,-0.075289,-0.014811192668618217,0.006109
1.96,-10.09651917318861,-0.11438832984563232,0.239279360159191,-0.07335311271104682,-0.015722428972503612,-0.0004447342981185485
1.9625000000000001,-10.131742951471645,-0.16324842536492232,0.3794874352875566,-0.07743608450187467,-0.00996935431123842,-0.0022387411661482894
1.965,-9.924578230548713,-0.055842534985804104,0.32458533088930586,-0.07745155087984859,-0.002017185203405593,-0.0069062927436141786
1.9675,-9.848718119961964,0.11262273678605568,0.28771018943898535,-0.0782960173755943,-0.001833,-0.006155982624405696
1.97,-9.832614,0.150646,0.27977,-0.078496,-0.009138753068973703,-0.005956
1.9725000000000001,-10.219056438469696,0.07268755063141072,0.6738649144883588,-0.07825198482115084,-0.013836281181959826,0.002474124391913398
1.975,-10.266658671133936,-0.07778659227991949,0.6113719523954663,-0.07770575791670008,-0.010310470588235076,0.003999217606933605
1.9775,-10.05358984246805,-0.25544034799562143,0.33827939992697614,-0.07930336112449804,-0.010285022928076006,0.00013272849945226593
1.98,-9.9432986833412,-0.0845773350731496,0.272483549910335,-0.07662207798017935,-0.011301,-0.010095191477111767
1.9825000000000002,-9.942013,-0.077714,0.272597,-0.076511,-0.010676894825711505,-0.010385
1.985,-10.061307994591022,0.1846204844350013,0.35251319600946024,-0.0794694957163122,-0.00891050546572096,0.002041844482270124
1.9875,-10.013809743927611,-0.04682105162354633,0.262161844724068,-0.08010420649417972,-0.00834066438569201,0.002404691974174107
1.99,-9.971860773906405,-0.12510573242471343,0.25861668037890573,-0.0786701296988548,-0.0050954602799378025,0.0033856163155662347
1.9925,-9.924741580831133,-0.18782026800864637,0.3555702709824602,-0.07664003168388188,-0.003665,-0.0008069158347343607
1.995,-9.911348388002152,0.02062902531446515,0.4009465415158558,-0.07951712764737515,-0.003751375882458386,-0.006644284436480856
1.9975,-9.93980266858747,0.14679758758406766,0.3635076874992526,-0.0826735649883534,-0.0048035216627844695,-0.005209483256286179
2.0,-9.935283261117446,0.1586604589509692,0.3700616630558723,-0.07997274971493729,-0.01207155473204105,0.002120145952109464
2.0025,-9.873691813757993,0.04118183602988067,0.33951671450493315,-0.08099101811771736,-0.008506820589184377,0.004740838706901739
2.005,-9.754578968717064,-0.10714702438481591,0.18219835909651108,-0.08079991224380043,-0.006975467291305711,0.0030183795351061385
2.0075,-9.596149829224162,-0.14137855462800536,-0.011403363715138004,-0.08257127182411968,-0.01341407041580328,0.000998569036163903
2.0100000000000002,-9.869429179761115,-0.12015380093578543,0.21649053012447517,-0.0855683767844702,-0.014099719402687757,-0.004083388173221078
2.0125,-10.167116468514873,-0.03478276340593442,0.589608537314878,-0.0859194205148515,-0.0093805729584155,-0.0068565363643566255
2.015,-10.236131,-0.014347,0.677307,-0.085979,-0.0019721935517689236,-0.007483
2.0175,-9.880760151147715,0.019497688692314843,0.22910710787809607,-0.08894322081100545,-0.0026683432008318296,-7.20435767413638e-05
2.02,-9.704991337963483,-0.16507370601123772,-0.034875707500001435,-0.08863116754213482,-0.002902,0.002402910351123602
2.0225,-10.012688555496917,-0.2961661900791539,0.4264995218645489,-0.08367334343007923,-0.007681676904133614,0.0014631501846965845
2.025,-10.316236,-0.17934,0.881157,-0.082314,0.0008210899565426781,-0.006414
2.0275,-10.316236,-0.17934,0.881157,-0.082314,0.002367878792853606,-0.006414
2.0300000000000002,-9.729593133123618,0.1252958987102724,0.0798193275468786,-0.08898435605453964,-0.007479785230317037,-0.007451632511976553
2.0325,-9.800167853982336,0.021982312701897697,0.19992812634941473,-0.08712423434506261,-0.01276154035653427,-0.001418422749960761
2.035,-10.006031612459829,-0.018004541782757767,0.3952271068680101,-0.08149321836337028,-0.013321479668777343,0.0016090871018023516
2.0375,-9.945206511792962,-0.10979807875407124,0.2924614865643846,-0.08196215716720907,-0.012330051417945105,-0.0011894115915079312
2.04,-9.923117309656993,-0.1901952385224285,0.2089481882849594,-0.08159883430079154,-0.005308874195250528,-0.0028300917150395942
2.0425,-9.836020401867643,-0.1452475717969959,0.2039705750580593,-0.08130669894275273,-0.005709607490052775,-0.0038768091205846453
2.045,-9.89651024585813,0.07068034722756011,0.4671890281449891,-0.08056094903557845,-0.004724887334974313,-0.006174257538599163
2.0475,-9.795689096055808,0.10543186778694423,0.21296712546608354,-0.0824482808370323,-0.015424,-0.00040760210526347347
2.05,-9.674454560811677,-0.035676241280903104,0.03757583405200993,-0.0832096121750158,-0.015424,0.005939042105262707
2.0525,-9.843275659824485,-0.2516970219502749,0.1478998879863615,-0.08262760669917138,-0.01103089164310046,0.0012699665529009325
2.055,-9.949098246270118,-0.33039518144320346,0.30453316470990766,-0.08555579735738683,-0.005565617415894335,0.00019633924914668898
2.0575,-9.890214163243414,-0.16936714950088108,0.3448629890227765,-0.08331563164593754,-0.001373481686318674,-0.006549089529963147
2.06,-9.835302160510155,0.17402751489844956,0.13132726887103788,-0.08468722822862547,-0.0025198116580066694,-0.011186717487010004
2.0625,-9.93515463697479,0.19603748523409364,0.3531211995998399,-0.08824313677470988,-0.005459256662665066,-0.004704017527010804
2.065,-10.121926051777374,-0.02905837393177116,0.5573829966822221,-0.08514866523518862,-0.009395537263913735,0.003964872028725117
2.0675,-10.134798675290021,-0.23297797847906074,0.5129605324301675,-0.08419122656643194,-0.007849225195853517,0.0021307245105643027
2.07,-10.11640448620226,-0.34413479104971834,0.395595950996886,-0.08683614755704998,-0.007632844443910629,-0.007294017251981006
2.0725000000000002,-10.087554399512536,-0.11481289197404287,0.39720576559018866,-0.08381975558784441,-0.005421071794390855,-0.01080498944769971
2.075,-10.05254760807498,0.22638534832975504,0.5463771198750439,-0.0824907292958423,-0.006501754145638218,-0.00881766560922829
2.0775,-9.982022800203042,0.18973889238578434,0.5215286923350239,-0.08382114822335032,-0.009766981218274275,-0.0009500832994919876
2.08,-9.91746686302917,0.10859882840917673,0.278550078842465,-0.08548423875223653,-0.011110549081291348,0.004832645961882682
2.0825,-9.993384610903282,-0.17552875207079094,0.15249305526361084,-0.0876684452255131,-0.013901687472041326,0.006858797021015112
2.085,-9.999544893438884,-0.3624707921909208,0.24882504039580833,-0.0824727399208382,-0.008089801518044329,-0.0013259518416762722
2.0875,-9.942991368987197,-0.27928111802095756,0.3028254837019771,-0.08163412325960422,-0.0016579657275904488,-0.008037326519208143
2.09,-9.937665942904212,0.09019342500350291,0.4229580563709025,-0.0847826044339842,0.0017770427771239005,-0.009927
2.0925000000000002,-10.126329034057125,0.23596275509599435,0.6099275089659812,-0.0869746195192775,-0.0023539520890470964,-0.00394538976609065
2.095,-10.236122619956308,0.15204184272971394,0.5653231106644285,-0.08631200919162049,-0.011579956267832751,0.0020434125279531557
2.0975,-10.102012704195145,-0.10462689186707083,0.2954228057472017,-0.09076154477934817,-0.01014278657930045,0.004376272389674085
2.1,-9.582976709443727,-0.3597432148339759,-0.1793062881414384,-0.09156348788270803,-0.005365677102199226,-0.0024311210004313672
2.1025,-9.592806415777961,-0.2393343477392276,-0.12647382604884475,-0.09043348066015915,-0.005428569464894744,-0.00657420677564787
2.105,-9.602636122112195,-0.11892548064447928,-0.0736413639562511,-0.08930347343761026,-0.005491461827590262,-0.010717292550864371
2.1075,-10.083072414809672,0.21965326958851084,0.6358764540849916,-0.08788062138575703,0.00168,-0.003476467584080484
2.11,-9.876088796135042,0.10378845212700188,0.39617874263272157,-0.08663305598694947,0.001254274373196165,0.0052312922123223604
2.1125,-9.648532757893918,-0.17859530544788302,0.08789166580370644,-0.09044161732846223,-0.004074269377382068,0.008539515962515665
2.115,-9.689441994938985,-0.36180661814623616,0.07740492040604992,-0.08873528158066434,-0.011702295265257507,0.0023899015395762472
2.1175,-9.932962267917608,-0.17723694047636004,0.43117559757680207,-0.0864643373240406,-0.01124393071302744,-0.00645995492073274
2.12,-10.03186772010208,0.09930783962572706,0.5964167779608737,-0.0884560131826469,-0.005182446202454385,-0.008318536001944302
2.1225,-9.918347493207392,0.20612025039980653,0.34629328086637307,-0.08981562152919147,-0.008567627277909056,-0.0045016269522025025
2.125,-9.808961158127106,0.0672050837690252,0.09487020913210176,-0.09235071894969211,-0.014820287672824447,0.00281068711513884
2.1275,-9.821709480859736,-0.1729298919025581,0.06492233658334692,-0.08944880966725051,-0.013127911300748337,0.0066950757650054964
2.13,-9.862000384531422,-0.31538000801579985,0.2091597770786431,-0.08464416570440818,-0.0058254227682433815,-8.07530411157404e-05
2.1325,-10.107793230194856,-0.16189949083077967,0.5081708294153653,-0.0859138127999999,-0.006350524758974302,-0.008740010871794324
2.1350000000000002,-10.21869681817873,0.1796435924474533,0.6708934427282783,-0.08275633354407251,-0.006567,-0.009372802543464865
2.1375,-10.167096313357396,0.2352348353790646,0.40018002851983553,-0.08481542382671496,-0.00705513826714805,-0.002971001444042857
2.14,-9.998505525578109,-0.04839472039443188,0.14547169052704495,-0.08551030598427047,-0.007178,0.006580253447588268
2.1425,-10.044631836978827,-0.20944390111925992,0.3162581884886157,-0.08679850693936716,-0.0028519562380223667,0.0027069580706978926
2.145,-10.116375002990187,-0.27392510515610874,0.5575709729527214,-0.08889746844603034,-0.0013277541552185331,-0.004778488228367575
2.1475,-10.130540600620874,-0.01297529072851994,0.6354830071126959,-0.09061173274814152,0.0017191339423133665,-0.01115911839904838
2.15,-10.14666941092498,0.27991429599416257,0.5275234355426134,-0.09161194739014321,-0.006893737873269777,-0.007487923403739013
2.1525,-10.085235063732,0.17192428538510374,0.3751058686224257,-0.092119831086412,-0.007178,-0.0009637992517223483
2.1550000000000002,-10.003932608929496,-0.12733420950395197,0.4083130820365627,-0.08705220866840663,-0.009915847154047357,0.004934363603133726
2.1575,-9.994213641391864,-0.2408537624873217,0.3729505978574273,-0.084895459357229,-0.01044834684172375,0.0006356470398707504
2.16,-9.980491448395405,-0.12856268342962218,0.2760093168766614,-0.09261528822369244,-0.01397486497737582,-0.008477809407124389
2.1625,-9.98914893261918,0.2066627073379788,0.25948647798608127,-0.09114961135511515,-0.008705,-0.00897272147830714
2.165,-10.145990837168874,0.30402887408983226,0.4662105605876531,-0.09102685358634938,-0.008705,-0.00039572443186153446
2.1675,-10.202847538142327,0.09158998019251502,0.5672890218905793,-0.091019,-0.005498496723981925,0.000153
2.17,-10.05599007523411,-0.24918065015925187,0.3363353814728867,-0.09176421608430126,-0.004138022215303579,0.008941477643395679
2.1725,-10.04211353455075,-0.2908502350199308,0.32056305146887504,-0.0939487964673412,-0.004123,1.5898908310798404e-05
2.1750000000000003,-10.01617419781869,0.058296672311533015,0.2790504136976606,-0.0887223696728032,-0.0034320138853054004,-0.006731098627888506
2.1775,-10.048839425466896,0.19484007572480505,0.3638862778494706,-0.0917032364556556,-0.0043156513994664965,-0.0025163622152150275
2.18,-10.078291130607166,0.10851330969347231,0.3447745612119751,-0.09549573950440424,-0.004581,0.006749714926600804
2.1825,-10.021018541151527,-0.2077035204529169,0.3060452652565631,-0.09515448155143337,-0.006258891168393235,0.00808230287641535
2.185,-9.866872883488501,-0.40970342168881013,0.28788951743098046,-0.09031033737784439,-0.00672,0.0038430887281967092
2.1875,-9.772337533581194,-0.10276105852722477,0.12164604737347086,-0.09190858911009835,-0.004790027704485488,0.00024265711201727031
2.19,-9.7873738719645,0.04007818257615428,0.1987040590213464,-0.09594167046294068,-0.004022270870712417,-0.005711388308946862
2.1925,-9.96802046938113,0.15676424911612916,0.5125248089789415,-0.09085298924395972,-0.004086931335931405,0.00018103768043619024
2.195,-10.033413583617579,0.10940426318333768,0.6098064241722989,-0.0885493672897917,-0.004521188612852355,0.004127900685694096
2.1975000000000002,-10.04680399644896,-0.004306836154799515,0.6115628027427772,-0.08765226654806506,-0.005082289690772245,0.006931937224304234
2.2,-10.060194409280337,-0.1180179354929165,0.6133191813132552,-0.08675516580633859,-0.005643390768692038,0.009735973762913875
2.2025,-9.732809450847517,-0.17762928516433907,0.12601220776632824,-0.0872048090336633,-0.014246288895049402,-0.006016386459406894
2.205,-9.817879618988332,0.08456172090084381,0.33478489955430724,-0.08446731965098446,-0.017029311538733764,-0.010546916406084182
2.2075,-9.860457174801107,0.1757590268406491,0.3459977700529853,-0.08465966909608541,-0.015336574573349136,-0.0044174119383154934
2.21,-9.809266698419377,-0.008127365230947037,0.1015853473691718,-0.0891071506863555,-0.012568603057294786,0.0013199455829886997
2.2125,-9.726600167350885,-0.223846528358682,0.02305762026885832,-0.08419216324559305,-0.010443288513241642,0.0021618750382355126
2.215,-9.79938046166054,-0.2662068002037199,0.1452383903257032,-0.07964386905128532,-0.00566119761696112,-0.0024011964230720114
2.2175000000000002,-9.9907888556131,0.014655363469963767,0.4417521679526391,-0.08063994509129283,-0.0025226549995939576,-0.007044396932565575
2.22,-10.267000328810896,0.21540560464456887,0.6300696967366539,-0.08531930712271736,-0.005192,-0.0018224167295218677
2.2225,-10.258051473970614,0.09906862048895893,0.5465460119873844,-0.08646262983284761,-0.005192,0.004179247818690483
2.225,-10.07334072080278,-0.20806856589353556,0.4032486052157135,-0.08441842439610613,-0.006354287801946936,0.007829100709049496
2.2275,-9.878202371149388,-0.24101694839962184,0.3780453399436268,-0.08758644258064521,-0.006300919636705333,-0.003113309802693477
2.23,-9.922620375057503,-0.060816740318759166,0.3890390986794324,-0.089917219466402,-0.009108268274855488,-0.006763184234923235
2.2325,-10.029478527552103,0.1514352679852821,0.4040426302247646,-0.08982355834899877,-0.012006253436861382,-0.0060151196240294455
2.235,-10.022668982673366,0.16905496966299713,0.33662574197667383,-0.08970388566753079,-0.011248099300064918,0.0006097171322095359
2.2375000000000003,-9.779973162949839,-0.23247594961833337,0.1299423301526786,-0.08510882287350047,-0.005798196919301734,0.008755748091602542
2.24,-9.797489213375137,-0.352101661984743,0.19402753320611232,-0.08434483177208281,-0.0026328867339146696,0.003953109923663713
2.2425,-9.986207049237112,-0.2778097878100512,0.36614116055634427,-0.08813996528680794,-0.00925696164924744,-0.003148150463336815
2.245,-10.232183224590884,0.027597505305580694,0.5808528986411841,-0.08732522762717641,-0.008849898345282695,-0.009575055609423275
2.2475,-10.009244524136138,0.15143357832090995,0.29895397364018783,-0.08634421988978928,0.0004751303857376474,-0.003317209944894501
2.25,-9.771421298507462,0.06619242288557216,0.12453848756218905,-0.08598280597014925,-0.0017190199004975125,0.008446666666666665
2.2525,-9.987676594859963,-0.20566759288302544,0.44594938932454,-0.08400866214168044,-0.006513258121910937,0.007966224118616161
2.255,-10.172977281889343,-0.36089670505650895,0.5829926404425905,-0.08470195519809631,-0.010403950924449578,-0.00022574931588295686
2.2575,-10.06980654852452,-0.1919875091062747,0.3620591036078028,-0.08427545475955903,-0.004748036640863626,-0.00845018830870227
2.2600000000000002,-9.72315714436692,0.14761572875335904,0.1382773959990391,-0.08529462447426234,-0.0011391781995609316,-0.006924715530616547
2.2625,-9.744949822932425,0.19693384708465833,0.299995749939021,-0.08881012964137619,-0.0018228374725543298,0.0004004793364240384
2.265,-10.019622697882484,-0.031565112462460077,0.476267438447311,-0.0906715760894124,-0.011674398485759553,0.008010275332292177
2.2675,-10.079962836286647,-0.2127640748161986,0.44554440476810814,-0.08926897935163638,-0.013629618442686568,0.006561783762990489
2.27,-9.936065740723818,-0.30511266784177027,0.1977820862330144,-0.08973511245400986,-0.010917011085727997,-0.0015808093976194095
2.2725,-9.805578763350198,-0.06836513029471172,0.22055251213362181,-0.08395569692443597,-0.005700586827270613,-0.004815595952782422
2.275,-9.811157487181301,0.12532423944758586,0.3901976200424855,-0.08418754900849851,-0.005002829390934818,-0.0007646118980172189
2.2775,-9.824724533322026,-0.00013287213570870038,0.27373906278826354,-0.08275773406119376,-0.014540142068464063,0.00853588880702814
2.2800000000000002,-9.765477606916685,-0.13647634099971062,-0.034647742354468714,-0.07965298343289881,-0.015219286415025818,0.009117831016055797
2.2825,-9.711527324584399,-0.19018210331980145,-0.11176932106406351,-0.07916753796303967,-0.015149368224082197,0.005368628580425633
2.285,-9.835766909206654,-0.10258377712575709,0.2407862283211728,-0.08188817884886926,-0.0031952899174343607,-0.000777094550676156
2.2875,-9.85151813430657,-0.0016986452554708376,0.32704499854014907,-0.08284616350364966,-0.0009913605839415277,-0.002118398540146033
2.29,-9.867632968791531,0.10112564721431093,0.2923142723913842,-0.08442530993793354,-0.0032411948740416544,0.002597664592917155
2.2925,-9.931713889341609,0.04009717134233948,0.3220653991578433,-0.08345036523305344,-0.005580296502373112,0.004838506087379806
2.295,-9.946198,0.026303,0.32879,-0.08323,-0.006400896509433952,0.005345
2.2975,-10.175041623642022,-0.09639175815139484,0.6590789022420523,-0.08131118212226195,-0.001120587466087506,-0.0040800910611309745
2.3000000000000003,-10.183508309883141,0.02471325880557987,0.7658281138880847,-0.08281609711668346,0.0037691547477837145,-0.004832548558341733
2.3025,-10.063019722270814,0.08818293730460458,0.5290109995947025,-0.08507516187198476,-0.001729914255388122,0.00012978364747553376
2.305,-10.028683934734467,-0.04132646122390713,0.18601768380374745,-0.08980422717811473,-0.019674199200713588,0.00045155553256026896
2.3075,-10.080129324474578,-0.03983544414629788,0.19831997778412186,-0.08894678322925956,-0.018721968720784972,0.001308375885816272
2.31,-10.061174600677301,-0.15288460090307074,0.3887897626012323,-0.08902124336687117,-0.006478063126380024,0.0007958082061349485
2.3125,-9.945080915917794,0.050723835977182136,0.46044961420645464,-0.08891269516292881,0.002035055247323592,-0.002384375869344378
2.315,-9.888319946716454,0.15135324426153837,0.37732151651704426,-0.09068734571542063,-0.0006293947406052509,-0.0018762049829189225
2.3175,-9.923944787022219,0.09617400106667315,0.3468886641777754,-0.08978436035555572,-0.009297173333332883,0.00597789208888834
2.32,-10.033983588866905,-0.1337145658477139,0.14230945074706963,-0.08687004198260473,-0.01205590859525794,0.009593785206719848
2.3225000000000002,-9.992706577628631,-0.2336326120805454,0.2911874429530359,-0.08783937208053702,0.0002432527964217751,0.0034066289932879875
2.325,-9.86791887894353,-0.032840097601142176,0.3185465893385012,-0.08414245597286127,0.00336,-0.0036145256602864322
2.3275,-9.685453331500614,0.0854722062889222,0.0952218626276349,-0.08568944997509349,-0.001969010211706375,-0.0005484301930259849
2.33,-9.79429174964012,0.11397726481232301,0.22750116530605236,-0.08592664026887158,-0.00900286704181782,0.0048872713199691305
2.3325,-9.944932157563501,0.03455469671286601,0.3244484441877349,-0.08621231501040985,-0.007669302418654443,0.007078483911724482
2.335,-9.97051743999048,-0.2997572136261384,0.4462722481961583,-0.08446726446229841,-0.006093735537701595,0.00681721082187715
2.3375,-9.869047758281264,-0.28558149951794376,0.24855485940606548,-0.08408597544486104,-0.00647502455513895,-0.0005208866511929779
2.34,-9.844571,-0.282162,0.200861,-0.083994,-0.009760569418229363,-0.002291
2.3425000000000002,-9.971844660720338,0.061005973135018265,0.33284850000627736,-0.08724511398058286,-0.011250943820858264,0.002284846332603042
2.345,-10.182044765060821,0.019271131089532656,0.5694651663186553,-0.08665679710600648,-0.011606,0.007601906861565349
