time,acc_x_g,acc_y_g,acc_z_g,gyro_x_rad_s,gyro_y_rad_s,gyro_z_rad_s
0.0,0.017336,-0.020325,-2.974653,1.456608,-1.839621,0.005345
0.0025,-3.440465545648855,5.700732139694656,-7.170925284122138,-0.014708210229007635,-0.01304780824427481,-0.014617404122137405
0.005,-3.4834142090724636,5.29230713631884,-7.201950441942029,-0.011840626811594201,-0.005683715797101448,0.01011335327536232
0.0075,-4.313959314040524,5.271519509558999,-7.243333047246722,-0.010361849296781881,0.00400109439809297,0.020248491585220494
0.01,-4.418640426608187,5.121028070760234,-7.404469392923977,-0.003971,-0.05885990777777778,-0.010079
0.0125,-4.6839111305343515,5.3291408,-7.3537524967557255,0.010243131297709943,-0.10771797862595421,-0.12763406316793896
0.015,-4.984459296,5.666129752571429,-7.090613333142858,0.03801475657142856,-0.17833339942857143,-0.2834163531428571
0.0175,-4.726305088549617,5.912176806221373,-7.421386566221375,0.026700912786259506,-0.25106741656488557,-0.4528601781297711
0.02,-5.287875908598665,5.4861702575023825,-7.113225708064824,0.040605709056244034,-0.3249419374261201,-0.6173851624022879
0.0225,-5.717627361832498,5.383035320830352,-6.946497848303509,0.0776726596134574,-0.39689026133142447,-0.7560839718826056
0.025,-6.16760373068433,6.013431552317883,-6.586577951876375,0.08685236158940392,-0.5095667434878587,-0.8962778428256072
0.0275,-6.27275092,5.75602494,-6.3391551999999995,0.0873965,-0.61375416,-1.0138863
0.03,-6.432352590681005,5.204036846415774,-6.8410113988172,0.12390539100358418,-0.7582436019713261,-1.1066890123655915
0.0325,-5.890104224213544,4.83063709395615,-7.743035348141074,0.16717498646329837,-0.8380997967969496,-1.1379366786272642
0.035,-7.126297105307347,5.251786229595215,-6.92494729913044,0.1387137586506748,-0.939335651934033,-1.2034995714842578
0.0375,-6.404459238894185,4.108163087130601,-7.166728551000956,0.19438053212583412,-1.039706985891325,-1.1956916632983794
0.04,-6.609498651656442,5.198630933128834,-7.889477001840491,0.24623668981595098,-1.190335119018405,-1.22508689398773
0.0425,-7.2940649812213625,4.66910450793894,-6.832657975572535,0.2248712969465649,-1.2536503661068705,-1.2148576970992369
0.045,-8.269436352000005,3.964558981333333,-4.921822501333336,0.29219324266666674,-1.3195812746666666,-1.1990491706666664
0.0475,-7.884385,4.555834,-6.235054,0.347735,-1.3894304119343326,-1.194852
0.05,-8.051808523031646,3.240686530095655,-7.355340503899931,0.31648710036791766,-1.453629746136865,-1.1653951027225902
0.0525,-7.685225313969476,3.5613030918320554,-5.5330976175572415,0.3768137370992366,-1.491275,-1.1532943212213738
0.055,-8.79084335751773,4.2002923487588655,-4.999442790531915,0.3352900628723404,-1.5265913249290781,-1.0774260505673758
0.0575,-6.089224257022904,2.6199400126717656,-7.590941066488541,0.41087886824427494,-1.550834,-1.043579255648855
0.06,-8.92447395131273,3.5445138354826233,-6.386756021081094,0.3559190310424713,-1.6239790423166025,-1.0175865282625483
0.0625,-9.495580843683083,2.578514148465382,-4.613084418986438,0.37436672662384013,-1.6276484996431122,-0.9581849928622412
0.065,-8.467945431033385,2.904761835739265,-4.346304452782188,0.36320975046104925,-1.6327684312241653,-0.8990226885850554
0.0675,-9.672009845757856,1.9126967768541405,-4.783725680419456,0.33422509948522405,-1.6434906743946618,-0.832385846901811
0.07,-9.520980888561198,1.9315088031782444,-4.209830954015769,0.3302265642949174,-1.675451,-0.8138227238367931
0.0725,-8.774190063212025,2.019213299186287,-3.5300927436402096,0.2907252095074947,-1.722436877687366,-0.7715969605139189
0.075,-9.88876914484734,1.77321230839695,-2.460469712213731,0.31426195190839706,-1.6674146318702292,-0.6997682937022903
0.0775,-8.299392876758816,1.886532606787419,-4.607077228979983,0.207797142306959,-1.6456612080457578,-0.6472543439466159
0.08,-8.487470020515765,0.49224878808023104,-3.578673068538678,0.17176405879656167,-1.634589221088825,-0.6011162798853869
0.0825,-8.27683517244446,0.7111985007676975,-3.652121504080798,0.19025684460605954,-1.6034434230303025,-0.5681475986262626
0.085,-8.89843019778631,0.9897378053804808,-2.6837679752190646,0.08700024820906999,-1.473101,-0.510783375895465
0.08750000000000001,-9.802077593898963,-0.1124522190657738,-1.6242005315538361,0.021906777121067453,-1.4210258608198285,-0.47322504270734084
0.09,-8.220639645240038,0.7294923916680197,-2.41892159287226,-0.002436909747762247,-1.321237618388934,-0.43386450190398707
0.0925,-9.2246817619084,-0.2963958974045805,-1.1124471890076304,-0.04467135717557261,-1.177595,-0.38973218343511445
0.095,-9.056207437292656,-0.08834105750238332,-0.23563044419447587,-0.04830969243088657,-1.1024640692087702,-0.3864307712869399
0.0975,-8.095408,-0.575084,-0.701817,-0.069944,-0.9363112334903638,-0.350178
0.1,-8.04887118052257,-0.36247391163894105,-0.36931604560569575,-0.04670693111638949,-0.787567057957244,-0.2866000365795723
0.10250000000000001,-8.030054290152679,-0.03658985446563784,0.41527985160308634,-0.015119,-0.6459738023282435,-0.230143
0.105,-7.739949373651319,-0.21138075480263416,0.18477467490132193,-0.021410646907894855,-0.47067688851973727,-0.1501307079934213
0.1075,-7.868799527969494,-0.08950360976167743,0.08066964758817863,0.003357820819828425,-0.28235140488083893,-0.08622339382268834
0.11,-8.79001619009901,-0.2900286578217827,0.5629648677227727,0.01681851960396039,-0.1724364704950495,-0.020864459801980186
0.1125,-8.867556138036228,-0.20633371992373853,0.39085487607245517,0.03172315996186846,-0.06782357082936122,0.018580748331744574
0.115,-9.779962216115111,0.9520131620143866,0.5175347277697877,0.003737971223021431,-0.002710289784172451,0.02031700546762601
0.11750000000000001,-10.164722330393321,0.48995732700833944,0.30365401840285317,0.0011260954469606952,0.004390915899880866,-0.0060969686293206584
0.12,-9.85682024184915,-0.14200305187347265,0.160880648564479,-0.033243205742092434,-0.01919945654501199,-0.006316777907542607
0.1225,-9.964500970486176,-0.27382830543374637,0.39228751721639515,-0.016413287397521435,-0.015972770753098154,0.0002666793136319981
0.125,-9.929027268176402,-0.08642805721096544,0.49043417997616207,0.0013413647199046485,-0.011952121573301548,0.004216400476758045
0.1275,-9.840901571680572,-0.00545631794993965,0.31162981458879674,-0.003782212586412418,-0.004926303313468398,0.005636633706793782
0.13,-10.0782576380365,0.07386384911264951,0.4042527792573951,-0.007036867791063576,-0.0021989869855255145,-0.0034577185399622653
0.1325,-9.909927628605486,-0.016007612729439034,0.23530665225268213,-0.012920138402860649,-0.007266089344457794,-0.00441072557806916
0.135,-9.843689151983963,-0.12144604785571325,0.2899989689779513,-0.009908922084168348,-0.005498,0.000915207134268731
0.1375,-9.977699711561385,-0.0027027704410009265,0.36268382264601084,-0.006766139928486318,-0.004767559713945275,-0.0002127201430273628
0.14,-9.944124987902992,-0.015543,0.3040825078459257,-0.005803,-0.005411674522111331,0.002052386990014326
0.14250000000000002,-9.933166612538738,-0.03305185611441868,0.3135806844815282,-0.009838097258641263,-0.005988153706793814,-0.002660307413587628
0.145,-9.830938394946362,-0.05944190707985715,0.2651969627651895,-0.007044769535160814,-0.005417010870083394,-0.000611
0.1475,-10.002738218688913,-0.04324571818831952,0.3884242276996425,-0.00790817706793811,-0.00710729539928497,-0.0011995083194279495
0.15,-9.877768891603052,0.025909486513995075,0.2507189933842253,-0.007061517557251911,-0.007789,-0.0014176860050890494
0.1525,-9.944746951370679,-0.08752697849821243,0.37467132996424224,-0.009680237902264546,-0.007392641668653204,-0.0017083173301548676
0.155,-10.17196297075718,-0.11992770005221974,0.8671931821061805,-0.01421318572671887,0.005100706040034801,0.0009031337162750501
0.1575,-9.8467629992755,-0.33728260720686243,0.3589517499714002,-0.005655516186844619,0.011107332125834079,-0.004586085795996193
0.16,-10.07761024731235,-0.28651689665859803,0.47913970184019494,-0.008477500145278458,0.007280387651331724,-0.0016311768523003586
0.1625,-10.09584482908224,-0.11853329415971475,0.4717561175208557,-0.008590415733015576,0.007575843146603125,-0.00022531275327774555
0.165,-10.050027184842113,-0.03497108673684139,0.5258375865263325,-0.0056666951578948025,-0.0019828728421051912,0.0005670795789473161
0.1675,-10.052236283910805,-0.10143404521440817,0.39448010421955326,-0.007636,-0.005011438421955411,0.000611
0.17,-9.959624420588234,-0.025401715588234522,0.24082278897058773,-0.007789890441176473,-0.007264439705882367,-0.0012382080882353157
0.17250000000000001,-9.923475636768005,0.05115234530320284,0.23746875761339659,-0.008170835434888639,-0.008399,-0.002517550043895296
0.17500000000000002,-9.979275109892955,0.07626565272320926,0.3500267769438901,-0.008321092177390894,-0.006833667827314409,-2.8078508410743584e-05
0.1775,-10.034387680590406,0.02945343065618518,0.4534030445660194,-0.008635169058238407,-0.003480465794962308,0.0022990063661158322
0.18,-9.882578520737637,-0.15347561684641894,0.20158073929775563,-0.00888112378504238,-0.006246922578001293,0.002265766925584434
0.1825,-9.889307675385819,-0.1327651786636196,0.16441955694232244,-0.008454583527996632,-0.009621,0.00018056674806038632
0.185,-9.929270485254106,-0.03964580268960133,0.32954552406567617,-0.008744050289288506,-0.009621,-0.0012642444722439391
0.1875,-9.95876398709068,0.015261222607052897,0.4172859576511335,-0.007940634288413097,-0.007786769049118388,-0.0011448505982367759
0.19,-9.896800601900615,0.01013848361262236,0.3161090301487121,-0.00694842119695321,-0.0035865617410228453,0.0007647582734856754
0.1925,-9.830534939656477,-0.025124051862590643,0.17812523736211783,-0.007101307450362433,-0.00420399819728964,0.0019088979640718559
0.195,-9.932556935944648,-0.09944094674483717,0.3912957791792109,-0.011086041683832459,-0.0068637385221570766,-0.0009789583161675412
0.1975,-9.923949230778007,-0.13718425516083044,0.37772128081128187,-0.009986679004912055,-0.0052565090540326355,-0.002078320995087946
0.2,-9.89362992635135,-0.11390808938223884,0.3098667562741306,-0.008487189189189179,-0.005556710038610053,-0.003502329826254835
0.2025,-9.855667779448144,0.015886181579448877,0.2862303979448148,-0.006494031322549942,-0.006187117868696473,-0.0033623253663177845
0.20500000000000002,-9.865413088353492,0.09000051245120332,0.32043404051251345,-0.006030000598730702,-0.0051173887582325415,-0.0016822756987187044
0.20750000000000002,-9.89549835606642,0.027306709517974523,0.33260772697726926,-0.005634623881992571,-0.0069813729904885,0.0016409005416734143
0.21,-9.908147404061568,-0.07721980370838763,0.3398066318911825,-0.006095829457105346,-0.00844577888557452,0.004123
0.2125,-9.918190498634866,-0.12767499513572883,0.32690650136513416,-0.009035541848423029,-0.007090000313823948,0.0013285263455201732
0.215,-10.017317684115605,-0.020401002023612433,0.3773037699065121,-0.006139796792563706,-0.006119665550510179,-0.0033735630343501265
0.2175,-9.996555666452268,0.026480467388215162,0.3836661430076393,-0.00554097861637908,-0.0046654728607297405,-0.0026895995234788184
0.22,-9.900191153886462,0.051949917554585154,0.32687642655021826,-0.0077943126637554615,-0.0033450399999999996,-0.0012655648908296935
0.2225,-9.821257,0.050215,0.270206,-0.010232,-0.005143064093178041,-0.000305
0.225,-9.901174301479427,-0.01648064031437855,0.3624637151641244,-0.009181187332408686,-0.008831512020342125,-0.00023029301895515446
0.2275,-9.998911782171879,-0.05266316434104303,0.4571744064274571,-0.007904929846028624,-0.008493472826426091,-0.0005943012982432365
0.23,-9.853562760571968,-0.06538651719733216,0.21900736268826912,-0.007369246177311719,-0.0019420435271686439,-0.0001567281982840557
0.2325,-9.799063799114515,-0.05512583344501606,0.17827586337680984,-0.007703482797654662,-0.004268338865621649,-0.0001864357664233586
0.23500000000000001,-9.844847741784353,-0.014603433301526282,0.26442349019084105,-0.008086570448473286,-0.0071260902576336035,-0.0006684504007633643
0.23750000000000002,-9.92906253932155,0.033553217757604906,0.4188353903487823,-0.008691228635132988,-0.0066175150501672055,-0.0006984861602165908
0.24,-9.880085877456809,-0.0017073382722870012,0.35397657736005644,-0.008102743565998627,-0.003261211762266774,0.0005428349136143667
0.2425,-9.789926149450013,-0.07244087614112275,0.19624762382465583,-0.008248569008392399,-0.0023160627328281547,0.001527
0.245,-9.89119193019384,-0.03890068245927003,0.33627537214888736,-0.009480853694850756,-0.00350633326198121,0.0007209676061362863
0.2475,-10.053183672364302,-0.013696641494079282,0.5280774555543193,-0.009237308171342287,-0.0024784976301358997,0.0001437470110466498
0.25,-10.009000979503776,-0.0664004077669903,0.42207774649406693,-0.008213749730312837,-0.0010747766990291262,0.0013398964401294497
0.2525,-9.880299052439083,-0.0752532705548059,0.22430696273989992,-0.007696433307405351,-0.0012893442844670218,0.001096689226129056
0.255,-9.853273968,-0.05857321440000003,0.2572273072000004,-0.007273265599999995,-0.002735692800000005,-0.0008566416000000033
0.2575,-10.000723437030716,-0.00951009730375399,0.48786872385665586,-0.0074555917406143426,-0.004292240887372015,-0.0014653718088737191
0.26,-10.012310426364005,0.024291823338467817,0.41947110224564194,-0.008193676864207541,-0.0013448805545196452,0.0011127097430077132
0.2625,-9.92978442180228,0.02322694555677022,0.2852018711853813,-0.007877898391379038,-0.00028488620958925945,0.0034759047633921678
0.265,-9.890154458125304,-0.10337981307430963,0.3232463618067039,-0.00805669309373483,-0.002780737289946603,0.005585667119961161
0.2675,-9.952493431839319,-0.13353333656482058,0.4054299520730376,-0.00875988484966525,-0.0037578707048082833,0.0026068659866098406
0.27,-10.021825164218551,-0.10499173523853456,0.4388911221023447,-0.008179309483654829,-0.002913700136305856,-0.0007499418274229209
0.2725,-9.981271392254659,-0.01302158776293623,0.3156572676349661,-0.006729229602495395,-0.00048068472206668953,-0.0017678423610333449
0.275,-9.910793879775582,0.07882679663371588,0.2335631907667656,-0.005524948063051037,-0.002389125204381538,0.00014145072936148838
0.2775,-9.994528682447235,0.03461459670852214,0.3420833829719487,-0.006466229217205459,-0.0052981321998397295,0.0016816780464867901
0.28,-10.051933815961569,-0.014920896544243596,0.43354425002944436,-0.007277246682163342,-0.0053609642956763855,0.001638188972570872
0.28250000000000003,-9.97256440116356,-0.1393150208679116,0.39026750437767593,-0.009799307677634848,-0.0010465637958988415,-0.00043931313304721917
0.28500000000000003,-9.894124615687694,-0.12404353487347475,0.25895495555803266,-0.009752393159986054,-4.528613175321301e-05,-0.0017651404754269948
0.28750000000000003,-9.879001410824458,-0.04988604153057059,0.2296481011597637,-0.008316261664694251,-0.0015370130966469834,-0.0016768281025640892
0.29,-9.973680178475337,0.010780583049327736,0.33550909605381135,-0.006638503587443962,0.000305,0.0006661434080717405
0.2925,-9.985813017776701,-0.035717975432307786,0.3729726149382415,-0.00504,0.00013259784935820498,0.001527
0.295,-10.01831222690348,-0.06665510564258834,0.38007870878910543,-0.00563530968620541,-0.0009938566887290998,0.002181957611542297
0.2975,-10.016222664235038,-0.0842653506404456,0.3567969363477931,-0.0071601661711347,-0.0023664272444169254,0.003859599323841713
0.3,-9.885626740867364,-0.10478327962435381,0.17168222686504162,-0.006634221420280684,-0.005515453371320027,-0.0018012408357075032
0.3025,-9.87504472032922,-0.07700326282578884,0.18821801700960214,-0.0053667910013717466,-0.008049760987654312,-0.0016319550617283957
0.305,-9.91271145159724,-0.005912769930969196,0.2687807211235415,-0.005160543899071645,-0.009621,-0.0005130353058795593
0.3075,-9.981726154148834,0.0456916344426701,0.37887667158096444,-0.006765312462472051,-0.008806959246247208,0.0017210996231235994
0.31,-9.884714797585827,-0.018513482241732757,0.21986854362020924,-0.007226749718731927,-0.004429,0.005249598834971875
0.3125,-9.875487593396773,-0.09299209184585458,0.21920977261973607,-0.008321026234162242,-0.004429,0.003902288102623416
0.315,-9.937206535568006,-0.14431319935629994,0.2913049704946956,-0.007878992051496005,-0.005842875675289072,0.002488727505066157
0.3175,-10.078552346666667,-0.09973466105263143,0.42513333894736854,-0.007452788070175441,-0.00814782456140351,0.00013443368421052091
0.32,-10.023848305245597,0.0487125538461545,0.2949360848192758,-0.008544246487488416,-0.00581351970342908,-0.001099963373493972
0.3225,-9.898211010256409,0.06582348018043689,0.172583461073124,-0.007435593466286796,-0.006488304900284903,-0.00041755972459638893
0.325,-9.847138968924304,0.0313885656374497,0.17715504183267022,-0.0072397000996015995,-0.007025,0.0023014595617530157
0.3275,-9.981741159255904,-0.04457882516575272,0.3718700213307904,-0.009023912320534235,-0.00833725230622467,0.003962116613403285
0.33,-10.055932847756,-0.06822633456569628,0.41501134151919183,-0.008947902734547122,-0.008412583351501779,0.0021494499408558345
0.3325,-9.843503887024534,-0.04643340820986108,0.13832917600194428,-0.008802098353169769,-0.005852866009230065,0.0010388745688607905
0.335,-9.948091713404215,0.003784458530472974,0.2851966158230502,-0.0078185147826087,-0.009954971756217972,-0.0014052570609455074
0.3375,-10.039433990981584,0.0311575280425292,0.41372979572811963,-0.008274417391304353,-0.011171375659768381,-0.001101156085057905
0.34,-10.113360813775236,0.045535202763449585,0.4911308206931964,-0.008186807132687586,-0.01066948272143771,0.0003265172785622902
0.3425,-10.046912388992489,0.013211726999373664,0.3658095942302856,-0.007860554618272843,-0.009531605362953695,0.002255261470588246
0.34500000000000003,-9.919995781139795,-0.04090528592791104,0.20620036199220587,-0.008425236692644927,-0.009774,0.002002379727228417
0.34750000000000003,-9.948604746618184,-0.0640584595509881,0.28401240556521956,-0.008648486377865605,-0.010135513622134395,0.0008439815588932791
0.35000000000000003,-10.075898830446476,0.0036039705648205677,0.5059143062506716,-0.007951699042495954,-0.009393337105970933,-0.00029083513717052063
0.3525,-10.057691174029049,0.061601109603011905,0.4418479484066708,-0.007090388901559986,-0.008015353691231856,-0.00020509896073157678
0.355,-9.89425093352294,0.04811463767074968,0.2504279973531246,-0.006003942150716212,-0.006557931129333605,0.003004726362881452
0.3575,-9.866597653024705,0.012328743645422684,0.20976220868798032,-0.006253188470002075,-0.007306214293128499,0.004334221467718488
0.36,-9.86149763316906,-0.01629986736942232,0.21353261491770423,-0.00683858724764531,-0.009184304070021902,0.00467319732090193
0.3625,-9.925973750991346,-0.04381302542508142,0.36420406064698335,-0.008998186544717946,-0.006225685826529978,0.0018029804063593403
0.365,-9.891343258984715,-0.025344030431526676,0.27493574965318307,-0.007916848578969987,-0.00799508943834018,0.001606022419740962
0.3675,-9.852532479945614,0.014187756762376887,0.2145032796608815,-0.007329835991362074,-0.007094518112453018,0.00030018139966408596
0.37,-9.876965522630417,0.03330349856163593,0.3002053149018236,-0.00959764131056116,-0.005498,-0.0011427640106889733
0.3725,-9.946626444107864,-0.015237429891813283,0.41485263036331343,-0.010020566788309385,-0.005498,-0.0012227991926368484
0.375,-9.93202442367711,-0.05854830845946263,0.3530277263874223,-0.008625031444327115,-0.005117927255661152,-5.393288748093382e-06
0.3775,-9.85457040409831,-0.020192065722949175,0.2550008687328439,-0.00863543863708905,-0.004734,-0.0008207332971592752
0.38,-9.835740499383089,0.0001541803362766457,0.2530459495391316,-0.010935584869964935,-0.008035786239264561,-0.0012899191919680593
0.3825,-9.89042119117974,-0.053658870172946384,0.3286906897467574,-0.01171694169857936,-0.011301,0.00165625085855467
0.385,-9.922524919990435,-0.04617520438067875,0.3233736991869914,-0.007398508235294098,-0.010373280679100899,0.0007089346245815159
0.3875,-9.845389276325712,0.01719885083032508,0.2177005756438023,-0.007108808728439647,-0.008798797817890088,-0.0020639757400722014
0.39,-9.800063162294421,-0.022301238323998183,0.22485412354918297,-0.007513087573381109,-0.008247,0.0010643367779520924
0.3925,-10.002499346013238,-0.0607908907997812,0.45538079590696556,-0.008535049677536892,-0.008536277262403578,0.001646658269265792
0.395,-10.047799459355074,-0.0322411215886316,0.47517492049553667,-0.008437623231918382,-0.005813430978320258,-0.0002980499981781884
0.3975,-9.97576298637931,-0.024245034789272073,0.36282859896551567,-0.00893903272349937,-0.00357664268518517,-0.0006062591443167244
0.4,-9.834866967821611,-0.05680179565466044,0.15191530588907745,-0.008494998170383055,-0.0040154885991995765,0.0002964925328759389
0.4025,-9.904016898393884,-0.05541567252390003,0.2961269737667345,-0.008803285717017231,-0.007850755908221834,-0.0007759731931166609
0.405,-10.018983304118539,-0.02297218212575987,0.4075551134783425,-0.0073530095345744895,-0.0032726867895136757,-0.00017424330737080847
0.40750000000000003,-9.924910260471123,-0.022079279025455915,0.313481571837005,-0.009406238470744704,-0.0030446055737082043,0.0009666607655775209
0.41000000000000003,-9.824977281802925,-0.024899962805082825,0.20791667712778555,-0.009251361716614673,-0.002470031661472055,0.0023272459074562667
0.41250000000000003,-9.832019328978886,-0.028694,0.24353440992751543,-0.00807432606366216,-0.0029353445004727603,0.002688887787582721
0.41500000000000004,-9.992034142138309,-0.10617228135001479,0.32099913216898673,-0.009945710955865052,-0.007734110852018083,0.0015936881661552716
0.4175,-9.984478593060429,-0.113582,0.30743726646686165,-0.010079,-0.006870796954191042,0.001527
0.42,-9.935476446033414,-0.0652099243532227,0.2257462356754188,-0.008858759398568039,-0.0035915981861575574,0.0008407083150358101
0.4225,-9.865658117072595,-0.0016473348847084535,0.23995928966680388,-0.009625750781388213,-0.0036906051565725145,0.0002930826938727329
0.425,-9.927761370997228,0.012030469292917317,0.31537117876982923,-0.010476014389337733,-0.0021793002417880587,0.0010481167777319068
0.4275,-9.95885619517701,-0.009523344821385393,0.35364026023601186,-0.010916201724331701,-0.0010155448149634775,0.0016663284546841114
0.43,-9.947029789995227,-0.06449445158949862,0.3359741427780431,-0.010123526997613371,-0.000458,0.0003133550548926132
0.4325,-9.954560509702782,-0.0660726340683206,0.32929594408179436,-0.008130266526115561,-8.944263771102593e-05,-0.001231864287865579
0.435,-10.031712992978086,-0.017832486667465022,0.379816280091007,-0.007604940040713686,0.0012475212118309162,-0.0005538934115674778
0.4375,-10.039384916873836,0.006198013206960845,0.38586104645742697,-0.008030026413921691,0.001205658328154133,0.0011493152579241765
0.44,-9.96926690762555,-0.020086654617259943,0.3654846999024866,-0.007650555514383228,0.0,0.003010428590931254
0.4425,-10.016455193599905,-0.053132567846969785,0.460808187547822,-0.009522828358262321,-0.007661306067576424,0.0006839850259221746
0.445,-10.065016115976402,-0.05275890212502234,0.4884500780859306,-0.00980963866992432,-0.006993331725165364,0.0010657739157380382
0.4475,-10.084887,-0.052606,0.499761,-0.009927,-0.006036467661691539,0.001222
0.45,-10.007234012619444,-0.053179982041559236,0.37314452895495087,-0.00860754518428635,-0.005100561716972544,0.0005865884422872674
0.4525,-9.864212076996589,-0.03902340427253135,0.14417985030969682,-0.006242770061939088,-0.00543117093161424,-0.00029486074579697434
0.455,-10.048129371017964,0.004540293306719557,0.45217567882901083,-0.011698917658017356,-0.010119345096473737,0.003205122554890244
0.4575,-10.001979685607411,-0.0004501778016402359,0.3661238674612064,-0.009614766362617246,-0.008145380083780738,0.003087883849194641
0.46,-9.917422330523928,-0.002391,0.23687514308815982,-0.008496108120906815,-0.00672,0.0025549438589420577
0.4625,-9.910803508636112,-0.023353574938653053,0.2622040211509553,-0.009014457056914428,-0.010364415879046997,0.0020634850154357624
0.465,-10.012915011003862,-0.06334451757722054,0.40976652852316714,-0.008636178059845553,-0.014203,0.0031661172586872886
0.4675,-10.054653855293212,-0.08906002185624146,0.4147684556626127,-0.008107796121286743,-0.010630739959981466,0.003626995875019225
0.47000000000000003,-9.955643270272303,-0.06381646155853826,0.2626850962429379,-0.008567479548249492,-0.00459552513991711,0.002749
0.47250000000000003,-9.85388804650856,-0.02776103297942519,0.18887520078844142,-0.008127526722161115,-0.004298464391393166,0.00289777887545155
0.47500000000000003,-9.92861198513836,-0.025052996207060918,0.327356688788171,-0.007080695873091616,-0.008732593439885573,0.0017544548425572062
0.47750000000000004,-10.107884614797715,-0.00047685060895721605,0.44276335101412573,-0.01115999381785391,-0.006025989696423184,0.0017583025596633673
0.48,-10.017824952985874,-0.014418782660655143,0.36438458000841656,-0.010293902189359789,-0.004582503648932983,0.002239254461076041
0.4825,-9.910370443360812,-0.059845091071654616,0.2627373779074199,-0.008610094774889044,-0.0056534194800253465,0.0031749866074825537
0.485,-9.841147219768525,-0.09668078023147604,0.17853717478582523,-0.008176321765899042,-0.007982160882949521,0.002544492518792527
0.4875,-9.863925501761097,-0.06157451599330646,0.2207085418917838,-0.008217291242330074,-0.008991291672643236,0.001282396111243921
0.49,-9.887674947243799,-0.010065211782873382,0.29517028606457635,-0.00751960133832475,-0.008196564567150223,0.0015384209452503524
0.4925,-9.895385,0.014347,0.314443,-0.008094,-0.006791661208096648,0.001374
0.495,-9.948297045874787,-0.0293649076029159,0.3282598599914238,-0.009496729579759866,-0.006261,0.004268485077186966
0.4975,-9.939561535480275,-0.05792477696826756,0.24426024421097778,-0.007865636337907376,-0.006261,0.003324227101200687
0.5,-9.93424,-0.075323,0.193089,-0.006872,-0.0075158645206933146,0.002749
0.5025000000000001,-10.025221671452229,0.033041737130777744,0.32127029220036596,-0.008264483793528688,-0.008353713780022271,-0.0006058406835398243
0.505,-10.064239856205296,0.0691159781079336,0.40262006088202495,-0.008358079161430502,-0.0064731857959950635,0.00024082794057196687
0.5075000000000001,-10.062280809900225,0.07324973376247132,0.3845379639909857,-0.0073116222079175576,-0.007101153614419117,0.0009011256903765819
0.51,-9.992191303696156,0.05023788817044919,0.2690223153126442,-0.007228955386753137,-0.008705,0.002341955386753137
0.5125,-9.986122386001917,0.0027462356663482124,0.25342669913710286,-0.009969391754554125,-0.008776008820709488,0.0033814288271013194
0.515,-10.083912620077221,-0.10257886285714381,0.3801873513513524,-0.010213658996138976,-0.008579440617760614,0.003541364942084949
0.5175,-10.108113551947866,-0.16287246705555158,0.4197646501915294,-0.007536552796630403,-0.009044919224350292,0.0023823012159262984
0.52,-9.979009076578572,-0.09159197075035291,0.25187927788107367,-0.008021740448324712,-0.006921582543652608,0.000458
0.5225,-9.8418537558164,0.011203093603172305,0.1378118947850717,-0.008688975432688447,-0.006927245990447575,0.00031260242855986765
0.525,-9.883905835600237,0.06608724688350115,0.2608231996451824,-0.006531387770549952,-0.011060846575990543,0.0006614672264932111
0.5275,-10.006744054152907,0.08005184735694819,0.41844730403910757,-0.007280257672703924,-0.009597530828658475,0.0027775312165410787
0.53,-10.009013624768118,0.048243339701700305,0.37881670205546214,-0.009443830114192508,-0.007789,0.003923259114425528
0.5325,-9.858102353310063,0.010364558109211327,0.16020258574690777,-0.010784626239129153,-0.010319512872271189,0.0034258777187481364
0.535,-9.93820492445128,0.015556259312548133,0.2610719617014744,-0.010405592969295387,-0.010887752602496605,0.004847097393362143
0.5375,-9.999980884232734,-0.009636693175362691,0.3604807145500275,-0.01171107683194025,-0.01065497438935325,0.004441384776434328
0.54,-10.009353009455927,-0.04840110305535782,0.42564909859824196,-0.012462153946305498,-0.01119565657400812,0.002230153946305498
0.5425,-9.961913163529504,-0.04669774571451153,0.39794148781420374,-0.010944081216525797,-0.01302240599415435,0.0017823703957658493
0.545,-9.95071431170749,-0.02766515042480143,0.36835274243521504,-0.011010173224470498,-0.014267898516151966,0.002596
0.5475,-9.946162686485623,-0.04629115921405723,0.3376849767284349,-0.010408472664536754,-0.015752822249201274,0.003934684255591041
0.55,-9.929516969723018,-0.08811534871060211,0.26381782234956874,-0.007645909169054374,-0.01703881499522448,0.0037926631327601826
0.5525,-9.96560806572396,-0.07352955382725786,0.28311509437682036,-0.007855339270923536,-0.017574495882214,0.0007655715612943921
0.555,-10.003586,-0.003587,0.404113,-0.008094,-0.017195227569601172,0.002138
0.5575,-10.003586,-0.003587,0.404113,-0.008094,-0.015731639548532732,0.002138
0.56,-9.843492900183218,0.060011666384781635,0.19796600974393935,-0.011175570683580164,-0.013693179224806137,0.004239154296453021
0.5625,-9.901238877870625,0.014035227371004495,0.2954249141588266,-0.010572243732834687,-0.013186750423654532,0.004909873137380939
0.5650000000000001,-9.992811737465086,-0.08303265329983278,0.3723466309168486,-0.010759741106760947,-0.013467383748027821,0.005845521797463938
0.5675,-10.015544369220295,-0.1694450928583869,0.38167697276656365,-0.010420310193936515,-0.013592,0.004781124227024455
0.5700000000000001,-9.924981480083696,-0.18205580775972158,0.26978860345149586,-0.009718953899556855,-0.012276640994583855,0.0022236286361397737
0.5725,-9.793836403556197,-0.0345186976368112,0.2331314419847424,-0.006510981973929245,-0.012820757203099664,0.0013334675677299168
0.5750000000000001,-9.879312323061216,0.03213047346669247,0.34120021543822,-0.009108013780260778,-0.014744437808614216,8.313816303234496e-05
0.5775,-9.976347741006851,0.05814387369125376,0.457359094564283,-0.008712657565716092,-0.01492605628166321,0.001712286152620699
0.58,-9.973614565113476,0.00852717428778569,0.40789851658619575,-0.007311125605987434,-0.013201794524384398,0.004123
0.5825,-9.829715541336515,-0.0922446351471764,0.20320627312012654,-0.007783552060461418,-0.012877261998408919,0.004197017918854416
0.585,-9.870881623419397,-0.06510641646894919,0.22757324276343,-0.009077110369853411,-0.015731728290299996,1.6980683880131117e-05
0.5875,-9.919177602683524,-0.020337477941439204,0.32074040166974854,-0.008699032536227558,-0.01643888241397818,-0.0011400199773391455
0.59,-9.947184083426967,0.04598959556179638,0.35669267391854,-0.008677923216292125,-0.015544073778089931,-0.00014615056179780408
0.5925,-9.940701220594832,0.09873966005525767,0.2946622574061426,-0.008865205054444984,-0.013035011168535655,0.003129848405655806
0.595,-9.923250463465594,0.05611998469738374,0.27903991458486244,-0.008705,-0.010675377889375849,0.005097936553357801
0.5975,-9.95172942236361,-0.05403690509305041,0.32172820465722946,-0.009294390017496433,-0.010126290695085114,0.005129510660092246
0.6,-9.989622266919701,-0.1625624995136984,0.34780547489028557,-0.009782678045308982,-0.010996,0.004085966125014842
0.6025,-9.96818561752235,-0.16851973434546505,0.3236583588569595,-0.009841487809706263,-0.010260398748403558,0.0004926956449552294
0.605,-9.8965495541164,0.0658891245351424,0.23803469182656647,-0.006871950342414932,-0.00943738050249126,0.0014516742584543474
0.6075,-9.826775841982402,0.0931339813908623,0.21544134167285028,-0.006023240731474597,-0.00841915129015158,0.0035737261867910862
0.61,-9.800599544052194,0.10829449818742588,0.2227140874733093,-0.00723547954922892,-0.007571400241992886,0.004741933494661924
0.6125,-9.892442272093025,0.06176285182724115,0.312689630897012,-0.01069831129568111,-0.00776900232558141,0.00567778770764123
0.615,-10.050716392671573,-0.050451790577059466,0.4743051225837085,-0.01251109092852054,-0.008458867689384942,0.007578379829019229
0.6175,-10.074563639967922,-0.11634249772574151,0.4889333675958269,-0.011507430155573336,-0.005931603435444972,0.006939418213311899
0.62,-9.944332041076793,-0.04905441479149169,0.36014214940031264,-0.009648171546689102,-0.004653007595240948,0.002937065953611356
0.6225,-9.905831289615415,0.0422584150419059,0.37266487764079437,-0.011433968794548534,-0.011855003352393081,0.0003785847669773662
0.625,-9.981363990831081,0.07282062078288468,0.43842805183966144,-0.01107103526507582,-0.017562,0.001289497237569061
0.6275000000000001,-10.048859475193092,0.03952752486447446,0.4522544461981289,-0.007554414190453349,-0.01492480930678809,0.004643000690813243
0.63,-9.954347425205478,-0.023709476986301485,0.3361499659470944,-0.008324217529522913,-0.009090172919225306,0.006573276206896548
0.6325000000000001,-9.872708789908641,-0.08502931676550873,0.24725984402949397,-0.010376799557621467,-0.009292398672864403,0.004436732877063578
0.635,-9.96823319213401,-0.12411880433172115,0.31743616849828965,-0.010513067717352826,-0.016969217006016314,0.003054
0.6375000000000001,-10.053274909385218,-0.02186980508730861,0.3707067842277346,-0.00901,-0.018876669803045896,-9.260728809651168e-06
0.64,-9.966598462357233,0.13864742516896328,0.3064461859743303,-0.010716281417638081,-0.013526236740845363,-0.000577624989991715
0.6425,-9.787185026753733,0.1388731989179119,0.14804769361940395,-0.011797135485074658,-0.01119402022388057,0.005184573320895461
0.645,-9.860618947620683,0.025264278970839334,0.21400208907620913,-0.011558102122028936,-0.015177613036020644,0.007916428865474152
0.6475,-10.097487219294115,-0.12024568026890567,0.4486793416470566,-0.012210063529411785,-0.01565566157983202,0.006412165378151305
0.65,-10.07311921773925,-0.1797344312039889,0.4022595611968617,-0.009139741367846062,-0.009580068796010399,0.0038209110662550307
0.6525,-9.83925141572995,-0.06629714284148051,0.14095079425752047,-0.007590893997493709,-0.008686524075814498,0.0001462195300752536
0.655,-9.812003293109935,0.09323679495660757,0.18152414441176884,-0.00920356351976857,-0.011206451137897798,-0.0013592801253615562
0.6575,-9.968867397471465,0.14471656281267525,0.37639928156117775,-0.009884882589193063,-0.011912,0.004151247259956845
0.66,-9.944828195214003,-0.15351240207367517,0.2634530989208405,-0.010950215077426178,-0.01046257277676247,0.005834739336347
0.6625,-9.806558516623314,-0.1582182346181131,0.15011094109718456,-0.010675126909434856,-0.006997541948451146,0.003949375266020355
0.665,-9.884376046706079,-0.1493243067108062,0.3220505026389242,-0.010580286445968312,-0.009742956410498976,0.001866604303617847
0.6675,-10.005995187306496,-0.07681825241929145,0.47331868100438323,-0.010051291392586694,-0.010926483239537666,0.0015407421283379751
0.67,-10.083375410602581,0.03270207591104861,0.4964643302152051,-0.009733955939741763,-0.011773628149210947,0.003221628149210947
0.6725,-9.890432646377155,0.002285052345032599,0.2146893879690653,-0.010325604325996433,-0.011036993689470531,0.006020100592504464
0.675,-9.943698910495977,-0.001130223431322068,0.3583484332745753,-0.010079,-0.014419267025584864,0.005651
0.6775,-10.075105381710419,-0.05160215450378752,0.5178280052408399,-0.010079,-0.016326677177569197,0.005651
0.68,-10.123873744990926,-0.11501467834039121,0.5190549018410492,-0.010966590893915617,-0.017835070511672935,0.004627097312205096
0.6825,-10.016738,-0.113582,0.35868,-0.009316,-0.017936266940456726,0.000153
0.685,-10.016738,-0.113582,0.35868,-0.009316,-0.01628740674541156,0.000153
0.6875,-9.912379050466088,-0.02355891160398585,0.23654653937640632,-0.00909634844101575,-0.01733469206043073,0.0010316062359369976
0.6900000000000001,-9.85690371908283,0.061788591333644546,0.15337110375292765,-0.010003980776789961,-0.018525703378568043,0.0024151532428638538
0.6925,-9.910237821728014,0.014421525901740236,0.17144726398275054,-0.008923091187432612,-0.017085715194825195,0.004161027605113203
0.6950000000000001,-9.889406828440299,-0.016256921408761144,0.16466719396245227,-0.0070134403779605545,-0.013110734926984662,0.005521552499693204
0.6975,-9.927762231053926,0.0028992876413703123,0.33258631731847316,-0.007595217095558101,-0.00718480525487624,0.005345
0.7000000000000001,-10.014529743151417,-0.045664291511783216,0.4517136606132348,-0.008857984041671735,-0.010425397845389234,0.004830204427607399
0.7025,-10.103979675606936,0.006029159082295475,0.39110658255169456,-0.010674896389964841,-0.015142045089088832,0.0011745278374351983
0.705,-10.005365042543355,0.01013823230558363,0.23309847032954187,-0.010579292952744176,-0.011420384487217747,0.001842502179846244
0.7075,-9.88484755468869,0.03915940968233834,0.1407147670997456,-0.011033388859593398,-0.010695732353875487,0.0025633434942820893
0.71,-9.864154178270025,0.06842324495562664,0.1872828360525353,-0.012011910576263147,-0.012705386926990851,0.003392185038456974
0.7125,-10.00092121729575,0.0008728731008111751,0.40119681051122985,-0.012171625704730047,-0.01319471132345914,0.0052225773530817235
0.715,-10.027971191992428,-0.12273319388546922,0.44618257597728694,-0.01249511509701843,-0.01237,0.0064036029531472005
0.7175,-9.985652,-0.183525,0.319225,-0.013439,-0.011384307090967516,0.005803
0.72,-9.963137019263412,-0.13269122259596816,0.3201044730452386,-0.012809922258039418,-0.010861077741960582,0.004634880900101257
0.7225,-9.97478709098713,0.05773091364807496,0.37003655948498293,-0.009644792789699418,-0.017650473991416792,0.0013150539055793516
0.725,-10.05814942285636,0.10913017740368147,0.4501451350851976,-0.010908295052350627,-0.017185602230890332,0.0034267721754601844
0.7275,-9.968428725453217,0.053662089861586396,0.3559068611468383,-0.009653876898740706,-0.010942873655947424,0.00656824295972531
0.73,-9.935747731807849,-0.010010942400916458,0.33439894741285336,-0.008811204973736974,-0.012208429636137894,0.006535330849011582
0.7325,-10.060864348872125,-0.060596147313533424,0.5023183146251579,-0.010722895914430363,-0.013814189941743889,0.002788556802597591
0.735,-10.19420083048122,-0.04852188100149367,0.6386051628482825,-0.011564226006661312,-0.014813,0.002126313724589387
0.7375,-10.111118659882141,0.07575042266284673,0.5058683472686678,-0.009402202930402875,-0.016279871922280666,0.0038436175983436764
0.74,-9.925387594712308,0.10334953153678136,0.3603427019810628,-0.0076021953823743596,-0.018021,0.004804816693372165
0.7425,-9.883047948496811,-0.02162938975958398,0.2952048949135831,-0.007941,-0.02128326871802761,0.006414
0.745,-10.004777116837724,-0.11345956593619957,0.2991205192787786,-0.009048818696255194,-0.027870249875173357,0.005892522940360613
0.7475,-10.106106098871773,-0.14447535671267825,0.39877310067501326,-0.009089745634724273,-0.02386072986196413,0.004974959234022173
0.75,-9.913819933576809,-0.1177103907783611,0.19863705295594614,-0.00816127938826752,-0.015424,0.0037843200182606715
0.7525000000000001,-10.002773333685433,0.10547433204540009,0.3294559212369742,-0.010735581718786243,-0.022144,0.0022899621728052315
0.755,-10.125105985879083,0.027065525337039487,0.508054500917304,-0.01286819633078527,-0.022144,0.00414506970118138
0.7575000000000001,-10.13227361157062,-0.045063563467313994,0.489469562259882,-0.011355070553672195,-0.020404554569814284,0.005106581643260697
0.76,-9.92119371919075,-0.08755061013487474,0.2617604410404615,-0.00964933052023123,-0.014544743969171445,0.004803379499036605
0.7625000000000001,-9.855424795777802,-0.09214346274324815,0.2749805300625082,-0.008417499492864682,-0.012654292227857024,0.007485627031489641
0.765,-9.901913813317384,-0.043849534126090786,0.33354237854767377,-0.008690464361765784,-0.01608738215097507,0.007984041105395358
0.7675000000000001,-10.082572306252171,0.02551530117881214,0.4318366045361794,-0.007870185705048549,-0.02162935003233008,0.004920408157174839
0.77,-9.89342442510818,0.05721336336566382,0.23437434932272097,-0.009728641717649023,-0.01512475398822842,0.005185529337644037
0.7725,-9.817553112355524,0.0386509911657594,0.19983581437554934,-0.010048329101235431,-0.014417341797529137,0.005009313589788632
0.775,-9.765713892729865,-0.010191844903778544,0.17244879857448306,-0.010232,-0.014643571917320044,0.004887
0.7775,-9.894893532578218,-0.05585943571156222,0.2872714051272821,-0.011208848460244454,-0.017671327204216613,0.006059601982729591
0.78,-9.94734255984988,-0.057964569416581416,0.3107571196997605,-0.011853915332650974,-0.017326541153190014,0.005582877093142254
0.7825,-9.931893963139757,-0.025246005768985967,0.2568367820548824,-0.010294482705807306,-0.016341,0.005181137817485636
0.785,-9.936643255460572,0.025022886875428994,0.3114965031222884,-0.008899915995428583,-0.015158358847999962,0.005428325723428569
0.7875,-9.921164578280179,0.005031561049657428,0.35454667583367067,-0.009386205958821154,-0.013532458360920471,0.006332502236576488
0.79,-9.993411487827302,-0.00465138373258929,0.48619071264624714,-0.011364388133704809,-0.016537711364902632,0.003148271838439942
0.7925,-10.031180590590928,-0.005278537757966353,0.45278905550990944,-0.012158316706222512,-0.01759586756701403,0.004527602701042091
0.795,-10.011140205079588,-0.03848137229572114,0.3981239100813576,-0.012523,-0.017111556717368196,0.006082793477184306
0.7975,-9.928089183974855,-0.043936621543206225,0.3197463202467237,-0.010002322595338356,-0.014186169017258768,0.006032777899294227
0.8,-9.860427082794613,-0.04207777944368658,0.2230865310717022,-0.009527817235039432,-0.013141386572563887,0.006507905153905471
0.8025,-9.865602173810709,-0.018126485966123613,0.23147432024403916,-0.008888678147226462,-0.014454187387011309,0.005865822294292371
0.805,-9.99105581541667,0.023560932343750812,0.4353959700520911,-0.009715933645833404,-0.017324819218750044,0.006065070208333396
0.8075,-10.054664694795466,-0.019363498634795362,0.5119972197387881,-0.009950253824544113,-0.014585446890093634,0.0068397938836865495
0.81,-9.90337378105747,-0.054288725557471086,0.3140854073333322,-0.00910098463218393,-0.0170368273908046,0.006165306798850622
0.8125,-9.855340161685824,-0.045882540852490425,0.2612488277777778,-0.01017467021072797,-0.0172668311302682,0.008389513266283524
0.8150000000000001,-9.861388271903339,-0.049909580639816445,0.21011371527272615,-0.011121343194476427,-0.018592616911392475,0.009078369790563824
0.8175,-9.972178748741555,-0.052328398460329904,0.32045030750039316,-0.008761625992144532,-0.020282198878240378,0.006658969461115471
0.8200000000000001,-9.919202100370091,-0.06348157877419926,0.35685848920312124,-0.010085635118194516,-0.01312814626591085,0.006863400222483659
0.8225,-9.843101548559204,-0.015541388413733918,0.27237684405604845,-0.012397796230612908,-0.015355066415659438,0.005664418787036042
0.8250000000000001,-9.80248903284514,0.04623461416566859,0.19907825176470448,-0.011869481296518453,-0.017407122833133302,0.0059682547899160485
0.8275,-9.882084260875422,0.04820830152958118,0.22867233614237664,-0.008600785223665216,-0.017672302818662815,0.008689235940355953
0.8300000000000001,-9.98711393415871,-0.04314159218960413,0.3115584282655365,-0.008482968475415688,-0.017867501662539854,0.00953803152458431
0.8325,-10.031728032869552,-0.06877032874651323,0.35542042781098115,-0.009672241775440278,-0.015575489540202365,0.006280408204637789
0.835,-10.029297938788991,-0.016878800733945466,0.40076558532109985,-0.009813030018348634,-0.012111368660550452,0.0047752485871559135
0.8375,-9.970392811840412,0.009092625482625634,0.4089897652509648,-0.008375095495495477,-0.011823324066924058,0.008122026769626799
0.84,-9.92296123229402,0.030708195810713053,0.39322702645207724,-0.008152248926255063,-0.01439730805668977,0.010430875195772273
0.8425,-9.968088254865757,0.03231181697597715,0.3926488983137066,-0.011213714441827633,-0.018839100178991996,0.009236019010833698
0.845,-10.043120217452056,0.004043430892879394,0.3874615997557096,-0.011359435798216742,-0.01954999251496273,0.00807466483449369
0.8475,-10.024101167310995,-0.06443706989398859,0.3694796624777518,-0.009285247391472575,-0.019058010434109703,0.009889614609610794
0.85,-9.934406791211655,-0.09390670733151811,0.3121699809309487,-0.010110842094042389,-0.016980236858936418,0.009066772379486021
0.8525,-9.813014046038472,-0.0297028520997713,0.20276215916530513,-0.01111329627975221,-0.015747073051842187,0.006766888839256625
0.855,-9.759608597058557,0.03677998371621529,0.12170341736035922,-0.010388435549549572,-0.017332143909909874,0.0072246120495495616
0.8575,-9.893054812354682,0.09569893930049242,0.31441581000657176,-0.010240506630541915,-0.019194725093596036,0.008389255809523873
0.86,-9.984878956447087,0.029227456171225664,0.46118012125089186,-0.012065,-0.017292475700356733,0.010996
0.8625,-9.919605655707961,-0.07638827880212118,0.39231984577299084,-0.011359859270998392,-0.01621133242253676,0.011325024635225979
0.865,-9.845613402264606,-0.12400310701349784,0.2679731379878686,-0.010047062060221875,-0.01682446774140663,0.011937586930433354
0.8675,-9.931730289469389,0.04810763820648195,0.37193578817527,-0.009796879027611049,-0.01677202218487397,0.00784623507563026
0.87,-9.94076088277551,0.015373310965186134,0.3677975005402161,-0.009988845222088835,-0.017829409747899157,0.008326465260504201
0.8725,-9.959801867142623,-0.02439243305523594,0.39079430459686826,-0.008818666219290963,-0.01881610433305855,0.00771208312613352
0.875,-9.921556728375286,-0.004443176201372995,0.26432682082379866,-0.010478837757437071,-0.019395,0.00918313867276888
0.8775000000000001,-9.901761041712847,0.005411628110831336,0.22942972443324897,-0.009676399999999972,-0.02092068947103278,0.008391319294710303
0.88,-9.907616029955687,0.0007584850221565315,0.2394158944756279,-0.009635431885770561,-0.02121356811422944,0.008219073914327921
0.8825000000000001,-9.938560295643533,-0.03238637332264888,0.2832040478153557,-0.010476772700753315,-0.021011909196986735,0.009223227299246685
0.885,-9.998683980047304,-0.002995872298958778,0.3046250033491013,-0.01105941654683066,-0.018958042128666006,0.008296165108798475
0.8875000000000001,-10.069948530704222,0.04022744112675995,0.5039193459154913,-0.008705,-0.01484764732394357,0.009468
0.89,-9.977528669760863,0.017310226613125434,0.440427864867845,-0.008705,-0.011392405581060815,0.009468
0.8925000000000001,-9.904326210788515,0.008462207430651132,0.3063935404221538,-0.009117945986251538,-0.011977129950667324,0.00974344759563285
0.895,-9.915736286000001,-0.000362017728337459,0.24038280813583263,-0.010347900983606571,-0.016444936163934464,0.0108721008946136
0.8975,-10.127981382420607,-0.0606752778405079,0.5144626343330977,-0.008884023653258053,-0.017104,0.009477656598447438
0.9,-10.098120646330276,-0.07578972018348637,0.5472722591743122,-0.00907210626911315,-0.017104,0.008441660550458707
0.9025,-10.08369,-0.083094,0.563128,-0.009163,-0.01471801102323288,0.007941
0.905,-9.95001173874985,-0.04523582445552479,0.37018150075379225,-0.010163600825698742,-0.014293476905949282,0.00787461356372492
0.9075,-9.844817110682598,0.03415746662956233,0.20067100482566547,-0.010398527412015081,-0.01925094042232768,0.008281492447209026
0.91,-9.923481,0.069943,0.29352,-0.009163,-0.01913634061855663,0.008858
0.9125,-9.967350743933054,0.016594713249652178,0.337660637099023,-0.009093691213389122,-0.01553932440725246,0.008996164574616454
0.915,-10.020324,-0.01569796256756617,0.44730537522201014,-0.010146403696911247,-0.016223227306949896,0.00884717154440153
0.9175,-9.963958489736656,0.033612149978647636,0.43181080307473435,-0.010808114989323856,-0.020448280085409234,0.008942489935943054
0.92,-9.861641319051454,0.003449076468284268,0.27092487219983685,-0.011387440395994099,-0.022144,0.009864688209968931
0.9225,-9.86311752680907,0.0026803685836340185,0.27524447915872424,-0.012399012987183718,-0.02234204925402563,0.009835901491948738
0.925,-9.981139264076301,0.05316659300600404,0.4143236935358557,-0.010296442670434478,-0.02092943892617441,0.009637370964323577
0.9275,-10.023698636697336,0.026894497415793278,0.4671685480726459,-0.012018242931434504,-0.019924225371629724,0.009602618910312829
0.93,-9.904814690610833,0.012390767714285048,0.3349354595763483,-0.01170878467980282,-0.021265369960591116,0.010348150197044412
0.9325,-9.802566303519395,-0.028628931144749206,0.17434868516556296,-0.010630132847682112,-0.020922,0.011993560435193945
0.935,-9.832885216243705,-0.038024301367233115,0.23667554684577136,-0.010713517850803423,-0.020444521880546865,0.011229952209162829
0.9375,-9.887336372028404,-0.0014454232787897495,0.2994512559431924,-0.010308916949675825,-0.018953345785736337,0.009416002161160852
0.9400000000000001,-9.903084379609375,0.01294887208984382,0.26125387324218824,-0.013107652441406258,-0.01888246529296882,0.008183466152343746
0.9425,-9.873744716915674,-0.0049696120180740735,0.2547582792183559,-0.013301196943841315,-0.015095628284725078,0.00958438122880113
0.9450000000000001,-9.932599359981223,-0.014165649997066128,0.37467473752949065,-0.008320753223402259,-0.016975447356375847,0.011369440190129733
0.9475,-9.944159041862408,-0.030424500846110702,0.43504743452195554,-0.008386577660753007,-0.0171252989323272,0.011271824474592592
0.9500000000000001,-9.908217265199161,-0.030662201677147685,0.37660710712787765,-0.011705615863032865,-0.018892355765199376,0.010959449615653458
0.9525,-9.91317571343088,0.013298077070440787,0.3051303311553532,-0.010737292652114802,-0.022755,0.011686351662269124
0.9550000000000001,-9.95300618019663,0.012463775271532904,0.31875643883895044,-0.009376447968164826,-0.022205527855805197,0.01130090708801501
0.9575,-10.009197074649007,-0.01459797582661056,0.43268640289464133,-0.010492213360626135,-0.02027140467670076,0.01028964721493076
0.96,-9.957872404344373,-0.026296447744731926,0.364002465372668,-0.011359608558699566,-0.017475412440698414,0.009518208399759191
0.9625,-9.919415812648717,-0.024535718847839585,0.32814132811521596,-0.011759,-0.016526322354414532,0.00983920187852224
0.965,-9.930823284046241,-0.01311885764932572,0.341235562967244,-0.011263466050096359,-0.0184998339499036,0.010814086242774561
0.9675,-9.974891,-0.009565,0.368245,-0.010537,-0.020906281164200825,0.010996
0.97,-10.023953821889236,-0.0031093939591518077,0.39406742416339274,-0.012186358028279604,-0.021019925408483898,0.010336184795758072
0.9725,-10.100380965435654,0.010098604640904176,0.46246296741159393,-0.012854928359460371,-0.01882354803864375,0.01054364614655491
0.975,-10.037936372482338,-0.01476006509399997,0.42639121645312145,-0.008921366399233624,-0.01811139482696675,0.01349043249910189
0.9775,-10.01329469781245,-0.05653021424345855,0.28768242907849745,-0.010822268109865155,-0.022297,0.014133174509995123
0.98,-10.065871293200615,-0.047410761455148956,0.32397546963858126,-0.011400828538926443,-0.020991660523758764,0.01350033603033536
0.9825,-10.084822759310994,-0.04814251296899513,0.44095482774819994,-0.008978975186345117,-0.017787942777951725,0.01240896657688693
0.985,-10.083138023405116,-0.03912956436406945,0.5453416882950614,-0.008722274260559186,-0.015817683654967284,0.011588725739440815
0.9875,-9.981219868151731,0.01757146269572298,0.5524936496852269,-0.010830501049233308,-0.014270879709443051,0.010731238482647282
0.99,-9.855689014871674,0.04294259406639978,0.33369606720037776,-0.012760759255945374,-0.018831763927478158,0.009896235761714155
0.9925,-9.90401098288952,0.0641323630028335,0.23036486963172914,-0.012812847365439098,-0.02722216793201134,0.011669503512747955
0.995,-10.00256184055189,0.035495554797840695,0.3095138923575283,-0.011312331964007208,-0.025909039289742062,0.014419292674265146
0.9975,-9.922082118109405,-0.12418277931861696,0.3181136461036486,-0.012952987197696733,-0.019673782975048,0.013923329702495161
1.0,-9.937122064059501,-0.07380119313819578,0.4008298896353167,-0.012760530230326295,-0.020537952495201534,0.012001904750479846
1.0025,-9.917651791607906,-0.035167952158103394,0.3384793155668022,-0.010213443699604838,-0.021836160758893247,0.011710773021343853
1.0050000000000001,-9.930427862973175,0.003925199720072763,0.2589649118608897,-0.009493381355105511,-0.026472644828756102,0.01373134861626555
1.0075,-9.968978124196799,0.01821567509702082,0.37594489986640095,-0.009663492825787302,-0.02375586457639692,0.014665293945498911
1.01,-10.021170292718326,-0.033336071388349015,0.467522549332723,-0.011892975341650474,-0.02321133467780704,0.014565534714432865
1.0125,-10.047155671975645,-0.0880808609838177,0.47757267197564535,-0.013685168819099543,-0.025423462970677758,0.012862124659509718
1.0150000000000001,-9.994288986369286,-0.055985730874516665,0.3773370825636682,-0.009944425284657478,-0.02513136282662269,0.013508835684939791
1.0175,-9.893814385744799,-0.0003540771476717025,0.18316306055086753,-0.008617267154902547,-0.02466321843090024,0.013699639164859754
1.02,-9.870513513060242,0.1039029235662655,0.13899699450602504,-0.011420902971887553,-0.0257218009317269,0.01150344915662652
1.0225,-9.878343004163458,0.05358725509987126,0.22915680377985326,-0.007573191802577716,-0.01699932419277989,0.015091681988882806
1.025,-9.939606974491475,0.08651642297965798,0.324497732710277,-0.008453890599230315,-0.01895543628367228,0.013330924903793355
1.0275,-10.06264353859289,0.12254173581660202,0.541739566273528,-0.010364733220553448,-0.017112710257707348,0.01245436940079051
1.03,-10.142225341068269,0.09580169037141681,0.7102387226600623,-0.01183788551821718,-0.01336488551821718,0.014582190944464168
1.0325,-10.060762789189189,-0.0044675171171165914,0.555065474234236,-0.010420446846846865,-0.020619010090089936,0.016698704144144167
1.035,-9.935892256959676,0.03980756592276474,0.1301779973074467,-0.014199185758480939,-0.030271058357158126,0.010396931367612543
1.0375,-9.934889431715384,0.05084144011094556,0.11212266850864028,-0.01308897487732021,-0.02941644766375077,0.010481944996799662
1.04,-9.958284212718853,0.05875418641500698,0.17409658310792328,-0.011455195451597925,-0.02638002020842973,0.011582735414543813
1.0425,-10.066917543106774,0.025979803347221476,0.4378425280657075,-0.013455011627187213,-0.019368160818950143,0.013218005813593605
1.045,-9.980283122277449,-0.06558931678671928,0.31868940535870477,-0.015557834643238563,-0.017989162506552726,0.014181501126104291
1.0475,-9.954420928175903,-0.08171495187457592,0.25783718394330407,-0.014081318297252636,-0.019310952561887248,0.013171199524317988
1.05,-9.97197519941541,-0.04372904524727926,0.34829317759850986,-0.011590382953349625,-0.017944417046650188,0.012925491663743734
1.0525,-10.102106072559783,0.03316263085875829,0.6994627381128506,-0.010747259017552118,-0.01675676832135704,0.011493521625633184
1.055,-10.144667,0.04065,0.790889,-0.011301,-0.020656737124600536,0.010537
1.0575,-10.117905971066591,0.11103177469000478,0.6284498229693434,-0.012394629870932069,-0.02383261339140084,0.01135755814712177
1.06,-9.952508473473038,0.07209426074774919,0.1697187594675275,-0.012596441757578897,-0.025418314639904332,0.018400441757578895
1.0625,-9.950553196297644,-0.013957018823774106,0.2225226935156778,-0.012013566325204098,-0.025917766366803596,0.017817566325204096
1.065,-9.96337524018451,-0.10845543641660355,0.29308702082058513,-0.012483065326535505,-0.025214598174314228,0.016883607671765027
1.0675000000000001,-10.024476855259058,0.018444926797932512,0.3902524731164163,-0.00973150062697048,-0.025957569298673364,0.013277643578609302
1.07,-10.060272274620191,0.07437604922967245,0.48719975199809895,-0.01068395768009044,-0.023290440052346612,0.014515775373267535
1.0725,-10.050500282145705,0.08958992161497753,0.5548421166593408,-0.00981129017826617,-0.022191462704110706,0.01692360202849004
1.075,-9.979511030463268,0.028838614927470772,0.4574571299485324,-0.009692039354234827,-0.02417511689284034,0.018538829199812857
1.0775000000000001,-9.975108137909192,-0.06541008515311805,0.23313565364307845,-0.011417586314677883,-0.02963655286166872,0.015388262344244778
1.08,-9.978732546342012,-0.08465876173828922,0.22967881340965995,-0.00856980953640238,-0.03020180282512291,0.011440308535031737
1.0825,-9.984690451705363,-0.04695686180304191,0.3000592694475588,-0.007280287458767019,-0.028454394459567642,0.009621
1.085,-9.986797700728053,0.0351822748512953,0.38222586618129845,-0.011149084039971308,-0.02595607355698316,0.008393496688079994
1.0875000000000001,-9.92850983563273,0.11409936338408197,0.354826236726922,-0.015593241389153174,-0.024964452283539555,0.009245118141452836
1.09,-9.873149679184532,0.1657546688787356,0.25794113574692085,-0.013665324035149216,-0.026060298179261886,0.01350063616168728
1.0925,-9.889550422087543,0.15305571771043713,0.26385749046015833,-0.013020033759820466,-0.02642,0.014851504062850724
1.095,-10.010351972264171,0.05331662444204929,0.44814528534100095,-0.01548768819848975,-0.02451268414718932,0.01546165792640534
1.0975,-10.043848193626394,-0.06938617195485561,0.5142832249830372,-0.014358675135348506,-0.023462728611790606,0.0165282118980349
1.1,-9.876380184059352,-0.05564329794382385,0.26587689572866696,-0.012903538134605215,-0.030093887620561782,0.015918210853206074
1.1025,-9.816254047147853,0.009797957907791074,0.18482258218123893,-0.013497564496025447,-0.03136696001907792,0.013796608750397427
1.105,-9.790553438103343,0.03333029441945333,0.15728276473677752,-0.013323190871732535,-0.032223,0.01262516548571428
1.1075,-9.946107101424728,0.04580793914229424,0.37504992632334644,-0.013224738905436871,-0.03019689385968072,0.013626808986183375
1.11,-9.945356998609965,0.009440496151682291,0.31281208951492073,-0.015236093192176645,-0.026078227317423132,0.013914055716250984
1.1125,-9.942919317821392,0.004460404366674961,0.2625371437061552,-0.014725246630409031,-0.02379683308898872,0.01265385414991719
1.115,-9.993320794547044,0.04216160498812921,0.35662576832687604,-0.011877030318630525,-0.02330249133075097,0.010906508669249032
1.1175,-10.032072889802237,0.05502961372625735,0.4906416682435723,-0.010329186214335973,-0.02106498589228494,0.012658964027202301
1.12,-9.949586153432476,0.024024025204044,0.3473030532968344,-0.011222911067222037,-0.021592818303391235,0.01370767142415217
1.1225,-9.939147917187778,0.06291922000806466,0.3013286360461216,-0.013102796794323966,-0.023214481806014563,0.011133639300169265
1.125,-10.04619979684743,0.11926773050229385,0.5346681816256911,-0.01370213033760734,-0.019853,0.012909483237266204
1.1275,-10.115973,0.109397,0.692252,-0.01405,-0.02101888918622221,0.017257
1.1300000000000001,-10.109607879484761,0.026901860476124487,0.6016784316595621,-0.014862838665900054,-0.02282450279931,0.017694745357101842
1.1325,-9.998745544411019,-0.12456847077473535,0.2520959378782106,-0.015769197863588314,-0.027949890525973724,0.01673162220957638
1.135,-9.985708796376988,0.030574364688729344,0.2929626060691257,-0.010232,-0.030805756353909877,0.00890079125399906
1.1375,-10.099457872103633,0.0660803238265059,0.5809528193423141,-0.010232,-0.024926867467352072,0.010328442848901217
1.1400000000000001,-10.147765804410364,0.09196999233783645,0.7722764674017274,-0.013275979126202252,-0.021916184816843286,0.011611784451746428
1.1425,-10.00386863355382,0.11525421341071823,0.49075842045474766,-0.016148220238511604,-0.02656781615837193,0.012541904204166029
1.145,-9.76743782470368,0.058561632613848474,-0.13198603936785122,-0.014875659920981488,-0.03580016992306087,0.015006111865252646
1.1475,-9.745279052401747,-0.020949929606985773,-0.029663751790394474,-0.014209533973799135,-0.02839101781659399,0.014173726986899575
1.1500000000000001,-9.831262820782356,-0.027142138228932952,0.2522602195344745,-0.013165447660187082,-0.023213,0.012145429709622974
1.1525,-10.016698198604923,0.14780466666349162,0.6040985452208006,-0.01283612158552571,-0.019631692841328742,0.010414369379835916
1.155,-9.88168739480916,0.12227586157760786,0.463758412793701,-0.016431009799798352,-0.026725,0.014785136870709122
1.1575,-9.87416326167939,0.09639497811704861,0.4556326913399588,-0.015739309082529174,-0.026725,0.016169041726439085
1.16,-9.877193596169748,0.017445231773673076,0.42924497880304885,-0.01571165096844392,-0.030556420413492547,0.017355287878128376
1.1625,-9.945262242036256,-0.03739262667180652,0.3778360610258374,-0.016010037439259522,-0.036041,0.015862649332819008
1.165,-10.02848781373425,0.007616055470991968,0.36773004453649494,-0.015577,-0.033829527261384794,0.013439
1.1675,-10.006189992978193,0.0014975501233069066,0.38504306384012665,-0.012918458176517022,-0.023256282439409564,0.014439687131142557
1.17,-9.942223226483632,-0.012209796105205221,0.34163636129502645,-0.015155989299641558,-0.026466403948247494,0.015218014211261595
1.1725,-10.071791295669565,-0.0016611538054977113,0.5386674065230318,-0.01654538318771572,-0.030331325808832174,0.01536117624568502
1.175,-10.0993980138793,0.040123370360672095,0.5073293254374474,-0.015782759766694427,-0.027567283966194452,0.01488500466611117
1.1775,-10.071819119207667,0.044932041380191794,0.4777390413801918,-0.014001608408945697,-0.025589734031948887,0.014728416127795527
1.18,-9.83369232036293,-0.02570252914249696,0.2963417145539399,-0.0169673979629727,-0.022293514107095947,0.01605132339854201
1.1825,-9.850458977460535,-0.047729389439346404,0.35683267648817585,-0.015959902692610228,-0.025653114874914916,0.015043278185346367
1.185,-9.861907,-0.062769,0.398135,-0.015272,-0.028977296986039923,0.014355
1.1875,-9.901731865950453,-0.020080808786979876,0.4101086285576846,-0.014673296801090356,-0.029545887035997757,0.014088958069429967
1.19,-9.851483096208579,0.062106371011929326,0.2900863585506054,-0.016337154290764315,-0.0266254695890412,0.01211723047282379
1.1925000000000001,-9.831665781649784,0.10511483330439156,0.24884475351664262,-0.01537230981186677,-0.02620075461649783,0.012558599710564448
1.195,-9.937779446995478,0.11996265514107085,0.43615436498815285,-0.015467790954124466,-0.02708647226793026,0.017247054176179194
1.1975,-9.926978639931079,0.05077143167348672,0.38215145886711155,-0.01451926215808744,-0.02889714598750808,0.017160670303682964
1.2,-9.92296576062693,-0.025597709712655726,0.3229149230586571,-0.016186046069817026,-0.02943104801709811,0.016319428924246066
1.2025000000000001,-9.932978110485854,-0.01698053269715004,0.33438516606166685,-0.017457730902750095,-0.026636202856463325,0.01492862932234284
1.205,-9.89708014979611,0.05692472784840596,0.30160512953705204,-0.01391069042456213,-0.026032133888222744,0.01541553971695858
1.2075,-9.829542296266833,0.09329261989978102,0.1549728062229874,-0.014784752947071756,-0.028405,0.0160341891700595
1.21,-9.914067757875978,0.11287918177939299,0.24204333213925136,-0.017868833909272082,-0.025239360515766168,0.01594172350252019
1.2125000000000001,-10.151839600269724,0.07143666770060529,0.8166296114632565,-0.014737343627781561,-0.011581037761294809,0.020523654079568396
1.215,-10.173578284774107,0.04154704972931222,0.9364906057566746,-0.015431276497447282,-0.014126468374915794,0.019675177208361403
1.2175,-10.040940917482105,-0.018264586113498238,0.7605965123128049,-0.018020851979017805,-0.032125110557941206,0.016455172551263508
1.22,-9.872997148378017,-0.038419644056300245,0.17370251591153313,-0.017791928037533527,-0.040623,0.015318351434316351
1.2225,-9.8393567996981,-0.025564582461270434,-0.04349858246127044,-0.01568449810121563,-0.04030023230634784,0.014133774166997778
1.225,-9.95707923448277,0.056105757373197784,0.20109867539134071,-0.012819242414969881,-0.03627504387430816,0.012427915640814411
1.2275,-10.123145,0.159015,0.571497,-0.011301,-0.027554635560136286,0.012523
1.23,-10.065333293433234,0.09097455627311343,0.4927837059432043,-0.013402912497885146,-0.027323834131721965,0.0151925144217522
1.2325,-9.875610269034652,-0.03692151734013588,0.18867049065592273,-0.016286943375853874,-0.03375,0.018370757244671295
1.235,-9.78455073486057,0.011095906466935201,0.004962445706388312,-0.015487884111546446,-0.034005118902973065,0.015306938916800955
1.2375,-10.086287339787942,0.11800682909421321,0.5566979278885205,-0.014336640230233285,-0.02590590589518319,0.015446775837624991
1.24,-10.05438597943411,0.08078794003998802,0.6596203794510751,-0.015597726785822474,-0.021054693331717677,0.017096035635262036
1.2425,-9.898159334740189,0.08217915858662528,0.3687502033304829,-0.01660608977136571,-0.022450141909768753,0.01551053025553243
1.245,-9.859838683159309,0.04232583478664704,0.27065148910135295,-0.016018917980193153,-0.029205181577210217,0.016783590492725327
1.2475,-9.892718904414417,0.008885855740025157,0.27514142334620556,-0.015533779124839118,-0.03311766262548265,0.01747512133848134
1.25,-10.022022314289165,-0.005659975238555381,0.452426062567943,-0.0150225519990337,-0.03103496038168861,0.01737501606474212
1.2525,-10.112274956398966,0.015962296494553933,0.6199252516210918,-0.015462923083914408,-0.027212426438925005,0.015366208164224782
1.2550000000000001,-10.06649417291494,0.039499889338209714,0.5324347547528455,-0.0161951158711808,-0.0285957757886046,0.013730158669340655
1.2575,-9.915705459782966,0.08553591904317034,0.2532863088316774,-0.015215232620990074,-0.0315003996673268,0.014596548765148511
1.26,-9.967640945944629,0.17589863567200575,0.3884761732385707,-0.0179158032608465,-0.028958663912167174,0.017681686504720493
1.2625,-10.024825433531346,0.11937875417418153,0.5613605166436799,-0.016896369820727716,-0.026920353187652523,0.02031452769704037
1.2650000000000001,-10.090899774932902,0.007784638496895674,0.6852867401423743,-0.015731720116699658,-0.02664432632045765,0.02299943143423984
1.2675,-10.08578617424128,-0.14086792332624157,0.5367001844426167,-0.015030069156981506,-0.030604444249468118,0.021429193406449325
1.27,-9.883142469614834,-0.06571163608178543,0.10950434371849271,-0.015855998877793646,-0.033813499438896825,0.0143081999048977
1.2725,-9.831329109106465,0.022833555057033272,0.1444775642110253,-0.014369434420152117,-0.030834248526616016,0.013504157347908746
1.2750000000000001,-9.889288726651655,0.13918994812004515,0.3015495905112243,-0.014035115407425131,-0.02735625045664788,0.013619223081485025
1.2775,-10.076837049738634,0.25715598918711585,0.5939068589976914,-0.016539180155063612,-0.025504,0.01540552055631054
1.28,-10.178144,0.268412,0.792085,-0.018021,-0.024878997023096643,0.01741
1.2825,-9.840719520557117,-0.0654183121734875,0.32267957396456975,-0.017374471675015275,-0.03319806357238848,0.023576408102626803
1.285,-9.857568477859498,-0.1209415963860703,0.2817069631887612,-0.016983097248625546,-0.03720853048503347,0.01917456676359208
1.2875,-9.90243325656054,-0.12950311005838816,0.30742039440344027,-0.018480865880797732,-0.03591848211964284,0.015795950071609475
1.29,-9.965272362232188,-0.03956243184852845,0.35117124916791265,-0.016545633542600833,-0.033903,0.01408315509715992
1.2925,-9.980678528454149,0.09157340361095573,0.4371888878475575,-0.014486338747121873,-0.03023238246605801,0.014815481575228245
1.295,-9.987167456707512,0.24118604782099456,0.5224103432200373,-0.018823051916888642,-0.02926323421204039,0.01879698662546613
1.2975,-9.92204625035695,0.1129463761747419,0.33372420361853283,-0.01916438379541823,-0.03276146698348442,0.02024778677037832
1.3,-9.920396315363883,-0.021027935849059196,0.23488867169811478,-0.019458756873315365,-0.03627054016172513,0.019954946091644138
1.3025,-10.008565409323849,-0.05972418978816558,0.39804711830532247,-0.017497521869772544,-0.032884741886969465,0.01803651029469241
1.305,-10.034051402164135,-0.0006166497945307887,0.6187837413398124,-0.015029575824924007,-0.02564628861762926,0.018312199717933096
1.3075,-9.947546002620383,0.05882063289556162,0.5884550775046804,-0.01613599481550977,-0.028874383927455033,0.018665771788617863
1.31,-9.759038593352582,-0.009910473974678868,0.1564589037102685,-0.01557890589646733,-0.034819,0.0196993205776495
1.3125,-9.850448463640236,-0.05257266792429867,0.27109542463335967,-0.01366149765715329,-0.03734088602202885,0.020854241100225157
1.315,-9.975017047890253,-0.07520738976348054,0.5054127580510829,-0.014214553415326295,-0.03536847055818379,0.021749767019867524
1.3175000000000001,-9.902009980235878,0.01297227650803506,0.3450045560741949,-0.015935141392757677,-0.03041064429562028,0.016214527209150724
1.32,-9.842568715597698,0.10993494999585376,0.20457628512771536,-0.016314848579387198,-0.031644226563148255,0.01640407007645351
1.3225,-9.824843,0.176949,0.169775,-0.016188,-0.034273663333333336,0.018326
1.325,-9.824843,0.176949,0.169775,-0.016188,-0.033399850000000016,0.018326
1.3275000000000001,-10.14752624796016,0.07652166232971165,0.6679304760519271,-0.016843498794237972,-0.02685578701760625,0.02497085468255383
1.33,-10.090301187117195,-0.035699403967043325,0.6185083522698427,-0.01722329601754699,-0.026666199205643483,0.025635344423498744
1.3325,-10.054604911479665,-0.12415213639183462,0.5447876706345934,-0.016572246804874177,-0.02889179623041624,0.024222375540433588
1.335,-10.049229801204012,-0.11098620434782884,0.5088217684280921,-0.015772183979933095,-0.03409949113712365,0.02033059498327766
1.3375000000000001,-10.057388,-0.014945,0.560736,-0.016341,-0.0388887558497148,0.017868
1.34,-9.994461425067037,0.10534891291462106,0.4106466450952558,-0.017704214467184336,-0.0384853726040929,0.017243115878616728
1.3425,-9.844336745854484,0.3010288130626056,0.07814962849407611,-0.02044925213761986,-0.034361,0.018530726452340718
1.345,-9.793437203668695,0.2213789174075831,0.06022732180626723,-0.019866604801123112,-0.032001859887693114,0.023794718511932548
1.3475,-9.90514146272007,0.005666173227799012,0.4561058052802275,-0.017238173240585315,-0.026336320089549968,0.027597720345406536
1.35,-10.079689934789963,-0.17717882332207122,0.8194089552873033,-0.01616716289232253,-0.02405540408015454,0.026843495871559448
1.3525,-10.03599601651741,-0.20553240349680074,0.5636099325088761,-0.016268639004975136,-0.029457090717839515,0.02086928886993594
1.355,-9.703883153530859,0.02079276512995947,-0.10314717134239137,-0.013012233021713561,-0.038908783852818506,0.01511028608621243
1.3575,-9.754840425333189,0.15489025850892763,0.1526441337554746,-0.011813251586265946,-0.03556868402609914,0.01502448432773559
1.36,-9.857329906641985,0.2823277715586464,0.45342315608952166,-0.0117826972037038,-0.032151108737654185,0.016067479123456924
1.3625,-10.055233025693184,0.3674133349073697,0.8036532826734442,-0.014113933430197375,-0.028863,0.01981729623441107
1.365,-10.011680880558183,-0.08432022282551023,0.4135024792111637,-0.021359227004959073,-0.039489806988813284,0.024598692298466153
1.3675,-10.008789063303732,-0.10986286181985867,0.3990441991327417,-0.01791194220428256,-0.038812604174835674,0.024722039953869217
1.37,-10.005897246049283,-0.13540550081420938,0.3845859190543184,-0.014464657403605741,-0.038135401360858,0.024845387609272292
1.3725,-9.937279998663843,-0.04184958755743612,0.6233105223230202,-0.015921477663416752,-0.03522775928105138,0.016358731852479762
1.375,-9.992770643248921,0.10077880721204341,0.5499076823433307,-0.01777819232115766,-0.038944905823316604,0.014169880849574046
1.3775,-9.825981468783784,0.23999227748069654,0.0076999494787630355,-0.013028062828185314,-0.0433257365444017,0.018673943127413068
1.3800000000000001,-9.790813434189188,0.16662928010617423,0.07539054036679849,-0.013704298194980726,-0.03608008650579117,0.02147503779922793
1.3825,-9.84297911863955,0.12685422618792708,0.29014966829614686,-0.014759089220126859,-0.029346331891624652,0.024131867212385798
1.385,-10.01330118235003,0.037982843592220636,0.6228305745480268,-0.017165445666470255,-0.02987954745550977,0.02624592808014143
1.3875,-10.10670958211615,-0.13029718208432625,0.6806685564359609,-0.0181791298011138,-0.036652,0.024419867939538667
1.3900000000000001,-10.015420842705488,-0.1421736535948901,0.4629634373763187,-0.017109797843302493,-0.03559455412685024,0.019734703940305465
1.3925,-9.792072261320794,0.02551361360312819,0.1605005813207938,-0.01614121188241847,-0.03628841388353394,0.016885497519318057
1.395,-9.815435646892201,0.32450933060893467,0.3844689711321683,-0.014355,-0.039095,0.017840353468651367
1.3975,-9.898568847135051,0.19532235577346838,0.4635464810011919,-0.015634516815841538,-0.035001666027722735,0.030098563431287147
1.4000000000000001,-9.856864176491086,-0.01817519282377375,0.1994058261861245,-0.018931821148515025,-0.03804565100990115,0.028830305568316766
1.4025,-9.877360874201756,-0.012481993317803548,0.12639568311055197,-0.018635488870572755,-0.03945821570805714,0.02507193322343653
1.405,-9.901815520367357,-0.04440235107215868,0.2974898738556832,-0.01689689241458934,-0.03218020564261345,0.022329710406717385
1.4075,-9.960699212248752,0.03619355002256541,0.5090133240451302,-0.016392277252164793,-0.028986327340855454,0.021237386418262935
1.41,-10.048579085280267,0.10746899766561359,0.6858675392914312,-0.017113000397961542,-0.02559053645231752,0.021258198776995786
1.4125,-10.163868549218078,0.14123624326915588,0.7297132536110018,-0.01995555341453838,-0.028064163049116225,0.02158344658546162
1.415,-10.232338131302718,0.15160902334582926,0.7114641683786309,-0.01978944746016862,-0.03508589304592319,0.0225175293533272
1.4175,-10.155085458414307,0.08906109513513596,0.5560784068816872,-0.017577402942761482,-0.03596393389401487,0.027976215448681292
1.42,-9.970775096908683,-0.009418199047730329,0.34533081724979514,-0.019420748577519752,-0.03532510753049861,0.027071942792846394
1.4225,-9.990924215695848,-0.015238540120808539,0.47374689536422027,-0.018909813563898932,-0.03607999533814996,0.02332973114295871
1.425,-10.026018291020574,0.04798852614764148,0.558799356208148,-0.016087068592174222,-0.036194,0.023671
1.4275,-10.05549949420782,0.10661321266240832,0.5842543444274807,-0.01664588332762111,-0.03696900535285869,0.02231431759464092
1.43,-10.043464602136417,0.1431179052472028,0.5729393641862196,-0.01910662032479248,-0.036159806077228594,0.0213687651822446
1.4325,-9.831723323538526,0.09966786671190389,0.2840382579544196,-0.019070865994506355,-0.03499544290838602,0.024721556467927123
1.435,-9.709985645388652,0.030727488020982373,0.10434182579399612,-0.018447579408679055,-0.03931131259418227,0.02608307597043388
1.4375,-9.837148269387756,0.05379969795918367,0.3440986979591837,-0.018439844897959183,-0.03822345306122449,0.024234538775510205
1.44,-9.87875177747043,0.010422026878985594,0.44851554127388976,-0.019383201237488587,-0.034469198343949,0.02349758016378529
1.4425000000000001,-9.930242215068944,0.1590942401589185,0.4994785345174136,-0.019081066875438115,-0.03327190806263145,0.01920860346810014
1.445,-9.970893832886189,0.2209869347885035,0.563568729796683,-0.017584413937835906,-0.03308505618135078,0.021734473325543416
1.4475,-9.931650613913593,0.17945517412881729,0.5012696084696938,-0.01860524357018517,-0.03828586647887328,0.024866637860420968
1.45,-9.866848867403313,0.07697728235727366,0.3622086310128908,-0.021804706887661115,-0.046426,0.02589034475138133
1.4525000000000001,-9.934023616562195,0.08643169274893778,0.3702400720666006,-0.02015255805745976,-0.04281620722167773,0.024213574933072315
1.455,-9.84610224050476,-0.044418269184936646,0.24930230887050647,-0.017117299222176287,-0.04098300279685552,0.02383967561439795
1.4575,-9.920664692470005,0.07390823964418784,0.4554823066859758,-0.018442118816714943,-0.03775311106330159,0.02152083460488207
1.46,-9.961080057429838,0.14233505181683984,0.5818992245790262,-0.01978236644017723,-0.03343772620384058,0.021125982511078223
1.4625000000000001,-9.92501919182833,0.0926413154485686,0.46680131899595356,-0.019758211101433134,-0.03256274409692007,0.023878957288779847
1.465,-10.136865679499657,0.1531266958057489,0.7399049737748746,-0.018902675761589414,-0.0383262854157471,0.023876496747608462
1.4675,-10.192251058876852,0.12966776207327385,0.8782418519398132,-0.01866666336352545,-0.036673446091167856,0.024914053146511902
1.47,-10.180199936058266,0.07590386807941203,0.9097588312647414,-0.018370492686605795,-0.03418700797367743,0.02627589553920661
1.4725,-9.900271833537968,-0.06388040659127986,0.39728204852989146,-0.01943456684975759,-0.041917759159935175,0.02363143315024241
1.475,-9.839898559216929,0.01913392913884858,0.2744761768926077,-0.020727541699671777,-0.04560584358945336,0.02267185452076506
1.4775,-9.935013797254298,0.04478673855874982,0.32026899323182423,-0.018159048028662108,-0.044561222942757106,0.023282024014331056
1.48,-10.065496743848186,0.08546515366802752,0.49485149176074855,-0.015577,-0.04221219141964935,0.022835725765073246
1.4825,-9.909798855579089,0.05269534053405287,0.3677394115847795,-0.0173436386222151,-0.037874,0.02573299037446666
1.485,-9.714145200891947,0.007943059461515998,0.1213339727576836,-0.01880097373502536,-0.038981510587119114,0.025911159473371827
1.4875,-9.765306815178503,0.05590728948255054,0.2725329881588486,-0.015824568166867187,-0.03666885864420361,0.02391726878459692
1.49,-9.951844681645227,0.025539594854692437,0.5349559864633949,-0.014053894127362224,-0.03600135125297761,0.02455798969668097
1.4925,-10.027167751771742,0.10252175855168938,0.6189058991032745,-0.017190574544492007,-0.03405140287120856,0.021167088852892993
1.495,-10.069489644120326,0.19823199095716187,0.6770562776663627,-0.01700863427529592,-0.032681,0.02247150322698321
1.4975,-9.766350658697085,0.07559242183207983,0.30466071087017943,-0.016398451770931403,-0.038685869120413996,0.024062118591251194
1.5,-9.843747256702729,0.1135533637699906,0.33783068144402634,-0.019976113182031983,-0.042169203080903106,0.024909832608184385
1.5025,-9.884026,0.09397168238729928,0.3560523684800127,-0.020367449820474014,-0.042266291250299286,0.02633123303917653
1.5050000000000001,-9.889875804449655,-0.012992109933192691,0.36793032901184086,-0.016785515015824416,-0.03954593246278276,0.028968294596178834
1.5075,-9.980869,-0.013152,0.636059,-0.015577,-0.03864140787142767,0.023824
1.51,-9.980869,-0.013152,0.636059,-0.015577,-0.037093030284574946,0.023824
1.5125,-9.9412785512165,0.08807896637058431,0.5288148357611839,-0.01698536085579666,-0.040763055564995605,0.023439634849772163
1.5150000000000001,-9.868912232915108,0.19463260220589412,0.33622751206260515,-0.019700439768814103,-0.046884,0.024815956503311594
1.5175,-9.837397,0.133907,0.257054,-0.021075,-0.044513833733333195,0.028253
1.52,-9.848438812594361,0.09277110528427993,0.3228713591113251,-0.01996893546106065,-0.03886850875298609,0.02935906453893935
1.5225,-9.905614671664374,-0.021282926822557256,0.5882921787345211,-0.017570355598349394,-0.03614284965612101,0.029145204539202264
1.5250000000000001,-9.964881984197211,0.029332066819041623,0.6693319167414886,-0.018204250673414493,-0.03954051344380071,0.024542009403313764
1.5275,-10.019658467644652,0.12487713580396878,0.6017191693951779,-0.01925855553843634,-0.04102400541550562,0.022980550122930724
1.53,-9.980865895041571,0.19435536619276336,0.4531256126103733,-0.01921009573486355,-0.03994947149314907,0.025599515259398103
1.5325,-9.817387101693797,0.15562015326256345,0.2891203643500835,-0.016994772002830887,-0.03972336435008256,0.028955441151214886
1.5350000000000001,-9.782572232908217,0.03214996837197611,0.2710020716231965,-0.016820250565217743,-0.04132314374396157,0.029616064429951516
1.5375,-9.97548885138734,0.008719827874900866,0.5099365353007335,-0.018477770505212415,-0.04223657069767435,0.026986780240577306
1.54,-10.133858852536743,0.02989,0.7051967388023939,-0.014549288519324893,-0.03918051158410444,0.02571362537833425
1.5425,-10.017936443187505,0.07653970686239009,0.529587349506112,-0.014936329767879062,-0.03990987558897965,0.024454410843878824
1.545,-9.91790723054348,0.19751851826086309,0.3555881103804363,-0.020029281086956348,-0.03913463119565254,0.023191898206521698
1.5475,-9.89062581778024,0.2051779994501912,0.31862385690182365,-0.015010329476261968,-0.037568,0.0320509158764516
1.55,-10.03422581186508,0.1452619741843737,0.6939650280906932,-0.015516435753219064,-0.037568,0.03356840638281068
1.5525,-10.080751066513596,0.05606808781631452,0.7582197217595166,-0.01642870247250755,-0.036034712444713,0.03289829752749245
1.555,-10.056343902160513,-0.07245530154859445,0.6490268971052116,-0.017730040197693524,-0.037550845648387635,0.030914277872440683
1.5575,-9.861702079773709,0.030361611160625853,0.21590292049924495,-0.015017709270966942,-0.04462785511256264,0.0251811458415957
1.56,-9.872670358415958,0.15466183812434653,0.2897521234946942,-0.013896724896768901,-0.04332034578793885,0.02499462089116995
1.5625,-9.878646,0.222382,0.329986,-0.013286,-0.04063975257731959,0.024893
1.565,-9.982158219449534,0.18569895486238802,0.4897877805504469,-0.014740372110091635,-0.036867968807339495,0.027154964770642033
1.5675000000000001,-10.129362419757975,0.056862079331959116,0.6993837265756057,-0.016932090439459296,-0.03595455296015855,0.032156114950109775
1.57,-9.925562436604649,-0.07663316986171091,0.3905919731616283,-0.015020526752503368,-0.03702095425846454,0.029231367076775417
1.5725,-9.788453923221898,1.717470346306038e-05,0.3148705346765389,-0.013804046778849747,-0.037263,0.02670819582978087
1.575,-9.766856,0.034075,0.324008,-0.013592,-0.03836511211350772,0.026878
1.5775000000000001,-9.932012350424465,0.1439344756827666,0.5591413803541353,-0.01490460650982308,-0.03781055875818563,0.02787831503274325
1.58,-10.091132936455658,0.22436496551966384,0.7976041966412118,-0.015145305545507774,-0.036306149341162705,0.03222987365355283
1.5825,-9.787221881271282,-0.12740460450444988,0.08891963295298441,-0.014385299234123905,-0.04962691662345419,0.031605966213035415
1.585,-9.817929328263338,-0.015061202963141562,0.13984814051018507,-0.014768046074436937,-0.047617339105083964,0.029597015121572406
1.5875000000000001,-9.959064891440956,0.06316045424341508,0.46850904218129924,-0.012696317226435553,-0.038054376525821616,0.029964434597327467
1.59,-10.00396356007223,0.17408520308655706,0.5881119660575457,-0.012986010487540637,-0.03844000306729266,0.02832599515107735
1.5925,-10.057360168210263,0.27296393042553285,0.6799110941927415,-0.015523630688360502,-0.03992369335419277,0.027489
1.595,-10.045240911465198,0.27676275990895166,0.6430097842626126,-0.019348770988379047,-0.04044568704444716,0.02961241436204616
1.5975000000000001,-9.832370101791643,-0.07349375873046002,0.3239095351424427,-0.01343876501150532,-0.04067690321669448,0.035735469976989356
1.6,-9.913442340617316,-0.05608571648020251,0.6098988006823873,-0.015598650194398236,-0.041439019868285354,0.03141569961120353
1.6025,-9.968443027907314,0.05234521724837249,0.677322425054309,-0.01521077713251266,-0.038768350325850784,0.027658355018102772
1.605,-9.939052283013366,0.3105538931670983,0.39826256785884134,-0.015971758801838442,-0.0471042823751915,0.02728869411801996
1.6075,-9.939383546391252,0.2800881874922086,0.3456094172433847,-0.01698715306883615,-0.04786541261133708,0.028473043786782153
1.61,-9.943235769359053,0.20338170725768978,0.2821342249958033,-0.01831265894333302,-0.045694497802803026,0.03144048750449292
1.6125,-9.896852541066899,0.008330649449620867,0.49805688789162533,-0.013628482472481003,-0.033997780016934834,0.032374963082133744
1.615,-10.096021462082952,0.08311118796002129,0.8286364870184926,-0.016198361757520156,-0.036073947183622224,0.030543
1.6175,-10.110549436743758,0.07221533353676816,0.8377162813229683,-0.017358270799092242,-0.039553168018927054,0.030543
1.62,-10.1172437352717,0.13214046848271963,0.7953848560620961,-0.016603584276640566,-0.043117906365561204,0.02964634831333791
1.6225,-10.0169444057252,0.22585244480815056,0.6127643612736782,-0.01457962404075787,-0.04443054350581115,0.02996136948256655
1.625,-9.787550974047429,0.0344443861444178,0.24225422909672262,-0.015347760031974422,-0.048066664854782844,0.03553898422595257
1.6275,-9.85903630872795,0.018410365497469033,0.2910251668553147,-0.016201037704236594,-0.049346860759925365,0.0333200152432721
1.6300000000000001,-9.940059588209856,0.0784939143275049,0.4585563240148414,-0.014949198007419177,-0.04094698050662414,0.030543
1.6325,-9.932419486766296,0.09842519358982561,0.5253262206804468,-0.014779714340222572,-0.038061868375198656,0.030543
1.635,-9.904817198691788,0.12707135764901073,0.5963478932811948,-0.0148884174001659,-0.036154522597464156,0.0312252522004977
1.6375,-9.814903931889273,0.12710483289021046,0.5351565970284679,-0.014404662152017548,-0.03987742000312781,0.03256180015639662
1.6400000000000001,-9.75909586875833,0.07044288005919418,0.37409299503329674,-0.013329587757880752,-0.04459448621577615,0.03289933826846235
1.6425,-9.842419822220958,0.05882396552530363,0.4235003360000029,-0.013376079931575186,-0.043982,0.031259168011404055
1.645,-9.975670714116106,0.10255238087018778,0.5939660571414972,-0.013636835846942436,-0.044652813760877354,0.028874790826081763
1.6475,-9.934967690402416,0.1492992875589434,0.5438227406275546,-0.012829074681794056,-0.042597288792767335,0.02893900468711219
1.6500000000000001,-9.761078233381973,0.09624718601565313,0.24018877441951453,-0.012675,-0.04453358922648281,0.029016
1.6525,-9.753806167342985,0.0911533974157229,0.17241216924834257,-0.012804804314430982,-0.04430159988111059,0.029080902157215493
1.655,-9.911321917223844,0.11984846692257853,0.36664378069647235,-0.01255594965986393,-0.04145056556527369,0.029478173521218023
1.6575,-10.103156606062587,0.1324074829191953,0.6944215235123724,-0.01127845590378328,-0.03735985804764139,0.029895913965436758
1.6600000000000001,-9.97743661928925,0.3068704166167575,0.7935150927955584,-0.011807300075656862,-0.031196674550589096,0.03052067476583744
1.6625,-9.909639244946451,0.23372988021737712,0.6398863341573817,-0.015219683371516985,-0.03751025405722224,0.0332509166071715
1.665,-9.891043569952618,0.14104492161793405,0.4667378682491591,-0.016343332587541837,-0.045732183649601466,0.03390633258754184
1.6675,-9.978701609798657,0.047277019686801244,0.3817262576957491,-0.01360543740492171,-0.052076,0.03210539064876958
1.67,-9.826672012178532,0.13019855667162256,0.27446915648458636,-0.015923508884165723,-0.03854027195749206,0.025583453968119046
1.6725,-9.839662208480341,0.24877177590223631,0.433010839018072,-0.01796550199787468,-0.037519553980871374,0.02481791548565353
1.675,-9.933698455086796,0.4056989735142014,0.6354250121623229,-0.018456393355558053,-0.037853882078399875,0.02494437572134732
1.6775,-10.08369,0.4263592408390056,0.6807499638424643,-0.01822746905723529,-0.04306752444940307,0.03241665199598344
1.68,-9.856224129085223,0.02364886139171268,0.2150439439093019,-0.018895309397967148,-0.042897591180609936,0.036322456747459
1.6825,-9.834782737998436,0.0074139698827201846,0.30509983607506247,-0.019364668084440987,-0.03961105557466757,0.03428771510555113
1.685,-9.838823771605927,0.06525841661886247,0.4744471449235912,-0.0197,-0.03790789156830477,0.031006337869738873
1.6875,-9.925503497814512,0.30817090781212747,0.6731779142493841,-0.020907626957005484,-0.04126833322737026,0.027762565048080744
1.69,-9.989799355695373,0.4695962462091594,0.5883304702490052,-0.022167977432284755,-0.044593,0.029814640252641664
1.6925000000000001,-9.898926950454332,0.3147801924001715,0.3409916689123381,-0.020236166149609835,-0.04501241692519509,0.0358085015511705
1.695,-9.846567155143196,0.061654035324602306,0.38385796083453727,-0.019741502661656165,-0.044706673671115624,0.038046610351172565
1.6975,-10.016857675245747,-0.013406739237554866,0.8022187241272849,-0.02144399150283554,-0.04403832058601135,0.031728828056080634
1.7,-10.096137886515416,0.10887717589295687,0.7958203163234524,-0.02191853649796391,-0.045815,0.026925746038394458
1.7025000000000001,-10.00446495107389,0.27511651451427166,0.3904935653946674,-0.022602,-0.04711609144947579,0.025656
1.705,-9.90975398272727,0.2557444745454468,0.34545527000001675,-0.02060897999999981,-0.041869852727272054,0.0321049090909097
1.7075,-9.934219752076107,0.1369450682754213,0.5978421928325324,-0.018487092585416778,-0.03810310789024884,0.034139984695167935
1.71,-10.028643649193953,0.09201357372326116,0.8340995229776395,-0.01812657059093651,-0.03859539091238661,0.031292459775226746
1.7125000000000001,-10.150453585455708,0.21041094086177153,0.8794916512734146,-0.020157877975332406,-0.04215,0.027027591766778963
1.715,-10.06072727791965,0.25605028239597827,0.5993631880057251,-0.020562444634146335,-0.04280323810616937,0.030301857159254056
1.7175,-9.867513715826252,0.12176689912806404,0.2589684318224048,-0.01915217816637279,-0.04510647715018435,0.03238251383875622
1.72,-9.845086641120313,0.031466196130236906,0.3414966082529959,-0.01786710134204689,-0.045788248164313254,0.03150303486987985
1.7225000000000001,-10.071707377458248,0.18816921141064163,0.8934404916261859,-0.017499848845197383,-0.035487090110150804,0.027435963955939682
1.725,-10.040524567783962,0.28654198423546484,0.658830460499814,-0.020629555726637563,-0.042125297761459436,0.024780680895416227
1.7275,-9.99999879523514,0.34469175314500344,0.43268822582952005,-0.02345739052580017,-0.04615079600914437,0.025564782047681322
1.73,-9.932001171809848,0.2657368599083032,0.31309520667953594,-0.021671992915058,-0.04491888312741318,0.032042310810810735
1.7325,-9.895202820725679,0.03965559318736775,0.5030130113543871,-0.016073477801063486,-0.041692,0.03662599215201755
1.735,-9.917501,-0.075323,0.694644,-0.016341,-0.04363685142788603,0.035736
1.7375,-9.952024248837956,0.09182777288027527,0.6020031187690302,-0.020084359673024656,-0.047544285478442076,0.030596670460009433
1.74,-9.93711333648811,0.3785625272399706,0.3236135651165043,-0.02371169889983187,-0.049663443833773704,0.025239541739130414
1.7425,-9.885761021935481,0.4184808340651226,0.25636040223614787,-0.021877535634962565,-0.04784865531464853,0.030228410132205088
1.745,-9.970587505730936,0.2849857853863573,0.6097460455029311,-0.022909123405117787,-0.03937891362553796,0.033642361216113595
1.7475,-9.99809259152513,0.041748339462733985,0.7332137672010363,-0.024835360597920374,-0.042176918466204846,0.034580950095320626
1.75,-10.006765643641165,0.07006988330444829,0.5691188398118346,-0.026410214161921266,-0.04793296030370554,0.029152174960798877
1.7525,-10.062375830907767,0.3138441757200147,0.47242980342690255,-0.026558722829019374,-0.047487386110098485,0.026739227779803035
1.7550000000000001,-10.039141889364442,0.3050837431036574,0.5798358929153045,-0.024126189612346468,-0.04515233261635668,0.03140933476728664
1.7575,-9.999023631606217,0.21060965962003006,0.6213950317789286,-0.022907,-0.043982,0.03469069488773752
1.76,-10.004069880824394,0.05834205958780253,0.6359632292153795,-0.022907,-0.04661331387730508,0.036041
1.7625,-10.107446294895848,0.06964153169025093,0.7099010005088243,-0.021966312132294517,-0.04999562620448407,0.03390822645889656
1.7650000000000001,-10.033807377576023,0.15240835226953803,0.6274970195413951,-0.020671671633130564,-0.047062203425362485,0.03205717115582613
1.7675,-9.799382640771233,0.1872611320110641,0.3315268970398988,-0.023007215750296458,-0.04792582244488361,0.032393583728170576
1.77,-9.806953284744544,0.22326583552890392,0.2998643590885139,-0.025534819419525043,-0.052076,0.03144953089469902
1.7725,-9.977606555798305,0.13392167186575132,0.5684560444328343,-0.022376091458877586,-0.050688536208343266,0.035635707052956524
1.7750000000000001,-9.979642275772164,0.005616641573697406,0.582244022243099,-0.020515994527304827,-0.049736838896066,0.03451003283617104
1.7775,-9.876227226268801,0.31627920691613565,0.4356248187919635,-0.024806279651064796,-0.04887382655998075,0.02732967888822062
1.78,-9.899608540709902,0.32910158435326686,0.4680567407845028,-0.02307211082420886,-0.048970344504873066,0.033302436419203524
1.7825,-9.882074909309363,-0.06469395886471165,0.45540327443708406,-0.020611762970671712,-0.05306798145695368,0.039519209214758814
1.7850000000000001,-10.063320700491968,-0.0454200506717113,0.6481398762914017,-0.020516900075685896,-0.04890145430463552,0.03336428138126739
1.7875,-10.114006472881352,0.017747740677970317,0.755619,-0.01971373728813553,-0.042999416949152255,0.028835520338982963
1.79,-9.906655300828396,0.2587136298224933,0.6643991036686343,-0.018479,-0.04183547218934936,0.02842684260355037
1.7925,-9.929312043269013,0.35172821208674493,0.4939707008805783,-0.01851097246669454,-0.049012653742756415,0.029671304746997973
1.795,-9.970505250261066,0.15400344951789793,0.49621769419678585,-0.018893719307007575,-0.05255196576856433,0.0375160489061471
1.7975,-9.9538653660644,-0.02047180738457184,0.48657963576969315,-0.019841518676624165,-0.05311419539388089,0.039095743865734965
1.8,-9.892913506238186,-0.002184664413981338,0.5220934282608726,-0.021772246833648444,-0.04751565141776915,0.03320260576559532
1.8025,-9.817410484466683,0.2502265623540621,0.5536512171614649,-0.024340231914859813,-0.041832214575490426,0.03017075611786196
1.805,-9.765697151244595,0.33581563075807147,0.4109678014105037,-0.02114542034035741,-0.05486058151400377,0.03690673535342755
1.8075,-9.94226235800054,0.2298101630856183,0.6423744559594657,-0.02191402179354498,-0.05357901970232056,0.0380171239157109
1.81,-10.040318069217756,0.10970170897345224,0.7351876227437115,-0.022220270420483895,-0.050228624961240136,0.03896145359642942
1.8125,-9.969538733593811,0.09277676437285703,0.5731601056534567,-0.021712531935252372,-0.04831877641336416,0.036358120803763654
1.815,-9.909243565630184,0.1871423617521312,0.48482047412685575,-0.022917202275435013,-0.050911391599112295,0.03189090746875368
1.8175000000000001,-9.817698909446223,0.27867758396038217,0.3353395358415336,-0.019913276038408357,-0.05113709517966049,0.03412364207017337
1.82,-9.860854596973248,0.23741590622622039,0.27515042490488406,-0.025134942622139146,-0.04862251380638921,0.0350905939102603
1.8225,-9.965732317618203,0.2114398194093916,0.4768237346812991,-0.026525966583830878,-0.046264130075843145,0.03494898329191544
1.825,-10.123799117510371,0.2301481094724348,0.9208397888559505,-0.02368478812092478,-0.04492180467101362,0.03493502335506812
1.8275000000000001,-10.155023226063417,0.25150013498780194,1.01279693116688,-0.02230892114564485,-0.045204,0.037617268455425415
1.83,-10.033579734778199,0.19707099764705624,0.7219388194117495,-0.023939966398264338,-0.04802545413693374,0.0403036731870782
1.8325,-9.922483227820166,0.06529992127524445,0.39598575456472873,-0.02503037512342334,-0.05588292839433572,0.04109902541515127
1.835,-9.940218,-0.060976,0.310856,-0.023671,-0.05866718635886682,0.040012
1.8375000000000001,-9.986958087466057,0.051107163854840015,0.5047920817216919,-0.023136529717718644,-0.05094655552629362,0.03579419703728039
1.84,-9.951709904338268,0.36020840664817305,0.7599105710126046,-0.022662495322622815,-0.0389319797749753,0.034220143794023924
1.8425,-9.862156498508556,0.2598306718760783,0.533567630182634,-0.021656665709351604,-0.04379211773719195,0.03933215071013664
1.845,-9.878313775046806,0.15774959380425646,0.47220785113191077,-0.021394578723404237,-0.04965162110638289,0.042173771370212804
1.8475000000000001,-10.049862581013484,0.0552190977963682,0.7074942002045603,-0.020551055667131363,-0.05081097202231482,0.040289453035797285
1.85,-10.02686184433371,-0.01548913892934679,0.7130562343171003,-0.0182844511051489,-0.04763654759167012,0.03725360781908739
1.8525,-9.887060541717178,0.12479260540951555,0.4946068865775072,-0.02031269448128515,-0.050130340359262456,0.030373299802168192
1.855,-9.817535216143899,0.2965755786174468,0.36077817027039666,-0.0203949550999295,-0.04900179472842699,0.031558933040206835
1.8575,-9.845274311769742,0.24181156060577405,0.5092360629337084,-0.017840065975261648,-0.049605065975261646,0.037297190250555015
1.86,-9.955485282775294,0.22122937506386242,0.7110781508733256,-0.01940437438729739,-0.048402277155678096,0.03719549944080078
1.8625,-10.045185420959553,0.22234880763058618,0.7408290896675912,-0.021810139872277708,-0.045875418339610285,0.03722283540199773
1.865,-9.9287021252832,0.07965762734043919,0.4861975480972353,-0.020004976999161796,-0.04868456769249188,0.03912436312776912
1.8675,-9.82868321366197,-0.02896046366197283,0.3510116570704188,-0.01672252507042257,-0.052360496985915536,0.036532978394366394
1.87,-9.929982515255123,0.11676867333648616,0.627931335513781,-0.016520640098753942,-0.048582623442275666,0.030216418899600188
1.8725,-10.022552233725115,0.3690065587577654,0.9020939208345256,-0.018857819805701583,-0.043982,0.0330807210861604
1.875,-9.98326,0.416667,0.824964,-0.020159,-0.048236053890120145,0.039401
1.8775,-9.987793918073518,0.3416305800398728,0.7442601824479744,-0.020390322350689726,-0.05495714589267212,0.03859023412168092
1.8800000000000001,-9.929502125264575,0.18972152213148608,0.5691342153694261,-0.019395588878746515,-0.05065218732453412,0.037263
1.8825,-9.823971820926811,0.17375309892115057,0.5291881982499013,-0.0190297494411647,-0.049235230951880364,0.03707486330448846
1.885,-9.931993809178632,0.23703909283596142,0.6343528617039308,-0.02204645319369263,-0.050855,0.03530966476347374
1.8875,-10.049019,0.241511,0.698828,-0.02138,-0.050604506416943265,0.032834
1.8900000000000001,-10.058630943202228,0.25811364667554443,0.7230765687232282,-0.02076607517850649,-0.05108083800072627,0.034285128253661146
1.8925,-9.882349261214161,0.34324160755890826,0.5725213952501411,-0.026351856988972702,-0.049258415953569466,0.037258830829947846
1.895,-9.866341284949508,0.3214132129170051,0.4339109675589079,-0.025701289522925126,-0.05297620514915847,0.040140436958792824
1.8975,-9.869042049638082,0.24787077108575345,0.43309502822301693,-0.023121627988262214,-0.05461662948809913,0.042836471457450245
1.9000000000000001,-9.89255688178546,0.12627951461482592,0.5920082892728665,-0.020092197552195896,-0.051820713894888,0.04352867343412507
1.9025,-9.945939025334983,0.10173775599876644,0.7349089348811403,-0.022918122352578094,-0.04678616125964797,0.03880586337758549
1.905,-9.95623715131883,0.1805166422026122,0.731629111378492,-0.02554234276196393,-0.045051,0.034669937471721576
1.9075,-9.852941,0.270803,0.540411,-0.024435,-0.04745055491419901,0.034972
1.9100000000000001,-9.880521396329314,0.34448959417784053,0.6301519575060543,-0.024224283899012034,-0.051380413023051685,0.03886336172118625
1.9125,-9.962884180078422,0.23066952200270846,0.8039753303272563,-0.023815859508369768,-0.05078250288041016,0.04333734006937125
1.915,-9.962646021234951,0.06945175176582442,0.7398943178314684,-0.024419597370745668,-0.05230999022083663,0.04234666305707105
1.9175,-9.914778371367891,0.09442753973098257,0.5448553201919308,-0.024731114295602933,-0.054034472005034216,0.03902480933217968
1.92,-9.90160180800365,0.3111323455806456,0.5495783055988916,-0.02208496720054779,-0.05097085897330628,0.04072353767738954
1.9225,-9.89395212447398,0.2921059064926103,0.6012625108313057,-0.021075,-0.04989277850590401,0.04476526294665649
1.925,-9.941807315664674,0.21751542994011763,0.647319621317369,-0.02242704773652704,-0.05159604773652703,0.04492805106586814
1.9275,-10.088991011984618,0.1735270906913598,0.7375726725166759,-0.025782049040257392,-0.05185524489366713,0.04053229414423606
1.93,-10.077884474894981,0.1893104372484969,0.6296340981255448,-0.025596155799041998,-0.04848720640707523,0.041119016017688075
1.9325,-9.977283,0.15483,0.473458,-0.023213,-0.05066759429121547,0.044746
1.935,-9.95970843374195,0.13427959492487324,0.5105903138182714,-0.022524991376102976,-0.05090209868828994,0.04282706760791782
1.9375,-9.914150384434517,0.09114124065365624,0.64670036691747,-0.020263132377145544,-0.048106,0.036540274041852804
1.94,-9.988767215809268,0.334506946068572,0.702684873235843,-0.019422174791692302,-0.04999041958952916,0.03595988391790583
1.9425000000000001,-9.999544068297045,0.4176654601451701,0.5805697480290374,-0.019393839128978296,-0.053451,0.03906703298715823
1.945,-10.128216587403971,0.3449518503977279,0.7659261461756485,-0.021011865105949053,-0.05197136955014152,0.0430577592521247
1.9475,-10.126226568225633,0.13469207037486625,0.8275284308651664,-0.021457076472688328,-0.04887812653100084,0.041946802560990114
1.95,-10.021790120671191,0.16975254352017075,0.6022449407592567,-0.022505278114958924,-0.051069367106985564,0.039183418588599354
1.9525000000000001,-9.860265285127563,0.36922811357479657,0.39656127424882903,-0.019416000548031588,-0.05229856983937011,0.039335166274016044
1.955,-9.926896923200001,0.23695066399999623,0.6004069256000057,-0.021307565600000054,-0.05305486560000002,0.045261684800000174
1.9575,-10.050212802061907,0.2517753007250394,0.8491317371552469,-0.02255249504034687,-0.049407963897386456,0.04146620356979401
1.96,-10.103498048195721,0.2663252359633032,0.9741021930275255,-0.02420524648318039,-0.04664992122324158,0.039328938226299626
1.9625000000000001,-9.920046767247156,0.2552348564623201,0.6715299603435928,-0.024865472393596166,-0.04898325108941841,0.04269545996095284
1.965,-9.714227362328781,0.2594094705544142,0.3040953231549642,-0.02387619385916176,-0.05453946608044481,0.043622994704674435
1.9675,-9.777031451214476,0.24653861762228796,0.38583642260187745,-0.026050309541269755,-0.05757797098711067,0.043522665538387656
1.97,-9.966205377885663,0.1909617751814901,0.6255627055081684,-0.024888267722323193,-0.048065004972777006,0.043820353430127065
1.9725000000000001,-9.95515919775789,0.17693796810255236,0.7487791023437026,-0.02155407725480701,-0.042206783596565295,0.04477902692223978
1.975,-9.933801416138007,0.21733266835837906,0.8830252509515882,-0.020208912409571494,-0.04052340612131338,0.04596829874234838
1.9775,-9.871298674613628,0.19045958012389658,0.7452754184936363,-0.023429379406586355,-0.046782471000978314,0.04610469731985653
1.98,-9.83556084631997,0.06804379732406513,0.44109602510611906,-0.027978493940672745,-0.05724666385503284,0.044884932471143134
1.9825000000000002,-9.95753773752014,0.14043496181803772,0.5719458962156302,-0.022024153662386962,-0.05506094438401968,0.04350538704409542
1.985,-9.943209547973023,0.17646050443146408,0.7889054310112378,-0.019490686310112654,-0.04387331514606708,0.0450919956314608
1.9875,-9.90345242554063,0.24560562054093246,0.7128346385157504,-0.020968056574905136,-0.046878746015300364,0.04164383255225581
1.99,-9.856726583284768,0.26940897810154557,0.5796675402737315,-0.02097300539072848,-0.050040336030905075,0.03960465183664458
1.9925,-9.7326541417414,0.21656894153613224,0.33574020151763084,-0.01878792155127458,-0.05134628706317816,0.042243804381256814
1.995,-9.85496749236644,0.23419102374046202,0.5064343122137931,-0.017324930305343635,-0.05255050251908372,0.04235850083969457
1.9975,-10.135014467448993,0.24056234495018008,1.0898619670409597,-0.018286711902577867,-0.04571777186145799,0.0442447961410724
2.0,-9.86939266634027,0.10521563427172582,0.5684303321909424,-0.019795104039167687,-0.05240262080783353,0.043164119216646264
2.0025,-9.815857235580722,0.21324870407950677,0.405065338636311,-0.021528230602103297,-0.053070201171848005,0.038002470555876654
2.005,-9.839939710967103,0.3120352263319344,0.4316642157704635,-0.02021261503339141,-0.04891345937670062,0.03823392558990797
2.0075,-9.900988731965697,0.22389308723404994,0.614507257564288,-0.015007295074626963,-0.047277507367418196,0.04423184467449989
2.0100000000000002,-10.040887959990709,0.17586046450292256,0.9149898935972381,-0.015826406300349895,-0.04642844509895186,0.04149357570663488
2.0125,-10.143455968204455,0.24715929902833333,1.0141779105903344,-0.01892982583489822,-0.04380429734628886,0.039361546942108624
2.015,-9.992411832193513,0.25484437277506555,0.6038343839497093,-0.017608566950453576,-0.051173266750408404,0.04376307311467798
2.0175,-9.987959871608123,0.2360388964053737,0.5609202826342133,-0.016886847398927495,-0.05359104310417542,0.044388251344218844
2.02,-10.009177787194362,0.18617158998003447,0.625251770306518,-0.01683574972636525,-0.05042026334703459,0.04316348295948323
2.0225,-10.04296171096475,0.25546842418990917,0.7082757144209074,-0.01814537182958995,-0.04636598427303972,0.039454675351290894
2.025,-10.143128700668813,0.4206621326232376,0.8243374274461227,-0.019638542432499274,-0.04741470854594988,0.03988551756254618
2.0275,-10.11604194713754,0.30839972618686595,0.7236693636298734,-0.019717341707644317,-0.05078554919386058,0.04457295265683195
2.0300000000000002,-10.099798382928094,0.19839155228915858,0.691124520686436,-0.017715,-0.052074301686746156,0.04542686323475692
2.0325,-10.138199501285847,0.2560898986613065,0.9279505997886156,-0.01849169001509827,-0.047495,0.04437811098137906
2.035,-10.001364159242568,0.3594065616104739,0.7938758834121715,-0.02020413547055873,-0.047495,0.04558658558631109
2.0375,-9.926435618110851,0.2603549009627873,0.48918418381472717,-0.020901804996096646,-0.05842602128545417,0.043759749934946704
2.04,-9.937499731020218,0.21440724791725432,0.5823337156182475,-0.015567832834978732,-0.05429057837329541,0.045052642519981215
2.0425,-9.906511562548866,0.313210332049621,0.6615617123170952,-0.016773446908320708,-0.049382727143116506,0.04461662121149774
2.045,-9.94840427129819,0.4161952322886431,0.7903706444711601,-0.020273777474354278,-0.0478,0.043423320976300035
2.0475,-9.988820899672554,0.3654190842065584,0.8037863810327643,-0.021090213727959918,-0.05119645803526413,0.045424929017631906
2.05,-9.823617448181825,0.1531165076363838,0.43665196072729695,-0.018652869272727066,-0.05949211963636281,0.04794308272727338
2.0525,-9.86394623475821,0.1754156049298336,0.48892205834638264,-0.018608959313572204,-0.06074999213728443,0.03926656555382146
2.055,-9.944807986501043,0.3716053054610045,0.7985135747735639,-0.015602064575264089,-0.04998945425507227,0.03904307409922094
2.0575,-9.927341636400161,0.4433741571299732,0.8541368946945423,-0.01586598788847904,-0.0503406585567861,0.04516176197622017
2.06,-9.927068,0.443568,0.853658,-0.015882,-0.06122822112260536,0.045204
2.0625,-10.063991857038658,0.4409004976092066,0.8872222745765459,-0.01747231331550369,-0.06439530464381231,0.042989385525569336
2.065,-10.220162685675998,0.4117927343428188,0.861665216543623,-0.017458320009405347,-0.05911217576769342,0.04131016207853263
2.0675,-9.965029593216476,0.378912637327113,0.6048955421067946,-0.015290719871340933,-0.058548002698616916,0.04357769387584452
2.07,-9.785335480630446,0.3949303775441109,0.3835434994025142,-0.022216866779581,-0.05879191087273579,0.03892264254998854
2.0725000000000002,-9.803539114683737,0.4006705405828079,0.35612123212511926,-0.02178122069651684,-0.057268600767590244,0.037777573617626445
2.075,-9.957681750808757,0.4784468400296379,0.7372329150265848,-0.016473917520681385,-0.050481435831583064,0.04118197204593189
2.0775,-10.017913358454821,0.485905011941658,1.1240072307085631,-0.022273182225633695,-0.04309390183678812,0.047287355159887044
2.08,-9.66712589709518,0.2756902141038327,0.26535107017305126,-0.02907892171817048,-0.06279315656365904,0.04084526257107533
2.0825,-9.722327135206612,0.3073539639669429,0.2164498613774127,-0.02556782942148759,-0.06924659184572997,0.03847616561983471
2.085,-9.898013538426156,0.41321568004311743,0.5295318724062718,-0.023650024232842286,-0.06071129121571458,0.03828400832195473
2.0875,-9.994021,0.49691082775119416,0.8049069228708052,-0.022254621244019168,-0.053672613110048034,0.040264031004784526
2.09,-9.94460979226355,0.5056741887481928,0.9087067698224603,-0.023897163461752722,-0.049786,0.04293974440647699
2.0925000000000002,-9.923779625522581,0.44661458869263104,0.6219109026766714,-0.0288931323179595,-0.06092329455845547,0.0414413712739844
2.095,-9.886428401172683,0.28749558625669114,0.5614006570897343,-0.026698758040757782,-0.06073209907758311,0.045162810110833326
2.0975,-9.841306326197774,0.15221576333900586,0.4835161445834291,-0.024675537574430008,-0.06181179453232756,0.04511784393607503
2.1,-9.819587331311437,0.12875312124191518,0.46002231961161,-0.02605261939582868,-0.0611571906976741,0.03856621877247621
2.1025,-9.904153060283734,0.3456207555769265,0.6198553460435078,-0.030512218918663292,-0.05418198884930636,0.032101066358764176
2.105,-9.982663,0.523075,0.72812,-0.02978,-0.05122861913689761,0.03146
2.1075,-10.026695895109281,0.31379710129484817,1.07002666380207,-0.025966691826804066,-0.057879,0.04328091848247426
2.11,-9.911482873569373,0.21557131981384875,0.7842104814916195,-0.02794771287658311,-0.057879,0.042149259435640705
2.1125,-9.85939736399049,0.1624918884560571,0.6299158787173398,-0.028727785795724742,-0.06641087073634207,0.04153195691211402
2.115,-9.995262676370558,0.1610024622137766,0.6276823620237528,-0.02482924996674551,-0.06612506528266031,0.041436688427553436
2.1175,-10.0591525247463,0.15694418644186373,0.6829474252393906,-0.022755,-0.06215930709718415,0.041386
2.12,-10.011088504692294,0.19679166460711395,0.7213010320457268,-0.023140759901356413,-0.055862262625266175,0.03868410100212938
2.1225,-9.979836482023321,0.4132523379481648,0.7074195892056083,-0.02543609949165346,-0.055131,0.03333920692559352
2.125,-10.075642783858358,0.5678774957461485,0.7857249466544033,-0.024220142331570476,-0.058443687054495284,0.042593090825477124
2.1275,-10.058033711577425,0.32622615749397543,0.7496563505643994,-0.025126111801736548,-0.06077068091172212,0.049338925615050586
2.13,-10.063418568765428,0.1057693104748399,0.8687703172934299,-0.024412585479582583,-0.062149974805318024,0.04241381763532901
2.1325,-10.069845758491187,0.18404591047237856,0.9193547066204463,-0.026204364244418115,-0.0602177488578145,0.03872024458519388
2.1350000000000002,-9.941682378386785,0.3298587425039937,0.5274001544038306,-0.02529469807139043,-0.06439482556846024,0.040546778403836026
2.1375,-9.906282743122002,0.30781741800745716,0.4699597532871563,-0.024356175066595563,-0.06354177519445918,0.04182663328716045
2.14,-9.940122598836998,0.29596037204957176,0.6599035847474211,-0.02454661174451875,-0.06111617073403208,0.042554914184938
2.1425,-10.157382570704767,0.3416610602666689,1.214554731542863,-0.02602820956190475,-0.05458970575238077,0.043701551619047714
2.145,-10.208341195036974,0.34037666852916854,1.1654612775677842,-0.02666372325390307,-0.053363599342645944,0.04637201327855383
2.1475,-9.899513390440475,0.15445168486115746,0.5150531658091361,-0.029234729505266503,-0.06521266673475887,0.045254111088413713
2.15,-9.815374921597623,0.10777805525147127,0.3585115832839925,-0.02792596789940858,-0.07047796072485243,0.04219665961538467
2.1525,-9.94409489506041,0.3026731134301789,0.8770560191435919,-0.02396919016975069,-0.05781886486312979,0.04222046411377877
2.1550000000000002,-9.917779980146948,0.3966229924810066,0.9226018367523623,-0.025750432907176643,-0.05097115045799852,0.045121531124174066
2.1575,-9.866182845433235,0.24018813894298996,0.6007591127110093,-0.0291812850123556,-0.06407398557831849,0.04783458971064154
2.16,-9.920012098219301,0.14603574771646877,0.5552134176502858,-0.026401083424085578,-0.06520302633308743,0.04575069180279603
2.1625,-10.036049009784032,0.25379332668163257,1.059673916944038,-0.020452797275330975,-0.055395747209536036,0.045043724994194644
2.165,-9.82433595243854,0.31538283716814397,0.8542632830776656,-0.029359009498525494,-0.05874862071779799,0.043761732153392206
2.1675,-9.6867480161135,0.3265621172567258,0.3688563685359421,-0.032883755697886624,-0.06734868326602694,0.04367007724730675
2.17,-9.607207614665258,0.3192423865663143,0.08577816329472106,-0.03222136946526335,-0.06425588555368442,0.044731036031578866
2.1725,-9.77249520142736,0.3707092560568395,0.6413551192526041,-0.02564734982736875,-0.05692357990315826,0.047680845884210385
2.1750000000000003,-9.931808381711217,0.3859141759009451,1.1003949891395104,-0.023059883893112164,-0.05140505332189266,0.04961536065212047
2.1775,-9.868496488001885,0.25020544508834686,0.8291949199999348,-0.028711,-0.05744129797166165,0.049975548632383585
2.18,-9.647055437167854,0.13608331087367695,0.2709191908783412,-0.02595549637233106,-0.06689,0.05027248717135155
2.1825,-9.675780822203961,0.17232692209586709,0.33119326365604623,-0.020262032532894932,-0.051475469859022564,0.047104917222744416
2.185,-10.016374001151323,0.2290315765319561,1.063192195385354,-0.024871110427631675,-0.05166394745300752,0.04832755782424815
2.1875,-10.041445331563706,0.22573286583011581,1.124986983108108,-0.02810116216216216,-0.055499359073359074,0.04868822586872587
2.19,-9.775288950892216,0.20330246294551169,0.4786840091553677,-0.027713906038544022,-0.06406822524863176,0.04679168192243647
2.1925,-9.849925843659829,0.2961792768471994,0.5961507144503166,-0.022875477640009367,-0.0634694942982259,0.0490819683060608
2.195,-9.869325674678763,0.247491858494026,0.7474852393567016,-0.022674080135257613,-0.05992629742185557,0.050995274302680686
2.1975000000000002,-9.840848360316388,0.23044365589645824,0.6215326479769652,-0.02396595674017264,-0.06072193143815915,0.04606354754554118
2.2,-9.803668147315244,0.29152640178592837,0.48235445315475506,-0.02347966882857453,-0.059371123910233484,0.04310087608976652
2.2025,-9.931238548886098,0.44817820775360895,0.8572704939421288,-0.01639447752172108,-0.05332975510575831,0.04757969183773751
2.205,-10.028519434892447,0.42338848633231396,1.0852599062736,-0.02013665419857402,-0.05390528127029782,0.049114637711067215
2.2075,-9.793955910900635,0.3600194103340379,0.5425878748414373,-0.024111485615221986,-0.05445328206342499,0.04811066770401693
2.21,-9.886343342197522,0.3426018377432802,0.49942239347629175,-0.02382139331199034,-0.06093412146662631,0.05072213182241011
2.2125,-9.961314157791294,0.3159149405708951,0.6248926805802418,-0.020904392606457857,-0.06285024445484334,0.053338990734674685
2.215,-10.106724424795457,0.18353344102149205,1.0540733128587128,-0.021140673175140255,-0.06090945361355926,0.05350413957966141
2.2175000000000002,-10.155434347776481,0.21465306293076053,1.1510104602735658,-0.02438717755505127,-0.0582098334956753,0.04851886846837959
2.22,-10.043751787763116,0.30144835611249643,0.882580752087271,-0.023561037522249584,-0.05868840619437604,0.04579348123887521
2.2225,-9.832990504625641,0.31417262326637635,0.42138564884795404,-0.01931241739737967,-0.06389768471298132,0.048465350253275294
2.225,-9.835621777515358,0.3494315868682129,0.49854767992443366,-0.017760297874350697,-0.06342531743032592,0.04907265054322131
2.2275,-10.007460081601929,0.4142236022764233,0.8513212044564941,-0.02150517748870824,-0.05971499766335431,0.04724704277024998
2.23,-10.069172314390247,0.4112795097560987,0.992799283292688,-0.021971283048780516,-0.05441602902439022,0.05006168792682927
2.2325,-9.87120628870573,0.29025532871861126,0.6588571459755276,-0.020668633921442317,-0.05608326287186092,0.04998818303927884
2.235,-9.833547285614715,0.2669299342723172,0.7152011946064244,-0.020808611190962844,-0.05573980464847978,0.04814461119096285
2.2375000000000003,-9.856916781647076,0.3603369609411836,0.7591335708235556,-0.018824278117647135,-0.055436,0.047657111529412176
2.24,-9.961404741644314,0.42057404972426327,0.9231179183404897,-0.020318628980521485,-0.05424855931191453,0.050702
2.2425,-10.071203064364228,0.4827963400823318,1.005019749363011,-0.02216246661177074,-0.0593995710680549,0.05306824385081157
2.245,-9.786481804830883,0.3499972670302831,0.6220641783318522,-0.02533948868425703,-0.05628571863290251,0.055248256391003996
2.2475,-9.76650061692462,0.38588875897999014,0.49700008987426686,-0.023071009232040564,-0.05827071552328674,0.053452660513546975
2.25,-9.767020588111777,0.3487742101437571,0.5957389219835244,-0.02195611904377322,-0.05494390405427233,0.054373685349701176
2.2525,-9.779343794370394,0.2966431889394063,0.71964995685313,-0.021686,-0.05515585303747366,0.0538668272139034
2.255,-9.866039149585529,0.3532132813204687,0.818693928934926,-0.023317739257831045,-0.058796175975903905,0.04866430634698838
2.2575,-10.032877,0.521282,0.994141,-0.026878,-0.05495618473784559,0.043219
2.2600000000000002,-9.925146366982812,0.4881630624813601,0.8142722916805977,-0.027267080175044492,-0.05520690564163236,0.04778957767001939
2.2625,-9.806526840415328,0.454015551743381,0.5795068440415548,-0.0276528233689756,-0.056352,0.05550644847357786
2.265,-10.100014761984697,0.4696281561562509,1.024740850631872,-0.027187186865971682,-0.05374603773395243,0.05444145788720067
2.2675,-9.964756180438664,0.2089610506319842,0.6900011935323669,-0.026202823865208467,-0.05658883492284973,0.05877039534614233
2.27,-9.99996142998995,0.2356431719396987,0.6596132564824119,-0.028759328402010068,-0.06340535380904527,0.05365862609045222
2.2725,-9.923452199869326,0.35405593135390157,0.656328414973981,-0.02874201624682403,-0.052196426865093785,0.05084393233151836
2.275,-10.121400892776762,0.3855303387295815,1.0522264351361021,-0.023704664754991105,-0.05084019245009079,0.05675351128856603
2.2775,-10.07665988699862,0.16718205120738244,0.931553673487938,-0.026139800462580097,-0.05272378223260772,0.06088384774881693
2.2800000000000002,-10.116473605850564,0.1611723265743897,0.7234714347342355,-0.026907587551081625,-0.06289476209239721,0.05483830980645874
2.2825,-10.122814403228022,0.2126985891177049,0.6704081688852624,-0.024381633864789132,-0.06376137838598704,0.051465
2.285,-10.096842,0.302487,0.773553,-0.019548,-0.05492608048297989,0.051465
2.2875,-9.987107227375438,0.28495996252369643,0.7379907225449283,-0.021170338757867706,-0.05446610090240396,0.05224387557442941
2.29,-9.893090410278699,0.3278245167217795,0.7427198619839422,-0.023784462135096857,-0.05725063555975443,0.050994916013226144
2.2925,-10.012476747942175,0.48293936904968754,0.8180723297511656,-0.02245059110198281,-0.05991539202464649,0.049486656393079975
2.295,-10.013473951152054,0.49188510138055164,0.8077832751238153,-0.018487695365474406,-0.060476,0.0555169945017345
2.2975,-9.977687105140856,0.4160189976189725,0.863209781308293,-0.021047625701097798,-0.05763283681044118,0.05606181220436123
2.3000000000000003,-9.912364229389281,0.39574931378816364,0.7473049029102635,-0.02652226712786239,-0.054773145085878515,0.05314485243320647
2.3025,-9.807595756561442,0.42914036395706767,0.6948599680572851,-0.023660848063617953,-0.05880507280795243,0.05236216451689813
2.305,-9.983225054488772,0.5336715970527361,1.0619249499155152,-0.021228214974407918,-0.061751995743364305,0.049992329717891144
2.3075,-9.878960549678121,0.3321811929657604,0.7028953637465943,-0.026573,-0.06568494317289726,0.05657539493447655
2.31,-9.853975577967269,0.36927870874811364,0.4988577604710386,-0.026573,-0.07371121335829475,0.05261070241922813
2.3125,-9.858950951774647,0.42416621149295775,0.5727696730140845,-0.02510024495774648,-0.06887834016901409,0.05306067966197183
2.315,-9.79687637054082,0.367371111419751,0.7208789341800614,-0.021084183647161393,-0.06136014033415158,0.05722748275872983
2.3175,-9.795573982388888,0.3054649208649152,0.7588477163233037,-0.0212206795819035,-0.0630842263049547,0.05541528949174218
2.32,-9.937348511174779,0.3424172993123175,0.7628464633237949,-0.02468292000000039,-0.06791083289398261,0.04968226922636073
2.3225000000000002,-9.83697793697731,0.3368301218771823,0.4417893695611757,-0.019773272396372447,-0.0676000492032373,0.054257127382068025
2.325,-9.968992946923134,0.4871583530586266,0.8080716651896298,-0.02172311698825262,-0.05804804456753234,0.05133331786475114
2.3275,-10.004781,0.425036,1.0868,-0.023366,-0.053361633994239384,0.055894
2.33,-10.004781,0.425036,1.0868,-0.023366,-0.059511257882861435,0.055894
2.3325,-9.97582659609401,0.3692286490527807,0.8934589375453006,-0.024618671406188196,-0.06515220817599118,0.05428353407929094
2.335,-10.028901622141353,0.32254835121063463,0.8224908103848722,-0.023199621385584505,-0.06441094110566854,0.04909204498250539
2.3375,-9.945393971110326,0.38983383220760565,0.7999119428368351,-0.02064866533949523,-0.06005224197179769,0.049110201587865804
2.34,-9.829138171856801,0.45662249596180765,0.7199041383102512,-0.02071444937470151,-0.058243375159904555,0.05082119331742234
2.3425000000000002,-9.837397,0.516499,0.829746,-0.022297,-0.06024696728100163,0.051771
2.345,-9.888198836183346,0.5217405128167873,0.8087802859594361,-0.02342974410034026,-0.0633716506716679,0.052028303884656034
2.3475,-9.909449872368473,0.4641559146494119,0.6600507177979203,-0.024201058638693724,-0.06333404103162721,0.053348736676394136
2.35,-9.828235874357132,0.3859278335976974,0.6366556353761329,-0.02246763979812554,-0.06291190463830784,0.05292923566450348
2.3525,-9.822778835920984,0.467117853667913,0.8259172110411133,-0.02422962707955151,-0.05149522784837168,0.050549
2.355,-9.969662829533132,0.5039321583532061,1.0166800389891426,-0.02327976912617904,-0.05757506520021352,0.050549
2.3575,-10.04308777575316,0.501779351114352,1.0914009842857162,-0.022116540136054463,-0.06099214545189504,0.051013403543893714
2.36,-10.021104405299672,0.47946126551203133,0.9183978044124814,-0.022859886951391836,-0.0632288643416702,0.0512610800047193
2.3625000000000003,-9.941070338288773,0.4934865386841655,0.6330820761505522,-0.026829154973904885,-0.06288317515419789,0.04977628495967094
2.365,-9.858062708769037,0.46873645302490224,0.6624808780550295,-0.026281389085329468,-0.055436,0.050760985020654424
2.3675,-9.877060669774917,0.4092308608552973,0.9039502027910022,-0.02511125763344072,-0.05768277172990386,0.05440456814147908
2.37,-9.921411222650942,0.39511046328644067,0.9861893368679104,-0.02758378397639584,-0.06343280778029993,0.05217319221970008
2.3725,-10.05759559042746,0.5455290460743754,0.9497444828966042,-0.026197154988148674,-0.06735315094401305,0.049850054692276366
2.375,-9.957320246063931,0.41951981226145035,0.7578305845658397,-0.02254111796278626,-0.06661854520515267,0.05356192879293893
2.3775,-9.815577753160007,0.2774141190884276,0.6860269317926477,-0.02088599699566682,-0.06600482860857013,0.05168521395602639
