time,acc_x_g,acc_y_g,acc_z_g,gyro_x_rad_s,gyro_y_rad_s,gyro_z_rad_s
1765409040.050991,0.025999572100618342,-9.713454425462873,-0.024997861015827072,0.052942196620779126,0.003172065856759359,-0.011240226456291276
1765409040.051191,-1.5995511463628558,-8.163343804098458,0.038661206929500404,0.043491608467552664,0.001479753171835234,-0.009938076075453495
1765409040.051391,-3.1850589752929155,-6.650926998959015,0.1040123598527824,0.03421285558862769,-0.00021299031825769334,-0.008750187778737144
1765409040.051591,-4.691637393725332,-5.21214651940507,0.1712975239639298,0.025315296788340592,-0.0019228255899856894,-0.0077423227627115765
1765409040.051791,-6.084855051215319,-3.8787397108313693,0.24072273845213626,0.016985604805909847,-0.003669109540040744,-0.006966998862341791
1765409040.051972,-7.336431274699752,-2.676660878129878,0.31240719169361686,0.009379207122378939,-0.005473093098078846,-0.006459523347451947
1765409040.052172,-8.425398037064374,-1.6250194969712695,0.38633312538448805,0.0026149024301743355,-0.007356614038084482,-0.006235229597403942
1765409040.052372,-9.338690773287201,-0.7355679460442371,0.46230176765507525,-0.0032272033571331135,-0.00934033540032244,-0.0062881161540610415
1765409040.052572,-10.071189282115549,-0.01271304338310138,0.5399001837173727,-0.00810467376173833,-0.011441656982558548,-0.006590988252727771
1765409040.052772,-10.625271946068793,0.5460167730447272,0.6184827871434131,-0.012009133582217689,-0.013672490514781423,-0.007097099131582449
1765409040.05295,-11.009974113090655,0.949143473959753,0.6971700968715506,-0.014960747082699838,-0.016037124033433825,-0.007743170626325472
1765409040.0532,-11.239857035790408,1.2101579627803791,0.7748663832286753,-0.017001529292842817,-0.018530398453530328,-0.008453545334845243
1765409040.05345,-11.33369849257317,1.3462926763164775,0.8502963971386384,-0.018188231152449084,-0.021136390024115163,-0.009145113247427684
1765409040.0537,-11.313111501615005,1.3772471614711983,0.922059052217643,-0.018585466151604446,-0.023827754241017778,-0.009732595860658253
1765409040.053956,-11.201185874691713,1.3239514174113096,0.9886937180911409,-0.018259622608122916,-0.02656584250263289,-0.010133770863386397
1765409040.054156,-11.021231511442823,1.207435014350271,1.0487539879214804,-0.017273950634635035,-0.029301641036900288,-0.010274264007488421
1765409040.054356,-10.795684070223732,1.0478521272748844,1.1008843295023185,-0.01568504748750918,-0.03197750167670627,-0.010091599550941506
1765409040.054556,-10.545213862280168,0.8636946530706916,1.1438955305241738,-0.013540808968562409,-0.0345295578872877,-0.009538278354186757
1765409040.054756,-10.288058664970261,0.6712085919714806,1.1768343493789444,-0.010879779481744763,-0.03689067201593802,-0.008583744858686935
1765409040.055016,-10.03958254102854,0.484014067890224,1.1990419346565873,-0.007731723577757072,-0.03899373995905227,-0.00721520659905854
1765409040.055266,-9.812047510531993,0.31291755725726855,1.2101957460006643,-0.004119162018163237,-0.04077516133426205,-0.005437364325576078
1765409040.055516,-9.614573766893454,0.1658960424479212,1.210331189282699,-5.957162283016096e-05,-0.04217825277835702,-0.003271172852626733
1765409040.055766,-9.453256799706296,0.04822620568272843,1.1998410060340405,0.004432060453966285,-0.04315636092144282,-0.0007517756069060381
1765409040.055943,-9.331406045612077,-0.0372729762081755,1.179452024238278,0.009340620901244904,-0.04367544851052468,0.0020742355213747028
1765409040.056193,-9.249869524320628,-0.08991831446194562,1.1501807008869402,0.01464845340137188,-0.04371597718833489,0.005152054701638512
1765409040.056443,-9.207411765590571,-0.11079457114775806,1.113271338506576,0.02033335323089674,-0.0432739674894324,0.008422156400775574
1765409040.056693,-9.201116874667004,-0.10237031140669615,1.070123130872576,0.026367118793659747,-0.04236117431636409,0.01182376622162167
1765409040.056934,-9.226793655910479,-0.06812134625973774,1.0222131950357864,0.03271472599149021,-0.04100438802550193,0.015298021858405151
1765409040.057134,-9.279364961325875,-0.012179687476390626,0.9710223717095177,0.03933411794936965,-0.03924395721997143,0.01879059201799374
1765409040.057334,-9.35322883540955,0.060979311538101176,0.9179695334920492,0.04617655151839812,-0.03713170602441944,0.02225361094837625
1765409040.057534,-9.442584149483233,0.1468034146383855,0.8643589365079545,0.05318741433543872,-0.03472846023326175,0.025646876349812112
1765409040.057734,-9.541717387373835,0.24087936973774676,0.8113437286702483,0.060307416283859785,-0.03210139534852801,0.02893832966049307
1765409040.057927,-9.645249468281698,0.3390977132696965,0.7599070099049039,0.06747406519370383,-0.029321388254962808,0.03210389211753285
1765409040.058177,-9.748342155892898,0.43776927400292226,0.7108601216997282,0.07462335575192992,-0.026460513772814734,0.03512677363893235
1765409040.058427,-9.846863336675009,0.5336986036913559,0.6648563440698811,0.08169162209347548,-0.023589790493092875,0.037996403280553086
1765409040.058677,-9.937509704020238,0.6242210558635855,0.6224165997731205,0.08861751604834599,-0.020777250599735533,0.04070714646611546
1765409040.058999,-10.017884353490667,0.7072106712587422,0.5839618149983585,0.09534407033470967,-0.018086383753346542,0.04325697397824271
1765409040.059199,-10.086525799565003,0.7810655510801006,0.549844678720844,0.10182079248465471,-0.015574978790524366,0.04564622930327312
1765409040.059399,-10.142884622736847,0.8446764237520054,0.5203725301109771,0.10800571459940972,-0.013294353373476264,0.04787660303769553
1765409040.059599,-10.18724530487741,0.8973831410462011,0.4958136425045693,0.11386729840942633,-0.01128892385705358,0.04995036920987817
1765409040.059799,-10.220594805816294,0.9389231973365256,0.47638181927835677,0.11938607146020344,-0.009596033636566671,0.05186988185013687
1765409040.060004,-10.244446308499139,0.9693761212909922,0.4621994268410223,0.12455586119141068,-0.008245934254810041,0.05363729235819996
1765409040.060254,-10.260634789161116,0.9891075581678778,0.45324604464670193,0.12938450691835188,-0.0072618054516802606,0.05525444635504764
1765409040.060504,-10.271107394372901,0.9987164950759425,0.4493061310166505,0.1338939603183903,-0.006659716352129442,0.05672295032275858
1765409040.060754,-10.27773278235803,0.9989877405018943,0.4499311335932733,0.1381197240140848,-0.006448474952753153,0.058044434734072205
1765409040.060979,-10.282148732117191,0.9908495505530381,0.4544279322462589,0.14210962303803745,-0.006629378183073203,0.05922104021539822
1765409040.061179,-10.285658673866687,0.9753343480585823,0.4618783186292212,0.14592195579849543,-0.007195935139224006,0.060256096630171195
1765409040.061379,-10.289179048750489,0.9535400426703629,0.47118708453195174,0.14962312413290127,-0.00813366753430653,0.061154878346258525
1765409040.061579,-10.293233295637444,0.9265905965608661,0.48115183331805766,0.15328488583447258,-0.009420092744544818,0.06192525823436812
1765409040.061779,-10.297985283377649,0.8955960187540751,0.49054612236507616,0.15698139895039784,-0.011024981502259338,0.06257808543589717
1765409040.061933,-10.303303821024732,0.8616126928541771,0.4982076589088516,0.16078623502401154,-0.012910959025846627,0.06312716695327059
1765409040.062183,-10.308848732426876,0.8256047739420733,0.5031234021653729,0.16476953898657556,-0.015034475660566746,0.06358879957849
1765409040.062433,-10.31416722223002,0.7884074036848709,0.5045029544356608,0.16899551414379127,-0.01734711323882445,0.06398084674469673
1765409040.062683,-10.318787908309215,0.7506936581596839,0.5018315738238951,0.17352039829496427,-0.019797140810435036,0.06432138925330272
1765409040.062952,-10.322300593039893,0.7129490382809504,0.4948961430727045,0.17839104741580192,-0.02233121105903857,0.06462702435772155
1765409040.063202,-10.324413095156903,0.6754583087167686,0.48378167330374294,0.18364415597015823,-0.024896095790971615,0.06491095420696542
1765409040.063452,-10.324981109221856,0.6383084068726043,0.46884068749268787,0.1893060542794693,-0.027440377034274707,0.06518106971927133
1765409040.063702,-10.324011496411106,0.6014085092022255,0.4506413256907285,0.19539297520951823,-0.029916024148601363,0.0654382656200136
1765409040.064003,-10.321642871406006,0.5645257149198146,0.42990189259819317,0.20191167972816465,-0.032279796322289035,0.06567520389822132
1765409040.064203,-10.31810983366713,0.5273330430734646,0.4074202790055651,0.2088603422244503,-0.03449442251557376,0.06587568905654388
1765409040.064403,-10.31369864375016,0.48946525956748543,0.38400632962336084,0.21622959366193092,-0.03652952949747715,0.06601474421518994
1765409040.064603,-10.30870228493654,0.4505772291581986,0.36042370115819006,0.22400360609705794,-0.03836230353471251,0.06605938805452723
1765409040.064803,-10.303381662378985,0.41039949688419497,0.3373454648876048,0.23216109678685226,-0.03997787240802933,0.06597002084841466
1765409040.064925,-10.297937594339283,0.36878693508081956,0.3153254382394044,0.2406761457682289,-0.041369382665283345,0.06570226237930277
1765409040.065175,-10.292495741603293,0.32575787055576716,0.2947854046485869,0.24951875219767694,-0.04253773656834835,0.06520906945083697
1765409040.065425,-10.28710411811519,0.28152215923164964,0.276016835269563,0.25865509646699875,-0.043490964966156925,0.06444298868157776
1765409040.065675,-10.281740821294777,0.23649700281210595,0.259194289580987,0.26804753290207656,-0.04424325606340934,0.06335844275077934
1765409040.067047,-10.276328565592845,0.1913093673674991,0.24439677209113309,0.2776544148428604,-0.04481371735503963,0.06191398644116606
1765409040.067297,-10.27075250894878,0.14678398078975122,0.23163353099572187,0.28742993348531537,-0.0452249830445006,0.06007449675270917
1765409040.067547,-10.264878370593824,0.10391603414697327,0.22087175751962498,0.2973242023553371,-0.04550177527523831,0.05781326983872349
1765409040.067797,-10.258568774527975,0.0638279016987471,0.2120642587533443,0.30728381279773603,-0.04566950504619911,0.055113977173172096
1765409040.067098,-10.25169722618042,0.027709722806956133,0.20517497630579198,0.3172530157281824,-0.04575298625464689,0.05197238663887835
1765409040.067298,-10.244160949901206,-0.00325491222395517,0.20020005411520245,0.3271755718563574,-0.045775330872693094,0.04839769457110569
1765409040.067498,-10.235895067894665,-0.02797442725968454,0.19718291871493082,0.3369971915702869,-0.045757070029101385,0.0444132673680673
1765409040.067698,-10.226890083994833,-0.045539191753503926,0.19622301293896394,0.346668384201049,-0.045715503300204095,0.040056593626894885
1765409040.067898,-10.217211975080954,-0.055307140723437044,0.1974779964936866,0.35614746547801535,-0.04566424936950978,0.03537832557083047
1765409040.067872,-10.207020630146559,-0.05697599212412539,0.2011580052614175,0.36540343126615504,-0.04561298247800436,0.030440422784359385
1765409040.068122,-10.196580095728866,-0.050634499054511915,0.2075092960640428,0.374418392749563,-0.04556737591398892,0.025313541521213373
1765409040.068372,-10.186254454310971,-0.0367878297230142,0.2167849657752699,0.38318928236121835,-0.04552928882567638,0.020073881215755207
1765409040.068622,-10.176485814814637,-0.016354809883847174,0.22920287576510595,0.3917285782608157,-0.04549719418427094,0.014799694717045524
1765409040.068942,-10.167754555855419,0.009363447503477194,0.24489451173769392,0.4000638553685429,-0.045466776386220493,0.009567629425680428
1765409040.069192,-10.160525616466002,0.038742893727013415,0.26385170941105346,0.40823605827895904,-0.04543158493252678,0.0044490461931196625
1765409040.069442,-10.155187724100104,0.06992191853749614,0.2858797470330526,0.4162965132793522,-0.04538364874154764,-0.0004935141180962069
1765409040.069692,-10.151994549106599,0.10090862845115947,0.3105650524042812,0.42430284437513194,-0.045314010007330645,-0.005209496487131791
1765409040.069895,-10.151017370975474,0.1297031768839577,0.3372642474618632,0.43231410330442166,-0.045213179908963196,-0.009662871188361542
1765409040.070145,-10.152117464747331,0.15442584527272368,0.3651186967208862,0.44038553622480786,-0.04507153190938411,-0.013833793386724528
1765409040.070395,-10.154943076586346,0.17344019812767733,0.39309492888722947,0.4485634738377883,-0.044879648237951056,-0.017719188034780446
1765409040.070645,-10.158951467704405,0.18546062149271772,0.4200468153116732,0.4568808404685914,-0.044628639679354085,-0.021332164206055857
1765409040.070972,-10.16345249476271,0.18963485640749242,0.4447919029188077,0.4653537265924725,-0.04431046563130816,-0.02470028631377534
1765409040.071172,-10.167667500660208,0.1855946681981853,0.4661930640326007,0.4739793623780367,-0.043918279404026886,-0.02786286222739565
1765409040.071372,-10.170795970370666,0.17347122532831413,0.48323720366313194,0.4827356869504601,-0.043446811573753054,-0.03086752250753082
1765409040.071572,-10.172082228199992,0.15387532785298413,0.49510396768649984,0.49158255846313664,-0.042892788587139234,-0.03376642690544191
1765409040.071772,-10.170875422685398,0.12784560123571267,0.5012188615568984,0.5004645139030898,-0.04225536656003982,-0.03661243410428195
1765409040.072039,-10.166678251157258,0.09677006598618237,0.5012874897160612,0.50931486346413,-0.041536535768750035,-0.03945553085710555
1765409040.072289,-10.159183028570068,0.062288396810712486,0.49531105155381655,0.5180607833877068,-0.0407414199004131,-0.042339758256226656
1765409040.072539,-10.148296660061508,0.026183564199935717,0.48358665631344155,0.526628964327889,-0.03987837320617473,-0.04530079245614446
1765409040.072789,-10.134156788140524,-0.00972840657590371,0.46669706293953583,0.5349513068019052,-0.03895879084344572,-0.04836423331050015
1765409040.07299,-10.117138486000865,-0.04370370466422982,0.4454915350336635,0.5429701481844666,-0.03799659490156723,-0.05154455603452628
1765409040.07324,-10.09784601642906,-0.07416721356536707,0.4210543287167256,0.5506425584250507,-0.037007419531567776,-0.05484462907408621
1765409040.07349,-10.077081564162038,-0.09979880969201607,0.3946542749870334,0.557943346882161,-0.03600757109257208,-0.058255711756820726
1765409040.07374,-10.055785319918447,-0.11960869315393088,0.36767092910759686,0.5648665626841501,-0.03501287442639059,-0.06175789929468592
1765409040.073931,-10.034947709920013,-0.13299989609773682,0.3414985697874899,0.5714254252358061,-0.03403753447729284,-0.06532104409659432
1765409040.074181,-10.015501531406546,-0.13981435567968503,0.31743539855791664,0.5776507787766856,-0.033093147664003605,-0.0689062161201366
1765409040.074431,-9.998206957886943,-0.1403576200121317,0.296569576702205,0.5835883169209459,-0.03218799232060194,-0.07246774967032643
1765409040.074681,-9.98354546874473,-0.13539722991350808,0.27967642819721356,0.5892949513190806,-0.03132670299835901,-0.07595586346773595
1765409040.074901,-9.9716397267723,-0.12613128495404588,0.26714224862037955,0.5948347756998659,-0.030510374643445977,-0.07931976252898496
1765409040.075151,-9.962214526116783,-0.1141261361856233,0.258928270448011,0.600275079770868,-0.029737055410324596,-0.08251106128601003
1765409040.075401,-9.95460853045927,-0.1012247463813463,0.25458240529092563,0.6056827951687076,-0.029002503843595026,-0.0854873138561583
1765409040.075651,-9.947838305080575,-0.0894294709483944,0.2532978754257619,0.6111216309143244,-0.028301038827753474,-0.08821539209955796
1765409040.075951,-9.940707198172278,-0.080764797288056,0.25401005066671717,0.6166500069959202,-0.027626308636488434,-0.09067440958720704
1765409040.076201,-9.931944369810926,-0.0771273802200685,0.25551811360158727,0.6223197401437617,-0.02697184712114134,-0.09285785440418186
1765409040.076451,-9.920355119399126,-0.08013310562068174,0.2566165074289474,0.6281752955789702,-0.026331368420303425,-0.09477458463876032
1765409040.076701,-9.904962699365544,-0.09097387124553188,0.25622104737970236,0.6342533258361375,-0.025698858537452404,-0.09644839099132535
1765409040.077008,-9.885123588574002,-0.11029913865389988,0.2534754492484781,0.6405821991271493,-0.025068605905666348,-0.09791597388743904
1765409040.077258,-9.860602261896403,-0.13813739304031253,0.2478264071575059,0.6471812687837805,-0.0244353245555415,-0.09922341661075088
1765409040.077508,-9.831597029878942,-0.173869539351327,0.2390594636183321,0.6540597263987444,-0.02379446000810222,-0.10042150410402613
1765409040.077758,-9.798714678559094,-0.21626056191671167,0.2272929158471041,0.6612150015672508,-0.023142681354326976,-0.1015604507203753
1765409040.078529,-9.762898318096573,-0.2635489053819252,0.21293231640920218,0.6686308192933623,-0.02247850444020853,-0.10268470021577751
1765409040.078779,-9.725320080167512,-0.31358597965762397,0.19659391017536695,0.6762751860941559,-0.021802959786846713,-0.10382844567034433
1765409040.079029,-9.687256302049578,-0.36401152731267616,0.17901063403842787,0.6840987106430327,-0.021120184467964077,-0.10501240376905129
1765409040.079279,-9.649964295312401,-0.41244570143779774,0.16093642029967542,0.6920337363091076,-0.020437781744788962,-0.10624217579460904
1765409040.078963,-9.614575541264871,-0.4566775465527777,0.1430619250945819,0.6999947508791026,-0.019766799163382243,-0.10750826878722047
1765409040.079213,-9.58201336681166,-0.49483256536969694,0.1259493693467266,0.7078804421910296,-0.019121250063538212,-0.10878761351779159
1765409040.079463,-9.552938423244095,-0.5255070830196764,0.1099896226588922,0.7155775977821921,-0.018517206967302087,-0.11004627867091658
1765409040.079713,-9.527723922026908,-0.5478613553839464,0.09538269383056831,0.7229668212348141,-0.017971563418008905,-0.11124305177713137
1765409040.080911,-9.506461934717198,-0.5616657265771825,0.08214196172248492,0.7299297860858679,-0.017500574092497737,-0.11233357307336873
1765409040.081161,-9.48899925575931,-0.5672958752997097,0.07012064437095329,0.7363575033636082,-0.017118278952342858,-0.11327469808050411
1765409040.081411,-9.47499651968739,-0.565676189073263,0.05905601085548392,0.742158877574376,-0.0168349341617859,-0.11402871770973759
1765409040.081661,-9.46400004838826,-0.5581750539592492,0.048624238271580335,0.7472687034371599,-0.016655604942988095,-0.11456702788511104
1765409040.081001,-9.455514483208752,-0.5464612233818394,0.038497890519792355,0.7516542291894159,-0.01657908710383329,-0.11487286309676535
1765409040.081201,-9.449066106330893,-0.5323349795710115,0.028399044943940844,0.7553194769286601,-0.01659728999663082,-0.11494280402844546
1765409040.081401,-9.444251073450795,-0.5175506415245549,0.01814371633233317,0.7583066635676191,-0.016695146887884472,-0.11478691795148409
1765409040.081601,-9.44076773451063,-0.5036478496261095,0.007676079375847203,0.7606943233549484,-0.01685105631290891,-0.11442755467279736
1765409040.081801,-9.43843531471443,-0.49180809975825074,-0.0029079070082581424,0.7625921022297443,-0.01703782324089882,-0.11389696838733512
1765409040.081886,-9.43720114998859,-0.4827504551668874,-0.013349109727958285,0.7641326360455564,-0.017224050700926627,-0.11323404823946706
1765409040.082136,-9.43713682707701,-0.47667646375492484,-0.023229253037464283,0.7654613497779902,-0.017375908333528894,-0.11248050659723484
1765409040.082386,-9.438422710938953,-0.47326925520810553,-0.03199274283579403,0.7667253187662614,-0.017459170563314915,-0.11167689813849346
1765409040.082636,-9.441321578860451,-0.47174585006848796,-0.03898529763266912,0.7680624379151841,-0.01744138546847476,-0.11085884747627667
1765409040.082957,-9.44614398076895,-0.4709556208947684,-0.043505277749368375,0.7695920325455416,-0.01729401559978036,-0.11005385256695743
1765409040.083207,-9.453208480613402,-0.4695130496018561,-0.04486336173717474,0.7714077641253213,-0.016994390633509396,-0.10927897453851425
1765409040.083457,-9.462798967907949,-0.4659507369852301,-0.04244803155983426,0.7735733205885309,-0.016527331353010207,-0.10853961095082153
1765409040.083707,-9.475120564122752,-0.4588790110924121,-0.035794581446142976,0.7761210129027637,-0.015886334725784657,-0.10782942638266509
1765409040.083961,-9.490256666074348,-0.44713998331183624,-0.02465218804340723,0.7790530737363472,-0.015074239218300733,-0.10713143450178997
1765409040.084211,-9.508131736196423,-0.4299445781676693,-0.009039477734659542,0.782345184613399,-0.014103325769768325,-0.10642018843249279
1765409040.084461,-9.528485910188138,-0.4069798544718435,0.01072206812557974,0.7859515483179156,-0.01299486307545133,-0.10566499897563651
1765409040.084711,-9.550867194254812,-0.3784720492794454,0.03400457581753191,0.7898106929908765,-0.011778155371247668,-0.10483401771823633
1765409040.084988,-9.574644670783758,-0.34519155913106925,0.05990282916613025,0.7938511773481065,-0.010489163779800937,-0.1038988739549617
1765409040.085238,-9.599042467479057,-0.30839216280386095,0.0872938686075314,0.7979964807759382,-0.009168754863457838,-0.10283937417769676
1765409040.085488,-9.623191138698994,-0.269687363208688,0.11492149896260746,0.8021685917532659,-0.007860630843737577,-0.10164764307501986
1765409040.085738,-9.64619209251453,-0.23087819320977604,0.14149771069935813,0.8062901144476023,-0.006609046118813142,-0.10033107970969107
1765409040.085949,-9.667191165293065,-0.19375549094844247,0.165811930963551,0.8102850415492467,-0.005456481483530785,-0.0989136416591205
1765409040.086199,-9.68545712860725,-0.1599033533487012,0.186838847501961,0.8140786169441893,-0.004441466914977254,-0.09743521525778087
1765409040.086449,-9.700458182755758,-0.13052907679369738,0.20383503168986083,0.8175968673275648,-0.0035967018546655483,-0.0959491034569694
1765409040.086699,-9.711925132822824,-0.10633980388665408,0.21641283211009452,0.8207663969225749,-0.002947573823367,-0.09451789236546994
1765409040.087019,-9.719887147321288,-0.08747893081133261,0.22457869213316564,0.8235149355806766,-0.002511167107893686,-0.09320812479183666
1765409040.087219,-9.724668155363693,-0.07352719901685748,0.2287256058757817,0.8257729388025495,-0.0022958543416050983,-0.09208432729001077
1765409040.087419,-9.726839550755077,-0.06356556800449635,0.2295770887811081,0.8274762941918701,-0.0023015178257426777,-0.09120300005329515
1765409040.087619,-9.727134970453854,-0.056290904752249155,0.22808990024685213,0.8285699419061124,-0.0025203485465119077,-0.09060717360448742
1765409040.087819,-9.726341758268344,-0.050171524807847284,0.22533072203492835,0.8290120175562621,-0.002938068295039542,-0.09032207965254366
1765409040.087995,-9.725189175585344,-0.043626544456278206,0.22234629345957813,0.8287780045409472,-0.00353536279910473,-0.09035239868491861
1765409040.088245,-9.72425465829617,-0.03521010769475997,0.2200473915596285,0.827864343873561,-0.004289314556127434,-0.09068142282366361
1765409040.088495,-9.723906021881643,-0.023779704433057745,0.21912465595514913,0.8262909879141911,-0.005174669128324856,-0.09127228306654958
1765409040.088745,-9.724289846927343,-0.00862836494658782,0.22000834663526997,0.8241024964140408,-0.006164838314896209,-0.09207113968894509
1765409040.089058,-9.72536601126778,0.010436006553559722,0.22287531913432299,0.8213674469029104,-0.007232621732453888,-0.0930119711111427
1765409040.089308,-9.726977918849972,0.03307465436095799,0.2276966453076628,0.818176130649544,-0.008350698181660964,-0.09402238760940404
1765409040.089558,-9.728939846848291,0.0584672327102996,0.23431073329324173,0.8146366833581674,-0.009491980409356436,-0.09502979290448257
1765409040.089808,-9.731119248445458,0.08541856173423075,0.24250198313851987,0.8108699291611261,-0.010629929008518129,-0.09596723154598479
1765409040.089922,-9.733494455013352,0.11250705249728195,0.25206606461347625,0.8070032972560128,-0.011738890297311453,-0.09677837157412185
1765409040.090172,-9.736176518605854,0.13825469707948124,0.26284970322083756,0.8031642146664013,-0.012794486348630877,-0.09742123811809635
1765409040.090422,-9.739394315689799,0.16129823658920212,0.27476188726274003,0.7994733954437995,-0.013774068153070564,-0.09787049066696854
1765409040.090672,-9.743449902219115,0.18054327498554115,0.28776013971139075,0.7960384369516208,-0.0146572411730325,-0.09811820017253875
1765409040.091338,-9.748654653474299,0.19528636860089532,0.30181846066297047,0.7929480914317572,-0.015426461610442284,-0.09817321980089053
1765409040.091588,-9.755257604099702,0.20529415307742588,0.3168847836597094,0.7902675019001433,-0.016067676521353567,-0.09805933367134623
1765409040.091838,-9.763377518622606,0.21083294550837994,0.33283694091562743,0.7880345885807848,-0.016570965568622753,-0.0978123999754229
1765409040.092088,-9.772949232363594,0.21264621523724578,0.3494458936352512,0.7862576800581197,-0.016931147409597114,-0.09747671254443593
1765409040.093329,-9.783691682917302,0.2118809756133624,0.36635189696529846,0.7849144377851198,-0.01714831164597775,-0.09710083922692499
1765409040.093579,-9.795100786381731,0.2099685971613877,0.38305528310060744,0.7839521311640181,-0.017228201760572406,-0.09673326139793312
1765409040.093829,-9.806467411361504,0.20847123451389135,0.39892220854704863,0.7832893535215854,-0.017182322848585563,-0.09641819451763266
1765409040.094079,-9.816920046284034,0.20891094213157055,0.41320728698865156,0.7828192789612597,-0.01702762039249132,-0.09619197410609102
1765409040.093375,-9.825491348439652,0.21260270409684082,0.4250958780967836,0.7824145110610794,-0.01678559740458822,-0.09608032822135697
1765409040.093575,-9.831205467265312,0.22051317193281889,0.4337661940800895,0.7819334610401283,-0.01648081300964429,-0.09609673051934664
1765409040.093775,-9.833179447584218,0.233162903241609,0.43846697389624584,0.7812280326394557,-0.016138827616631022,-0.09624186460051522
1765409040.093975,-9.830729407716216,0.25058198902233475,0.4386036786956951,0.7801522121413862,-0.015783794394979123,-0.0965040829641917
1765409040.094175,-9.823471288445642,0.2723196025530105,0.433825520602104,0.7785709989943288,-0.015435992834801024,-0.09686066773178567
1765409040.093917,-9.811405467760315,0.29750024292723004,0.42410475236738693,0.7763690008177815,-0.015109626492642301,-0.09727971208366161
1765409040.094167,-9.794973758246185,0.3249152764888447,0.4097973586531217,0.7734579855372068,-0.014811172123812714,-0.09772249903881358
1765409040.094417,-9.775077919164989,0.353137994559131,0.39167299626376706,0.7697827410837492,-0.014538497215432296,-0.09814628933647106
1765409040.094667,-9.753052914179634,0.3806523026103534,0.3709049008912226,0.7653247135809655,-0.014280870131507108,-0.098507400787816
1765409040.094959,-9.73059514609342,0.4059867848414449,0.3490171447277048,0.7601030418147547,-0.014019873391179901,-0.09876437503331749
1765409040.095209,-9.709652505649103,0.4278452387154258,0.32779313210506067,0.7541727759181389,-0.01373111039398565,-0.09888093188243915
1765409040.095459,-9.692286623965536,0.44522207488386345,0.3091526409415825,0.7476202916779708,-0.013386498911129927,-0.09882836775046194
1765409040.095709,-9.680518753015415,0.457488638276718,0.2950064413599953,0.7405562026669781,-0.012956893006668154,-0.09858710177971747
1765409040.095903,-9.676171578532237,0.4644372365906552,0.28710059010973077,0.7331063949729398,-0.012414767991312296,-0.09814720527260633
1765409040.096153,-9.680720875663908,0.4662745728022451,0.286866691060784,0.7254020950937938,-0.011736726380951435,-0.09750792536141105
1765409040.096403,-9.695171517022233,0.463564284998295,0.29529592950498035,0.7175700599620748,-0.01090562659278459,-0.09667637621502591
1765409040.096653,-9.719969785124015,0.45712695407056,0.31285082822389826,0.7097239897594019,-0.009912196509613813,-0.09566567450321062
1765409040.096906,-9.754958422761362,0.44791291653978815,0.3394212391939428,0.7019580796997283,-0.008756059135339786,-0.09449282688520673
1765409040.097106,-9.799374913800142,0.4368671360028112,0.3743243800510191,0.694343277645197,-0.007446143842207976,-0.09317665017685718
1765409040.097306,-9.851889365433195,0.4248056069843781,0.4163450864010242,0.6869263893363001,-0.006000475138553569,-0.09173593532487719
1765409040.097506,-9.910676312803377,0.4123192931003229,0.46381088150877703,0.6797317697975557,-0.0044453458649985405,-0.09018797122711229
1765409040.097706,-9.97351404077017,0.39971557315242634,0.5146951716575114,0.6727650216744235,-0.0028139209990765486,-0.08854745681167656
1765409040.097892,-10.037905069524019,0.3870005686259713,0.5667405412551184,0.6660179150252248,-0.0011443733783183209,-0.08682577888512194
1765409040.098142,-10.101211558251835,0.3739000164170037,0.6175932890782366,0.6594736553430486,0.0005223064191143585,-0.08503061736540952
1765409040.098392,-10.160798454633758,0.3599119852252698,0.6649399447922234,0.6531116586028581,0.002144665246615413,-0.08316584257840985
1765409040.098642,-10.214175112579639,0.34438208415209676,0.7066361604584883,0.6469111387034959,0.0036831310891845366,-0.0812316861850345
1765409040.098902,-10.25912454773257,0.32659146033222913,0.7408187022924,0.6408530526829795,0.005102145115108723,-0.07922519221613537
1765409040.099152,-10.293810695517612,0.30584957640108207,0.7659935072959659,0.6349202445900962,0.00637187643195765,-0.07714096078706036
1765409040.099402,-10.31685820027799,0.2815858483318838,0.7810968501104192,0.6290959381127594,0.007469365963005944,-0.07497215156377492
1765409040.099652,-10.327404158166955,0.25343478245393525,0.7855306983036633,0.6233610123560794,0.008379053981222455,-0.07271162161468979
1765409040.099873,-10.325124243938344,0.2213077915952379,0.7791753872804844,0.6176907119581236,0.009092756996847416,-0.07035299082799926
1765409040.100073,-10.310235928594466,0.18544285386241746,0.7623824464789394,0.6120515501696254,0.009609221769910362,-0.06789142103345439
1765409040.100273,-10.283480110049238,0.1464228559208533,0.7359487880992424,0.6063991429218715,0.00993339157147586,-0.06532397235123263
1765409040.100473,-10.246081253211093,0.1051562995194122,0.701072180759207,0.6006775739807398,0.010075503796364014,-0.0626495215196661
1765409040.100673,-10.199686476730534,0.06281986839721967,0.6592884268078198,0.5948206591874372,0.010050129671309345,-0.05986834164688733
1765409040.100872,-10.146285896965828,0.02076932456924779,0.6123928238626022,0.5887551802941003,0.00987526893999525,-0.0569815104089509
1765409040.101122,-10.08811836759639,-0.01956930671997553,0.5623502828366289,0.5824058400685131,0.009571599320476666,-0.05399031354442489
1765409040.101372,-10.02756714389685,-0.05681421176285582,0.5111983403128199,0.5757014084006803,0.009161929715384511,-0.050895757990202926
1765409040.101622,-9.96704943980087,-0.08973531896055138,0.4609463530913552,0.5685813364162366,0.008670829623316466,-0.04769824654009334
1765409040.10195,-9.908903877236268,-0.11734583527710778,0.41347455472409733,0.5610020380250511,0.008124341033908708,-0.044397430638576006
1765409040.1022,-9.855280937445144,-0.13897236466865145,0.3704385885230534,0.5529420723620704,0.007549648716396221,-0.04099226010360172
1765409040.10245,-9.808042710970057,-0.15430046434454756,0.3331868203695367,0.5444055883993757,0.006974592314509354,-0.0374812642328242
1765409040.1027,-9.76867843621967,-0.1633935158673825,0.3026976458698797,0.5354235966301554,0.00642693976269199,-0.033863084573191364
1765409040.102946,-9.738241517650865,-0.16668380836188096,0.27954214346303463,0.5260528889625719,0.005933397340496036,-0.030137219058406762
1765409040.103146,-9.717312679106593,-0.16493682345875532,0.2638748609216369,0.5163727013131629,0.005518398611211914,-0.02630486421989705
1765409040.103346,-9.705992944657073,-0.15919275156440607,0.25545320502170765,0.5064794682934384,0.005202776205092412,-0.022369702846700628
1765409040.103546,-9.703928503787324,-0.15069196313475278,0.2536837543260661,0.49648022861390484,0.005002455834615434,-0.018338496380550254
1765409040.103746,-9.710366368815516,-0.14079197136786006,0.2576911165310029,0.48648537354278093,0.004927315890889981,-0.0142213950183701
1765409040.103957,-9.724235555491239,-0.13088196043831826,0.26640187066246884,0.476601460923992,0.004980342462081501,-0.01003194483192248
1765409040.104207,-9.744245061023133,-0.12229850469962072,0.27863428242933697,0.46692474292754527,0.005157185651257083,-0.005786813287677369
1765409040.104457,-9.768988635696815,-0.11624441793572313,0.2931852420652398,0.45753590605267114,0.005446181975308782,-0.0015052622243350074
1765409040.104707,-9.797047084194698,-0.11371251178325409,0.3089084966694011,0.44849633379163506,0.005828854450579136,0.002791607537879202
1765409040.104975,-9.827080055345252,-0.11541726195915332,0.3247803807395729,0.439846006918463,0.0062808559833417935,0.0070818180680963065
1765409040.105175,-9.857899871961143,-0.1217395097932663,0.339949496819662,0.4316029807486147,0.006773287117248535,0.011343662665322322
1765409040.105375,-9.888520749259456,-0.13269139106649008,0.35376639321361586,0.4237642488821604,0.007274282846189764,0.015557016049608914
1765409040.105575,-9.918179586898784,-0.1479092372500039,0.36579072493929565,0.4163077374622886,0.007750728893040394,0.0197047528792675
1765409040.105775,-9.946329654440765,-0.16668025136578485,0.3757773386079967,0.4091951657498583,0.008169966180271389,0.023774158655452758
1765409040.105888,-9.97261380153547,-0.18800442656400446,0.38364700889681463,0.40237551954964734,0.008501390415298233,0.027758136242365315
1765409040.106138,-9.996826811301718,-0.2106874154717982,0.3894495859368039,0.39578887900227816,0.008717920022913547,0.031655957782292465
1765409040.106388,-10.018876314776154,-0.23345443811005828,0.39332663102841925,0.3893703294196149,0.008797332999065037,0.03547334156105449
1765409040.106638,-10.038748899562794,-0.2550716798730103,0.39547832322884635,0.38305369902384634,0.008723441175168614,0.03922176041846844
1765409040.106872,-10.05648366578157,-0.2744611441785866,0.3961363264082347,0.3767749259692678,0.008487017568718419,0.04291705965008551
1765409040.107072,-10.072150930675331,-0.29079716451496884,0.39554107296432434,0.3704749379754367,0.008086369693354863,0.046577598292506885
1765409040.107272,-10.085831294989191,-0.303576131242705,0.3939201165001154,0.3641019991870753,0.0075274738415885695,0.05022218260612673
1765409040.107472,-10.097591522149648,-0.3126542386289656,0.3914653415983588,0.3576135220584657,0.00682364058659941,0.05386804490924627
1765409040.107672,-10.10745772955131,-0.31825133305393605,0.38831028601044254,0.3509773572574133,0.005994754335101266,0.05752907091622823
1765409040.107918,-10.115390369970227,-0.32092269154441616,0.3845122092245382,0.34417257244234356,0.005066193939394651,0.061214411138535714
1765409040.108168,-10.121267297088188,-0.32150415259580856,0.3800449414283072,0.3371897227292767,0.004067563330737766,0.06492752097235957
1765409040.108418,-10.124880727190266,-0.32103808263133105,0.3748074905324808,0.33003061048768895,0.003031332189803571,0.06866557007665489
1765409040.108668,-10.125951788374955,-0.32068753808420886,0.3686500293496636,0.32270753671555796,0.001991438444559228,0.07241908727454657
1765409040.108984,-10.124163114350623,-0.321644421842343,0.36141414311762876,0.3152420650821801,0.0009818748121889725,0.07617170640368365
1765409040.109184,-10.119206278347667,-0.32503593362401445,0.3529801860413171,0.30766335084002416,3.527692050992661e-05,0.07989995675621878
1765409040.109384,-10.11083776572531,-0.33183328033465115,0.34331309440859,0.30000611892226714,-0.0008184667140767076,0.08357315637137908
1765409040.109584,-10.098935358433275,-0.34276744515611257,0.33249880272839366,0.29230839609144593,-0.0015535584790658372,0.0871535541160227
1765409040.109784,-10.083546351894258,-0.3582579643555139,0.3207650969628652,0.28460911058472804,-0.0021495458853181076,0.09059688820321264
1765409040.109993,-10.064919870293554,-0.37836128758089366,0.30848291324411,0.2769456788155799,-0.002592402727999973,0.09385349192269452
1765409040.110243,-10.043517707954132,-0.40274501897651993,0.29614729214124647,0.2693517069043564,-0.0028753127814492413,0.09687001153369693
1765409040.110493,-10.020001330804394,-0.43069297729455847,0.28434100420691,0.26185494068304427,-0.0029990238464474746,0.09959172159211327
1765409040.110743,-9.995196168774592,-0.4611433852822881,0.2736866330844812,0.2544755969743292,-0.0029716843254484265,0.10196532738024644
1765409040.11099,-9.97003732590337,-0.4927586909139231,0.26479360035951266,0.24722520071650975,-0.002808156785745965,0.10394204024503623
1765409040.11124,-9.945502842812214,-0.5240212837334799,0.2582057522821079,0.24010603243629539,-0.0025288813644464498,0.10548063176398824
1765409040.11149,-9.922541433514265,-0.5533459488624785,0.2543537805108951,0.23311124987809176,-0.0021583992511718005,0.10655015358197602
1765409040.11174,-9.902001412706124,-0.5791982987681822,0.2535156993715172,0.22622568588769215,-0.0017236464802121657,0.10713205725702997
1765409040.112016,-9.88456719972382,-0.6002087392937975,0.2557884549356701,0.21942725452117542,-0.001252127792240971,0.10722152859917933
1765409040.112216,-9.870709846663981,-0.6152730890690595,0.26107438566415486,0.21268883448483777,-0.0007700962912295256,0.10682792412722601
1765409040.112416,-9.860657452746443,-0.623632977565759,0.2690860513320811,0.2059804550006606,-0.00030087183782399706,0.10597425479527987
1765409040.112616,-9.854388699601916,-0.6249310582519321,0.2793703685885199,0.1992715916878058,0.00013658861939698798,0.10469572285581609
1765409040.112816,-9.851648854113765,-0.619237617921561,0.2913492269645679,0.19253339241554782,0.0005287779026681333,0.10303739688063362
1765409040.112998,-9.851984860543345,-0.6070464055445852,0.30437144496438917,0.18574069050753902,0.0008682947994193204,0.10105120376868265
1765409040.113248,-9.854795279118253,-0.5892389838065659,0.31777038805608077,0.17887370850186762,0.0011539914613368006,0.09879250995008677
1765409040.113498,-9.859390173775488,-0.5670193021158849,0.3309209884039236,0.1719193888176983,0.001390584722591689,0.09631663729405733
1765409040.113748,-9.865054842359175,-0.5418235297404445,0.34328906041461316,0.16487230143903997,0.0015877794339815166,0.093675688132573
1765409040.113913,-9.871111029914557,-0.5152135452645897,0.35446664619986873,0.15773508783424386,0.0017590043412804796,0.09091601820878038
1765409040.114113,-9.876970934253702,-0.4887647077717253,0.3641901614718687,0.15051842287101636,0.0019198754492187875,0.08807659681837725
1765409040.114313,-9.882181354445601,-0.4639591696295619,0.37234104733879475,0.14324051285513875,0.0020865020935969315,0.08518835256185228
1765409040.114513,-9.886455992495485,-0.44209510396390633,0.37892973673879804,0.1359261838071018,0.002273755753575584,0.08227444922756391
1765409040.114713,-9.889693810879221,-0.42421974465589307,0.3840642928436774,0.1286056399057829,0.002493628528138488,0.07935129722001796
1765409040.115003,-9.891982173161173,-0.4110901343101665,0.38790686148106746,0.12131298826043699,0.0027538111026685344,0.07643001586680045
1765409040.115253,-9.89358535711835,-0.4031610047150818,0.39062333788229275,0.11408463445593268,0.003056612870441524,0.07351804769958968
1765409040.115503,-9.894920530705534,-0.4005959582563012,0.39233230276252185,0.10695765430376972,0.0033983195117264675,0.07062067866937015
1765409040.115753,-9.896523647468985,-0.4032968346796722,0.3930580547547868,0.0999682463134778,0.0037690356499778194,0.06774229728022178
1765409040.115998,-9.899007602954962,-0.4109460416476805,0.3926911692276242,0.09315037086207124,0.004153011812410229,0.06488729333823424
1765409040.116198,-9.903015289153728,-0.42305643610346433,0.39095972930761425,0.08653467751160371,0.004529425425825759,0.06206054503169668
1765409040.116398,-9.90917089258801,-0.43902269551851536,0.3874146752125179,0.08014779638064766,0.004873570675820762,0.05926748806888372
1765409040.116598,-9.918033207374595,-0.4581678371125451,0.3814322269567929,0.07401201949341502,0.005158390606122145,0.05651382194174654
1765409040.116798,-9.930054363853834,-0.4797798016732066,0.3722344669824591,0.06814533716074271,0.0053562480058933085,0.05380498315834987
1765409040.116889,-9.945546461595661,-0.5031360531268879,0.35892681734994,0.06256174353798152,0.005440797587114447,0.0511455702875873
1765409040.117139,-9.96465793098086,-0.5275177311775989,0.34054985888462963,0.057271701479809756,0.0053888176455149355,0.04853890308305674
1765409040.117389,-9.987361393516451,-0.5522172779213717,0.31614318043781353,0.05228266318920702,0.005181888101669176,0.04598683368768392
1765409040.117639,-10.013454715666047,-0.5765437490311376,0.2848194649425566,0.04759956692682606,0.004807835661821478,0.04348983616067876
1765409040.117974,-10.042575932987047,-0.5998286219803771,0.24584631069933424,0.04322525275279441,0.004261875884021399,0.04104732361527207
1765409040.118174,-10.07423064307864,-0.6214329985906033,0.19873118427349995,0.039160753666387854,0.0035473634049664354,0.03865810438016601
1765409040.118374,-10.107828137556155,-0.6407558000206842,0.14330245584022552,0.03540542898846507,0.002676039065453624,0.03632088945350948
1765409040.118574,-10.142720954263329,-0.657242263668365,0.07977789568928574,0.031956927348289144,0.0016676671478114092,0.03403478482561367
1765409040.118774,-10.178242186279437,-0.670392284057329,0.008812046166371037,0.028811001100322545,0.0005490057675897789,0.03179972366122778
1765409040.118916,-10.213735746649121,-0.6797682165885861,-0.06848434008489888,0.025961227041065536,-0.0006478600529468418,0.02961680705143062
1765409040.119166,-10.2485765676738,-0.6850016398495647,-0.1505564660923982,0.023398699436161824,-0.0018877001419010735,0.027488533856795967
1765409040.119416,-10.282179954474234,-0.6857987462021948,-0.23544919184185992,0.021111750945043705,-0.0031346405296436585,0.02541891621460427
1765409040.119666,-10.314001365216981,-0.6819446485105815,-0.3208788252599472,0.01908574481682681,-0.004354746700223131,0.023413490191720066
1765409040.119947,-10.343529269241893,-0.6733073242119132,-0.4043273643967778,0.017302978593446303,-0.005518443255800241,0.021479227027515934
1765409040.120147,-10.370274533715817,-0.6598415040912996,-0.4831527261041385,0.015742736120201398,-0.006602555069578547,0.019624332988395794
1765409040.120347,-10.393760405312262,-0.6415917906891725,-0.5547083829467572,0.014381511907618933,-0.007591811368064511,0.017857919346000315
1765409040.120547,-10.41351750758301,-0.6186936427690074,-0.6164656352711908,0.013193416528978425,-0.008479706565607014,0.016189545992212673
1765409040.120747,-10.429087697020249,-0.5913712657394475,-0.6661314974501692,0.01215076216759348,-0.009268646417280688,0.014628680762324748
1765409040.120923,-10.440038796443181,-0.5599325754171522,-0.7017554781385666,0.011224819773303247,-0.009969346553112116,0.013184140650509024
1765409040.121173,-10.44598980928078,-0.5247622909145073,-0.7218195376046002,0.010386727947646992,-0.010599516458671427,0.011863573524356689
1765409040.121423,-10.446644066882934,-0.4863142323260909,-0.7253068853475519,0.009608519914207813,-0.011181946630617863,0.010673011987806288
1765409040.121673,-10.441826076115937,-0.44510323771371063,-0.7117469162112626,0.008864217441078475,-0.011742191144925756,0.009616506977525223
1765409040.12189,-10.431516556731514,-0.4016964092618358,-0.6812354588828486,0.008130915835229091,-0.012306083406306083,0.008695837371964122
1765409040.12209,-10.415879634602158,-0.35670314512327467,-0.6344311536053525,0.0073897610779708545,-0.012897335829039529,0.00791029131188929
1765409040.12229,-10.395276863730311,-0.31076366450317966,-0.5725295051045401,0.00662671639056992,-0.013535455806310718,0.0072565174380813694
1765409040.12249,-10.37026455552468,-0.2645361398737808,-0.4972160057158095,0.005833035434437474,-0.014234163069581106,0.006728440913000824
1765409040.12269,-10.341573027023502,-0.21868269435433144,-0.4105996446375646,0.005005391177060686,-0.01500042540872146,0.006317230194652342
1765409040.122908,-10.310068251097412,-0.1738542996628181,-0.3151289515271387,0.004145643733696835,-0.01583415400437236,0.006011298884655718
1765409040.123108,-10.27669820535424,-0.13067426463846726,-0.21349422647756114,0.003260267094764033,-0.016728526313593475,0.00579634414837016
1765409040.123308,-10.24242849074015,-0.08971987384559081,-0.10852085065294606,0.0023594903373723463,-0.0176708349150857,0.005655457495566996
1765409040.123508,-10.208174318516708,-0.05150211734542112,-0.0030590367716310557,0.001456232090869987,-0.018643698225415697,0.005569381604351319
1765409040.123708,-10.174737525710203,-0.01644455146995396,0.10012466123029004,0.000564910681853371,-0.019626433248753315,0.005517006338545698
1765409040.123894,-10.142756630479107,0.015136060537612272,0.1984488920892068,-0.0002997959852999139,-0.020596407321611176,0.005476170735581248
1765409040.124144,-10.11267507709789,0.04304345871562501,0.28960719795790485,-0.0011241728827769708,-0.021530253678481794,0.005424752967044211
1765409040.124394,-10.084729098802269,0.06720638171733298,0.3716416691823918,-0.0018966006815080046,-0.022404914706597216,0.0053419195837518755
1765409040.124644,-10.058953683984164,0.08767240723607464,0.44299765393048635,-0.0026085170065009663,-0.02319852313753946,0.005209338375747938
1765409040.12491,-10.035203756174615,0.10459248311328424,0.5025583377785273,-0.003255121941964466,-0.02389113662529669,0.005012180522049485
1765409040.12511,-10.013187433737993,0.11819915865396766,0.5496597350736203,-0.0038357609742636018,-0.024465329633498373,0.004739819424470778
1765409040.12531,-9.992508092349652,0.1287814255798291,0.5840875459474646,-0.0043539533294605715,-0.024906642000767733,0.0043862075567930705
1765409040.12551,-9.972711454971838,0.1366582708242412,0.6060571609109445,-0.0048170711451189,-0.025203887121137605,0.003949942369968075
1765409040.12571,-9.953333601642406,0.14215284813095888,0.6161777922938625,-0.005235704118097981,-0.02534932239098191,0.003434036845706687
1765409040.125971,-9.933946279896169,0.14556967240214783,0.6154024064544588,-0.005622767554925902,-0.025338677364473466,0.0028454257459472206
1765409040.126171,-9.91419705978022,0.1471774131978359,0.6049666406943977,-0.005992435022872082,-0.02517103276719785,0.002194275135034461
1765409040.126371,-9.893842899293107,0.14719883242490056,0.5863209583253434,-0.0063589959152871795,-0.024848556780773738,0.0014931981250930362
1765409040.126571,-9.872775984253705,0.14580744448664906,0.5610601688873132,-0.006735742261345546,-0.024376128259964727,0.0007564820986315243
1765409040.126771,-9.851040483251252,0.143128912556936,0.5308535639516696,-0.007133975178227072,-0.023760895478824574,-6.089782192012173e-07
1765409040.126904,-9.828838758052035,0.13924517010773926,0.4973780988661206,-0.00756219928938123,-0.02301182728376553,-0.0007624529977915083
1765409040.127154,-9.806526000175449,0.13420047415974148,0.4622566049159743,-0.008025553336171522,-0.022139312363931588,-0.0015136379040058033
1765409040.127404,-9.78459315452012,0.1280096182396892,0.4270028559553529,-0.008525507109609346,-0.021154849222444823,-0.002239494779463882
1765409040.127654,-9.763639035109255,0.12066832476280474,0.39297523556569686,-0.00905983418143844,-0.0200708413059581,-0.0029265727735977008
1765409040.12789,-9.744333483630006,0.1121647643387343,0.3613404752843874,-0.009622845850948173,-0.018900478262596734,-0.003563012033646752
1765409040.12809,-9.727374152698841,0.10249040329188353,0.3330482696072226,-0.010205846163849557,-0.017657664903060487,-0.004138787587391985
1765409040.12829,-9.713439991712514,0.09164867186700432,0.3088167015667952,-0.010797745065033438,-0.01635696360000787,-0.004645835580329629
1765409040.12849,-9.703144795996582,0.07966095225391658,0.2891277923362418,-0.011385755618473405,-0.015013532835053212,-0.0050781018038349585
1765409040.12869,-9.696994214030322,0.06657028812014308,0.27423232107765827,-0.011956108719655203,-0.013643057053602095,-0.0054315525509954984
1765409040.128909,-9.695349243207781,0.05244350040730579,0.2641630153357374,-0.012494739319430027,-0.012261665712742193,-0.005704165495178253
1765409040.129109,-9.698398462536776,0.037372176512476284,0.2587549235179143,-0.01298791708074067,-0.010885837956646889,-0.005895894255878527
1765409040.129309,-9.706140420768348,0.021472771044258765,0.2576714427078644,-0.013422802589586811,-0.00953228551915375,-0.006008590638278901
1765409040.129509,-9.718377141895411,0.004886108700257881,0.2604345024741581,-0.013787912269240317,-0.008217797222010359,-0.006045872335819116
1765409040.129709,-9.734719495734684,-0.012223277934518082,0.26645767484194954,-0.014073481366882655,-0.006959017262034527,-0.00601293006412517
1765409040.130928,-9.754604642316771,-0.02966764708498823,0.2750809607049016,-0.014271728309662167,-0.00577212642402225,-0.005916271446556121
1765409040.131128,-9.77732466436549,-0.04723641285509953,0.2856056023104234,-0.014377038253201892,-0.0046724066860704145,-0.005763404047072386
1765409040.131328,-9.802064285656114,-0.06469675028418395,0.2973270296537025,-0.014386088826000187,-0.003673694757684047,-0.0055624701475021675
1765409040.131528,-9.827944800352753,-0.0817949837458344,0.309564392094041,-0.014297934226924299,-0.002787763346572091,-0.005321856653268409
1765409040.131728,-9.854071102951417,-0.09825934677943655,0.32168581189449214,-0.014114051597574274,-0.0020236988940563728,-0.005049808747946309
1765409040.131108,-9.879578697658577,-0.11380465949339953,0.3331289658969565,-0.013838344618942108,-0.0013873581565324456,-0.004754075172677196
1765409040.131308,-9.903677581072463,-0.12813928672625322,0.343416683161975,-0.013477096001843361,-0.0008809801498532335,-0.004441609034852005
1765409040.131508,-9.92569009712492,-0.14097442599189708,0.3521672821269796,-0.013038859064290441,-0.0005030127608299194,-0.0041183414296537815
1765409040.131708,-9.945080482424936,-0.15203545447709954,0.3590996952624806,-0.012534275780741327,-0.00024819100849060246,-0.0037890358220250935
1765409040.131908,-9.961474743814518,-0.16107481638716403,0.3640339445257663,-0.011975806949350087,-0.00010787294390951948,-0.0034572224094171432
1765409040.131905,-9.974670381343484,-0.16788570620969975,0.3668878915629657,-0.011377364279118438,-7.059848592116857e-05,-0.0031252086037773584
1765409040.132105,-9.984636114226586,-0.17231555151121727,0.36767123616387604,-0.010753845002051664,-0.00012280091836938475,-0.002794165372181046
1765409040.132305,-9.991502314004236,-0.17427806383200217,0.36647759503427485,-0.010120582741537997,-0.00024958907392679203,-0.0024642936291550924
1765409040.132505,-9.995543388905558,-0.17376248808111436,0.3634752876213871,-0.009492740105968548,-0.0004355308465303195,-0.002135071545440555
1765409040.132705,-9.997153716609112,-0.1708387105149328,0.3588971557640056,-0.008884678680338634,-0.0006653896189107807,-0.0018055697334071457
1765409040.132892,-9.996818711175658,-0.16565715426122077,0.35302934166273714,-0.008309350330842284,-0.0009247825657771988,-0.0014748038510684846
1765409040.133142,-9.995082410957567,-0.15844293780701477,0.3461986788458216,-0.00777775711392166,-0.0012007426977433029,-0.0011420837287493234
1765409040.133392,-9.992512957775158,-0.14948452090994774,0.33875849871986424,-0.007298523342786821,-0.0014821755046267554,-0.000807319040746208
1765409040.133642,-9.9896675857129,-0.13911780305561333,0.3310731199138126,-0.006877613240992614,-0.0017602037745604118,-0.0004712503321301113
1765409040.13391,-9.987058978861054,-0.12770714252294266,0.32350162491093043,-0.006518214016500033,-0.0020283914102176954,-0.0001355855090119608
1765409040.13411,-9.985124906999742,-0.11562496551341349,0.316381573255119,-0.0062207903094120475,-0.0022828362152201584,0.0001969665046362546
1765409040.13431,-9.984203028152377,-0.10323165919971125,0.3100134082242398,-0.005983303356329041,-0.0025221289276409647,0.0005227614892691646
1765409040.13451,-9.984512729610952,-0.09085740146093499,0.3046467104616756,-0.005801577110277795,-0.00274718684211391,0.000837371070689356
1765409040.13471,-9.986145597317261,-0.07878741729855995,0.30046970821476954,-0.0056697847256496,-0.0029609749886081436,0.001135798338367763
1765409040.1349,-9.98906529918458,-0.06725174906353018,0.29760305804163734,-0.005581022572010514,-0.0031681250825662836,0.0014127339730538363
1765409040.1351,-9.993116577243878,-0.05642000847857075,0.29609810674663545,-0.005527933370638421,-0.003374463070594748,0.0016628284930894283
1765409040.1353,-9.998042192570658,-0.04640094093097241,0.2959393426481308,-0.005503333554489935,-0.0035864668707663214,0.0018809577124325187
1765409040.1355,-10.003506216511271,-0.03724617938505011,0.29705068908908844,-0.005500794225036813,-0.0038106893823016963,0.0020624627955384087
1765409040.1357,-10.009121697541262,-0.02895733918284712,0.2993051323375858,-0.00551512339487119,-0.004053187271345672,0.0022033541792317807
1765409040.135901,-10.014480260553775,-0.021495508818638178,0.3025366003132768,-0.0055427018756546535,-0.004318993958406832,0.0023004781193850833
1765409040.136068,-10.019180911218168,-0.014792141660391469,0.3065524778930711,-0.005581637657810844,-0.004611673135338745,0.0023516509334583612
1765409040.136234,-10.022855619008258,-0.008760369443723229,0.31114524750273365,-0.0056317240726328766,-0.0049329879347100244,0.0023557657737357934
1765409040.136401,-10.025190090429724,-0.0033059064587075185,0.31610243867528387,-0.005694212422274205,-0.0052827142828154984,0.002312871753938967
1765409040.136568,-10.0259390713715,0.0016630092920876052,0.32121482126688894,-0.005771434514380127,-0.005658611657551046,0.0022242205271522744
1765409040.136734,-10.02493616524739,0.006226894737959118,0.32628317296010384,-0.005866328888265585,-0.006056544363852041,0.002092274284771473
1765409040.136898,-10.022098496629226,0.010447594549903226,0.33112398051594216,-0.00598193181712374,-0.006470728333036082,0.0019206709204684762
1765409040.137098,-10.017426760567282,0.014362212752625654,0.3355743253574338,-0.0061208886700408255,-0.006894067157350803,0.0017141439478019864
1765409040.137298,-10.01100138466555,0.017978594502235944,0.3394961600812819,-0.006285027036303733,-0.0073185378917573415,0.001478394896461147
1765409040.137498,-10.002975640634752,0.02127271529647929,0.34278019439149426,-0.00647501878954829,-0.007735590594057262,0.001219915320877958
1765409040.137698,-9.993566453052015,0.024188424101342663,0.3453494847353239,-0.006690149733547673,-0.008136533115006141,0.0009457569574652147
1765409040.137938,-9.983043356006293,0.026639932360135756,0.3471624491889796,-0.006928210269953609,-0.008512882173208045,0.0006632538344033073
1765409040.138138,-9.971715743905097,0.0285172660083035,0.3482145999786832,-0.007185512669803251,-0.008856671170386543,0.0003797086083947571
1765409040.138338,-9.959918533739083,0.029694656680138515,0.34853816554969486,-0.007457028554838164,-0.009160712240675906,0.00010206418547092512
1765409040.138538,-9.947996680249027,0.03004153999748894,0.3481991093088171,-0.007736628141035961,-0.009418813915361578,-0.00016341266958106823
1765409040.138738,-9.936289412142914,0.029435424487662763,0.3472915925351203,-0.008017394992016381,-0.009625957554985593,-0.0004114079673988053
1765409040.138934,-9.92511523986303,0.0277754559153458,0.34593029692920935,-0.008291987942094353,-0.009778435753287908,-0.0006377709845357079
1765409040.139134,-9.914758611141737,0.024995202664928613,0.34424110986236095,-0.008553024439398815,-0.009873953813184717,-0.0008396336538971592
1765409040.139334,-9.905458755303183,0.021073166424365866,0.34235070920927,-0.00879346444315386,-0.009911692216487262,-0.00101541825544884
1765409040.139534,-9.897401051880719,0.016039753290040874,0.34037581162442243,-0.009006978624754155,-0.009892325701982571,-0.0011647258540980379
1765409040.139734,-9.890711293644806,0.00997981206430928,0.33841321863651574,-0.009188287064451331,-0.009817993186370569,-0.001288119186000258
1765409040.139916,-9.885453327977821,0.0030303133428199684,0.3365320111531797,-0.009333454086662816,-0.009692211430418462,-0.0013868343891402445
1765409040.140116,-9.881630511378491,-0.004626684911615062,0.33476909019571327,-0.009440121779351184,-0.009519725830247218,-0.0014624673753296086
1765409040.140316,-9.87919113435948,-0.01277502353454388,0.33312880258610283,-0.009507660446261465,-0.009306297969013938,-0.0015166813582173186
1765409040.140516,-9.878037609362698,-0.021178110494332696,0.3315868377346473,-0.009537210810714864,-0.009058442123410854,-0.001550976239152448
1765409040.140716,-9.878038890825794,-0.029593725160978288,0.3300980608713999,-0.00953159356857865,-0.008783135768587056,-0.0015665507922130802
1765409040.140986,-9.879045253961063,-0.037788379796038746,0.3286074095121095,-0.009495071042012707,-0.008487534811385884,-0.0015642735133131471
1765409040.141186,-9.880904084508936,-0.045549826511118226,0.3270623631701559,-0.009432965119863693,-0.008178721093108592,-0.0015447575893438245
1765409040.141386,-9.883474848505342,-0.052696638228309146,0.32542498168159417,-0.009351161830908932,-0.007863502062691973,-0.0015085148279940027
1765409040.141586,-9.8866412656883,-0.05908428658579927,0.3236814730242437,-0.009255557485791347,-0.007548274780633863,-0.0014561492766708012
1765409040.141786,-9.89031910480602,-0.06460771174008659,0.3218478601076889,-0.009151515971497935,-0.007238957791985453,-0.0013885472666239774
1765409040.142015,-9.894458765552269,-0.0692008823485311,0.319971249174888,-0.009043407610441818,-0.006940981883234102,-0.001307026604670488
1765409040.142265,-9.899042528290583,-0.07283413140181821,0.3181269491159255,-0.008934288103788025,-0.006659316594596108,-0.0012134207577385412
1765409040.142515,-9.90407685455318,-0.0755100638647569,0.31641204251603966,-0.008825754886393734,-0.006398501843782253,-0.001110089426628329
1765409040.142765,-9.909580551887702,-0.07725862984608198,0.31493615511227363,-0.008717992114603557,-0.00616265877428221,-0.0009998598012407316
1765409040.142987,-9.91557018177365,-0.07813170139949288,0.3138103699687468,-0.008609989834250464,-0.005955467950993768,-0.0008859100181188756
1765409040.143187,-9.922044710006414,-0.07819733873963296,0.3131355140277855,-0.008499902199314268,-0.00578011768169275,-0.0007716083982105132
1765409040.143387,-9.92897169686971,-0.07753393025940405,0.3129912046326773,-0.008385495782072079,-0.005639232504196992,-0.0006603216943734888
1765409040.143587,-9.936276998585917,-0.07622446885556446,0.31342688817029585,-0.008264631960527607,-0.005534789194451256,-0.0005552058761783568
1765409040.143787,-9.943839153734956,-0.07435129768281833,0.31445569377979676,-0.008135726435168213,-0.005468020901386757,-0.0004589960346626832
1765409040.143925,-9.951488872290092,-0.07199169551405676,0.3160515494119009,-0.00799813283943446,-0.005439309354492804,-0.000373817086830538
1765409040.144125,-9.959013674647633,-0.06921466871229041,0.3181498382569235,-0.007852405480883628,-0.005448074217294852,-0.00030103999512208745
1765409040.144325,-9.966167554652092,-0.06607922931302888,0.32065172757364924,-0.007700410038916813,-0.00549268020726749,-0.00024120531531279313
1765409040.144525,-9.972685136506671,-0.06263423291074204,0.323431887230681,-0.007545271921565813,-0.005570386512126377,-0.0001940266599608288
1765409040.144725,-9.978299106847606,-0.05891959536173601,0.32634869812150447,-0.007391176866817261,-0.005677357410940127,-0.0001584735375857209
1765409040.144977,-9.982759163939313,-0.054968548989102826,0.32925566526248123,-0.007243059802354612,-0.00580874392257894,-0.00013292031424324438
1765409040.145177,-9.985850697910879,-0.050810597474125065,0.33201286214257025,-0.0071062293257228865,-0.005958838236103844,-0.0001153406308610837
1765409040.145377,-9.987411730422016,-0.04647488728577865,0.33449757854262036,-0.0069859757624371925,-0.006121294311971833,-0.00010352570103033671
1765409040.145577,-9.987346865806627,-0.04199370948182483,0.3366134663400762,-0.006887204568379788,-0.006289398550149404,-9.530649425316393e-05
1765409040.145777,-9.98563702303573,-0.0374057706730313,0.33829732262981493,-0.006814126893118954,-0.006456367534598387,-8.875992041924247e-05
1765409040.145985,-9.982343834044752,-0.032758813237314985,0.3395226374553826,-0.006770026670775944,-0.006615648657627935,-8.237902201344885e-05
1765409040.146185,-9.977608095204651,-0.028111204289311013,0.3402995090348091,-0.00675711145821738,-0.006761202537289061,-7.519105016317412e-05
1765409040.146385,-9.971642444477533,-0.023532261318181282,0.34067128814393693,-0.006776445695378484,-0.006887751514135883,-6.681545373760154e-05
1765409040.146585,-9.9647191143647,-0.019101278973381434,0.3407087837340655,-0.006827959534414543,-0.006990985575141139,-5.7461493545142754e-05
1765409040.146785,-9.957153875405654,-0.014905385476149792,0.3405027205334137,-0.006910520058428887,-0.007067723112056586,-4.787000329198879e-05
1765409040.146974,-9.949287202566769,-0.011036447144880744,0.3401546739025324,-0.007022043422541501,-0.007116024034101486,-3.920882786664491e-05
1765409040.147174,-9.941463621692114,-0.007587266338573209,0.33976652173268496,-0.0071596204372608285,-0.007135246992346016,-3.293752272669577e-05
1765409040.147374,-9.934010384454934,-0.004647313326286893,0.3394288293161056,-0.007319629713060766,-0.007126038892535767,-3.0659122057808047e-05
1765409040.147574,-9.927216971630317,-0.0022982166438847125,0.339209224134744,-0.0074978228086475,-0.007090250565810888,-3.397288850072693e-05
1765409040.147774,-9.921317119868851,-0.0006092164823856184,0.3391422362272935,-0.0076893815481269044,-0.007030785608146005,-4.4336594671063494e-05
1765409040.147896,-9.916474951638678,0.00036721737662205405,0.3392220979521516,-0.007888963777385839,-0.006951403337245832,-6.294428396024136e-05
1765409040.148096,-9.912776475877529,0.0005993449761037131,0.3393997565321992,-0.00809076529969104,-0.0068565056990324835,-9.062402659484524e-05
1765409040.148296,-9.910227340454385,7.931877307534985e-05,0.3395849445289322,-0.008288628426408273,-0.006750936384081878,-0.0001277572351211804
1765409040.148496,-9.908757186567588,-0.001174905096626244,0.3396534864082241,-0.008476219525789771,-0.006639806623037724,-0.00017421801807404063
1765409040.148696,-9.90823020546837,-0.0031193021452183517,0.3394591342093461,-0.008647280876564698,-0.006528344142870449,-0.0002293306350176812
1765409040.148974,-9.908460724295303,-0.005685369575528506,0.3388484954814365,-0.008795941782790489,-0.006421751826661447,-0.0002918450838676036
1765409040.149174,-9.909232186539228,-0.008783557905344205,0.33767740661355555,-0.008917057545047536,-0.006325063317320004,-0.00035993338053298544
1765409040.149374,-9.910317811174638,-0.012308329109856702,0.33582730997503063,-0.009006537314102964,-0.006242986261682514,-0.00043121226254842245
1765409040.149574,-9.911501232779214,-0.016144439955965425,0.33322035655307025,-0.009061623280597423,-0.00617972538863571,-0.0005028021398266007
1765409040.149774,-9.91259533855484,-0.020173882171892366,0.32983187210664994,-0.009081090818952987,-0.006138781375208824,-0.0005714343448733251
1765409040.150013,-9.913457507089797,-0.024282787215608892,0.32569879106529054,-0.00906534845991545,-0.006122731663055964,-0.0006336149823874874
1765409040.150213,-9.913999797155904,-0.028367550228363313,0.32092299232766436,-0.009016426179981302,-0.006133013153930314,-0.0006858431038196081
1765409040.150413,-9.914193267451296,-0.032339488551044474,0.31566901872822306,-0.00893785088109807,-0.006169737675241172,-0.0007248675742173268
1765409040.150613,-9.914066202190984,-0.036127564169232754,0.3101560824828858,-0.008834420065545193,-0.006231575670069079,-0.0007479570075015497
1765409040.150813,-9.91369645053319,-0.0396790348915399,0.3046445579036909,-0.008711897193123545,-0.006315741872548916,-0.000753154258429785
1765409040.151075,-9.91319856998796,-0.04295824460079201,0.299417661381648,-0.008576660469440615,-0.006418108639320695,-0.0007394898658676753
1765409040.151275,-9.912707144408103,-0.0459440039866441,0.2947598124062376,-0.008435337563158658,-0.006533455799584896,-0.0007071332695229076
1765409040.151475,-9.91235830169845,-0.04862610313257883,0.2909338957303907,-0.00829445377293718,-0.00665584089933253,-0.0006574640413951695
1765409040.151675,-9.91227170590817,-0.051001467937871116,0.2881598695789126,-0.008160114270287618,-0.0067790489025143525,-0.0005930488075814799
1765409040.151875,-9.912535050756354,-0.05307039361076155,0.2865968377681378,-0.008037734413690748,-0.00689706703269044,-0.00051751557873336
1765409040.152055,-9.913192611572073,-0.05483321376644341,0.2863301385448965,-0.007931827374556456,-0.007004531794451839,-0.00043532759460699553
1765409040.152255,-9.914239000480066,-0.05628770487695368,0.28736449851560203,-0.007845856341226606,-0.0070971040283110826,-0.00035147270234756213
1765409040.152455,-9.915618884581674,-0.05742746820932018,0.28962386623263753,-0.007782157139778958,-0.007171736116177214,-0.00027109780616153275
1765409040.152655,-9.917232839289685,-0.05824145337241758,0.2929579829925505,-0.007741932495544821,-0.007226804208978083,-0.00019912623069428975
1765409040.152855,-9.918948651008005,-0.058714667658255705,0.2971549830927116,-0.007725310628037846,-0.0072620947333262645,-0.00013989688605552588
1765409040.153088,-9.92061650819085,-0.058829954152193026,0.3019585572860842,-0.007731452043191712,-0.007278659082719973,-9.685961208404522e-05
1765409040.153288,-9.92208600570136,-0.05857057258008381,0.30708781749295416,-0.007758684349196338,-0.007278572089094467,-7.235357723394427e-05
1765409040.153488,-9.923222917771136,-0.057923251214819914,0.3122580956346534,-0.007804647808476252,-0.0072646370973303365,-6.748585907201453e-05
1765409040.153688,-9.923924108344348,-0.05688139260042959,0.3172012204230561,-0.007866441149413842,-0.007240075006374245,-8.211541791064447e-05
1765409040.153888,-9.924129385564704,-0.05544812351696989,0.32168394521457166,-0.007940762251954633,-0.0072082278548027115,-0.0001149351459080446
1765409040.154009,-9.923829350150324,-0.053638829037388897,0.32552309344132235,-0.00802403871613408,-0.007172305568245802,-0.000163634045824463
1765409040.154209,-9.923068441965041,-0.051482775844345206,0.3285960112405476,-0.008112542069300678,-0.007135202676248078,-0.00022511525112606134
1765409040.154409,-9.92194269496243,-0.049023528425767696,0.33084539794791734,-0.008202482527406633,-0.007099402782096073,-0.0002957455498495326
1765409040.154609,-9.92059221299451,-0.04631808892969962,0.33227839712592755,-0.00829009006055588,-0.007066971639587077,-0.00037161825891931355
1765409040.154809,-9.919188894333024,-0.0434349041359299,0.33296054141363507,-0.008371695562500517,-0.007039621498387872,-0.00044881943687716513
1765409040.154906,-9.91792032228232,-0.04045096675268771,0.3330055059919482,-0.008443826499135722,-0.007018817722221662,-0.0005236908414467651
1765409040.155106,-9.916971085418782,-0.037448227366562226,0.33256178725766455,-0.008503325448827878,-0.0070058964507210015,-0.0005930787705314785
1765409040.155306,-9.916503230961686,-0.03450952978185234,0.3317976660610575,-0.008547492791018277,-0.007002165835930598,-0.0006545506152763998
1765409040.155506,-9.91663800320326,-0.03171431608209617,0.33088616830837225,-0.008574248099202134,-0.007008967288705464,-0.000706558475053457
1765409040.155706,-9.917441154165564,-0.029134371202020396,0.32999190681438567,-0.008582296258232359,-0.007027674898789942,-0.0007485342818197065
1765409040.155958,-9.918913683230798,-0.02682985953334801,0.32926137286472906,-0.008571274222052663,-0.007059613865268132,-0.0007809092738012684
1765409040.156158,-9.920988990192305,-0.02484587161426511,0.3288174895877062,-0.008541848378732585,-0.007105886977582633,-0.0008050574111289371
1765409040.156358,-9.923536534859428,-0.023209679482356468,0.32875840354200175,-0.008495736867239354,-0.007167113243644875,-0.0008231674054449252
1765409040.156558,-9.92637147819706,-0.021928894862832123,0.32915984853146335,-0.008435645435386021,-0.0072431011024445,-0.000838054168942685
1765409040.156758,-9.929269344978643,-0.020990709420268285,0.3300799290134323,-0.008365122296585068,-0.007332493963270414,-0.0008529273027691702
1765409040.156936,-9.93198428720222,-0.02036235489324493,0.33156474443218753,-0.008288349838767752,-0.007432434289983343,-0.0008711374448249913
1765409040.157136,-9.934269117147611,-0.01999286783678241,0.3336530748780302,-0.0082098966262304,-0.0075382948733825105,-0.0008959183870289991
1765409040.157336,-9.935895231524128,-0.019816189946025034,0.33637866780811054,-0.008134452662108462,-0.007643522881450599,-0.0009301370334400085
1765409040.157536,-9.936670949525652,-0.0197555478105752,0.33976948131896845,-0.008066565967544853,-0.007739631934864825,-0.0009760595306645769
1765409040.157736,-9.93645729717684,-0.01972891152370597,0.34384410499956153,-0.008010391979269357,-0.007816360933365525,-0.0010351416634992233
1765409040.157907,-9.935180521619746,-0.019655192682403195,0.3486061023539263,-0.007969462462826689,-0.007862001735754262,-0.0011078531359807805
1765409040.158107,-9.932840649223476,-0.019460796498510034,0.3540372466366499,-0.007946478940607732,-0.007863885172472794,-0.0011935475625534462
1765409040.158307,-9.929515478460884,-0.019086167568443346,0.3600907789141789,-0.007943135686594601,-0.007809003045731743,-0.0012903929526078498
1765409040.158507,-9.925359559440254,-0.018491954848338682,0.3666858718813873,-0.007959978424250143,-0.007684728156207929,-0.0013953797729147957
1765409040.158707,-9.920597776367945,-0.017664327999207648,0.3737042554872592,-0.00799630868444979,-0.007479578730268493,-0.0015044220358196754
1765409040.159007,-9.91551314733518,-0.016618878299240858,0.38098954044786204,-0.008050149841085527,-0.0071839682208809956,-0.0016125595997224004
1765409040.159207,-9.910428697555528,-0.015402510487005359,0.3883494977077152,-0.008118292986740043,-0.0067908899632444395,-0.0017142589284346347
1765409040.159407,-9.90568389794762,-0.014092774148321817,0.39556149522504974,-0.008196433570875733,-0.006296499115286528,-0.0018037977880554685
1765409040.159607,-9.901606954107935,-0.012794151825287849,0.40238110272515687,-0.008279396214985565,-0.005700560117237995,-0.0018757073844806367
1765409040.159807,-9.89848492220612,-0.011630918155279162,0.40855329394952145,-0.008361433967950077,-0.005006727165013749,-0.0019252329475193022
1765409040.160089,-9.896534322934446,-0.010736385655615244,0.4138250503419499,-0.008436583867351537,-0.004222628436965077,-0.001948762683537946
1765409040.160289,-9.895875811130578,-0.01023880820848342,0.41795810194233907,-0.008499059535506183,-0.0033597368695132968,-0.001944168821389819
1765409040.160489,-9.89651710385615,-0.010245122337683425,0.42074107409674183,-0.008543657715631578,-0.002433023843645577,-0.0019110056326944078
1765409040.160689,-9.898347718359025,-0.010825048819934662,0.4220007190222311,-0.008566148322908779,-0.0014604008244946604,-0.0018505222733152746
1765409040.160889,-9.901146740571896,-0.011999170484715858,0.42161158300002133,-0.008563612164609475,-0.0004619661275698241,-0.001765480887965267
1765409040.160955,-9.904602214962555,-0.01373428901610893,0.41950296305445284,-0.008534691310544,0.0005408988472573414,-0.0016598191926031874
1765409040.161205,-9.908339706966638,-0.015947172924451563,0.4156626168364524,-0.00847972231862665,0.0015265098644929296,-0.0015382352837013228
1765409040.161455,-9.91195801928185,-0.01851484870430545,0.4101383656625262,-0.008400730989120574,0.0024738621088808968,-0.0014057737764596278
1765409040.161705,-9.915069821912429,-0.02128785995169344,0.4030395156522934,-0.008301284439275908,0.003363573136992755,-0.0012674599584292909
1765409040.161984,-9.917343002458438,-0.024103559755170412,0.3945384372551154,-0.008186221868139774,0.004178769378185849,-0.0011279907180080987
1765409040.162184,-9.91853655700615,-0.02679863348361953,0.3848699822448725,-0.008061303078341877,0.004905879245824798,-0.00099147514820213
1765409040.162384,-9.9185251763514,-0.02922145910083954,0.37432548542303656,-0.007932810461883218,0.005535260534170735,-0.0008612343415683163
1765409040.162584,-9.917309482453334,-0.031244212617273507,0.3632399236020488,-0.007807128415455029,0.006061593422509102,-0.0007396984608948224
1765409040.162784,-9.91501220320596,-0.032772855795356035,0.35197364291492517,-0.007690325482910569,0.0064840120519274866,-0.000628435570944961
1765409040.162973,-9.911862706421795,-0.033752712768081165,0.3408916845405598,-0.0075877771834605276,0.006805976171605508,-0.0005282950431935312
1765409040.163173,-9.908173005384954,-0.034169127698307745,0.3303436084560895,-0.007503870972313048,0.007034882645762151,-0.0004395957070184759
1765409040.163373,-9.904308272904167,-0.03404486549829109,0.3206456721766265,-0.007441818945304041,0.007181420711670882,-0.000362293435699977
1765409040.163573,-9.900654678974085,-0.0334361943356373,0.3120661202529103,-0.0074035785222061916,0.007258706796427891,-0.0002961163441705554
1765409040.163773,-9.897587279991747,-0.032427997764162775,0.30481368565647393,-0.007389861592922199,0.007281272617465053,-0.0002406938836937714
1765409040.163989,-9.895440738828974,-0.031126876863956612,0.29902946791100155,-0.007400205756765065,0.007264000250882507,-0.00019569083355825523
1765409040.164189,-9.894485565952703,-0.029651596233811132,0.29478286125320635,-0.007433086477613343,0.007221100530413585,-0.0001609170519970135
1765409040.164389,-9.894911967223946,-0.028121943878525707,0.2920723299414924,-0.0074860608524941865,0.007165222445564878,-0.0001363700892994588
1765409040.164589,-9.896822219254924,-0.02664840363489769,0.2908310644088295,-0.0075559431436631325,0.007106759549846353,-0.00012219619690286408
1765409040.164789,-9.900231183765252,-0.02532476458183569,0.290936415378285,-0.007639011387284031,0.007053389411438035,-0.00011859895287281631
1765409040.164956,-9.90507362724845,-0.024224186215734175,0.2922214585231697,-0.007731235295055223,0.007009856709374025,-0.00012574636608132835
1765409040.165156,-9.91121663739282,-0.02339768286689528,0.29448740004621293,-0.007828508013842689,0.006977991979248712,-0.00014371052304437676
1765409040.165356,-9.918475483019211,-0.02287369954008524,0.2975162307791387,-0.007926863067447176,0.006956937050363595,-0.00017243433238174163
1765409040.165556,-9.926631448541448,-0.02265841101029767,0.30108340365311925,-0.008022659811985862,0.0069435261146374196,-0.00021169268927376519
1765409040.165756,-9.935450212021173,-0.02273746090718081,0.30497017837425705,-0.008112723387495387,0.006932762129162659,-0.000261024039558419
1765409040.165916,-9.94469916815169,-0.023079942005520108,0.3089748813279497,-0.008194430442595496,0.0069183355806166314,-0.0003196435303372494
1765409040.166116,-9.954161971016939,-0.023644386401192374,0.3129220052558844,-0.008265740960250366,0.006893144049235438,-0.0003863774239651168
1765409040.166316,-9.963648792357805,-0.024385331855125997,0.31666809109811034,-0.00832518594850683,0.006849778563265802,-0.00045965262690004474
1765409040.166516,-9.973001373174059,-0.025258790576745977,0.3201037308232513,-0.008371826330411681,0.006780951345597427,-0.0005375386123627182
1765409040.166716,-9.98209267906759,-0.02622590832904829,0.3231516029686403,-0.00840519913129153,0.00667985113566574,-0.0006178061437672735
1765409040.166997,-9.99082174400557,-0.027255340391037348,0.3257610290145378,-0.008425264474056254,0.006540419914799017,-0.0006979707573883079
1765409040.167197,-9.999105089242217,-0.028325208469251205,0.32790011119287854,-0.008432362202677023,0.006357548284058211,-0.0007753250377781033
1765409040.167397,-10.00686675256218,-0.029424701589262914,0.329547008100703,-0.008427181546746857,0.006127196369066999,-0.0008469962856922882
1765409040.167597,-10.01402914602335,-0.030554359590343413,0.3306820602740397,-0.008410742694660123,0.005846464713838658,-0.000910065233479504
1765409040.167797,-10.020506583964517,-0.031723961015919795,0.3312821572835733,-0.008384384726981473,0.005513649184604592,-0.000961749465412499
1765409040.167965,-10.026202652704187,-0.032947982856788516,0.33131819932760354,-0.008349748019232703,0.005128302367525624,-0.0009996192103024154
1765409040.168165,-10.031011958661798,-0.0342399607766702,0.33075609205430073,-0.008308733179876036,0.004691300577752647,-0.0010217996673786511
1765409040.168365,-10.034826220035038,-0.0356076045099016,0.32956135866358854,-0.008263419776830509,0.004204900122927148,-0.0010271294432027931
1765409040.168565,-10.03754394472616,-0.03704981481633415,0.32770681652470657,-0.008215940165964993,0.0036727647501825318,-0.0010152720751785908
1765409040.168765,-10.039082057892823,-0.03855548015344355,0.3251818763448863,-0.008168321571742158,0.003099948384228582,-0.000986791424386604
1765409040.171027,-10.039387214663419,-0.04010318432310619,0.3220014486799138,-0.008122323514981605,0.0024928166897296633,-0.0009431913849840414
1765409040.174065,-10.038444570329334,-0.0416612405320826,0.31821261258438116,-0.008079300746547634,0.0018588936215213543,-0.0008869007139863561
1765409040.176042,-10.036282419045977,-0.043188320498152244,0.3138978449329252,-0.008040113209086331,0.0012066313129644615,-0.000821179337221951
1765409040.178984,-10.0329719670411,-0.044635436436484516,0.3091741975586525,-0.008005089721424611,0.0005451177231610894,-0.0007499418118453804
1765409040.181994,-10.028622368313762,-0.04594966251229236,0.30418829240050166,-0.007974040337931308,-0.00011625491236885683,-0.0006775212531382152
1765409040.183893,-10.023372025510593,-0.04707910643891796,0.2991076554859061,-0.00794631019299256,-0.0007681394599112995,-0.0006084103010684303
1765409040.185885,-10.017377891544156,-0.0479780137261602,0.2941096354425317,-0.007920872579388038,-0.0014015843639907286,-0.0005470075732553759
1765409040.188875,-10.010804748549493,-0.0486109182813045,0.2893695208560878,-0.00789646167904457,-0.0020083689733598055,-0.0004973813521523097
1765409040.190932,-10.003816061482091,-0.048955281958988336,0.2850493515220652,-0.007871739345432099,-0.002581304394509535,-0.0004630535501374569
1765409040.193907,-9.99656729691936,-0.049002659414812744,0.2812885966320435,-0.007845478434465418,-0.0031144796061063898,-0.0004468111188495338
1765409040.196949,-9.98920193886911,-0.04875872985880032,0.27819754769312643,-0.007816735922822787,-0.0036034372245235054,-0.0004505613367733034
1765409040.198886,-9.981849894082426,-0.04824245201499369,0.27585380164017903,-0.007784988256594421,-0.0040452714058728185,-0.0004752503377411372
1765409040.200897,-9.974627448631175,-0.04748430689865258,0.2743014743748822,-0.007750208048450682,-0.004438647625879972,-0.0005208546737823066
1765409040.201874,-9.967637543679462,-0.04652343714494319,0.27355214374694337,-0.007712871615988792,-0.004783748614427802,-0.0005864376420881171
1765409040.205939,-9.960969255424281,-0.04540369787599359,0.2735865452198156,-0.007673899603599425,-0.005082152504894178,-0.000670247060048322
1765409040.206864,-9.954696095758635,-0.044169104259739675,0.27435674570289026,-0.007634547309519409,-0.005336648406735046,-0.0007698286987171451
1765409040.210944,-9.948873645508655,-0.04285954269640964,0.2757892089706371,-0.007596272381952767,-0.005550993408173188,-0.0008821393003711862
1765409040.213928,-9.943537498893077,-0.04150760454313421,0.27778924470843547,-0.00756060845066487,-0.0057296184667923085,-0.0010036568391173565
1765409040.215958,-9.938702376798652,-0.0401369974961668,0.2802469271936055,-0.007529063329565287,-0.005877300098009257,-0.0011304957279670313
1765409040.218872,-9.934362849940403,-0.038762455977146,0.28304417897646994,-0.007503046963425616,-0.005998822924516361,-0.001258537114246503
1765409040.220865,-9.930495693291775,-0.037390735008762326,0.2860625320758082,-0.007483825187586617,-0.006098656570911866,-0.0013835785912367738
1765409040.223886,-9.92706350896584,-0.03602228701596434,0.28919090590400454,-0.007472492625791416,-0.006180661639570306,-0.0015014985227980817
1765409040.225906,-9.924018920011129,-0.034653448526424525,0.29233250363062757,-0.007469959550856146,-0.006247835616835834,-0.0016084266683197774
1765409040.228866,-9.921308551405843,-0.0332790977996041,0.29540991203890377,-0.007476950759953134,-0.006302116884994906,-0.001700917317655839
1765409040.23087,-9.918876299880456,-0.03189561721720983,0.29836785775715524,-0.007494016374189961,-0.006344275219874753,-0.0017761250092624488
1765409040.233892,-9.91666582349024,-0.0305037340269356,0.30117353906046296,-0.00752155241164316,-0.006373916370044767,-0.0018319773636421076
1765409040.234874,-9.914622457416533,-0.02911068966052887,0.3038147637838021,-0.007559824724447385,-0.006389612440628829,-0.001867326912042118
1765409040.236938,-9.912694892980365,-0.027731337933865025,0.3062964308535974,-0.007608987790770009,-0.006389147131947353,-0.0018820545491557102
1765409040.240891,-9.91083705449769,-0.0263880838650417,0.30863626950511874,-0.007669090935849693,-0.006369845428630316,-0.0018771000924953985
1765409040.24394,-9.909010516220048,-0.025109822581545798,0.3108608192417515,-0.007740066217207912,-0.006328943970384765,-0.0018544104422527738
1765409040.245954,-9.907187320211516,-0.023930104524012046,0.31300211690048757,-0.007821693516570664,-0.006263949923658913,-0.0018168143471655514
1765409040.248978,-9.905352452920832,-0.02288469758818493,0.31509485068942156,-0.007913541540399121,-0.006172936134293731,-0.001767844274207042
1765409040.250971,-9.9035050856489,-0.022008665313845658,0.3171734843936943,-0.008014889389759082,-0.00605473511930396,-0.0017115259669691345
1765409040.254051,-9.901658119929113,-0.021333108818073092,0.3192691033909125,-0.00812463940980226,-0.005909021639350773,-0.0016521487521369749
1765409040.25594,-9.899836125640004,-0.020881826570831714,0.32140600076007136,-0.008241235254245319,-0.005736299836139765,-0.001594022692620135
1765409040.259035,-9.898072021822193,-0.02066827313770782,0.323598091385239,-0.0083625998387918,-0.005537825891079447,-0.0015412285707300031
1765409040.260989,-9.896402977961603,-0.020693258063012948,0.32584541625999375,-0.008486108244476804,-0.0053155010854172334,-0.0014973728861794754
1765409040.263942,-9.894866234819114,-0.02094373996842929,0.3281313934315884,-0.008608610972485685,-0.00507176505647967,-0.0014653666801614773
1765409040.266014,-9.893495667740904,-0.021392849585535365,0.3304216592098865,-0.008726520883177082,-0.004809504518816669,-0.001447248976679495
1765409040.268945,-9.892319697270008,-0.02200106404210551,0.3326650504949918,-0.008835970728405258,-0.00453197351065628,-0.0014440719796311003
1765409040.270881,-9.89136079328864,-0.02271840318621209,0.33479687803766955,-0.008933038693346293,-0.004242707799956773,-0.0014558578417102497
1765409040.273968,-9.890636623427628,-0.023487582691983352,0.33674447767970567,-0.009014029584455767,-0.003945414183986831,-0.0014816290703513907
1765409040.275912,-9.890162712856814,-0.02424803714899588,0.33843479093027934,-0.009075790334957456,-0.0036438227772805643,-0.0015195092472930975
1765409040.278881,-9.889956011326792,-0.0249405261823352,0.3398030517054487,-0.00911603038590275,-0.0033415039909566184,-0.0015668878142136734
1765409040.281904,-9.890038218687623,-0.02551179665658274,0.34080093275090656,-0.009133611508906608,-0.0030416698933283318,-0.0016206393465877215
1765409040.283981,-9.890437652037148,-0.02591870407466801,0.34140245967295474,-0.009128769877784135,-0.0027469945455852567,-0.0016773811351128588
1765409040.285922,-9.891188963854884,-0.026131363525173118,0.3416066992879094,-0.009103236953831207,-0.0024594880344924485,-0.0017337438977938148
1765409040.288906,-9.892330702724895,-0.026135184047376442,0.3414370680228093,-0.009060235254200003,-0.0021804424883451927,-0.0017866244288468175
1765409040.290948,-9.893901193719199,-0.025931856372961387,0.3409376802719422,-0.009004339363526223,-0.001910449263032068,-0.0018333921065717125
1765409040.293922,-9.895933550288374,-0.025539410214880227,0.34016757628459016,-0.008941208899999218,-0.0016494786121183306,-0.0018720345476228232
1765409040.296868,-9.898450836372955,-0.0249913521552097,0.3391939733397599,-0.008877215385076007,-0.0013970136348536069,-0.0019012446451872802
1765409040.297368,-9.901462219118683,-0.024334751943779483,0.33808556089162994,-0.008818996989562705,-0.0011522269489860418,-0.0019204615976437722
1765409040.301935,-9.904960327864714,-0.023627129958001522,0.3369062674953568,-0.008772982116812308,-0.0009141803305371953,-0.0019298771884334273
1765409040.304984,-9.908919476294555,-0.022932216120171937,0.3357094729753171,-0.008744923523663755,-0.0006820253310602419,-0.001930410129126552
1765409040.305908,-9.913294460903554,-0.02231500254460477,0.3345328567607382,-0.008739480676098978,-0.0004551901875046456,-0.0019236458705232885
1765409040.308963,-9.918020159288515,-0.02183674076023016,0.33339462972639333,-0.008759882381998369,-0.00023354568561636459,-0.0019117426771729142
1765409040.310926,-9.92301243567877,-0.021550466861059867,0.33229199926396863,-0.008807695568708135,-1.7543039077076107e-05,-0.0018973128097843663
1765409040.313882,-9.92817058368215,-0.021497356755406826,0.3312021344103626,-0.008882718108380138,0.00019168537213904007,-0.001883291475684716
1765409040.316942,-9.933381038947264,-0.021703968435786175,0.33008517538104354,-0.008983002874339455,0.00039227032830880577,-0.0018728012809981942
1765409040.319018,-9.938521875181229,-0.02218040713923268,0.3288885634191444,-0.009105007829843482,0.0005815992698478748,-0.0018690096951555297
1765409040.320947,-9.943467760245891,-0.022919614157115988,0.32755218772348327,-0.009243855069140284,0.0007563608186034867,-0.0018749698963605637
1765409040.323926,-9.948095335198282,-0.023898097356932796,0.3260141761979322,-0.009393672023728759,0.0009126421020334678,-0.0018934382709162774
1765409040.325024,-9.952289120186027,-0.025078288250559477,0.32421729444786473,-0.009547981995137915,0.0010460793305881037,-0.0019266745617557196
1765409040.328995,-9.95594798709756,-0.026412354621364,0.3221158629843501,-0.009700110369641185,0.0011520568179541723,-0.0019762453833524077
1765409040.330971,-9.958992055056099,-0.027846933021737304,0.31968296165016846,-0.009843577322386188,0.0012259429614241433,-0.0020428590611966764
1765409040.333892,-9.961369594483823,-0.0293280719251041,0.3169174188683728,-0.009972455177178393,0.0012633494606410622,-0.002126255405489874
1765409040.335007,-9.96306312629372,-0.030805747695720403,0.3138496126490051,-0.010081676046940602,0.0012604036257617308,-0.002225161867983805
1765409040.338969,-9.964093508461163,-0.0322375287755379,0.31054470969018055,-0.01016728144675476,0.0012140257564047714,-0.0023373160550834685
1765409040.339934,-9.964520798558507,-0.033591144299316665,0.3071021497902395,-0.010226609829325939,0.00112219670092006,-0.002459550261161122
1765409040.342519,-9.96444127290769,-0.03484576092481498,0.30365103170283114,-0.010258419887962526,0.0009841888174332207,-0.0025879355007742758
1765409040.345011,-9.963980830360198,-0.03599174911685973,0.30034197209066943,-0.010262946434596628,0.000800728906846636,-0.002717983286270101
1765409040.347096,-9.963285599796723,-0.03702880499553844,0.29733642589236375,-0.01024188359343882,0.0005740695685766336,-0.0028448972728823017
1765409040.350986,-9.962510833416848,-0.0379626162330401,0.2947945289761102,-0.010198291708857284,0.0003079602591145926,-0.002963855392639979
1765409040.353984,-9.961809350265531,-0.038800736705074716,0.29286268295626383,-0.010136431733193587,7.525377755354708e-06,-0.0030702940788302387
1765409040.355944,-9.96132086405589,-0.03954867666812069,0.2916622615964575,-0.0100615390588449,-0.00032092800168322496,-0.0031601665265382772
1765409040.358913,-9.961163188209111,-0.04020717160987568,0.2912805809757411,-0.009979551639295448,-0.0006701413597454809,-0.0032301561515133133
1765409040.360033,-9.961425621932745,-0.04077116881770072,0.2917647010083668,-0.009896804628151241,-0.0010321499537286705,-0.003277838017704489
1765409040.363897,-9.962164301291057,-0.04123048970442301,0.29311818697954967,-0.009819699892390935,-0.001398537095885562,-0.00330178904336682
1765409040.365938,-9.963399218432746,-0.04157164821740676,0.2953007779358529,-0.00975435744019565,-0.0017607110604353133,-0.0033016506638193863
1765409040.368987,-9.965112672771271,-0.04178011687085893,0.29823063172144454,-0.009706259096566716,-0.002110221749433989,-0.0032781471633264096
1765409040.371022,-9.96724888714811,-0.04184248421866146,0.30178840987319855,-0.00967990151099023,-0.002439122959517501,-0.0032330620151810718
1765409040.374004,-9.96971468065934,-0.04174829042823406,0.30582248815507496,-0.009678480944481833,-0.0027403667305521922,-0.003169175143001597
1765409040.374504,-9.972381637292077,-0.04149156824740427,0.3101552566848193,-0.009703633006734927,-0.0030081934130998167,-0.003090165074656816
1765409040.378998,-9.975090663727054,-0.04107208245053661,0.3145910899731112,-0.009755249400684757,-0.00323846233074172,-0.0030004786741372417
1765409040.38099,-9.977659575478029,-0.04049608548839386,0.3189263515354734,-0.009831395282682166,-0.003428867086849422,-0.0029051668059678648
1765409040.383964,-9.97989352694853,-0.03977637059611246,0.3229609850286263,-0.009928353592312963,-0.00357900283992058,-0.002809680622004757
1765409040.385011,-9.981597410577576,-0.038931615512518385,0.32651066512829874,-0.010040818594681302,-0.003690286504346996,-0.0027196251224170234
1765409040.389001,-9.98258913738169,-0.03798531360240065,0.32941844091727224,-0.010162243521514593,-0.003765752943487393,-0.0026404752337302476
1765409040.391085,-9.98271271635916,-0.036964729925594124,0.3315649385731933,-0.01028532009293243,-0.003809753331922838,-0.0025772711460471105
1765409040.392066,-9.981850012447058,-0.03590015356465135,0.3328762428998718,-0.010402542365875433,-0.0038275778164316614,-0.0025343192765490113
1765409040.395935,-9.979930103443243,-0.034824329798457246,0.33332873518406425,-0.010506793663922686,-0.0038250277927196845,-0.0025149294879076305
1765409040.399001,-9.976935450264252,-0.03377163974893968,0.332950552915087,-0.010591895805373537,-0.0038079737821589414,-0.002521215761787495
1765409040.399911,-9.97290448781417,-0.03277663515855187,0.3318196571340285,-0.010653071301439707,-0.0037819415377979802,-0.0025539765709161016
1765409040.403903,-9.967930460421536,-0.03187193482918202,0.33005847568253693,-0.010687285568856984,-0.003751763909956583,-0.0026126582539622513
1765409040.406939,-9.962156424692829,-0.031085938634936396,0.3278250299728616,-0.01069345069470804,-0.0037213225446206593,-0.002695398899490096
1765409040.407439,-9.955766673305831,-0.030440963612360886,0.3253008847433831,-0.010672481685000646,-0.0036933889707424245,-0.0027991547034364704
1765409040.411012,-9.948975500440003,-0.02995214830536878,0.32267716197537627,-0.010627203423288104,-0.0036695623724758457,-0.0029199156108478627
1765409040.413967,-9.942014816646392,-0.02962700981812293,0.3201405298520537,-0.010562117107896953,-0.00365029139648421,-0.003053008125025685
1765409040.41596,-9.93512211993897,-0.029465232287841054,0.31786092146460515,-0.01048304972610852,-0.0036349612542784233,-0.003193459273637107
1765409040.419034,-9.928529758884856,-0.029458370149303387,0.31598196064831285,-0.01039672366813816,-0.003622028924754964,-0.003336372649581292
1765409040.420978,-9.922455812080813,-0.029589588076969382,0.3146143963757173,-0.010310288585136877,-0.0036091979679027946,-0.003477262673940064
1765409040.423945,-9.917096655539392,-0.029833945798182132,0.31383263928252925,-0.010230852199577626,-0.0035936310227182694,-0.003612309466885531
1765409040.425962,-9.912621238602561,-0.030159705362133412,0.313674410245529,-0.010165036980649533,-0.0035721938255794602,-0.003738521767692473
1765409040.429007,-9.909166879912645,-0.030530686144769056,0.3141430915598424,-0.01011858342513994,-0.003541714072113518,-0.003853814735458473
1765409040.429966,-9.906836069010254,-0.030909176649739255,0.31521176086445796,-0.010096020502677178,-0.0034992335619016854,-0.003957016516524369
1765409040.43396,-9.905693706408087,-0.03125874368811338,0.3168276670196087,-0.010100425649740442,-0.003442235846701383,-0.004047814429760885
1765409040.436915,-9.905764559673539,-0.03154658181601584,0.31891628675299455,-0.010133295285188262,-0.003368836924956577,-0.004126646088621441
1765409040.437415,-9.907031114186474,-0.03174553385108811,0.32138466079072553,-0.01019453945883366,-0.003277929120249129,-0.004194541135726758
1765409040.440889,-9.90943214021293,-0.03183612807569947,0.32412400048314116,-0.010282601473208393,-0.0031692719328610154,-0.004252929185260429
1765409040.44398,-9.912862283895967,-0.03180870431313448,0.3270116402168454,-0.010394688121765699,-0.003043531741444049,-0.0043034435769605745
1765409040.445988,-9.917173091574117,-0.03166515073161378,0.3299126140174846,-0.010527082520732145,-0.0029022800718275475,-0.004347756192303651
1765409040.448971,-9.92217609151885,-0.03141938513617153,0.3326814896452617,-0.010675503085827175,-0.0027479590185936244,-0.004387466993134734
1765409040.451012,-9.927648590884425,-0.031095839892451883,0.3351652744060667,-0.010835471041711805,-0.0025838109494033023,-0.004424047746845295
1765409040.453995,-9.9333425139578,-0.030725887450118353,0.33720799379386945,-0.01100265385434999,-0.002413758192815561,-0.004458818229267014
1765409040.456038,-9.938996083377111,-0.030343013405965694,0.3386571209987979,-0.011173160303722996,-0.002242219157108971,-0.004492928533212913
1765409040.458997,-9.944347729783784,-0.029978037014052872,0.3393717093461137,-0.01134377294360177,-0.0020738619450494144,-0.004527333703465699
1765409040.460006,-9.949151373593955,-0.02965548070102541,0.33923185617925494,-0.011512114496808664,-0.0019133159196702825,-0.004562764740758624
1765409040.463993,-9.953191998267306,-0.029391533152932442,0.3381488029830423,-0.011676753407608462,-0.0017648757091986728,-0.00459970824238506
1765409040.465992,-9.956300166408854,-0.029193473251561634,0.3360745789972083,-0.011837256459974027,-0.0016322370258401344,-0.004638401049260771
1765409040.468993,-9.95836396369245,-0.029060264556118064,0.33300988741998117,-0.011994191976406247,-0.0015182994195032096,-0.0046788353845687415
1765409040.470009,-9.959336928349966,-0.02898418778150719,0.32900901515619396,-0.012149078594239594,-0.0014250569941028188,-0.004720766170266847
1765409040.473997,-9.959240829342157,-0.02895348139533026,0.3241807935065813,-0.0123042674245229,-0.0013535769046120832,-0.004763718687132705
1765409040.476007,-9.95816265907583,-0.028955748522523618,0.3186850038550321,-0.01246274518235954,-0.0013040472658498153,-0.004807004462005496
1765409040.479019,-9.956245925522486,-0.02898146153384664,0.3127241978572993,-0.012627855771985812,-0.001275870226856405,-0.004849755734676822
1765409040.479997,-9.95367720347435,-0.029026648166266034,0.30653162973019216,-0.01280295554576263,-0.0012677812968687396,-0.004890979211327689
1765409040.483971,-9.950669667717182,-0.029094120464077507,0.3003565767091907,-0.012991034963339542,-0.0012779844328782357,-0.0049296149424743335
1765409040.486899,-9.947445669396922,-0.02919332441197228,0.2944484994326533,-0.01319434765786753,-0.0013042977798304997,-0.004964580948792402
1765409040.488903,-9.944220298627211,-0.029339484657968293,0.2890413978871928,-0.013414083891832834,-0.0013443063888884444,-0.00499479770858335
1765409040.491943,-9.941187575411758,-0.029552653422083474,0.2843397296446208,-0.013650113276729162,-0.0013955179974462367,-0.005019210775421245
1765409040.493941,-9.938510607756944,-0.029856621796515406,0.2805074302526501,-0.013900808266939466,-0.0014555177513112787,-0.005036844258595072
1765409040.496005,-9.93631655181053,-0.03027709965926751,0.27766140855716037,-0.014162950605535277,-0.0015221172360541217,-0.005046908058058056
1765409040.498978,-9.934696251338618,-0.030838717462317672,0.27586993590097236,-0.014431720505070076,-0.0015934929346210474,-0.005048952338952645
1765409040.500954,-9.933707268530537,-0.03156114876146767,0.275154956303462,-0.014700772855309118,-0.0016683112576687902,-0.005043034332448163
1765409040.503929,-9.933378319385763,-0.03245532079311635,0.27549644895496145,-0.014962412143374836,-0.0017458392619840407,-0.0050298543656628345
1765409040.506981,-9.933713277045925,-0.033520703832105654,0.27683710575578724,-0.015207881986211085,-0.0018260351974161227,-0.00501083188348016
1765409040.50902,-9.934693604117204,-0.0347440854788842,0.2790863812521634,-0.01542778293434259,-0.0019096006300715587,-0.004988113201803738
1765409040.510972,-9.93627880750087,-0.036099553755449425,0.2821237436387729,-0.015612623894610513,-0.001997967478268083,-0.00496451486703881
1765409040.513997,-9.938405142919613,-0.03754912283625821,0.28580143825680887,-0.015753497409110116,-0.002093200637550992,-0.004943405429489237
1765409040.515946,-9.940983469050627,-0.03904366896962454,0.2899474099266176,-0.01584284438341633,-0.0021978176781550255,-0.004928521605807248
1765409040.51893,-9.943897761409362,-0.040524368488202844,0.2943692634996413,-0.015875241490217525,-0.0023145463532804854,-0.004923714326539598
1765409040.522054,-9.947005915492618,-0.041925221636847115,0.2988600666875109,-0.015848114443496288,-0.002446046601081513,-0.0049326336156781635
1765409040.523947,-9.950143844958479,-0.04317713183915753,0.3032063129778299,-0.015762266094319615,-0.002594619715432859,-0.0049583849651119415
1765409040.525942,-9.953132842052598,-0.044213346768742355,0.30719772665882383,-0.015622119479270762,-0.002761925439544663,-0.0050032098516394835
1765409040.528929,-9.955789347421364,-0.04497528445351248,0.3106381759458755,-0.015435613671157785,-0.0029487332381258817,-0.005068244545276314
1765409040.530936,-9.957936004735348,-0.04541748898926378,0.3133568564981489,-0.015213745280855423,-0.0031547405759690303,-0.005153391876303107
1765409040.533959,-9.959412972385723,-0.045510925065630745,0.31521891892237475,-0.014969804659643919,-0.003378488774650747,-0.005257313480798859
1765409040.535923,-9.960088576289566,-0.045244606885326014,0.3161346366607372,-0.014718399299915617,-0.003617392101235918,-0.005377531594498984
1765409040.538909,-9.95986840826759,-0.04462598606289042,0.3160661003815604,-0.014474381663823924,-0.003867872816830043,-0.005510623969687181
1765409040.541949,-9.958702098139902,-0.04368033929734782,0.31503058852785776,-0.014251804011504157,-0.004125572832297873,-0.005652494368550788
1765409040.543971,-9.956587355865882,-0.04244900051259676,0.31310034801957787,-0.014063009498480303,-0.004385599721570934,-0.005798694695176447
1765409040.545073,-9.95357128927013,-0.04098625615418829,0.3103991394746353,-0.013917940410438508,-0.004642766047314233,-0.005944763652967207
1765409040.548987,-9.949749139478131,-0.03935517156758084,0.3070960156101363,-0.013823707954928882,-0.004891794771635592,-0.006086541174974577
1765409040.551099,-9.945260474386854,-0.03762308461238958,0.30339648090080773,-0.013784430374281433,-0.005127482514666371,-0.006220426081090323
1765409040.553987,-9.940282883268491,-0.03585752261140648,0.2995310859704711,-0.013801312648782168,-0.005344828738952566,-0.006343563371247697
1765409040.555963,-9.935023458574037,-0.03412287343535148,0.29574198744159486,-0.013872917785881924,-0.005539148144702729,-0.006453966044415623
1765409040.558932,-9.929708561958732,-0.03247766831827987,0.2922686085282715,-0.013995570981554031,-0.005706184670182036,-0.006550583894133187
1765409040.560993,-9.92457231432322,-0.03097219079822348,0.2893336752001429,-0.01416384136338259,-0.005842240789685051,-0.006633324942425681
1765409040.563944,-9.919844135413005,-0.02964636322851724,0.28713061304397525,-0.014371054248163786,-0.005944328694076491,-0.006703020846486603
1765409040.56594,-9.915735845729484,-0.028528218194878423,0.28581301451249064,-0.014609794698079954,-0.0060103410310589555,-0.006761319639805733
1765409040.566959,-9.91242924634456,-0.027633427637748415,0.28548673088865106,-0.014872370941596661,-0.0060392269405453265,-0.006810497107864013
1765409040.57003,-9.910065253815555,-0.026966215156976253,0.2862048689853945,-0.015151216811532595,-0.006031145971881093,-0.006853198877993664
1765409040.574,-9.908735430265681,-0.026521606336299474,0.28796561866496473,-0.015439225734962973,-0.0059875641336878385,-0.00689214739927372
1765409040.576974,-9.908476460691798,-0.026288581147392402,0.2907127538909814,-0.015730019831352957,-0.005911259255814577,-0.006929859986520048
1765409040.578989,-9.909268075885462,-0.02625350055365551,0.29433888041089346,-0.016018160275862933,-0.005806219016933201,-0.006968419922026663
1765409040.580964,-9.911034907089157,-0.026403296846441035,0.29869164563757666,-0.01629929856875251,-0.005677438992705441,-0.007009325931498303
1765409040.583965,-9.913652466305903,-0.02672821620009136,0.3035828998978461,-0.016570258122886927,-0.0055306489635492655,-0.007053428432536422
1765409040.585939,-9.916956927643652,-0.02722407579246527,0.3088003800567642,-0.016829028251595282,-0.005372003751655297,-0.007100952552795134
1765409040.588956,-9.920757949203479,-0.027893852417626035,0.3141211800723982,-0.01707465248839603,-0.005207768560672137,-0.0071516048517779335
1765409040.589945,-9.924853493342223,-0.02874809528491356,0.31932607896489684,-0.017307002702194523,-0.005044016044380246,-0.00720475466241288
1765409040.59195,-9.9290452616066,-0.0298035221904984,0.3242134953492918,-0.017526450003723795,-0.004886343822570752,-0.007259668614608666
1765409040.595915,-9.933152941032498,-0.031079474367493337,0.3286114619504202,-0.01773346775391998,-0.004739621973734876,-0.007315762152642086
1765409040.598973,-9.937025360781558,-0.0325925596569503,0.3323860137067788,-0.01792822067664706,-0.0046077858526286574,-0.007372823191728662
1765409040.600934,-9.940547235422502,-0.034350414262359304,0.335445098961547,-0.018110199244897873,-0.004493691031318446,-0.007431167046465223
1765409040.603942,-9.943641224224697,-0.03634575291328451,0.33773823650504287,-0.01827795153687083,-0.0043990404202574876,-0.007491697269764382
1765409040.605932,-9.946266012627486,-0.03855175848415022,0.33925297918615693,-0.01842895270297975,-0.004324384770113547,-0.0075558675884702985
1765409040.608917,-9.948411700129029,-0.04091956738083713,0.340009517242112,-0.01855963846453856,-0.004269192982721503,-0.007625559903467047
1765409040.611015,-9.950093993192883,-0.0433782628774198,0.340054663480915,-0.0186656119010236,-0.004231985490208473,-0.007702908327482494
1765409040.613932,-9.951348600601829,-0.04583741520780913,0.33945621728973757,-0.018742012012034317,-0.004210517788707788,-0.007790105949230918
1765409040.615965,-9.952226738836426,-0.0481918326418201,0.3382982903130298,-0.018784012161302165,-0.0042019950302662635,-0.007889226958843809
1765409040.618994,-9.95279185319256,-0.05032791512916005,0.33667761080032677,-0.018787400308570363,-0.004203299384098947,-0.008002082264726243
1765409040.620013,-9.953116927444249,-0.05213091861306755,0.3347003609961186,-0.01874918212604466,-0.004211219501073729,-0.00813010716658268
1765409040.62396,-9.953281478880019,-0.05349251601355946,0.3324789956383972,-0.01866814290399689,-0.004222676658243373,-0.008274264967265434
1765409040.625971,-9.953367557832987,-0.05431818629389179,0.3301286660874812,-0.01854530489786562,-0.004234938021969331,-0.008434948360309901
1765409040.628997,-9.953454565285483,-0.05453410125010248,0.3277630967796573,-0.018384223691782966,-0.004245798291524668,-0.008611870138711541
1765409040.630937,-9.953613266173459,-0.054093252591203025,0.3254900022585058,-0.018191080133940343,-0.004253706424175841,-0.008803949368673878
1765409040.633941,-9.953899832902604,-0.0529805167058181,0.32340644570229243,-0.017974543041964688,-0.004257817622741894,-0.009009213012551143
1765409040.635982,-9.954350829364547,-0.05121618307221499,0.32159469168369154,-0.017745401319418343,-0.004257959524016094,-0.009224743054975382
1765409040.638981,-9.954979613015984,-0.04885724887832073,0.32011883201034674,-0.017515989887626683,-0.004254514280353508,-0.009446701941718021
1765409040.640997,-9.955774065013218,-0.045995667765341024,0.3190220280707372,-0.01729945789995064,-0.004248235081867497,-0.009670460871262646
1765409040.642009,-9.956695462239889,-0.042752938139237695,0.31832422326135434,-0.01710894709393027,-0.004240031709732164,-0.009890836170384247
1765409040.646015,-9.957678777341377,-0.03927105271109745,0.31802074238455097,-0.016956761183903775,-0.004230765643896041,-0.01010241412728089
1765409040.649036,-9.958635133859795,-0.03570079316614735,0.31808264946854176,-0.01685360967288929,-0.004221086412901191,-0.010299923768909168
1765409040.651046,-9.9594569589871,-0.032189239635813195,0.3184594275328586,-0.0168079953121892,-0.004211323270522957,-0.010478609500490267
1765409040.653912,-9.96002566658679,-0.02886869713905772,0.3190836633387916,-0.016825784502994608,-0.004201431330003298,-0.010634563693409874
1765409040.656005,-9.960221083259245,-0.025848830991789803,0.31987679806988684,-0.016909965353079762,-0.004190984495718017,-0.010764995302129272
1765409040.658932,-9.959931673545125,-0.023212880423534196,0.32075511694468767,-0.01706057124112833,-0.004179205467314684,-0.010868422747029465
1765409040.659981,-9.959064699915995,-0.021017813311622256,0.3216356124240423,-0.017274734658878414,-0.004165021811711507,-0.010944782800040843
1765409040.663931,-9.957555383537413,-0.01929754315495983,0.32244151950835664,-0.017546838569173398,-0.004147138090076329,-0.010995446215765769
1765409040.665979,-9.955373959694208,-0.018067989272311007,0.3231071048655879,-0.017868748703833197,-0.004124119555323182,-0.011023131982270694
1765409040.66894,-9.952529673233709,-0.017332740461336604,0.3235811820269448,-0.018230131601747013,-0.0040944892608959105,-0.01103171969392511
1765409040.67096,-9.94907143764187,-0.01708819846792025,0.3238291869317669,-0.018618877696157495,-0.004056839105025135,-0.011025974747087119
1765409040.673955,-9.945085683501897,-0.01732723947853012,0.32383420080628106,-0.01902164807204166,-0.004009943724826777,-0.011011218435839897
1765409040.675923,-9.94069219525788,-0.018040701569863954,0.32359740161739176,-0.01942454641823325,-0.003952855241652009,-0.010992983406984683
1765409040.678964,-9.93603835705003,-0.019216476700149504,0.32313791092613336,-0.0198138911060307,-0.0038849613195126764,-0.0109766889441581
1765409040.680944,-9.931291799411273,-0.020836628582530794,0.32249153870448427,-0.020177037618051927,-0.003806007354847698,-0.010967357596898621
1765409040.683956,-9.926631479930363,-0.022873559906231137,0.3217080949505597,-0.020503184385681626,-0.003716097048240254,-0.010969384591046358
1765409040.685936,-9.922237538698138,-0.025286500376003974,0.320847434592803,-0.020784083908304888,-0.0036156808597707984,-0.01098636592244135
1765409040.688956,-9.918280435324187,-0.028019318773034572,0.31997464263821807,-0.02101457860146649,-0.003505527323127595,-0.011020986741832389
1765409040.692005,-9.914910015070445,-0.03100009088380996,0.31915479565429344,-0.021192895797859282,-0.003386665768404117,-0.011074966608692874
1765409040.693927,-9.912245570397154,-0.03414240790414557,0.31844792696965807,-0.021320669010962513,-0.003260296341517991,-0.011149053289165026
1765409040.695996,-9.910368390036929,-0.03734827570124456,0.31790503542962545,-0.021402690072188795,-0.003127674811551062,-0.011243055000565418
1765409040.698982,-9.909318052546482,-0.04051244881807442,0.3175657026029281,-0.021446425253039022,-0.0029899863253503344,-0.011355903900279546
1765409040.69999,-9.909092673403848,-0.04352794197542338,0.31745708820908236,-0.02146134342866065,-0.002848226114929142,-0.011485747691080546
1765409040.703962,-9.909652152848606,-0.04629225193824252,0.3175934084042973,-0.021458109796992152,-0.0027031116457130766,-0.011630067071416342
1765409040.705009,-9.910923039448848,-0.04871358223562125,0.3179750924176096,-0.0214477024327392,-0.0025550547889713784,-0.011785815640382075
1765409040.708911,-9.912804038562065,-0.0507161651478496,0.31858752640682936,-0.0214405163994532,-0.0024042133156116684,-0.011949578998077068
1765409040.711015,-9.9151718319007,-0.05224376892322689,0.319399895230908,-0.021445530010968213,-0.002250619001676394,-0.012117748678432206
1765409040.714014,-9.917887163562577,-0.0532608345236688,0.32036469280788316,-0.02146961445231923,-0.0020943584070719844,-0.012286700321967776
1765409040.716001,-9.920801123437169,-0.05375136168232242,0.3214182686618493,-0.021517065131152997,-0.0019357717197314986,-0.012452958233462711
1765409040.718985,-9.923761555426553,-0.05371634344132568,0.3224826870762738,-0.021589414817755587,-0.0017756345681426017,-0.012613328949806008
1765409040.720945,-9.926619626798088,-0.053170868476962396,0.3234691363876939,-0.021685552039911717,-0.00161529478032699,-0.012764997274587941
1765409040.724023,-9.929236645958921,-0.05214181414419413,0.3242829401390499,-0.02180212018880441,-0.0014567481052431075,-0.012905593344674792
1765409040.725027,-9.931491099033027,-0.050666489556710104,0.3248299339166992,-0.02193412890487212,-0.0013026480584604361,-0.013033249859690671
1765409040.728988,-9.933285657634178,-0.048792004571803826,0.3250237586542121,-0.022075682875291932,-0.001156251039321771,-0.013146668888073863
1765409040.730989,-9.934553693351843,-0.046574829307848925,0.3247935292893699,-0.022220728108542066,-0.0010213012526139762,-0.013245207328540686
1765409040.733923,-9.935264617082131,-0.04408004082075717,0.3240912080584325,-0.022363728956773243,-0.000901864446645877,-0.013328973627582381
1765409040.735922,-9.935427105749888,-0.04138000831484208,0.32289770418759317,-0.022500214280568104,-0.0008021240893366674,-0.013398913116842217
1765409040.739277,-9.935089158198172,-0.03855251993710298,0.3212265018681788,-0.022627160306117246,-0.0007261558673621628,-0.013456852970488571
1765409040.742031,-9.934334309653414,-0.03567839477934225,0.3191240221338536,-0.022743203245546104,-0.000677695645178308,-0.013505483183267794
1765409040.743906,-9.933274284158681,-0.0328384742866117,0.31666693576493404,-0.02284869116477048,-0.0006599125849677823,-0.013548261659653768
1765409040.746003,-9.93203928989035,-0.03010984236819495,0.31395742587026065,-0.02294559149091981,-0.0006751948182490445,-0.013589241556793733
1765409040.74801,-9.930767430945624,-0.02756144022442104,0.31111729431218965,-0.023037272854438406,-0.0007249540313141776,-0.013632826933710275
1765409040.751012,-9.92959442131832,-0.025249819790735588,0.3082812196531588,-0.023128181331250493,-0.0008094602771057478,-0.013683473876012407
1765409040.752042,-9.928644542178176,-0.023216198610327934,0.305589272660143,-0.023223430559530783,-0.0009277252443711027,-0.013745369977998178
1765409040.756017,-9.928023781742267,-0.02148581620825814,0.3031791683140229,-0.023328324184841973,-0.0010774518524818983,-0.013822139388215944
1765409040.758968,-9.92781591657142,-0.020069787580497406,0.3011790948140269,-0.02344783522633274,-0.0012550560464111805,-0.013916623284465919
1765409040.76195,-9.92808160969816,-0.018968661517086902,0.2997018105716385,-0.023586083784524196,-0.0014557520450896595,-0.014030768501431501
1765409040.763986,-9.92885975859201,-0.018176386001544975,0.2988402190809597,-0.02374587372185425,-0.0016736898258231743,-0.01416562444285191
1765409040.765945,-9.930169951086924,-0.017683650235949037,0.2986643233641926,-0.02392835707950291,-0.0019021450686723556,-0.014321418815627178
1765409040.769944,-9.932015098755834,-0.017480270265667553,0.29921942944528196,-0.02413288400771927,-0.0021337715390289218,-0.014497672955237302
1765409040.77104,-9.93438366129113,-0.01755676791765097,0.30052539961332303,-0.024357067030742533,-0.0023609197964378414,-0.014693327863585227
1765409040.773993,-9.937251034460164,-0.01790521565833228,0.3025765813553415,-0.02459705011260956,-0.002576007652407788,-0.014906868854638995
1765409040.777066,-9.940579832197246,-0.018519057943658816,0.30534207146717424,-0.024847937012034724,-0.0027719108655911424,-0.015136445223089044
1765409040.778989,-9.944319185424103,-0.0193915610875941,0.3087663216329886,-0.025104309995850373,-0.002942335215709613,-0.015379977420235192
1765409040.781022,-9.948403645515096,-0.020513047474650214,0.31277039851415894,-0.02536076389088251,-0.00308213167030572,-0.015635237006675722
1765409040.784063,-9.95275245703681,-0.02186779776795912,0.31725412283379406,-0.025612388827698694,-0.00318752115228728,-0.015899886435529816
1765409040.785971,-9.957269748025725,-0.023431873488194147,0.3220989125812931,-0.025855149903431216,-0.003256205256392659,-0.016171477773336548
1765409040.789126,-9.961845861259695,-0.025172814707100054,0.32717091875761,-0.02608612827114845,-0.0032873568225302656,-0.016447422121782424
1765409040.791038,-9.966359956967226,-0.027051393457788387,0.3323243249721651,-0.026303607407247822,-0.0032815055724941962,-0.016724946860483054
1765409040.793986,-9.970684116649691,-0.029024865645584364,0.337405219839651,-0.026507011946562575,-0.003240348460064409,-0.017001056508695777
1765409040.795935,-9.974689109549985,-0.031050887363630427,0.3422566044503829,-0.02669672896743443,-0.0031665165738172887,-0.01727251009007888
1765409040.798972,-9.978251612685135,-0.0330914692583369,0.34672469496499086,-0.02687385434532109,-0.0030633258943141835,-0.017535827424477363
1765409040.800013,-9.981262282190311,-0.035116717917195665,0.350666186634625,-0.02703990675621559,-0.002934535575403176,-0.017787339157564204
1765409040.802019,-9.983633885326226,-0.037108294713791894,0.3539558988754488,-0.02719654397316876,-0.002784135674229479,-0.018023297493588077
1765409040.806002,-9.985308610237698,-0.039062322722790956,0.3564940721236942,-0.027345307654977058,-0.002616182919362164,-0.018240062290620963
1765409040.808983,-9.986263593089802,-0.040990983962941825,0.3582124449647248,-0.027487417283067125,-0.0024346966904211045,-0.01843436658522478
1765409040.811057,-9.986513862826094,-0.042921667970449266,0.3590783939359391,-0.027623629425846917,-0.002243619411672892,-0.018603644727304205
1765409040.814012,-9.986112462368423,-0.04489273262348254,0.3590969960408736,-0.02775417255676102,-0.0020468365914563876,-0.018746378782562332
1765409040.81506,-9.985148127823011,-0.046945861630320086,0.358311368915492,-0.027878760861024966,-0.0018482402960853454,-0.01886239567076448
1765409040.818938,-9.983741051382152,-0.049116265253947536,0.35680144730927943,-0.02799668427671552,-0.0016518071344577077,-0.018953041470840124
1765409040.820941,-9.98203687880092,-0.05142288315035653,0.35468067470355646,-0.02810696486094442,-0.0014616540849732944,-0.019021176904573913
1765409040.823922,-9.980198734094476,-0.05386079860407329,0.3520898212066729,-0.02820855960838354,-0.0012820382469389759,-0.019070974999630372
1765409040.826944,-9.978397072605823,-0.05639731915226847,0.34918765529540263,-0.02830057983639621,-0.0011172792265731403,-0.019107544939643038
1765409040.828994,-9.97679729934722,-0.05897217649490811,0.3461388512027186,-0.028382492821421666,-0.0009716015740815012,-0.019136439824555252
1765409040.830041,-9.975545147321402,-0.06150158930471142,0.3430997315274882,-0.028454275829971506,-0.0008489162924901329,-0.01916312246490928
1765409040.833946,-9.974750151997217,-0.06388563229578596,0.3402026102434932,-0.02851650477067356,-0.0007525794045025343,-0.019192464444073475
1765409040.834944,-9.974468546869014,-0.06601821692932834,0.3375401635826062,-0.028570373900543233,-0.0006851724399673325,-0.019228345820598312
1765409040.838937,-9.974688156212528,-0.06779870127231488,0.33515210814509305,-0.028617652780958118,-0.0006483389050427345,-0.019273409605594094
1765409040.840943,-9.975318541542174,-0.06914360887923074,0.33301678172873095,-0.028660590386890422,-0.000642688878393995,-0.019329004924047242
1765409040.843963,-9.97618935191572,-0.06999643656945777,0.33104980805535683,-0.028701778692885434,-0.0006677658799721592,-0.019395322247534798
1765409040.846,-9.977058747025696,-0.0703335876883445,0.32911116245075955,-0.028743993430825777,-0.0007220662055750698,-0.019471686012102293
1765409040.849006,-9.977632263480242,-0.07016533721885905,0.32702078820376296,-0.0287900358508441,-0.0008031074408149215,-0.019556936522087
1765409040.852016,-9.97759077501859,-0.06953210928955053,0.3245814249717455,-0.028842600015602595,-0.0009075485215056203,-0.01964981859930522
1765409040.852516,-9.976624490920752,-0.06849757583594618,0.32160576268018604,-0.028904181555788833,-0.001031362919365601,-0.01974930454708902
1765409040.857014,-9.974468715575933,-0.06714061889846362,0.3179440382575026,-0.02897702864899564,-0.0011700622344006561,-0.019854806959376806
1765409040.858983,-9.970936775715117,-0.06554789758760494,0.3135081658451604,-0.029063122344837506,-0.0013189615015615423,-0.01996626847331823
1765409040.859985,-9.965946004164685,-0.06380795047218905,0.3082891897273075,-0.029164167933545947,-0.001473467670276772,-0.02008413800456476
1765409040.863972,-9.959533442452386,-0.06200699571110088,0.3023656949799995,-0.029281582337414788,-0.0016293610703468724,-0.020209253011911357
1765409040.866001,-9.951858786643982,-0.060226229157414886,0.29590163773353073,-0.029416470742499673,-0.0017830350169196901,-0.020342650750731512
1765409040.869012,-9.943193428096317,-0.05854041692473043,0.2891332366558118,-0.02956959421346183,-0.0019316669999042157,-0.02048533568986756
1765409040.871055,-9.933896556195522,-0.05701759883788402,0.2823463608597388,-0.02974133485909088,-0.0020733110401991305,-0.02063803806980356
1765409040.873971,-9.924381760599964,-0.05571948843322101,0.2758478401318249,-0.0299316649757437,-0.002206912559760697,-0.020801005993479643
1765409040.875968,-9.91507936579474,-0.0547017662922965,0.26993539210974415,-0.030140123797848323,-0.0023322485381649196,-0.020973871013409404
1765409040.878944,-9.906400091524835,-0.054013347829457825,0.2648707753567343,-0.03036580336105703,-0.0024497947378978573,-0.0211556085767553
1765409040.88096,-9.898704675565435,-0.053694214784295445,0.2608595772718106,-0.030607344557202702,-0.0025605298601967404,-0.021344587080656414
1765409040.884011,-9.892282482980157,-0.05377237053996065,0.25803947186867676,-0.03086294353703945,-0.0026657021395934673,-0.021538679617855522
1765409040.88502,-9.887340318095754,-0.05426125852149978,0.2564772491708656,-0.031130364686149856,-0.0027665934125522596,-0.021735410918863492
1765409040.888974,-9.884000796714968,-0.05515893384847917,0.25617345087197124,-0.03140695148452114,-0.002864310575882525,-0.02193212321942753
1765409040.890044,-9.882308048281894,-0.056449360877510374,0.2570722753208722,-0.03168962737290598,-0.002959621170370817,-0.022126155254328466
1765409040.893974,-9.882237758228547,-0.05810508218516789,0.2590740066106491,-0.03197488912424715,-0.0030528415223945978,-0.022315027948711375
1765409040.895981,-9.883708822312977,-0.06008998440330275,0.2620476596053962,-0.032258809728294494,-0.0031437868433897673,-0.022496618671184028
1765409040.899019,-9.886594704178416,-0.06236123488435761,0.26584232526422685,-0.032537076181804896,-0.0032317949734024373,-0.022669294421685478
1765409040.901004,-9.89073338635063,-0.0648702290261985,0.2702963687642313,-0.032805084352261066,-0.003315829701960441,-0.022831976527256444
1765409040.904,-9.89593548649206,-0.06756292195742661,0.27524418512669485,-0.03305810046041071,-0.0033946560821447045,-0.022984128029017226
1765409040.905994,-9.901990871358523,-0.07037993655280808,0.28052088191430197,-0.033291483054359396,-0.0034670650143077504,-0.023125679660444955
1765409040.908947,-9.908674819541547,-0.073256548476817,0.28596590914758424,-0.03350094712416477,-0.0035321103529579183,-0.023256926277595853
1765409040.911978,-9.915754960967059,-0.0761225029077558,0.29142680112126373,-0.033682846611918706,-0.0035893113110959294,-0.02337842319211508
1765409040.913975,-9.922999605908512,-0.0789019094738547,0.2967636208662098,-0.03383445221667968,-0.00363877460880881,-0.02349089495493011
1765409040.915018,-9.930187075708973,-0.081513999167435,0.3018538258995356,-0.03395420456093376,-0.003681210243051958,-0.02359515451486098
1765409040.919014,-9.937114902748043,-0.08387576385643827,0.3065966645937913,-0.03404192349715703,-0.003717842292420139,-0.02369203207612739
1765409040.921018,-9.943607532485593,-0.08590705078598748,0.3109160263525635,-0.034098950000390614,-0.003750235388048667,-0.023782326330990502
1765409040.924016,-9.949521306584355,-0.0875376866120481,0.3147608151211132,-0.03412819325470258,-0.003780063085162524,-0.023866799515911127
1765409040.927033,-9.954745905117106,-0.08871522497896701,0.31810236737478287,-0.03413406211088938,-0.0038088437543853304,-0.0239462299079881
1765409040.929051,-9.959202051784743,-0.08941153096165391,0.32092914375250364,-0.0341222791032771,-0.003837670482759079,-0.024021513329841773
1765409040.931034,-9.962836035713531,-0.08962679395680684,0.3232396529597106,-0.03409959717495093,-0.0038669635145827763,-0.024093782395009238
1765409040.934014,-9.965612219513911,-0.08939036570428859,0.32503496415719496,-0.034073452451781165,-0.0038962718063160332,-0.02416450073591871
1765409040.936009,-9.967504938401687,-0.08875859200124982,0.32631199694775326,-0.03405158644759804,-0.003924143874032436,-0.024235491671033553
