time,acc_x_g,acc_y_g,acc_z_g,gyro_x_rad_s,gyro_y_rad_s,gyro_z_rad_s
1765916345.909962,4.047106,0.208632,0.294118,-0.008705,-0.007483,-0.002138
1765916345.910212,-9.915112,0.111789,0.175753,-0.007789,-0.005498,-0.002596
1765916345.910462,-9.791965,0.112386,0.118364,-0.008247,-0.003971,-0.001527
1765916345.910712,-9.939621,0.141081,0.239120,-0.009163,-0.008705,0.000000
1765916345.910954,-9.961740,0.159015,0.263032,-0.009316,-0.003207,-0.001680
1765916345.911154,-9.904350,0.135103,0.176949,-0.007330,-0.003207,-0.001222
1765916345.911354,-9.836799,0.124342,0.128527,-0.006720,-0.006567,0.000916
1765916345.911554,-9.936632,0.145863,0.259445,-0.007483,-0.009010,-0.002443
1765916345.911754,-9.982663,0.154232,0.313247,-0.006872,-0.009774,-0.000458
1765916345.911950,-9.928861,0.125538,0.217599,-0.008247,-0.003512,0.000000
1765916345.912150,-9.799137,0.178144,0.102224,-0.008399,-0.003512,-0.002291
1765916345.912350,-9.799137,0.178144,0.102224,-0.008399,-0.005040,-0.002291
1765916345.912550,-9.939621,0.190698,0.295313,-0.008858,-0.010537,-0.000764
1765916345.912750,-10.007172,0.167384,0.300096,-0.007483,-0.009927,-0.002443
1765916345.912951,-9.964130,0.136298,0.249880,-0.009163,-0.009163,-0.000916
1765916345.913118,-9.958751,0.149450,0.225968,-0.008858,-0.007330,-0.002596
1765916345.913284,-9.940218,0.150646,0.275586,-0.011148,-0.007636,-0.001222
1765916345.913451,-9.950979,0.127929,0.229555,-0.007789,-0.003665,-0.000305
1765916345.913618,-9.974294,0.131516,0.285151,-0.008247,-0.007636,-0.002902
1765916345.913784,-9.881036,0.135103,0.182927,-0.007483,-0.007636,0.001222
1765916345.913954,-9.843375,0.127929,0.123147,-0.008399,-0.007025,0.001833
1765916345.914154,-9.876852,0.169775,0.166188,-0.007789,-0.008399,0.001069
1765916345.914354,-10.045432,0.117169,0.346724,-0.009010,-0.009468,0.000000
1765916345.914554,-9.989238,0.095648,0.288140,-0.007330,-0.006414,0.001222
1765916345.914754,-9.945002,0.248087,0.248685,-0.007178,-0.004123,-0.000764
1765916345.914921,-10.050812,0.056791,0.258250,-0.007178,-0.002902,-0.000764
1765916345.915121,-9.837996,-0.472262,-0.032281,-0.001680,-0.016799,0.011759
1765916345.915321,-10.038258,-0.296509,0.191296,0.004734,-0.016799,-0.008399
1765916345.915521,-10.216402,0.268412,0.542802,0.003207,-0.003818,-0.013439
1765916345.915721,-10.171567,0.581062,0.597800,-0.001222,-0.003207,-0.003360
1765916345.915993,-10.318028,0.431612,0.517695,-0.004276,-0.015424,0.007025
1765916345.916193,-10.423838,0.034672,0.437590,-0.007178,-0.022297,0.011606
1765916345.916393,-10.619917,-0.261836,0.573888,-0.005040,-0.021838,0.007178
1765916345.916593,-10.581060,-0.424438,0.465686,-0.000153,-0.020159,-0.000764
1765916345.916793,-10.620514,-0.369440,0.530846,0.001527,-0.031154,-0.006261
1765916345.916940,-10.744859,-0.200861,0.645026,-0.001985,-0.036652,-0.018937
1765916345.917190,-10.781921,-0.073529,0.548780,0.000611,-0.045509,-0.016952
1765916345.917440,-10.778932,-0.063965,0.341942,0.008552,-0.051313,-0.014355
1765916345.917690,-10.787899,-0.284553,0.471066,0.012523,-0.051924,-0.015577
1765916345.917956,-11.035388,-0.601387,0.949904,0.012675,-0.054062,-0.018021
1765916345.918206,-11.157340,-0.665351,0.817193,0.020311,-0.067806,-0.025809
1765916345.918456,-10.931372,-0.682688,0.187709,0.026420,-0.079107,-0.035125
1765916345.918706,-10.983380,-0.603180,0.096844,0.033598,-0.085521,-0.044440
1765916345.919631,-11.214727,-0.738881,0.535629,0.039859,-0.086437,-0.046884
1765916345.919881,-11.186034,-0.832138,0.418460,0.048106,-0.095906,-0.057421
1765916345.920131,-11.211740,-0.583453,0.467480,0.052229,-0.100640,-0.067959
1765916345.920381,-11.217119,-0.337159,0.479436,0.056200,-0.104458,-0.070097
1765916345.919931,-11.278096,-0.524868,0.687470,0.064446,-0.118508,-0.061850
1765916345.920181,-11.455642,-0.678503,0.937350,0.067959,-0.137750,-0.066584
1765916345.920431,-11.401241,-0.628886,0.315638,0.069180,-0.146913,-0.073762
1765916345.920681,-11.330701,-0.732903,0.251674,0.073304,-0.156840,-0.075747
1765916345.920918,-11.421568,-0.590626,0.477044,0.080329,-0.155618,-0.083536
1765916345.921168,-11.579387,-0.701817,0.976805,0.084758,-0.167683,-0.082620
1765916345.921418,-11.239238,-0.704806,0.302487,0.087506,-0.182343,-0.089186
1765916345.921668,-11.204565,-0.692252,0.041846,0.089644,-0.198684,-0.092699
1765916345.921930,-11.313962,-0.801650,0.413080,0.097891,-0.206778,-0.097738
1765916345.922180,-11.450262,-0.901482,0.537422,0.104458,-0.213345,-0.105832
1765916345.922430,-11.423958,-0.560736,0.520086,0.109345,-0.225867,-0.114995
1765916345.922680,-11.643948,-0.565519,0.934959,0.122631,-0.220522,-0.113163
1765916345.922949,-11.225489,-0.705404,0.420851,0.130114,-0.241597,-0.106138
1765916345.923199,-11.031203,-0.673123,0.001196,0.129503,-0.259007,-0.120035
1765916345.923449,-11.495096,-0.484218,0.486609,0.139583,-0.255342,-0.117133
1765916345.923699,-11.535150,-0.817790,0.628886,0.149204,-0.255342,-0.114690
1765916345.923913,-11.251792,-1.068866,0.569106,0.150273,-0.271682,-0.124464
1765916345.924163,-11.514825,-0.735294,1.110713,0.165392,-0.268323,-0.141721
1765916345.924413,-11.270324,-0.422047,0.528455,0.175013,-0.276417,-0.133932
1765916345.924663,-11.348636,-0.511119,0.644428,0.178678,-0.299324,-0.128434
1765916345.924890,-11.207555,-0.545791,0.447752,0.184939,-0.288481,-0.139277
1765916345.925140,-10.918220,-0.830942,0.489598,0.189674,-0.294895,-0.127213
1765916345.925390,-10.639645,-0.640842,0.118962,0.197462,-0.313221,-0.135765
1765916345.925640,-10.973217,-0.394548,0.273792,0.195782,-0.322231,-0.144928
1765916345.925893,-10.975608,-0.550574,0.640842,0.206931,-0.310320,-0.126449
1765916345.926143,-10.703609,-0.628886,-0.347920,0.222660,-0.322079,-0.129351
1765916345.926393,-10.807029,-0.799856,0.326399,0.224646,-0.326202,-0.132252
1765916345.926643,-10.987565,-0.463893,0.310856,0.226326,-0.322231,-0.140499
1765916345.926960,-11.214727,-0.671329,0.297704,0.237168,-0.322231,-0.125227
1765916345.927210,-11.327115,-0.667145,0.498565,0.244804,-0.318413,-0.133779
1765916345.927460,-11.708511,-0.814204,0.877571,0.252745,-0.313679,-0.131031
1765916345.927710,-11.345049,-0.914634,0.734696,0.261756,-0.309861,-0.132710
1765916345.927946,-10.766378,-0.893113,-0.142874,0.265268,-0.335365,-0.139277
1765916345.928196,-10.490793,-0.752032,-0.017934,0.279318,-0.335365,-0.136070
1765916345.928446,-10.490793,-0.752032,-0.017934,0.279318,-0.321162,-0.136070
1765916345.928696,-10.970826,-0.247489,0.436992,0.302836,-0.337961,-0.126296
1765916345.928944,-10.981586,-0.884744,0.854256,0.292299,-0.330631,-0.127671
1765916345.929277,-10.981586,-0.884744,0.854256,0.292299,-0.335518,-0.127671
1765916345.929611,-10.186513,-1.193807,0.129125,0.312152,-0.322384,-0.135612
1765916345.929903,-10.186513,-1.193807,0.129125,0.312152,-0.329104,-0.135612
1765916345.930153,-10.068149,-0.587040,0.652200,0.310014,-0.326202,-0.147219
1765916345.930403,-10.267813,-0.162602,0.704208,0.315970,-0.326202,-0.145080
1765916345.930653,-11.023433,-0.065758,1.328909,0.322079,-0.326049,-0.146150
1765916345.930894,-11.104733,-0.143472,1.542324,0.326966,-0.311541,-0.135307
1765916345.931144,-10.940337,-0.411286,1.091583,0.330173,-0.315817,-0.144164
1765916345.931394,-10.866809,-0.367049,1.608082,0.337808,-0.313679,-0.146913
1765916345.931644,-10.184121,-0.393352,0.260641,0.339488,-0.313679,-0.152105
1765916345.931912,-10.737684,-0.240316,1.091583,0.355829,-0.322537,-0.154549
1765916345.932162,-11.056312,-0.163797,1.495098,0.353233,-0.294284,-0.162796
1765916345.932412,-11.276899,0.187709,1.547106,0.372017,-0.308334,-0.150120
1765916345.932662,-11.330701,-0.417264,1.966762,0.360869,-0.314290,-0.152869
1765916345.932877,-10.981586,0.173362,1.024629,0.376751,-0.314290,-0.165392
1765916345.933127,-10.401721,-0.031086,1.042563,0.382860,-0.309098,-0.148135
1765916345.933377,-10.125537,-0.331181,0.990555,0.386525,-0.299477,-0.156840
1765916345.933627,-10.478239,-0.879962,1.219512,0.405767,-0.299477,-0.153327
1765916345.933909,-10.214011,-0.656384,1.217121,0.412334,-0.302531,-0.165697
1765916345.934159,-10.385580,-0.367647,0.901482,0.417832,-0.308640,-0.181885
1765916345.934409,-9.870873,0.377212,0.923601,0.417832,-0.302989,-0.181885
1765916345.934659,-9.236010,0.510521,0.486609,0.430507,-0.297797,-0.161574
1765916345.934892,-9.409372,-0.093855,0.957676,0.425926,-0.317803,-0.150120
1765916345.935225,-9.409372,-0.093855,0.957676,0.425926,-0.319177,-0.150120
1765916345.935559,-10.543399,-0.407700,1.124462,0.423788,-0.324828,-0.142332
1765916345.935886,-10.523671,-0.576279,1.475371,0.428522,-0.296117,-0.149357
1765916345.936136,-9.826636,-0.417264,0.233740,0.435241,-0.287412,-0.140041
1765916345.936386,-9.894786,-1.177068,1.512434,0.433867,-0.294132,-0.138208
1765916345.936636,-9.894786,-1.177068,1.512434,0.433867,-0.293063,-0.138208
1765916345.936943,-10.658774,-0.345528,1.742587,0.457691,-0.292604,-0.128587
1765916345.937193,-10.552365,-0.820779,1.835246,0.464258,-0.273515,-0.121409
1765916345.937443,-10.374820,-0.754424,1.508847,0.480446,-0.273820,-0.118202
1765916345.937693,-9.548659,-1.215925,0.913438,0.494954,-0.284510,-0.108734
1765916345.937949,-9.282639,-0.852463,0.095648,0.499382,-0.297339,-0.122326
1765916345.938199,-9.011238,-0.625897,-0.005978,0.514501,-0.279776,-0.118050
1765916345.938449,-8.690817,-0.768173,0.491989,0.520457,-0.260839,-0.116523
1765916345.938699,-9.418937,-0.084888,1.224294,0.536492,-0.241292,-0.118508
1765916345.938993,-9.777617,0.266619,1.244620,0.536492,-0.241292,-0.100029
1765916345.939243,-9.611428,-0.463295,0.988761,0.541837,-0.245262,-0.079412
1765916345.939493,-9.683763,-0.197274,0.953491,0.556498,-0.228922,-0.082467
1765916345.939743,-9.961740,-0.536824,1.810139,0.551306,-0.206320,-0.082314
1765916345.939972,-10.196675,-0.369440,2.385222,0.542143,-0.190437,-0.083536
1765916345.940222,-10.253465,0.230751,1.951219,0.536187,-0.184481,-0.089950
1765916345.940472,-9.777617,0.448350,1.523195,0.514349,-0.183107,-0.071319
1765916345.940722,-9.369320,-0.172764,1.837637,0.499077,-0.176998,-0.065973
1765916345.940993,-9.612624,-0.461502,1.758728,0.510531,-0.192728,-0.056505
1765916345.941326,-9.554040,-1.069464,2.147298,0.502589,-0.191659,-0.067042
1765916345.941660,-9.115254,-0.477642,0.557150,0.519083,-0.184176,-0.072998
1765916345.941915,-8.921568,-0.513510,0.883548,0.532522,-0.182954,-0.063683
1765916345.942165,-8.967000,-0.652798,0.631277,0.536645,-0.162490,-0.069791
1765916345.942415,-8.730271,-0.876375,0.981588,0.543823,-0.162490,-0.065973
1765916345.942665,-9.084169,-0.447154,1.168101,0.550237,-0.143553,-0.075747
1765916345.942940,-8.914991,-0.032281,-0.062171,0.559247,-0.148288,-0.068264
1765916345.943190,-9.525944,-0.138092,1.478359,0.571312,-0.127976,-0.050091
1765916345.943440,-9.124820,-0.676710,0.685079,0.578489,-0.101862,-0.048564
1765916345.943690,-9.255140,-0.766380,1.335485,0.585972,-0.125533,-0.041233
1765916345.943966,-8.953849,-0.809421,0.787303,0.576504,-0.117133,-0.066126
1765916345.944216,-9.126015,-0.019727,0.601985,0.579253,-0.134543,-0.055283
1765916345.944466,-8.852222,-0.179938,0.467480,0.569174,-0.117592,-0.045662
1765916345.944716,-9.538497,0.086083,1.390483,0.568105,-0.107054,-0.040012
1765916345.944922,-9.208511,-0.743663,1.111908,0.553444,-0.107054,-0.015272
1765916345.945172,-9.117048,-0.940937,0.724534,0.552986,-0.134696,-0.023060
1765916345.945422,-9.866092,-1.202176,1.093974,0.558484,-0.120340,-0.031460
1765916345.945672,-9.530725,-1.345050,1.178862,0.569937,-0.087201,-0.027184
1765916345.945940,-9.276661,-1.017456,1.077236,0.594525,-0.075442,-0.033598
1765916345.946190,-9.835006,-0.425036,2.024151,0.592997,-0.067806,-0.032223
1765916345.946440,-10.162600,-0.161406,1.134624,0.597273,-0.078496,-0.012065
1765916345.946690,-10.175752,-0.607365,1.999641,0.607353,-0.058490,-0.004887
1765916345.946972,-9.849951,-0.573888,1.293041,0.618654,-0.044593,0.007025
1765916345.947222,-10.079505,-1.110115,2.036107,0.615294,-0.051465,0.005345
1765916345.947472,-9.939023,-0.580464,1.718077,0.612240,-0.033445,-0.018784
1765916345.947722,-9.994021,-0.256456,1.083214,0.612240,-0.045357,-0.018784
1765916345.947953,-10.040649,-0.364658,2.391200,0.613614,-0.013897,0.003665
1765916345.948153,-10.219392,0.212817,1.997848,0.594677,-0.013897,-0.004887
1765916345.948353,-10.219392,0.212817,1.997848,0.594677,-0.026878,-0.004887
1765916345.948553,-10.133906,-0.112984,2.095887,0.551306,-0.021838,0.019395
1765916345.948753,-10.487803,0.196676,2.034911,0.572075,-0.023671,0.037721
1765916345.948967,-9.473935,-0.657580,1.034194,0.564287,0.000153,0.038790
1765916345.949217,-9.183404,-0.710186,1.006097,0.564898,0.000153,0.021686
1765916345.949467,-9.200143,-0.301291,1.359397,0.572839,0.022755,0.015119
1765916345.949717,-9.056670,0.224175,0.754424,0.583682,0.012523,0.025504
1765916345.949960,-9.560018,0.297704,1.988283,0.582155,0.018479,0.029627
1765916345.950210,-9.600070,0.125538,2.219034,0.580780,0.030696,0.035430
1765916345.950460,-9.197751,-0.485414,1.318747,0.588263,0.030696,0.060628
1765916345.950710,-9.922284,-0.749641,2.445002,0.582613,0.026114,0.033292
1765916345.950938,-10.282160,-0.457317,1.988283,0.596510,0.030696,0.038637
1765916345.951188,-9.722619,-0.811812,1.568627,0.596204,0.030696,0.049480
1765916345.951438,-9.722619,-0.811812,1.568627,0.596204,0.045968,0.049480
1765916345.951688,-9.473337,-0.653993,1.651721,0.580780,0.057879,0.037568
1765916345.951940,-9.056072,-0.255858,0.705404,0.588569,0.060170,0.040317
1765916345.952140,-9.372309,-0.111789,1.019847,0.579864,0.065821,0.037415
1765916345.952340,-9.118841,-0.719153,0.873984,0.580169,0.065821,0.067653
1765916345.952540,-9.118841,-0.719153,0.873984,0.580169,0.050702,0.067653
1765916345.952740,-8.688426,-0.902080,0.179340,0.602313,0.066737,0.042455
1765916345.952934,-8.662123,-0.948111,0.273792,0.609033,0.097891,0.049327
1765916345.953184,-9.265901,-0.726925,1.481946,0.630108,0.086132,0.053909
1765916345.953434,-10.326398,-0.163797,2.326638,0.618501,0.110108,0.045204
1765916345.953684,-10.675513,-0.075323,2.474294,0.624762,0.098502,0.073457
1765916345.954000,-10.783116,-0.782520,3.011119,0.619265,0.089492,0.075289
1765916345.954250,-10.915829,-0.735294,2.222620,0.630260,0.089492,0.060781
1765916345.954500,-10.767575,-1.013271,2.808465,0.636827,0.103236,0.065363
1765916345.954750,-10.895503,-0.734098,2.619560,0.636216,0.103236,0.040623
1765916345.954952,-11.226684,0.321616,2.372071,0.639881,0.103847,0.058185
1765916345.955202,-10.522476,-0.283357,2.193328,0.622166,0.108429,0.064599
1765916345.955452,-10.022716,-0.023912,1.740794,0.600786,0.127518,0.055436
1765916345.955702,-9.348994,-0.231349,1.157341,0.586889,0.129503,0.076816
1765916345.956056,-8.964011,-0.296509,0.682688,0.590096,0.129045,0.072388
1765916345.956306,-10.092059,-0.178742,1.855571,0.590249,0.137445,0.067653
1765916345.956556,-9.579147,-0.381396,0.838116,0.595135,0.147371,0.079565
1765916345.956806,-9.525346,-0.780727,1.293639,0.591318,0.153174,0.070250
1765916345.956961,-9.525346,-0.780727,1.293639,0.591318,0.177609,0.070250
1765916345.957211,-9.136776,0.549976,1.409015,0.604146,0.182496,0.082161
1765916345.957461,-8.843255,0.286346,1.705523,0.598190,0.180969,0.099876
1765916345.957711,-9.356767,-0.071736,1.479555,0.603993,0.169973,0.100487
1765916345.957933,-8.970588,-1.128646,1.046150,0.609796,0.174249,0.116217
1765916345.958133,-8.970588,-1.128646,1.046150,0.609796,0.166461,0.116217
1765916345.958333,-9.884026,-0.209230,1.152558,0.630718,0.178984,0.074220
1765916345.958533,-9.990434,-0.148254,2.020564,0.624457,0.196088,0.074526
1765916345.958733,-9.715446,0.356289,1.042563,0.625831,0.206167,0.082620
1765916345.959275,-9.374102,0.287542,0.942731,0.611476,0.204945,0.091324
1765916345.959525,-9.499043,0.231349,0.817790,0.602619,0.204487,0.094531
1765916345.959775,-9.587517,-0.102224,0.802845,0.601702,0.205251,0.111788
1765916345.960025,-9.942013,-0.365256,1.200382,0.606589,0.218537,0.106443
1765916345.959881,-9.656861,-0.569703,0.852463,0.601397,0.231212,0.106749
1765916345.960131,-10.215207,-0.375418,1.973936,0.610560,0.231212,0.106291
1765916345.960381,-10.204447,-0.381994,1.426351,0.624915,0.240681,0.108581
1765916345.960631,-10.518291,-0.707197,2.734338,0.627511,0.233656,0.118813
1765916345.960930,-10.154231,-0.468675,1.095767,0.643241,0.235794,0.123547
1765916345.961180,-9.090745,-0.972023,0.278575,0.640492,0.231060,0.122173
1765916345.961430,-8.806790,-0.932568,0.292922,0.644310,0.231060,0.107665
1765916345.961680,-8.752988,-0.750239,0.435198,0.671952,0.232434,0.121409
1765916345.961872,-9.419535,-0.961262,1.782640,0.663247,0.232587,0.112705
1765916345.962122,-9.419535,-0.961262,1.782640,0.663247,0.242514,0.112705
1765916345.962372,-10.541606,0.314443,1.854973,0.653168,0.259160,0.103236
1765916345.962622,-9.768052,-0.082496,0.893113,0.644005,0.261145,0.111025
1765916345.962893,-10.137493,0.535629,1.258967,0.630871,0.263130,0.108276
1765916345.963143,-10.093256,0.126734,2.406743,0.605215,0.293826,0.111941
1765916345.963393,-10.047822,-0.131516,1.299617,0.610865,0.267406,0.126602
1765916345.963643,-9.582734,-0.300693,0.978599,0.598190,0.255953,0.112399
1765916345.963917,-9.642514,-0.087279,0.493783,0.605520,0.268170,0.103542
1765916345.964167,-9.126613,-0.430416,0.881157,0.612698,0.280693,0.107970
1765916345.964417,-9.506216,0.346724,1.065280,0.619723,0.270766,0.095600
1765916345.964667,-9.742945,0.267814,0.992348,0.616516,0.274126,0.110414
1765916345.964927,-9.697512,0.183525,1.311573,0.626595,0.279013,0.109498
1765916345.965127,-9.775226,-0.028694,0.459110,0.636827,0.298102,0.112246
1765916345.965327,-9.769248,-0.312052,1.270325,0.645990,0.305127,0.119271
1765916345.965527,-10.153036,-0.540411,1.059899,0.649655,0.316886,0.099113
1765916345.965727,-9.894786,0.239120,1.111908,0.652862,0.316886,0.099418
1765916345.965910,-9.873264,0.879962,0.853658,0.652862,0.332158,0.099418
1765916345.966160,-9.457196,0.391559,1.228479,0.627206,0.349873,0.118202
1765916345.966410,-9.481109,-0.010163,0.500956,0.632856,0.326660,0.135307
1765916345.966660,-9.554040,-0.816595,-0.047824,0.618959,0.306196,0.122784
1765916345.966932,-9.838593,-0.812410,0.596604,0.626290,0.318719,0.102473
1765916345.967182,-9.502629,-0.282162,0.319225,0.645379,0.342237,0.092088
1765916345.967432,-9.246771,-0.263032,0.864419,0.631482,0.335976,0.085827
1765916345.967682,-9.521759,0.222382,1.119082,0.632704,0.337198,0.081398
1765916345.967950,-9.774031,0.186514,0.239120,0.654237,0.321315,0.113163
1765916345.968200,-9.189980,-0.255858,0.296509,0.655153,0.333991,0.123395
1765916345.968450,-9.615613,-0.032879,1.221903,0.667218,0.343001,0.115912
1765916345.968700,-9.878048,-0.343137,1.841224,0.664469,0.334296,0.131641
1765916345.968952,-9.295193,-0.720349,0.370038,0.667523,0.334296,0.123853
1765916345.969202,-9.295193,-0.720349,0.370038,0.667523,0.327118,0.123853
1765916345.969452,-8.693208,-1.212338,-0.267814,0.684627,0.334296,0.111788
1765916345.969702,-9.656861,-0.163797,0.587040,0.696692,0.331242,0.094226
1765916345.969904,-9.322691,0.396939,0.862028,0.674853,0.333838,0.091019
1765916345.970104,-8.538976,0.762793,-0.778336,0.658055,0.333838,0.101556
1765916345.970304,-9.176230,0.590029,-0.098039,0.630718,0.334449,0.107360
1765916345.970504,-9.006455,0.350909,-0.167384,0.640645,0.346361,0.119119
1765916345.970704,-9.018411,-0.529651,0.642037,0.633925,0.348957,0.116981
1765916345.970912,-8.885700,0.333572,0.215208,0.631482,0.359342,0.089950
1765916345.971162,-9.185795,0.583453,0.777738,0.625373,0.359342,0.098655
1765916345.971412,-9.185795,0.583453,0.777738,0.625373,0.344223,0.098655
1765916345.971662,-9.263509,0.316236,0.410091,0.642325,0.339336,0.122173
1765916345.971906,-9.714250,-0.258250,1.051530,0.638965,0.339336,0.124769
1765916345.972156,-10.180533,-0.216404,0.500956,0.645226,0.343764,0.111177
1765916345.972406,-10.084289,-0.200861,0.306074,0.659276,0.327576,0.101251
1765916345.972656,-9.854136,0.016738,0.283357,0.664163,0.338877,0.089950
1765916345.972886,-10.190099,0.556552,0.276781,0.676991,0.350484,0.090103
1765916345.973136,-9.699306,-0.027499,0.701817,0.662942,0.360105,0.091935
1765916345.973386,-9.311932,0.471066,-0.129125,0.656986,0.345444,0.081092
1765916345.973636,-9.751911,0.896700,0.462697,0.646601,0.350789,0.074678
1765916345.974937,-9.553442,0.822573,0.502152,0.640798,0.364076,0.104916
1765916345.975187,-9.723815,-0.517695,0.796867,0.635605,0.335976,0.112552
1765916345.975437,-9.450023,-0.516499,0.013152,0.635911,0.317803,0.085063
1765916345.975687,-9.513390,-0.252869,-0.656384,0.635911,0.304058,0.085063
1765916345.974981,-9.136776,-0.215208,-0.460306,0.653931,0.332769,0.080176
1765916345.975181,-8.666904,0.454328,-1.276303,0.676533,0.333991,0.071471
1765916345.975381,-8.761356,0.393352,0.029890,0.670425,0.334143,0.083078
1765916345.975581,-8.556910,0.322214,-1.857962,0.674395,0.324522,0.094073
1765916345.975781,-8.867765,-0.503945,-1.104137,0.686307,0.314596,0.097586
1765916345.975877,-9.329267,-0.456121,-0.138690,0.691347,0.353538,0.087812
1765916345.976127,-10.845288,-0.031683,1.347441,0.701121,0.359647,0.080176
1765916345.976377,-10.543399,-0.266021,1.167503,0.690278,0.378889,0.081856
1765916345.976627,-10.185316,-0.312649,-0.211621,0.692721,0.353691,0.078343
1765916345.976867,-10.743662,-0.180536,0.231349,0.692721,0.329104,0.081551
1765916345.977117,-11.199186,-0.090268,1.388092,0.678213,0.341626,0.060323
1765916345.977367,-10.808225,0.475251,0.815399,0.671188,0.353996,0.070708
1765916345.977617,-9.577952,-0.113582,-0.120158,0.644310,0.335212,0.056963
1765916345.977910,-9.447632,0.584648,-0.758608,0.648739,0.312610,0.050244
1765916345.978160,-9.885221,0.353898,-0.261239,0.648281,0.305280,0.065821
1765916345.978410,-10.156025,0.127331,0.588235,0.646143,0.325591,0.052534
1765916345.978660,-9.989238,0.902678,0.115375,0.647517,0.338572,0.053145
1765916345.978902,-10.663557,1.182449,1.000717,0.641867,0.326660,0.062308
1765916345.979152,-10.763988,0.755021,0.153037,0.654542,0.319635,0.083994
1765916345.979402,-10.936153,-0.312052,0.109397,0.655306,0.316123,0.090561
1765916345.979652,-10.239119,-0.505739,-0.412482,0.669050,0.334601,0.058948
1765916345.979915,-10.937350,0.059780,0.927786,0.682489,0.316428,0.052229
1765916345.980115,-10.774747,-0.021521,0.197274,0.681267,0.313679,0.041081
1765916345.980315,-10.310855,0.734098,0.044237,0.681420,0.306349,0.027794
1765916345.980515,-9.460783,1.212936,-0.689861,0.679588,0.331394,0.041692
1765916345.980715,-8.655546,0.221186,-1.001315,0.665690,0.301615,0.059865
1765916345.980925,-9.744141,0.382592,0.159015,0.664469,0.278707,0.052076
1765916345.981175,-10.007172,0.856050,-0.634864,0.662178,0.284969,0.048717
1765916345.981425,-10.074724,0.368245,0.384983,0.656986,0.285427,0.053603
1765916345.981675,-9.362743,0.043042,-0.751435,0.663247,0.306654,0.050855
1765916345.982011,-9.118841,-0.578670,-1.069464,0.669050,0.277180,0.050855
1765916345.982261,-9.555235,-0.353898,-0.762195,0.663094,0.285427,0.027794
1765916345.982511,-10.835724,1.018651,-0.338355,0.698524,0.271071,0.027184
1765916345.982761,-10.684480,0.410091,0.084888,0.678519,0.304822,0.052229
1765916345.982908,-9.781204,0.194883,-0.682090,0.693637,0.287412,0.048258
1765916345.983158,-10.071137,-0.218795,-0.104017,0.687376,0.277486,0.040164
1765916345.983408,-9.832614,-0.254663,-1.054519,0.698983,0.266337,0.033903
1765916345.983658,-9.832614,-0.254663,-1.054519,0.698983,0.262214,0.033903
1765916345.983894,-9.436871,-0.092061,-0.192492,0.717309,0.273515,0.026267
1765916345.984144,-9.986848,0.934959,-0.604974,0.707993,0.261145,0.028558
1765916345.984394,-9.876852,0.450741,0.029890,0.684016,0.261603,0.037110
1765916345.984644,-9.935436,-0.126734,-1.336083,0.675922,0.242055,0.041233
1765916345.984980,-10.366450,-0.689861,-0.550574,0.666759,0.236710,0.033445
1765916345.985230,-10.801648,-0.325203,0.074127,0.665538,0.256563,0.001374
1765916345.985480,-10.990553,0.495576,-0.216404,0.664774,0.256563,0.008705
1765916345.985730,-10.056191,0.233142,-0.955284,0.662636,0.245110,0.008552
1765916345.985921,-9.860114,0.597800,-1.235055,0.660803,0.252593,-0.003207
1765916345.986171,-10.043638,0.679101,-0.882951,0.670119,0.245415,0.011606
1765916345.986421,-9.873264,-0.013749,-0.601387,0.668745,0.235336,0.015119
1765916345.986671,-10.014346,0.303682,-0.670732,0.673326,0.235336,0.003207
1765916345.986881,-9.734576,0.212817,-0.856050,0.677144,0.243277,0.000611
1765916345.987081,-9.562408,0.597202,-0.687470,0.688903,0.222508,0.001527
1765916345.987281,-10.186513,0.487805,-0.088474,0.694248,0.218384,0.003360
1765916345.987481,-9.531323,-0.097441,-0.901482,0.697761,0.209374,0.011759
1765916345.987681,-9.595288,-0.034672,-0.716164,0.695776,0.194408,-0.005803
1765916345.987886,-9.595288,-0.034672,-0.716164,0.695776,0.185550,-0.005803
1765916345.988136,-10.379004,0.732903,-0.546389,0.681573,0.167835,-0.003054
1765916345.988386,-9.948587,0.118364,-0.871592,0.665080,0.167835,-0.007636
1765916345.988636,-9.948587,0.118364,-0.871592,0.665080,0.174249,-0.007636
1765916345.988895,-9.856527,-0.300096,-0.575681,0.665080,0.177915,-0.027489
1765916345.989145,-10.243303,0.283955,-0.790292,0.665080,0.160810,-0.027489
1765916345.989395,-10.813007,0.428623,-0.065758,0.676533,0.170890,-0.035583
1765916345.989645,-10.731706,0.413678,-0.231946,0.698524,0.170890,-0.026114
1765916345.989922,-10.251074,0.200263,-0.007174,0.707535,0.161116,-0.021380
1765916345.990172,-10.255857,0.566714,-0.695839,0.704175,0.148746,-0.018326
1765916345.990422,-10.066355,0.101626,-0.870397,0.705549,0.127671,-0.022602
1765916345.990672,-10.251074,-0.095648,-0.468675,0.706466,0.129656,-0.018479
1765916345.990933,-10.127330,-0.395744,-1.147178,0.727540,0.129045,-0.020311
1765916345.991183,-10.332973,-0.213415,-0.686274,0.719141,0.128434,-0.034972
1765916345.991433,-10.724532,0.425634,-0.870995,0.718225,0.105069,-0.034056
1765916345.991683,-11.343255,0.393352,-0.187709,0.714407,0.105069,-0.024435
1765916345.991899,-11.095169,0.082496,-0.352702,0.700357,0.118661,-0.018479
1765916345.992149,-11.309181,0.249283,-0.579268,0.693790,0.118661,-0.018631
1765916345.992399,-11.414393,-0.585844,0.013152,0.668439,0.110108,-0.029474
1765916345.992649,-12.181969,0.049617,-0.058584,0.685544,0.077122,-0.038026
1765916345.992891,-11.825680,0.125538,-0.390961,0.676228,0.090408,-0.055589
1765916345.993141,-11.825680,0.125538,-0.390961,0.676228,0.105985,-0.055589
1765916345.993391,-11.400046,1.333094,0.096246,0.685238,0.095906,-0.041844
1765916345.993641,-11.570419,0.846485,0.585246,0.676991,0.068875,-0.024435
1765916345.993970,-10.787899,0.496772,-0.911047,0.673632,0.050396,-0.025809
1765916345.994220,-10.707196,-0.052606,-0.515304,0.684780,0.050396,-0.027489
1765916345.994470,-10.707196,-0.052606,-0.515304,0.684780,0.053298,-0.027489
1765916345.994720,-9.894786,0.274988,-1.544715,0.705091,0.036194,-0.049938
1765916345.994951,-10.038857,0.296509,-1.244620,0.707229,0.036194,-0.056963
1765916345.995151,-10.280366,0.311454,-1.235055,0.708604,0.029780,-0.056200
1765916345.995351,-10.352701,0.695839,-1.184242,0.711047,0.030849,-0.056200
1765916345.995551,-10.998324,0.520086,-0.189503,0.690889,0.037721,-0.056505
1765916345.995751,-10.983977,0.408895,-0.400526,0.690889,0.023824,-0.044593
1765916345.995957,-10.669536,-0.122549,-0.487805,0.687987,0.020311,-0.062766
1765916345.996207,-10.203251,-0.063965,-1.642754,0.689361,0.010843,-0.071777
1765916345.996457,-10.487803,0.280368,-1.042563,0.698372,-0.006414,-0.072846
1765916345.996707,-10.359276,0.565519,-0.876973,0.696234,-0.008705,-0.083078
1765916345.996930,-10.187708,1.019847,-0.571497,0.698830,0.002596,-0.072540
1765916345.997180,-9.739358,0.191894,-1.103539,0.713491,-0.009468,-0.050549
1765916345.997430,-9.907937,0.060976,-1.414993,0.704328,-0.029780,-0.057574
1765916345.997680,-10.475847,-0.151841,-0.708991,0.708145,-0.029780,-0.069486
1765916345.997887,-10.559540,0.007174,-0.410091,0.722654,-0.027489,-0.073762
1765916345.998137,-10.805833,-0.075921,0.148254,0.721585,-0.029932,-0.075595
1765916345.998387,-10.789692,0.164395,-0.224175,0.732886,-0.043830,-0.079718
1765916345.998637,-11.319942,-0.065758,-0.252272,0.732886,-0.057879,-0.079718
1765916345.998915,-11.645144,0.221186,-0.495576,0.729984,-0.070097,-0.073915
1765916345.999165,-11.562648,-0.316834,0.009565,0.720668,-0.056047,-0.063683
1765916345.999415,-10.992347,-0.405308,-0.565519,0.707535,-0.058948,-0.073304
1765916345.999665,-11.846603,-0.212219,-0.254663,0.681878,-0.080023,-0.093615
1765916346.001994,-12.149689,0.092659,0.160210,0.685696,-0.085216,-0.089034
1765916346.002244,-11.198588,-0.188307,-0.865614,0.685391,-0.090255,-0.089034
1765916346.002494,-10.738879,0.441774,-0.619321,0.689209,-0.090255,-0.094073
1765916346.002744,-10.284551,0.331181,-1.065280,0.675922,-0.128129,-0.092241
1765916346.002064,-10.251074,0.673721,-1.129244,0.690736,-0.128129,-0.083383
1765916346.002314,-9.875058,0.093855,-1.743185,0.687681,-0.108276,-0.078649
1765916346.002564,-9.378286,0.029292,-1.716882,0.693332,-0.118202,-0.075136
1765916346.002814,-10.127929,-0.127929,-0.425634,0.685085,-0.109650,-0.091630
1765916346.002978,-10.297105,-0.023912,-0.910449,0.704175,-0.130420,-0.091935
1765916346.003228,-10.784312,-0.046628,-0.485414,0.698677,-0.139583,-0.105069
1765916346.003478,-11.131634,1.153156,-0.469273,0.713491,-0.129656,-0.111483
1765916346.003728,-11.138209,0.748446,0.344333,0.697455,-0.131489,-0.079871
1765916346.003879,-11.030605,0.555954,-0.304878,0.695165,-0.153022,-0.081245
1765916346.004212,-10.917622,0.443568,-0.730512,0.673326,-0.164475,-0.090408
1765916346.004546,-10.542801,0.322214,-1.045552,0.665538,-0.152716,-0.082314
1765916346.004934,-10.442968,-0.350311,-1.126255,0.661873,-0.159589,-0.085674
1765916346.005184,-11.224294,0.075323,0.051411,0.667828,-0.178831,-0.097586
1765916346.005434,-10.771160,0.014347,-0.593018,0.652557,-0.170431,-0.109650
1765916346.005684,-10.388569,1.000717,-1.367766,0.668134,-0.192117,-0.101404
1765916346.005860,-10.300693,0.320421,-1.039574,0.659734,-0.185703,-0.091324
1765916346.006110,-10.294117,0.066356,-1.211143,0.686918,-0.212581,-0.071624
1765916346.006360,-10.834527,-0.656384,-0.202056,0.670119,-0.202960,-0.094073
1765916346.006610,-10.297703,-0.298900,-1.634385,0.681726,-0.197920,-0.104153
1765916346.006900,-10.211619,-0.277379,-1.358202,0.683253,-0.211665,-0.100945
1765916346.007150,-10.848875,0.258250,-0.456719,0.679588,-0.211359,-0.115301
1765916346.007400,-11.103539,0.176949,-0.133907,0.667981,-0.216552,-0.097128
1765916346.007650,-10.492586,-0.029292,-0.936155,0.675770,-0.233961,-0.092393
1765916346.007947,-10.334169,-0.215208,-1.498087,0.657902,-0.233961,-0.091172
1765916346.008197,-10.773552,-0.477044,-0.918221,0.660803,-0.254120,-0.093157
1765916346.008447,-11.083213,-0.174558,-0.109397,0.639118,-0.242514,-0.107818
1765916346.008697,-10.600189,-0.218795,-0.662362,0.634231,-0.260687,-0.098807
1765916346.008919,-10.624102,-0.008369,-0.435198,0.621555,-0.286801,-0.106901
1765916346.009169,-10.937350,-0.152439,-0.302487,0.605367,-0.286801,-0.110719
1765916346.009419,-11.053322,0.027499,0.254663,0.599411,-0.294742,-0.110261
1765916346.009669,-10.951097,0.216404,-0.147059,0.602008,-0.296881,-0.104153
1765916346.009991,-10.983977,-0.249880,0.265423,0.584903,-0.312610,-0.107360
1765916346.010241,-10.852463,0.121951,-0.350311,0.584903,-0.311389,-0.107360
1765916346.010491,-10.836919,-0.215806,-0.734098,0.588416,-0.330020,-0.111483
1765916346.010741,-10.491391,0.509326,-0.604974,0.592081,-0.322842,-0.123089
1765916346.010976,-10.083690,0.388570,-0.558345,0.577115,-0.321162,-0.116370
1765916346.011226,-10.211022,0.518293,-0.517695,0.580475,-0.321162,-0.107970
1765916346.011476,-10.211022,0.518293,-0.517695,0.580475,-0.328035,-0.107970
1765916346.011726,-9.808702,0.435198,-0.573888,0.570243,-0.346513,-0.098502
1765916346.012038,-10.098636,-0.451339,-0.401722,0.575588,-0.324828,-0.095295
1765916346.012371,-10.198468,-0.156624,0.173960,0.570548,-0.333838,-0.106443
1765916346.012705,-10.569104,-0.005380,-0.039455,0.559400,-0.330631,-0.124158
1765916346.012979,-10.569104,-0.005380,-0.039455,0.559400,-0.353080,-0.124158
1765916346.013229,-9.863700,0.524868,-1.308584,0.549473,-0.342390,-0.115148
1765916346.013479,-8.893471,0.381396,-1.722262,0.550695,-0.322690,-0.103847
1765916346.013729,-9.469152,0.575681,-0.728120,0.529162,-0.340557,-0.102778
1765916346.013976,-10.271400,0.648613,-0.416667,0.516181,-0.340557,-0.111483
1765916346.014226,-10.079505,0.598996,-0.645624,0.512363,-0.332005,-0.089797
1765916346.014476,-9.225250,0.439981,-1.521999,0.501979,-0.315665,-0.093462
1765916346.014726,-9.738162,0.465088,-0.988163,0.498619,-0.315665,-0.090408
1765916346.014969,-10.269009,0.230153,0.218197,0.484416,-0.326966,-0.090866
1765916346.015219,-10.529649,0.889526,0.129125,0.485180,-0.326966,-0.106749
1765916346.015469,-9.942610,1.171688,-0.658178,0.477238,-0.313374,-0.085063
1765916346.015719,-9.384863,0.951698,-0.597800,0.471283,-0.322384,-0.073304
1765916346.015954,-10.101624,0.786705,0.224773,0.462578,-0.327882,-0.069944
1765916346.016204,-10.595408,0.493783,0.976805,0.462578,-0.338267,-0.069944
1765916346.016454,-10.419655,0.438187,0.031086,0.448986,-0.336739,-0.065973
1765916346.016704,-9.952174,0.202056,-0.545194,0.438449,-0.345139,-0.075747
1765916346.016986,-9.647895,0.608560,-0.146461,0.441045,-0.335670,-0.080787
1765916346.017236,-9.707675,1.245217,-0.289335,0.435852,-0.343306,-0.068875
1765916346.017486,-9.707675,1.245217,-0.289335,0.435852,-0.340405,-0.068875
1765916346.017736,-8.736250,1.083214,-1.239837,0.418443,-0.336587,-0.066737
1765916346.017933,-8.597560,1.140602,-1.323529,0.413861,-0.333380,-0.050091
1765916346.018266,-8.139048,1.267336,-1.686992,0.411418,-0.339641,-0.046120
1765916346.018600,-8.572453,0.985174,-0.582257,0.386372,-0.335670,-0.048869
1765916346.018985,-8.720706,1.116690,-0.418460,0.383471,-0.319024,-0.051924
1765916346.019235,-8.531204,1.398852,-1.351626,0.380111,-0.330631,-0.049022
1765916346.019485,-8.688426,1.488522,-0.932568,0.364992,-0.326507,-0.056505
1765916346.019735,-8.903633,1.626016,-0.486609,0.355218,-0.320857,-0.052534
1765916346.019901,-9.445240,1.235055,0.190698,0.332922,-0.320857,-0.038943
1765916346.020151,-9.426111,1.501674,-0.002989,0.325744,-0.328187,-0.068722
1765916346.020401,-8.950860,1.909373,-1.162123,0.314290,-0.312458,-0.062919
1765916346.020651,-8.470826,1.759923,-1.411406,0.309251,-0.308487,-0.043524
1765916346.020930,-9.151123,1.699546,-0.334768,0.297797,-0.321468,-0.051313
1765916346.021180,-9.625775,2.040889,0.002989,0.277638,-0.303142,-0.051924
1765916346.021430,-8.935317,2.028933,-0.949306,0.271682,-0.292910,-0.044593
1765916346.021680,-8.371592,1.600909,-1.398254,0.255953,-0.285427,-0.031765
1765916346.021975,-8.371592,1.600909,-1.398254,0.255953,-0.286649,-0.031765
1765916346.022225,-9.114058,1.269727,-0.199665,0.233198,-0.260687,-0.041844
1765916346.022475,-9.212098,1.422764,-0.246294,0.225409,-0.259160,-0.047800
1765916346.022725,-8.715924,1.696556,-0.792683,0.218537,-0.259007,-0.057116
1765916346.022950,-8.342299,2.015782,-0.973218,0.202502,-0.245110,-0.046273
1765916346.023200,-8.529411,1.792204,-0.692252,0.189674,-0.237168,-0.037568
1765916346.023450,-8.780487,1.385700,-0.481827,0.176082,-0.239001,-0.027642
1765916346.023700,-8.806790,1.248206,-0.870397,0.170737,-0.231365,-0.040012
1765916346.023922,-8.617886,1.416188,-0.989957,0.167072,-0.214261,-0.044288
1765916346.024255,-8.690817,1.183644,-0.349115,0.155312,-0.200364,-0.041692
1765916346.024589,-8.637612,1.481349,-0.698828,0.146913,-0.190437,-0.039859
1765916346.025185,-8.739837,1.417982,-0.758010,0.133016,-0.183412,-0.039859
1765916346.025435,-8.861190,1.675036,-0.642037,0.127671,-0.177304,-0.036041
1765916346.025685,-9.050693,1.529172,-0.212817,0.119730,-0.156840,-0.020464
1765916346.025935,-8.808583,1.096365,-0.447154,0.111483,-0.141873,-0.016188
1765916346.025977,-8.862983,0.948111,-0.551172,0.094379,-0.141873,-0.026878
1765916346.026227,-9.098516,1.100550,-0.294118,0.090713,-0.140499,-0.023824
1765916346.026477,-9.285029,1.029412,-0.023912,0.085674,-0.131031,-0.021228
1765916346.026727,-8.993303,0.983979,-0.595409,0.075900,-0.119271,-0.017868
1765916346.026898,-9.019607,0.717958,-0.424438,0.064752,-0.109650,-0.021991
1765916346.027098,-9.062648,0.871592,-0.259445,0.066279,-0.099876,-0.023976
1765916346.027298,-9.135580,0.960665,-0.196078,0.066279,-0.093768,-0.023976
1765916346.027498,-8.885102,0.743663,-0.552367,0.051465,-0.091019,-0.015882
1765916346.027698,-9.202533,0.673123,-0.225968,0.044440,-0.087965,-0.020464
1765916346.028027,-9.141558,0.636657,-0.240316,0.047495,-0.074678,-0.014203
1765916346.028277,-9.093734,0.593018,-0.157819,0.034972,-0.072998,-0.016341
1765916346.028527,-9.059061,0.857245,-0.651004,0.027031,-0.063683,-0.017257
1765916346.028777,-9.184600,0.784314,-0.498565,0.025656,-0.046120,-0.010690
1765916346.028871,-9.201338,0.640842,-0.157819,0.029627,-0.046120,-0.003971
1765916346.029121,-9.366330,0.442372,-0.013152,0.029627,-0.040317,-0.003971
1765916346.029371,-9.324485,0.409493,-0.001196,0.018173,-0.031765,-0.005192
1765916346.029621,-9.476326,0.430416,-0.069345,0.016952,-0.034819,-0.006872
1765916346.029886,-9.537301,0.335964,0.038857,0.017562,-0.021991,-0.002138
1765916346.030086,-9.526542,0.221784,-0.111789,0.011301,-0.021991,-0.007178
1765916346.030286,-9.526542,0.221784,-0.111789,0.011301,-0.008247,-0.007178
1765916346.030486,-9.662242,0.300096,0.058584,0.006109,-0.011148,-0.010690
1765916346.030686,-9.897178,0.387374,0.440579,0.005803,-0.007636,-0.007941
1765916346.030946,-9.781204,0.136298,0.230751,0.000916,0.001680,-0.005192
1765916346.031146,-9.799137,0.140483,0.199665,0.002138,-0.003360,-0.001374
1765916346.031346,-9.910329,0.072932,0.262434,-0.000153,-0.003971,-0.004276
1765916346.031546,-10.093256,-0.041846,0.554758,0.002138,-0.003512,-0.004429
1765916346.031746,-9.985652,0.162602,0.274988,-0.001833,-0.003512,-0.009163
1765916346.031914,-10.029889,0.836920,0.437590,-0.010537,-0.000764,-0.020464
1765916346.032114,-10.063366,0.982783,0.467480,-0.018937,0.002443,-0.006872
1765916346.032314,-9.923481,-0.021521,0.059182,-0.018937,-0.008705,-0.006872
1765916346.032514,-9.858918,-0.884744,0.021521,-0.010537,-0.004734,0.016035
1765916346.032714,-10.246293,-0.606767,0.728120,-0.014050,-0.004734,-0.015730
1765916346.032932,-9.952174,-0.145863,0.355093,-0.009468,0.007636,-0.013134
1765916346.033132,-9.802725,0.060976,-0.102822,-0.006109,-0.011759,-0.004276
1765916346.033332,-10.032877,-0.062171,0.351506,-0.008399,-0.014203,0.000305
1765916346.033532,-10.104015,-0.148254,0.512912,-0.005345,0.001833,0.001222
1765916346.033732,-9.805714,-0.347920,0.169775,-0.005498,-0.002596,0.001985
1765916346.033947,-9.820659,-0.104017,0.072932,-0.006567,-0.010079,-0.011148
1765916346.034147,-10.062170,0.025705,0.422047,-0.004276,-0.007789,-0.002291
1765916346.034347,-9.964130,-0.065160,0.407102,-0.003971,-0.007789,0.003207
1765916346.034547,-9.911524,-0.135103,0.271999,-0.006109,-0.009621,0.001069
1765916346.034747,-9.933045,-0.043042,0.195481,-0.006872,-0.007330,0.000305
1765916346.034980,-10.011356,-0.074127,0.298900,-0.003818,-0.008552,0.004429
1765916346.035180,-10.104015,-0.096844,0.533238,-0.006109,-0.010537,0.000458
1765916346.035380,-10.028693,-0.092061,0.429220,-0.007636,-0.004429,0.001833
1765916346.035580,-9.862504,-0.011956,0.197274,-0.006720,-0.012217,0.001680
1765916346.035780,-9.886416,0.072932,0.242109,-0.002902,-0.012217,0.000458
1765916346.035918,-9.984456,0.044237,0.473458,-0.005651,-0.008247,0.001069
1765916346.036118,-10.002390,-0.008369,0.387374,-0.009163,-0.006109,0.002291
1765916346.036318,-9.940218,-0.033477,0.259445,-0.007636,-0.007789,0.003818
1765916346.036518,-9.941415,-0.020325,0.307269,-0.005956,-0.008094,0.002443
1765916346.036718,-10.045432,0.011358,0.510521,-0.004429,-0.007636,0.002749
1765916346.036973,-10.015541,-0.064562,0.453132,-0.006109,-0.007025,0.002902
1765916346.037173,-9.887612,-0.053802,0.270206,-0.003818,-0.005956,0.001527
1765916346.037373,-9.814083,-0.050215,0.181731,-0.005345,-0.010537,0.001527
1765916346.037573,-9.929459,-0.050215,0.423242,-0.005192,-0.011606,0.002443
1765916346.037773,-9.997009,-0.041248,0.467480,-0.004734,-0.009927,0.000764
1765916346.037943,-9.930654,0.009565,0.348517,-0.009010,-0.007178,-0.002596
1765916346.038143,-9.835604,0.040650,0.276184,-0.003665,-0.006567,-0.000916
1765916346.038343,-9.948587,0.059780,0.388570,-0.004276,-0.008858,0.000305
1765916346.038543,-9.996411,0.057389,0.487207,-0.006872,-0.007483,-0.002291
1765916346.038743,-9.891200,0.087279,0.323410,-0.007636,-0.006414,-0.000153
1765916346.038940,-9.752509,0.045433,0.154232,-0.004429,-0.006872,-0.000611
1765916346.039140,-9.784791,0.052009,0.251076,-0.004887,-0.007789,-0.001222
1765916346.039340,-10.004184,0.081301,0.442372,-0.007636,-0.009316,0.000764
1765916346.039540,-10.068149,0.082496,0.545791,-0.008552,-0.007789,0.000458
1765916346.039740,-9.862504,0.035868,0.219990,-0.006414,-0.002291,0.000153
1765916346.039977,-9.900764,0.005978,0.249283,-0.007025,-0.008399,-0.000305
1765916346.040177,-9.986848,-0.002391,0.386179,-0.007636,-0.004887,-0.002138
1765916346.040377,-9.996411,0.051411,0.454328,-0.007330,-0.007483,-0.001069
1765916346.040577,-9.818267,0.017934,0.151243,-0.009927,-0.003360,-0.000458
1765916346.040777,-9.775824,-0.003587,0.149450,-0.011912,-0.010843,-0.001069
1765916346.040956,-9.966521,-0.022716,0.399330,-0.012065,-0.010843,0.000458
1765916346.041156,-10.074127,-0.038259,0.508130,-0.009774,-0.009163,0.001374
1765916346.041356,-9.936632,-0.077714,0.270803,-0.006872,-0.002902,-0.001374
1765916346.041556,-9.863700,-0.047226,0.197274,-0.009468,-0.005040,-0.003360
1765916346.041756,-9.952174,0.007174,0.383788,-0.012065,-0.006720,-0.000764
1765916346.041970,-10.046627,-0.062171,0.512912,-0.010843,-0.005345,-0.000458
1765916346.042170,-10.034670,-0.069345,0.399928,-0.010537,-0.004581,-0.002138
1765916346.042370,-9.906144,-0.090866,0.208034,-0.007636,-0.003818,-0.001374
1765916346.042570,-9.906144,-0.090866,0.208034,-0.007636,-0.008552,-0.001374
1765916346.042770,-10.074724,-0.100430,0.494978,-0.006720,-0.005498,-0.002138
1765916346.042936,-10.035269,-0.071736,0.395744,-0.005651,-0.003818,-0.002596
1765916346.043136,-9.945600,-0.023912,0.277379,-0.007025,-0.001527,-0.003054
1765916346.043336,-9.877449,-0.086083,0.242707,-0.010079,-0.007636,-0.000916
1765916346.043536,-9.924676,-0.096844,0.377810,-0.009927,-0.010079,0.000458
1765916346.043736,-9.999999,-0.027499,0.365854,-0.009927,-0.005651,0.000000
1765916346.043951,-9.880439,-0.044237,0.248685,-0.009316,-0.005651,0.000764
1765916346.044151,-9.801530,-0.058584,0.204448,-0.006109,-0.006872,-0.002596
1765916346.044351,-9.937230,-0.070540,0.374821,-0.010385,-0.006567,-0.001374
1765916346.044551,-9.942013,-0.068149,0.351506,-0.009927,-0.006414,-0.001222
1765916346.044751,-9.872069,-0.072932,0.245098,-0.008705,-0.003818,0.000611
1765916346.044910,-9.831419,-0.043042,0.230751,-0.007483,-0.006720,-0.001985
1765916346.045160,-9.946795,-0.035868,0.432807,-0.009621,-0.006414,0.000153
1765916346.045410,-10.014346,-0.075323,0.458513,-0.007330,-0.005651,0.001833
1765916346.045660,-9.984456,-0.028097,0.341942,-0.008552,-0.005651,0.000611
1765916346.045919,-9.984456,-0.028097,0.341942,-0.008552,-0.007789,0.000611
1765916346.046119,-9.854136,-0.066954,0.298900,-0.006567,-0.008858,0.001680
1765916346.046319,-9.854136,-0.066954,0.298900,-0.006567,-0.007941,0.001680
1765916346.046519,-9.891797,-0.034075,0.267217,-0.007330,-0.007483,0.001527
1765916346.046719,-9.861309,-0.047824,0.298302,-0.009621,-0.007483,0.000458
1765916346.046932,-9.928263,-0.050813,0.409493,-0.011606,-0.009468,-0.000153
1765916346.047132,-9.929459,-0.023912,0.402319,-0.005803,-0.007178,0.000458
1765916346.047332,-9.886416,0.001196,0.277379,-0.007025,-0.005498,0.000153
1765916346.047532,-9.844571,-0.011956,0.243305,-0.007330,-0.010232,0.000153
1765916346.047732,-9.842180,-0.013749,0.344931,-0.004123,-0.010232,-0.002749
1765916346.047903,-9.904350,0.052009,0.316834,-0.006720,-0.006261,-0.001527
1765916346.048103,-9.881036,0.040053,0.266619,-0.009621,-0.003818,-0.001374
1765916346.048303,-9.909132,-0.046628,0.319225,-0.010996,-0.004429,-0.001069
1765916346.048503,-9.973696,-0.008369,0.432807,-0.010690,-0.007789,-0.003207
1765916346.048703,-9.956957,0.077714,0.302487,-0.006720,-0.006414,-0.002138
1765916346.048939,-9.833811,0.014945,0.207437,-0.007025,-0.003360,0.000000
1765916346.049106,-9.954566,-0.023912,0.357484,-0.009927,-0.010690,-0.002291
1765916346.049272,-10.056191,-0.026901,0.504543,-0.011454,-0.010690,-0.000305
1765916346.049439,-9.930654,0.008369,0.246294,-0.004734,-0.004429,0.000305
1765916346.049606,-9.819464,0.026901,0.121353,-0.009010,-0.005040,-0.000611
1765916346.049772,-9.849951,0.016141,0.299498,-0.008094,-0.007789,0.000153
1765916346.049915,-9.965326,-0.062769,0.347322,-0.007483,-0.006567,-0.001833
1765916346.050165,-9.899570,-0.047226,0.258250,-0.009163,-0.007483,-0.001222
1765916346.050415,-9.899570,-0.047226,0.258250,-0.009163,-0.007636,-0.001222
1765916346.050665,-9.958152,-0.042444,0.445959,-0.009621,-0.007178,-0.002902
1765916346.050907,-9.972500,0.005380,0.298302,-0.007636,-0.007483,-0.003207
1765916346.051107,-9.876852,-0.066954,0.242707,-0.007636,-0.009163,-0.003360
1765916346.051307,-9.925274,-0.078312,0.390961,-0.005956,-0.009163,-0.001374
1765916346.051507,-9.998802,-0.090866,0.379005,-0.010843,-0.009927,-0.000916
1765916346.051707,-9.908535,-0.057389,0.300096,-0.008858,-0.008094,-0.000153
1765916346.051955,-9.837397,-0.049020,0.261836,-0.007636,-0.007178,0.000000
1765916346.052155,-9.903154,-0.054998,0.338355,-0.006872,-0.007483,-0.001374
1765916346.052355,-10.002390,-0.068747,0.376614,-0.007941,-0.007789,0.000305
1765916346.052555,-9.999999,-0.049020,0.368843,-0.009774,-0.007636,-0.001069
1765916346.052755,-9.950381,-0.075921,0.364658,-0.009010,-0.006109,0.000153
1765916346.052886,-9.876254,-0.005978,0.273792,-0.006261,-0.006567,-0.000916
1765916346.053086,-9.915112,-0.008369,0.294118,-0.008247,-0.004887,-0.000764
1765916346.053286,-9.954566,-0.065758,0.357484,-0.006872,-0.008705,-0.002138
1765916346.053486,-10.014346,-0.072932,0.454926,-0.008247,-0.008552,-0.000305
1765916346.053686,-9.940817,0.022716,0.320421,-0.005498,-0.006872,0.000916
1765916346.053912,-9.863102,-0.046628,0.208632,-0.007636,-0.006109,-0.001985
1765916346.054112,-9.801530,-0.038259,0.237924,-0.007636,-0.006720,-0.001985
1765916346.054312,-9.916306,0.001196,0.350311,-0.007941,-0.008399,-0.000611
1765916346.054512,-9.937828,-0.029292,0.309660,-0.007330,-0.006872,0.000611
1765916346.054712,-9.963533,-0.067551,0.363462,-0.008399,-0.009163,-0.000305
1765916346.054962,-10.002390,-0.038857,0.406504,-0.009163,-0.005345,0.001069
1765916346.055162,-9.988043,0.039455,0.355093,-0.009010,-0.008399,-0.001374
1765916346.055362,-9.890003,-0.028694,0.274988,-0.006567,-0.005803,0.000305
1765916346.055562,-9.912720,-0.047824,0.309660,-0.006567,-0.007789,0.000153
1765916346.055762,-10.049019,-0.050813,0.474653,-0.005956,-0.004276,-0.000153
1765916346.055943,-10.077712,-0.016738,0.425634,-0.009316,-0.004276,-0.002596
1765916346.056143,-9.924078,0.010760,0.236729,-0.006261,-0.003971,0.000000
1765916346.056343,-9.886416,0.000000,0.341942,-0.009927,-0.006109,0.000916
1765916346.056543,-10.017933,-0.057389,0.463295,-0.008705,-0.007330,0.000764
1765916346.056743,-9.998802,-0.059780,0.367647,-0.006872,-0.008552,0.000916
1765916346.056910,-9.897775,-0.004782,0.222382,-0.007789,-0.003971,-0.001833
1765916346.057110,-9.872069,-0.022716,0.226566,-0.006872,-0.007025,-0.000458
1765916346.057310,-10.013150,-0.010760,0.460904,-0.009010,-0.009927,-0.001374
1765916346.057510,-10.086082,0.004782,0.477044,-0.007330,-0.007636,-0.003665
1765916346.057710,-9.941415,0.002391,0.332377,-0.006720,-0.003971,-0.000305
1765916346.057899,-9.852343,-0.028694,0.228360,-0.008552,-0.005498,-0.000305
1765916346.058099,-9.953370,-0.037064,0.335964,-0.008705,-0.010537,-0.000153
1765916346.058299,-10.014346,0.004185,0.467480,-0.008399,-0.007941,0.000153
1765916346.058499,-9.937828,0.016738,0.292922,-0.007483,-0.008705,0.001069
1765916346.058699,-9.846962,-0.010760,0.186514,-0.008399,-0.005498,-0.002596
1765916346.058953,-9.945002,-0.058584,0.405308,-0.008247,-0.008858,-0.000916
1765916346.059153,-10.020923,-0.017934,0.469871,-0.007636,-0.008552,-0.002596
1765916346.059353,-9.894786,-0.026901,0.221186,-0.009621,-0.002902,-0.002902
1765916346.059553,-9.769248,-0.043042,0.188905,-0.008247,-0.005956,-0.000305
1765916346.059753,-9.946198,-0.016738,0.402917,-0.007789,-0.009468,-0.001527
1765916346.059882,-10.101027,-0.027499,0.466284,-0.008858,-0.007789,0.000305
1765916346.060082,-9.974294,-0.065758,0.284553,-0.008858,-0.006261,0.000305
1765916346.060282,-9.864299,-0.089072,0.260641,-0.004887,-0.006567,-0.002902
1765916346.060482,-9.970706,-0.054998,0.487805,-0.008094,-0.006567,-0.003360
1765916346.060682,-9.970706,-0.054998,0.487805,-0.008094,-0.007483,-0.003360
1765916346.060888,-9.983260,0.014347,0.357484,-0.006872,-0.005040,0.000305
1765916346.061088,-9.861907,-0.010760,0.294118,-0.008247,-0.004429,-0.000611
1765916346.061288,-9.901959,-0.082496,0.347920,-0.010690,-0.009316,-0.000611
1765916346.061488,-9.958152,-0.066356,0.370636,-0.009621,-0.009316,-0.002749
1765916346.061688,-9.924676,-0.011956,0.321019,-0.007025,-0.005803,-0.001374
1765916346.061881,-9.813485,-0.025108,0.230751,-0.005956,-0.003665,-0.001222
1765916346.062081,-9.855330,-0.033477,0.304878,-0.006872,-0.007636,-0.001680
1765916346.062281,-9.961740,-0.053802,0.400526,-0.007025,-0.007025,0.000916
1765916346.062481,-9.893590,-0.022716,0.274988,-0.008094,-0.005956,0.001833
1765916346.062681,-9.855330,-0.015543,0.275586,-0.005651,-0.005803,-0.001222
1765916346.062940,-10.028693,-0.046628,0.444763,-0.005956,-0.006261,-0.002749
1765916346.063140,-10.071735,-0.044835,0.471066,-0.008094,-0.006261,-0.001069
1765916346.063340,-10.071735,-0.044835,0.471066,-0.008094,-0.005192,-0.001069
1765916346.063540,-9.857722,-0.013152,0.251076,-0.009316,-0.005651,-0.000916
1765916346.063740,-9.936632,-0.063367,0.371234,-0.011148,-0.006720,0.000305
1765916346.063954,-10.044236,-0.017934,0.432209,-0.009927,-0.005956,0.001680
1765916346.064154,-9.939023,-0.032281,0.280966,-0.007941,-0.005956,-0.001527
1765916346.064354,-9.939023,-0.032281,0.280966,-0.007941,-0.002749,-0.001527
1765916346.064554,-9.381873,-0.230751,0.123147,-0.010843,-0.004429,0.000000
1765916346.064754,-9.804518,0.170971,0.113582,-0.005956,-0.014813,-0.006872
1765916346.064879,-10.245097,0.322812,0.796867,-0.003207,-0.003665,0.000153
1765916346.065079,-9.829028,0.065758,0.752032,-0.008705,0.019395,0.007330
1765916346.065279,-9.829028,0.065758,0.752032,-0.008705,-0.000458,0.007330
1765916346.065479,-9.713055,-0.369440,0.066954,-0.015882,-0.011759,0.003360
1765916346.065679,-9.813485,-0.377212,-0.154232,-0.001374,-0.011759,-0.000153
1765916346.065878,-10.007172,0.121951,0.477044,0.001833,0.013592,-0.011148
1765916346.066128,-10.079505,0.492587,0.964849,-0.011454,0.013592,-0.009774
1765916346.066378,-9.845766,0.257054,0.182927,-0.016952,0.008399,0.009468
1765916346.066628,-9.812290,-0.369440,-0.043042,-0.007636,-0.014355,0.013592
1765916346.066935,-9.885221,-0.594213,0.352702,-0.006414,-0.004429,-0.007025
1765916346.067135,-10.033475,0.044237,0.678503,-0.011148,0.007636,-0.016188
1765916346.067335,-9.936632,0.435198,0.230751,-0.010690,0.003512,-0.004581
1765916346.067535,-9.785389,0.254065,-0.016738,-0.010232,-0.001374,0.006720
1765916346.067735,-9.924676,-0.213415,0.491392,-0.010996,-0.001069,0.009010
1765916346.068028,-9.894786,-0.371832,0.468675,-0.008552,0.006567,0.001222
1765916346.068228,-9.894786,-0.371832,0.468675,-0.008552,0.002138,0.001222
1765916346.068428,-9.739358,-0.035270,-0.040650,-0.009163,0.003207,-0.007178
1765916346.068628,-9.982065,0.273195,0.520086,-0.005803,0.000916,-0.002902
1765916346.068828,-10.054996,0.276781,0.634864,-0.007330,0.009010,0.002138
1765916346.068913,-9.822452,-0.104017,0.203850,-0.010537,0.003360,0.005498
1765916346.069113,-9.653275,-0.434003,-0.090866,-0.010537,-0.005345,0.005498
1765916346.069313,-9.873264,-0.187709,0.376016,-0.007330,0.002138,-0.007941
1765916346.069513,-9.972500,0.142874,0.505141,-0.006872,0.013592,-0.009927
1765916346.069713,-9.733977,0.248685,0.086083,-0.008858,0.011912,-0.002138
1765916346.069882,-9.768052,0.127331,0.075323,-0.008705,0.002749,0.003818
1765916346.070082,-10.099234,-0.114180,0.569106,-0.008399,0.005498,0.008399
1765916346.070282,-10.123145,-0.411286,0.624701,-0.008094,0.008858,0.002902
1765916346.070482,-9.811692,-0.264228,0.105213,-0.008094,0.004734,-0.006567
1765916346.070682,-9.813485,0.121951,0.087877,-0.007483,0.002596,-0.010232
1765916346.070890,-9.988043,0.297704,0.412482,-0.008858,0.000305,-0.001527
1765916346.071090,-10.071735,0.166188,0.480631,-0.005651,0.005651,0.006109
1765916346.071290,-9.893590,-0.148254,0.249880,-0.008399,0.011606,0.009163
1765916346.071490,-9.921089,-0.304878,0.260641,-0.010690,0.006567,0.000764
1765916346.071690,-10.062768,-0.191296,0.429220,-0.009010,0.000153,-0.002443
1765916346.071888,-10.052606,0.014347,0.402917,-0.007636,0.006261,-0.006414
1765916346.072088,-9.856527,0.157819,0.202056,-0.008247,0.005956,-0.003665
1765916346.072288,-9.790171,0.094452,0.139885,-0.008247,0.005651,-0.000458
1765916346.072488,-9.923481,-0.043042,0.248087,-0.009468,0.002138,0.004581
1765916346.072688,-10.066953,-0.095648,0.437590,-0.009927,0.005498,0.000611
1765916346.072914,-9.980869,-0.145863,0.290531,-0.006720,0.010232,-0.001680
1765916346.073114,-9.956957,-0.064562,0.334768,-0.008552,0.002291,-0.006414
1765916346.073314,-10.059779,0.033477,0.390961,-0.007178,-0.002596,-0.005498
1765916346.073514,-10.003586,0.111191,0.282162,-0.008094,0.002291,-0.001985
1765916346.073714,-9.857125,0.040650,0.072334,-0.005803,0.003971,0.003207
1765916346.073934,-9.855330,-0.031086,0.153635,-0.008858,0.004276,0.001680
1765916346.074134,-10.120754,-0.065758,0.541607,-0.007025,0.004276,0.001222
1765916346.074334,-10.172762,-0.089670,0.511119,-0.005498,0.003360,-0.001222
1765916346.074534,-10.038258,-0.074127,0.233142,-0.006109,0.004276,-0.004276
1765916346.074734,-9.945600,0.031086,0.173362,-0.009468,0.001833,-0.004887
1765916346.074955,-10.059779,0.029890,0.329986,-0.009163,-0.004276,-0.003054
1765916346.075155,-10.002987,0.021521,0.285151,-0.006872,-0.002902,-0.001527
1765916346.075355,-9.931850,0.011358,0.203252,-0.003360,0.003054,-0.000153
1765916346.075555,-9.912720,-0.043042,0.274988,-0.010079,0.001374,0.000458
1765916346.075755,-10.068746,-0.123147,0.482425,-0.007330,-0.004581,-0.001527
1765916346.075887,-10.185914,-0.063367,0.420851,-0.005498,-0.007178,-0.002902
1765916346.076087,-9.989238,-0.023314,0.161406,-0.008094,-0.000458,-0.004887
1765916346.076287,-9.921089,0.038259,0.225371,-0.011148,-0.001222,-0.000458
1765916346.076487,-10.075322,0.092061,0.378407,-0.009927,-0.005498,0.001069
1765916346.076687,-10.118362,-0.001196,0.339550,-0.007025,-0.000153,0.003207
1765916346.077010,-9.907937,-0.202056,0.241511,-0.009010,-0.000611,-0.000305
1765916346.077510,-9.939023,-0.212219,0.318627,-0.009927,-0.005956,-0.001985
1765916346.079881,-10.040649,-0.023314,0.354495,-0.008399,-0.009621,-0.006109
1765916346.081947,-9.917501,0.137494,0.147059,-0.010232,-0.004276,-0.005040
1765916346.084871,-9.811692,0.087279,0.160808,-0.008247,-0.003818,-0.000458
1765916346.087913,-9.886416,-0.025705,0.309660,-0.010232,-0.007178,-0.000153
1765916346.089914,-9.965326,-0.109995,0.395744,-0.009621,-0.007178,0.003665
1765916346.090995,-9.965326,-0.109995,0.395744,-0.009621,-0.007025,0.003665
1765916346.094897,-9.895982,-0.112386,0.285151,-0.005803,-0.009774,-0.002596
1765916346.095952,-10.011356,0.078910,0.469871,-0.009010,-0.005345,-0.004429
1765916346.099979,-10.002390,0.112386,0.303682,-0.006261,-0.007330,-0.001985
1765916346.102950,-9.814083,0.023912,0.109995,-0.007483,-0.007330,0.004581
1765916346.103450,-9.859515,-0.080105,0.261836,-0.005803,-0.005803,0.002902
1765916346.106957,-10.021520,-0.145863,0.443568,-0.009621,-0.007178,0.001833
1765916346.109970,-10.034670,-0.114778,0.429220,-0.007483,-0.007178,-0.003665
1765916346.111946,-9.876852,0.080105,0.263630,-0.008094,-0.003360,-0.005040
1765916346.112973,-9.842180,0.071736,0.178144,-0.010996,-0.004123,-0.001222
1765916346.116922,-9.900167,-0.016738,0.329388,-0.007330,-0.010537,0.002291
1765916346.119996,-9.956957,-0.077714,0.297704,-0.007483,-0.003360,0.001680
1765916346.122916,-9.846962,-0.155428,0.263032,-0.010079,-0.003360,0.001527
1765916346.124890,-9.856527,-0.148254,0.238522,-0.008094,-0.006720,-0.001374
1765916346.126948,-10.003586,0.006576,0.398135,-0.005803,-0.009468,-0.005956
1765916346.129924,-10.022716,0.119560,0.436394,-0.009927,-0.005040,-0.001222
1765916346.132944,-9.796148,-0.005380,0.169775,-0.008247,-0.000611,0.003818
1765916346.134887,-9.750119,-0.113582,0.178144,-0.007636,-0.008705,-0.001069
1765916346.136923,-9.959349,-0.063367,0.399330,-0.009010,-0.006720,-0.002291
1765916346.137897,-9.999999,-0.038259,0.392157,-0.008247,-0.007025,0.001833
1765916346.140564,-9.885221,-0.100430,0.242109,-0.006261,-0.007025,-0.002443
1765916346.144968,-9.885221,0.001196,0.398733,-0.006720,-0.002749,-0.002749
1765916346.146948,-9.956359,0.040650,0.354495,-0.007789,-0.003512,0.001374
1765916346.149950,-9.842180,-0.052009,0.239120,-0.007789,-0.003512,0.001374
1765916346.152010,-9.929459,-0.065758,0.358680,-0.004887,-0.005956,-0.001680
1765916346.155008,-9.971304,-0.051411,0.425036,-0.009927,-0.003054,-0.001833
1765916346.156970,-9.927666,-0.029890,0.254663,-0.008552,-0.003054,-0.001222
1765916346.159916,-9.864896,-0.062171,0.265423,-0.007636,-0.005803,-0.001069
1765916346.162203,-9.943806,-0.015543,0.414275,-0.007636,-0.003818,-0.001833
1765916346.164887,-9.960544,0.005978,0.325203,-0.010996,-0.002749,-0.001527
1765916346.166952,-9.838593,-0.029890,0.187709,-0.010385,-0.002749,-0.001069
1765916346.169911,-9.880439,-0.044237,0.288140,-0.009468,-0.004123,0.000458
1765916346.172935,-9.986848,-0.004782,0.385581,-0.007789,-0.006414,0.000611
1765916346.174918,-9.940817,-0.052606,0.296509,-0.004887,-0.006414,0.000611
1765916346.177915,-9.888210,-0.096844,0.271401,-0.007025,-0.003360,-0.001680
1765916346.180003,-9.980272,-0.031086,0.455524,-0.008705,-0.003360,-0.001374
1765916346.182008,-9.999999,-0.028694,0.370636,-0.005498,-0.004581,0.000000
1765916346.184936,-9.884026,-0.016738,0.229555,-0.007178,-0.002596,0.002291
1765916346.186978,-9.872069,-0.007174,0.255858,-0.009316,-0.001833,0.001833
1765916346.189857,-9.965326,-0.059780,0.383788,-0.009774,-0.005040,0.003207
1765916346.193419,-9.985652,-0.113582,0.303085,-0.007789,-0.004429,0.000153
1765916346.194934,-9.923481,-0.049617,0.285748,-0.004887,-0.001374,-0.002138
1765916346.197875,-9.965326,-0.008369,0.344931,-0.007330,0.000916,-0.001069
1765916346.198375,-10.026302,-0.046628,0.410091,-0.007941,-0.003665,0.001527
1765916346.200960,-9.945600,-0.046628,0.303682,-0.007789,-0.002596,0.002138
1765916346.204870,-9.875058,-0.051411,0.196078,-0.007483,-0.001527,0.001069
1765916346.206912,-9.884026,-0.084888,0.277379,-0.005498,-0.003207,0.000458
1765916346.209919,-10.028693,-0.109995,0.374223,-0.005956,-0.006720,0.001527
1765916346.210888,-10.027497,-0.017934,0.355691,-0.007025,-0.003665,-0.001833
1765916346.214973,-10.027497,-0.017934,0.273792,-0.007025,0.000611,-0.001833
1765916346.216897,-9.894786,-0.059780,0.275586,-0.007636,-0.001833,0.000764
1765916346.219900,-9.994021,-0.053802,0.374223,-0.009163,-0.004887,-0.001374
1765916346.221874,-9.948587,-0.011956,0.318030,-0.009163,-0.003818,-0.001069
1765916346.225943,-9.822452,-0.054998,0.096246,-0.009774,-0.003818,0.002596
1765916346.227002,-9.844571,-0.040650,0.178742,-0.009774,-0.006414,0.002749
1765916346.229895,-10.076518,-0.012554,0.469273,-0.009163,-0.009010,0.000305
1765916346.231917,-10.021520,-0.017934,0.376614,-0.008247,-0.001985,0.000764
1765916346.234920,-9.830223,-0.011956,0.175753,-0.009927,-0.003054,0.000153
1765916346.237906,-9.948587,0.050215,0.315638,-0.009621,-0.006567,0.000458
1765916346.239911,-10.057388,-0.046628,0.426829,-0.012828,-0.010079,0.000000
1765916346.242938,-9.955761,-0.098039,0.248685,-0.012828,-0.005956,-0.000458
1765916346.244957,-9.955761,-0.098039,0.248685,-0.012828,-0.003971,-0.000458
1765916346.247890,-9.991630,-0.027499,0.368245,-0.012828,-0.008094,0.001985
1765916346.248390,-9.922284,-0.097441,0.272597,-0.010385,-0.007789,0.003360
1765916346.252042,-9.903752,-0.052606,0.251076,-0.008094,-0.008094,-0.001680
1765916346.254887,-9.958152,0.023912,0.382592,-0.009010,-0.006720,-0.001833
1765916346.257928,-10.007771,-0.070540,0.377212,-0.005803,-0.005956,0.000458
1765916346.260937,-9.855929,-0.131516,0.142874,-0.006414,-0.007025,0.000916
1765916346.261925,-9.778812,-0.019727,0.136298,-0.006872,-0.007025,-0.000305
1765916346.264866,-9.897775,0.059780,0.338953,-0.010079,-0.003971,0.000153
1765916346.267986,-9.892395,0.004782,0.344333,-0.007789,-0.002749,0.003207
1765916346.269911,-9.869080,0.016738,0.214012,-0.008399,-0.008399,-0.000611
1765916346.272903,-9.947392,0.072334,0.309660,-0.013897,-0.004581,0.001069
1765916346.274943,-9.927068,-0.052606,0.331181,-0.013134,-0.005040,0.003665
1765916346.277888,-9.806311,-0.114180,0.170971,-0.008399,-0.008247,-0.000916
1765916346.279947,-9.833811,-0.024510,0.188307,-0.009774,-0.003665,-0.004429
1765916346.283009,-9.976088,0.039455,0.426829,-0.010232,-0.002902,-0.001374
1765916346.284965,-10.019128,-0.053802,0.419656,-0.009468,-0.006414,0.004581
1765916346.286936,-9.928263,-0.054998,0.309660,-0.009774,-0.007941,0.004734
1765916346.289922,-9.903154,0.019130,0.296509,-0.009774,-0.001374,0.004734
1765916346.292938,-9.983260,-0.071736,0.267814,-0.008705,-0.009316,0.003207
1765916346.294890,-10.003586,-0.154830,0.308465,-0.008705,-0.009316,0.000153
1765916346.297907,-9.950979,-0.043042,0.297704,-0.011454,-0.004429,-0.004276
1765916346.299907,-9.817670,0.016738,0.193687,-0.010996,-0.001833,-0.003360
1765916346.301929,-9.867287,0.053802,0.217599,-0.010996,-0.007789,-0.003360
1765916346.304921,-10.115375,0.032281,0.517695,-0.010385,-0.006261,0.002443
1765916346.306909,-10.102820,-0.032879,0.447154,-0.012370,-0.006261,0.002443
1765916346.309999,-9.859515,-0.092061,0.117169,-0.009316,-0.005803,0.003360
1765916346.310927,-9.861309,-0.025108,0.155428,-0.009010,-0.008247,0.000764
1765916346.314935,-10.046627,-0.008967,0.387374,-0.005040,-0.008858,0.001527
1765916346.317923,-9.983260,-0.034672,0.353898,-0.002596,-0.004429,0.003971
1765916346.319926,-9.868484,-0.005978,0.160210,-0.008858,-0.004429,0.001985
1765916346.321912,-9.907937,-0.050215,0.259445,-0.011454,-0.003512,0.001222
1765916346.324917,-10.074724,-0.045433,0.436394,-0.009163,-0.007941,0.002902
1765916346.327991,-10.046627,-0.131516,0.386179,-0.011606,-0.007941,0.003971
1765916346.329921,-10.046627,-0.131516,0.386179,-0.011606,-0.006567,0.003971
1765916346.332927,-9.766856,-0.038259,0.036466,-0.012981,-0.007330,0.000000
1765916346.334864,-9.901959,-0.031086,0.221186,-0.010690,-0.010385,0.000611
1765916346.336961,-10.114178,0.078910,0.462697,-0.006872,-0.006872,-0.000916
1765916346.339969,-10.076518,0.042444,0.346724,-0.013439,-0.001985,0.000000
1765916346.341927,-9.910927,-0.086083,0.233142,-0.014203,-0.003360,0.000000
1765916346.344885,-9.969511,-0.137494,0.279770,-0.010537,-0.007483,0.001680
1765916346.346928,-10.016738,-0.069345,0.368843,-0.012217,-0.004581,-0.001833
1765916346.349917,-9.900764,-0.007174,0.222382,-0.009010,-0.009927,0.001374
1765916346.351954,-9.945002,0.011956,0.236729,-0.006872,-0.009927,0.002291
1765916346.354910,-9.945002,0.011956,0.236729,-0.006872,-0.008399,0.002291
1765916346.357972,-10.081897,-0.016141,0.462697,-0.013286,-0.011912,0.004429
1765916346.359873,-9.866092,-0.185318,0.102822,-0.010690,-0.011912,0.005192
1765916346.362877,-9.858918,-0.147657,0.128527,-0.011301,-0.012828,-0.000153
1765916346.363377,-9.988043,-0.029292,0.352702,-0.010232,-0.010079,-0.001680
1765916346.367945,-9.974294,0.096844,0.318030,-0.010232,-0.004887,-0.000153
1765916346.369943,-9.882233,0.116571,0.164993,-0.011301,-0.005956,0.001222
1765916346.371881,-10.048421,0.031086,0.377810,-0.014661,-0.007941,0.003207
1765916346.374899,-10.048421,0.031086,0.377810,-0.014661,-0.009010,0.003207
1765916346.377927,-9.958751,-0.166786,0.264825,-0.011148,-0.007789,0.003207
1765916346.379910,-9.839788,-0.050215,0.141081,-0.010843,-0.006109,-0.001833
1765916346.381961,-9.991630,0.049020,0.409493,-0.010079,-0.005345,-0.001069
1765916346.384931,-10.138689,0.069345,0.698230,-0.008858,-0.007483,0.004429
1765916346.386917,-10.191295,0.010163,0.646222,-0.013439,-0.007025,0.003054
1765916346.389883,-10.030487,-0.025108,0.432807,-0.015730,-0.006720,0.003512
1765916346.391926,-10.000596,-0.149450,0.297704,-0.010537,-0.018631,0.005956
1765916346.394962,-10.172164,-0.106408,0.487805,-0.011759,-0.008552,-0.000305
1765916346.396914,-10.101624,0.021521,0.449546,-0.009010,-0.008552,-0.002596
1765916346.399901,-9.799137,-0.020923,0.077714,-0.007636,-0.009163,0.003512
1765916346.401970,-9.873264,0.023912,0.242707,-0.006414,-0.016952,0.000916
1765916346.404920,-10.127929,0.017336,0.543400,-0.012065,-0.018937,0.001374
1765916346.407921,-10.044236,-0.101626,0.320421,-0.012217,-0.009468,0.004123
1765916346.409913,-9.840983,-0.117169,0.111789,-0.011454,-0.009468,0.002443
1765916346.411955,-9.933045,0.042444,0.259445,-0.012065,-0.012217,0.000916
1765916346.414953,-10.084887,0.076518,0.486011,-0.011759,-0.013592,0.000153
1765916346.416942,-9.875656,-0.001196,0.255261,-0.012675,-0.007483,0.004581
1765916346.419886,-9.610233,-0.047226,-0.049020,-0.015730,-0.008399,0.003665
1765916346.421909,-9.699903,-0.023912,0.113582,-0.017410,-0.008399,0.000153
1765916346.424887,-9.942610,0.046628,0.320421,-0.014661,-0.008552,0.003207
1765916346.425889,-10.012553,-0.033477,0.333572,-0.016341,-0.008705,0.002443
1765916346.429883,-9.945600,-0.113582,0.329986,-0.012675,-0.000153,0.003971
1765916346.430916,-9.882831,-0.156624,0.248087,-0.011912,-0.002902,0.001985
1765916346.434941,-10.078907,-0.077714,0.491989,-0.011148,-0.012523,-0.001374
1765916346.436864,-10.087276,0.104017,0.441774,-0.014661,-0.006414,-0.001833
1765916346.439917,-9.991032,-0.011956,0.369440,-0.018479,-0.002291,0.001374
1765916346.441938,-9.886416,-0.101028,0.378407,-0.013744,-0.007330,0.003512
1765916346.444967,-10.058583,-0.114778,0.518293,-0.012675,-0.012370,0.001985
1765916346.446876,-9.965326,-0.022119,0.325203,-0.013134,-0.008094,-0.002291
1765916346.447916,-9.711859,0.008369,0.139885,-0.009468,-0.010232,0.004581
1765916346.450990,-9.845766,0.009565,0.279770,-0.012523,-0.017410,0.003054
1765916346.454906,-10.099234,-0.004782,0.475849,-0.014355,-0.017410,0.001374
1765916346.457952,-9.976088,-0.142276,0.307269,-0.017104,-0.012370,0.004734
1765916346.459949,-9.782997,-0.122549,0.038259,-0.012828,-0.009468,0.001833
1765916346.462961,-9.830223,-0.058584,0.227164,-0.014050,-0.010537,-0.001985
1765916346.464564,-10.022118,0.066954,0.493783,-0.012523,-0.012675,0.001985
1765916346.467978,-9.942610,-0.010760,0.349115,-0.011606,-0.010232,0.005192
1765916346.469911,-9.766259,-0.037064,0.123147,-0.011301,-0.011148,0.002596
1765916346.471924,-9.891200,-0.063367,0.328790,-0.016646,-0.011606,0.001680
1765916346.472922,-9.891200,-0.063367,0.328790,-0.016646,-0.013439,0.001680
1765916346.477880,-10.011955,-0.109995,0.283357,-0.014966,-0.004734,-0.000153
1765916346.479888,-9.868484,-0.050813,0.089670,-0.013439,-0.004734,-0.001680
1765916346.482887,-9.829626,-0.032281,0.218795,-0.009927,-0.002902,0.002138
1765916346.484916,-9.933045,0.028694,0.446557,-0.011148,-0.008094,-0.000153
1765916346.486958,-10.040649,0.057987,0.398733,-0.014661,-0.005498,0.003207
1765916346.489907,-9.997009,-0.029890,0.345528,-0.014355,-0.007941,0.005345
1765916346.492029,-10.041844,-0.064562,0.326399,-0.016341,-0.009927,-0.000153
1765916346.494944,-9.982065,-0.027499,0.322812,-0.010232,-0.005803,0.005040
1765916346.496903,-9.765661,-0.033477,0.211023,-0.013439,-0.004887,0.002749
1765916346.499982,-9.769846,0.047824,0.254663,-0.013134,-0.009316,0.002749
1765916346.501941,-9.916306,-0.050813,0.328790,-0.016341,-0.009316,0.003360
1765916346.504908,-10.065758,-0.062171,0.395744,-0.012370,-0.011148,0.001069
1765916346.506970,-9.934838,-0.032281,0.301889,-0.013286,-0.010537,0.002291
1765916346.509941,-9.864896,-0.087279,0.273792,-0.015119,-0.010385,-0.000458
1765916346.512932,-9.918099,0.033477,0.279770,-0.015577,-0.010385,-0.000458
1765916346.513432,-9.918099,0.033477,0.279770,-0.015577,-0.012370,-0.000458
1765916346.517948,-9.892395,0.001196,0.120158,-0.014050,-0.007330,0.002291
1765916346.519958,-9.952174,0.078910,0.229555,-0.017715,-0.006872,0.002443
1765916346.521930,-10.108798,-0.032281,0.435796,-0.017257,-0.010537,0.002902
1765916346.524926,-9.985652,-0.010760,0.339550,-0.015272,-0.004123,0.002291
1765916346.527956,-9.985652,-0.010760,0.339550,-0.015272,-0.000458,0.002291
1765916346.528456,-9.894786,-0.109995,0.327594,-0.018021,-0.007178,0.001985
1765916346.531936,-9.995216,0.092061,0.282162,-0.014050,-0.013134,-0.000458
1765916346.534940,-9.919893,0.112386,0.325203,-0.014661,-0.006872,0.003818
1765916346.536874,-9.919893,-0.026303,0.328790,-0.017562,-0.006872,0.005956
1765916346.539929,-9.919893,-0.026303,0.328790,-0.017562,-0.010232,0.005956
1765916346.541889,-9.942610,-0.236131,0.308465,-0.018479,-0.006261,0.002902
1765916346.544931,-9.800333,0.047824,0.104017,-0.015882,-0.006261,-0.002291
1765916346.547882,-9.933045,0.051411,0.394548,-0.017257,-0.007941,-0.001527
1765916346.549917,-9.997607,0.009565,0.509923,-0.017410,-0.011606,0.003054
1765916346.552935,-10.043041,-0.131516,0.322812,-0.018479,-0.012981,0.002138
1765916346.554961,-9.780008,-0.071138,0.145863,-0.018937,-0.008247,0.000916
1765916346.557936,-9.884624,-0.111191,0.258250,-0.018937,-0.013286,0.000764
1765916346.559906,-9.983260,-0.027499,0.426829,-0.019853,-0.009927,-0.002596
1765916346.562903,-9.956957,-0.006576,0.360473,-0.019853,-0.009927,0.001833
1765916346.564957,-10.005977,0.062171,0.389168,-0.018479,-0.012675,0.004887
1765916346.566935,-9.826636,-0.004782,0.279770,-0.020159,-0.012523,0.006720
1765916346.569914,-9.863102,-0.008967,0.240913,-0.018631,-0.014203,0.005192
1765916346.571975,-9.863102,-0.008967,0.240913,-0.018631,-0.012370,0.005192
1765916346.574938,-9.918698,-0.127929,0.288140,-0.020922,-0.012370,0.004734
1765916346.576936,-9.927068,-0.033477,0.276184,-0.016646,-0.012370,0.000000
1765916346.579930,-9.930056,-0.064562,0.323410,-0.019395,-0.012675,0.002291
1765916346.581946,-9.788976,-0.051411,0.095648,-0.014661,-0.008094,0.004429
1765916346.584898,-9.898373,-0.082496,0.135103,-0.018173,-0.011606,0.000916
1765916346.586941,-10.025704,0.029890,0.371832,-0.016035,-0.007636,0.000458
1765916346.589890,-9.979673,-0.053802,0.430416,-0.019395,-0.005040,0.001680
1765916346.591879,-9.839788,-0.099833,0.276781,-0.020311,-0.003207,0.004734
1765916346.592902,-9.815877,-0.076518,0.263032,-0.019700,-0.011759,0.000305
1765916346.596891,-9.945002,0.035868,0.363462,-0.021991,-0.010232,-0.003054
1765916346.599881,-9.809898,0.011358,0.084888,-0.018937,-0.009316,0.002749
1765916346.602323,-9.789574,0.027499,0.170971,-0.018173,-0.014661,0.003971
1765916346.604927,-9.862504,0.002391,0.224175,-0.018173,-0.007941,0.005498
1765916346.605908,-9.978478,-0.083692,0.332377,-0.019548,-0.012675,0.007636
1765916346.609890,-9.807508,-0.190100,0.136298,-0.016493,-0.011759,0.003207
1765916346.611911,-10.034670,0.049020,0.445959,-0.018173,-0.012370,-0.002749
1765916346.613878,-10.148253,0.059182,0.536227,-0.020159,-0.010537,0.001680
1765916346.617000,-10.040051,0.156026,0.326997,-0.017868,-0.014966,0.002596
1765916346.619926,-9.976685,0.078910,0.153037,-0.019700,-0.010537,0.002596
1765916346.622952,-9.982065,-0.081899,0.294118,-0.018479,-0.006414,0.004581
1765916346.625915,-10.180533,-0.258250,0.507532,-0.021838,-0.009774,0.007330
1765916346.627913,-10.145862,-0.116571,0.569106,-0.020159,-0.010232,-0.003054
1765916346.629908,-10.028693,0.044237,0.386179,-0.020006,-0.006261,-0.003665
1765916346.632950,-9.879243,0.105213,0.172166,-0.017715,-0.010385,0.002138
1765916346.634899,-9.971304,0.023912,0.307269,-0.022602,-0.018784,0.004887
1765916346.636951,-9.905546,-0.122549,0.353300,-0.022297,-0.010537,0.006872
1765916346.642100,-9.840983,-0.157819,0.226566,-0.023518,-0.009010,0.001833
1765916346.642600,-9.851745,-0.156624,0.153037,-0.022449,-0.015272,0.001680
1765916346.642955,-10.050214,-0.043042,0.342539,-0.021075,-0.020311,0.001222
1765916346.648014,-10.055594,0.102822,0.457915,-0.023824,-0.013439,0.000305
1765916346.649916,-9.903154,0.039455,0.310856,-0.025351,-0.005803,0.005345
1765916346.652861,-9.863102,0.069345,0.077116,-0.022144,-0.012370,0.005345
1765916346.654935,-10.068149,-0.037661,0.532042,-0.028558,-0.016646,0.003665
1765916346.657895,-9.995216,-0.082496,0.279770,-0.022297,-0.014203,0.005803
1765916346.658395,-9.902557,-0.248685,0.211621,-0.024587,-0.012981,0.006872
1765916346.661922,-9.784193,-0.054998,0.067551,-0.017410,-0.012675,-0.000916
1765916346.664942,-10.065758,-0.031086,0.432209,-0.021686,-0.015882,0.000305
1765916346.666972,-9.965326,0.032281,0.423840,-0.020311,-0.013134,0.003665
1765916346.669910,-9.872069,0.045433,0.228957,-0.020922,-0.009468,0.005956
1765916346.671926,-9.839788,-0.075323,0.237924,-0.023671,-0.009468,0.005345
1765916346.674922,-10.016738,-0.100430,0.407700,-0.020159,-0.015119,0.006414
1765916346.677596,-10.081299,-0.137494,0.387374,-0.020769,-0.015272,0.001527
1765916346.679893,-10.039454,0.109995,0.288140,-0.020311,-0.018173,-0.000611
1765916346.681907,-9.905546,0.028694,0.176351,-0.026725,-0.012370,0.003818
1765916346.682919,-9.875058,0.033477,0.300693,-0.020159,-0.012370,0.008094
1765916346.686994,-9.900764,0.033477,0.301291,-0.020159,-0.012370,0.008094
1765916346.689942,-9.918099,-0.053802,0.373027,-0.026420,-0.014355,0.005192
1765916346.694234,-10.079505,-0.198470,0.411884,-0.023518,-0.013592,0.008094
1765916346.694944,-10.052606,-0.229555,0.340746,-0.020311,-0.016188,0.008094
1765916346.696935,-10.075322,-0.034672,0.340746,-0.023060,-0.016188,0.000153
1765916346.699963,-10.075322,-0.034672,0.340746,-0.023060,-0.012981,0.000153
1765916346.701913,-9.849353,0.047226,0.172764,-0.020159,-0.016341,0.008399
1765916346.704871,-10.008368,0.013749,0.316236,-0.025809,-0.016341,0.006567
1765916346.707898,-10.008368,0.013749,0.316236,-0.025809,-0.006109,0.006567
1765916346.709977,-9.825441,-0.294118,0.180536,-0.021533,-0.010079,0.006872
1765916346.711936,-9.968913,-0.107604,0.423242,-0.025351,-0.014050,0.000000
1765916346.714896,-10.161406,0.043042,0.626494,-0.025351,-0.011912,-0.001680
1765916346.717911,-10.034670,0.033477,0.361071,-0.018021,-0.011912,0.006414
1765916346.719496,-9.962935,0.014945,0.253467,-0.019242,-0.012217,0.005803
1765916346.721879,-10.062170,0.007174,0.616332,-0.027031,-0.011912,0.006567
1765916346.724964,-10.002390,-0.095648,0.384983,-0.021533,-0.013439,0.007025
1765916346.726910,-9.840983,-0.144070,0.047824,-0.021686,-0.017562,0.005192
1765916346.730076,-9.782997,0.006576,0.108202,-0.022297,-0.017562,0.002596
1765916346.732885,-9.919893,0.031086,0.306074,-0.021686,-0.014355,0.008705
1765916346.734879,-9.934240,-0.019130,0.360473,-0.026573,-0.015119,0.008399
1765916346.737401,-10.005379,0.021521,0.297704,-0.028253,-0.016952,0.010079
1765916346.739861,-10.120157,-0.120756,0.567312,-0.025504,-0.012217,0.009163
1765916346.741906,-10.162600,-0.212817,0.547585,-0.022602,-0.014813,0.009927
1765916346.744853,-9.971304,-0.225968,0.344333,-0.025198,-0.017104,0.003512
1765916346.745896,-9.918099,0.043042,0.155428,-0.025045,-0.016952,0.000916
1765916346.747919,-9.970109,0.081301,0.292922,-0.020769,-0.016952,0.007636
1765916346.752903,-9.970109,0.081301,0.292922,-0.020769,-0.021533,0.007636
1765916346.754900,-10.035269,0.064562,0.343137,-0.029627,-0.013897,0.008552
1765916346.757880,-9.837397,-0.043042,0.049020,-0.029627,-0.011759,0.008552
1765916346.759895,-9.959349,-0.178144,0.246891,-0.023976,-0.017257,0.011148
1765916346.761908,-10.129124,-0.150048,0.591822,-0.026725,-0.017257,0.003818
1765916346.764967,-10.129124,-0.150048,0.591822,-0.026725,-0.010537,0.003818
1765916346.766875,-9.730989,0.011956,0.007174,-0.022755,-0.009010,0.006567
1765916346.769910,-9.861309,0.126136,0.162602,-0.020769,-0.018479,0.005498
1765916346.771955,-10.095646,0.023314,0.560139,-0.023366,-0.013897,0.009927
1765916346.774892,-9.983260,-0.113582,0.353300,-0.023824,-0.010843,0.009927
1765916346.776867,-9.774031,-0.064562,0.191894,-0.025656,-0.012217,0.007636
1765916346.777941,-9.964130,0.056193,0.575084,-0.027642,-0.014508,0.003665
1765916346.782878,-10.159015,0.068747,0.644428,-0.026573,-0.014355,0.007178
1765916346.784877,-9.913916,0.074725,0.288140,-0.025809,-0.018326,0.008247
1765916346.786969,-9.693925,0.102822,-0.159613,-0.026114,-0.017410,0.010537
1765916346.789913,-9.813485,0.028097,0.231946,-0.026267,-0.020311,0.010690
1765916346.792860,-10.186513,-0.117767,0.634864,-0.027794,-0.017104,0.010996
1765916346.793940,-10.078907,-0.170971,0.455524,-0.027642,-0.015424,0.006261
1765916346.797865,-9.788378,-0.171569,0.053802,-0.025962,-0.013897,-0.001527
1765916346.799867,-9.875656,0.069345,0.193687,-0.026573,-0.018021,0.003054
1765916346.800984,-10.039454,0.141081,0.496772,-0.022907,-0.016493,0.005192
1765916346.804947,-10.117765,0.180536,0.578670,-0.027489,-0.012675,0.007483
1765916346.806919,-9.909132,0.069943,0.339550,-0.029780,-0.008705,0.008858
1765916346.809879,-9.909132,0.069943,0.339550,-0.029780,-0.021686,0.008858
1765916346.810954,-10.111190,-0.175155,0.418460,-0.025504,-0.027336,0.006109
1765916346.813874,-10.166784,0.004185,0.359876,-0.030085,-0.015730,0.002749
1765916346.817890,-9.839788,0.089670,0.127929,-0.030543,-0.012370,0.007330
1765916346.820968,-9.683165,0.115973,0.015543,-0.031460,-0.013744,0.006720
1765916346.821907,-9.960544,0.090866,0.381396,-0.031460,-0.015882,0.006720
1765916346.824928,-9.851745,-0.170971,0.019130,-0.030238,-0.012675,0.014813
1765916346.826923,-9.858320,-0.298900,0.100430,-0.029016,-0.014661,0.011301
1765916346.827857,-10.129124,-0.107604,0.602582,-0.030696,-0.008247,0.001527
1765916346.831926,-10.217599,0.040650,0.823768,-0.028100,-0.008247,0.002138
1765916346.834943,-9.947392,0.175753,0.277379,-0.031612,-0.014813,0.004734
1765916346.837896,-9.743543,0.286944,-0.083094,-0.037874,-0.022602,0.006414
1765916346.839907,-9.818267,-0.016738,0.109397,-0.035125,-0.022297,0.011454
1765916346.841896,-9.960544,-0.277379,0.322812,-0.030238,-0.022449,0.013134
1765916346.844949,-9.934838,-0.306074,0.309063,-0.025962,-0.014050,0.006567
1765916346.846972,-9.864896,-0.111191,0.199067,-0.029932,-0.007025,0.001374
1765916346.849958,-9.905546,0.065758,0.285748,-0.026114,-0.015424,0.007025
1765916346.852908,-10.118362,0.089670,0.535629,-0.030543,-0.019090,0.007789
1765916346.854943,-10.072930,0.016141,0.383788,-0.032834,-0.007483,0.008399
1765916346.857897,-9.818267,-0.068747,0.126734,-0.032223,-0.007483,0.010843
1765916346.859918,-9.823050,-0.191296,0.136298,-0.032987,-0.014661,0.010996
1765916346.862874,-10.041844,-0.035868,0.487805,-0.030391,-0.020769,0.004429
1765916346.864893,-10.077114,0.005978,0.593018,-0.030849,-0.012828,0.006720
1765916346.867873,-9.788378,0.032281,0.321616,-0.029016,-0.017104,0.009774
1765916346.869884,-9.848756,0.011956,0.311454,-0.031307,-0.023213,0.008705
1765916346.871930,-10.217599,-0.151243,0.640842,-0.032834,-0.026267,0.008399
1765916346.874909,-10.114178,-0.153037,0.388570,-0.028863,-0.017257,0.008247
1765916346.875898,-9.725011,-0.150048,0.074127,-0.025198,-0.020006,0.009316
1765916346.879882,-9.771639,-0.087279,0.186514,-0.032223,-0.025809,0.003054
1765916346.882917,-9.986848,0.060976,0.356289,-0.027184,-0.028100,0.005803
1765916346.884995,-9.851147,0.041248,0.100430,-0.027642,-0.022755,0.007636
1765916346.887885,-9.726207,0.172166,0.060976,-0.028253,-0.014050,0.007636
1765916346.888385,-9.840386,0.121353,0.456121,-0.035888,-0.014050,0.011606
1765916346.892859,-10.034670,-0.184122,0.436394,-0.034056,-0.024129,0.017715
1765916346.893359,-10.033475,-0.236729,0.225371,-0.032070,-0.022449,0.008705
1765916346.897908,-9.793758,-0.104017,0.135103,-0.032070,-0.011301,0.008705
1765916346.899916,-9.775226,-0.038259,0.164993,-0.028100,-0.024129,0.009010
1765916346.902865,-10.083690,0.136896,0.555954,-0.031001,-0.024129,0.003971
1765916346.904907,-10.136297,0.069345,0.376016,-0.034972,-0.015730,0.010079
1765916346.906889,-9.765661,-0.201459,-0.010163,-0.031460,-0.011148,0.013439
1765916346.909923,-9.824244,-0.129125,0.218795,-0.026114,-0.016646,0.007483
1765916346.911864,-10.135699,0.023912,0.810617,-0.025962,-0.018937,0.009010
1765916346.912865,-10.063366,0.060976,0.622908,-0.028711,-0.018937,0.007483
1765916346.917898,-9.701099,0.084888,-0.069345,-0.031612,-0.022907,0.009774
1765916346.919862,-9.889405,0.141081,0.076518,-0.034361,-0.020922,0.010079
1765916346.921846,-10.260041,0.086083,0.847680,-0.036957,-0.020922,0.011454
1765916346.924897,-10.260041,0.086083,0.847680,-0.036957,-0.018173,0.011454
1765916346.926928,-9.634145,-0.156026,-0.237924,-0.033445,-0.022297,0.013286
1765916346.929939,-9.619798,-0.052606,-0.241511,-0.031765,-0.026725,0.004123
1765916346.931983,-10.069344,0.035868,0.603180,-0.028253,-0.009010,0.005498
1765916346.932902,-10.072333,0.142276,0.829746,-0.027947,-0.009010,0.010537
1765916346.937922,-9.829028,0.199665,0.252272,-0.034972,-0.015272,0.007789
1765916346.939844,-9.845168,0.080105,0.069345,-0.036194,-0.027336,0.010232
1765916346.942940,-9.937230,-0.172764,0.236729,-0.032070,-0.028863,0.016035
1765916346.944893,-9.976088,-0.211621,0.451937,-0.027184,-0.015730,0.011912
1765916346.946901,-9.987445,-0.002391,0.475849,-0.031612,-0.015730,0.005040
1765916346.949940,-9.936033,0.099235,0.264825,-0.031612,-0.021533,0.005040
1765916346.950981,-9.894188,0.094452,0.159015,-0.032834,-0.019090,0.010843
1765916346.954905,-9.914514,0.096844,0.179340,-0.038179,-0.019090,0.007941
1765916346.956949,-9.977283,0.005978,0.248685,-0.033292,-0.015882,0.011454
1765916346.958855,-9.947392,-0.054998,0.328790,-0.032070,-0.015882,0.011606
1765916346.962344,-9.999999,0.037064,0.404113,-0.037721,-0.014813,0.006109
1765916346.964886,-9.915709,0.053204,0.290531,-0.038179,-0.012675,0.008705
1765916346.967033,-9.845766,0.017934,0.143472,-0.035888,-0.021838,0.008858
1765916346.969857,-9.845766,0.017934,0.143472,-0.035888,-0.019853,0.008858
1765916346.972843,-9.987445,0.033477,0.459110,-0.036957,-0.014661,0.007941
1765916346.974911,-10.010758,-0.047824,0.404113,-0.036346,-0.016493,0.014355
1765916346.977905,-10.089668,-0.214012,0.484218,-0.033139,-0.025504,0.009163
1765916346.979901,-10.131515,-0.166188,0.445361,-0.038790,-0.020922,0.004276
1765916346.980916,-10.131515,-0.166188,0.445361,-0.038790,-0.018784,0.004276
1765916346.984863,-9.824843,0.242707,0.090866,-0.031460,-0.022755,0.001374
1765916346.986947,-9.936033,0.294118,0.252869,-0.036499,-0.019090,0.006872
1765916346.989933,-10.028095,0.199665,0.463893,-0.038332,-0.012370,0.012828
1765916346.992917,-9.948587,-0.107006,0.373027,-0.038332,-0.008705,0.019090
1765916346.994880,-10.120754,-0.223577,0.622310,-0.038026,-0.018021,0.011912
1765916346.995889,-10.164991,-0.147059,0.713773,-0.033292,-0.019242,0.004734
1765916346.999856,-10.065159,-0.126734,0.564323,-0.032987,-0.021991,0.007178
1765916347.001899,-9.972500,0.135103,0.422047,-0.036652,-0.030849,0.000305
1765916347.004874,-10.107603,0.153037,0.451937,-0.038026,-0.030849,0.005956
1765916347.007880,-9.936632,-0.034672,0.199067,-0.043982,-0.033292,0.012217
1765916347.009855,-9.728598,-0.166188,-0.100430,-0.041539,-0.029932,0.011454
1765916347.012841,-9.691534,-0.029890,-0.062769,-0.036041,-0.025045,0.005498
1765916347.014902,-9.876852,0.190100,0.245098,-0.039554,-0.019090,0.001527
1765916347.016866,-10.011955,0.233142,0.368843,-0.040012,-0.019090,0.008094
1765916347.019879,-9.998206,0.212817,0.464491,-0.040775,-0.012523,0.012217
1765916347.021957,-9.991630,-0.083692,0.530846,-0.045357,-0.010843,0.015730
1765916347.024915,-10.035269,-0.217599,0.318030,-0.040775,-0.021228,0.012981
1765916347.026954,-10.124342,-0.286944,0.395744,-0.038790,-0.028405,0.007941
1765916347.029850,-10.135101,-0.047824,0.598996,-0.035888,-0.016799,0.002902
1765916347.031991,-9.986848,0.040650,0.548183,-0.037110,-0.013134,0.008858
1765916347.034895,-9.973696,0.041846,0.455524,-0.041233,-0.026420,0.005956
1765916347.035905,-10.154231,0.121353,0.265423,-0.041233,-0.034361,0.007636
1765916347.039909,-10.005977,0.015543,0.273792,-0.037415,-0.025504,0.011912
1765916347.042867,-9.813485,-0.114778,0.316834,-0.036652,-0.012981,0.011606
1765916347.045003,-9.719033,-0.153037,0.324008,-0.040012,-0.011912,0.012675
1765916347.045896,-9.970109,-0.184122,0.493783,-0.036805,-0.028558,0.007330
1765916347.047893,-10.021520,-0.003587,0.499761,-0.033292,-0.026573,0.008858
1765916347.052917,-9.886416,0.023912,0.384983,-0.038637,-0.022602,0.008399
1765916347.054892,-9.687947,-0.029890,0.002391,-0.041997,-0.023671,0.009468
1765916347.055934,-9.739956,-0.138690,-0.119560,-0.043677,-0.031612,0.008399
1765916347.059889,-9.956957,-0.150646,0.254663,-0.038026,-0.013744,0.009010
1765916347.062907,-9.923481,0.034672,0.536824,-0.036652,-0.013744,0.003665
1765916347.064901,-9.728598,0.135701,0.380799,-0.039859,-0.007483,0.009774
1765916347.066881,-9.548061,0.073529,-0.051411,-0.044288,-0.018326,0.012523
1765916347.069915,-9.889405,0.056193,0.261836,-0.039706,-0.032376,0.011606
1765916347.071967,-10.118362,-0.074127,0.588235,-0.041539,-0.011912,0.011912
1765916347.074956,-9.772237,-0.196078,0.136298,-0.036346,-0.011912,0.012675
1765916347.077883,-9.772237,-0.196078,0.136298,-0.036346,-0.019242,0.012675
1765916347.079866,-10.195478,0.067551,0.817790,-0.037721,-0.019242,0.005498
1765916347.082853,-10.249879,0.034672,0.952893,-0.034819,-0.016799,0.013744
1765916347.084871,-9.817072,0.054998,0.106408,-0.038790,-0.023366,0.007178
1765916347.087893,-9.632950,0.225968,-0.297704,-0.046120,-0.023366,0.006720
1765916347.089902,-9.888808,0.052606,0.255261,-0.041081,-0.022755,0.013286
1765916347.092906,-10.248685,-0.138690,0.781325,-0.035277,-0.018479,0.018631
1765916347.094860,-10.056191,-0.202056,0.579866,-0.038026,-0.012981,0.009316
1765916347.096861,-9.840386,0.010163,0.248685,-0.045051,-0.020464,0.003512
1765916347.099919,-9.815877,0.020325,0.022119,-0.040775,-0.027642,0.010690
1765916347.102906,-10.031085,0.120756,0.374223,-0.036041,-0.031001,0.010232
1765916347.103406,-9.960544,0.083692,0.331779,-0.044288,-0.006414,0.009927
1765916347.107892,-9.875656,0.098637,0.263032,-0.046426,-0.006414,0.009927
1765916347.109908,-9.730989,-0.025108,0.191296,-0.039554,-0.019395,0.014203
1765916347.111857,-10.019128,0.036466,0.465088,-0.044135,-0.018326,0.011759
1765916347.114910,-10.059779,0.064562,0.413678,-0.046120,-0.018326,0.007483
1765916347.116858,-9.855330,0.027499,0.375418,-0.045357,-0.016799,0.011301
1765916347.117894,-9.967119,-0.047824,0.510521,-0.043066,-0.016799,0.011759
1765916347.122895,-9.967119,-0.047824,0.510521,-0.043066,-0.028711,0.011759
1765916347.124902,-10.203251,-0.090866,0.578670,-0.044746,-0.023824,0.009927
1765916347.127895,-9.858918,-0.111191,0.101626,-0.040470,-0.021075,0.010996
1765916347.128395,-9.870873,0.002391,0.239718,-0.041233,-0.026267,0.005040
1765916347.132878,-10.255259,0.112386,0.802248,-0.041539,-0.027031,0.006872
1765916347.134904,-10.255259,0.112386,0.802248,-0.041539,-0.026878,0.006872
1765916347.137898,-9.784193,0.032281,-0.035868,-0.050091,-0.020464,0.010537
1765916347.138398,-9.818865,-0.053802,0.148254,-0.049175,-0.020464,0.010843
1765916347.141924,-10.109396,-0.120756,0.564323,-0.042302,-0.020311,0.012523
1765916347.144866,-10.096842,-0.135103,0.463893,-0.041233,-0.023824,0.009774
1765916347.146877,-9.912720,0.104615,0.199067,-0.045815,-0.020617,0.003054
1765916347.149889,-9.711261,0.187709,0.066356,-0.047189,-0.021838,0.009774
1765916347.152881,-9.939621,0.164993,0.252272,-0.045815,-0.030085,0.011606
1765916347.153381,-10.075920,0.033477,0.420851,-0.048564,-0.022297,0.013897
1765916347.156867,-9.968913,-0.036466,0.376614,-0.050702,-0.011148,0.015424
1765916347.159891,-9.693327,-0.215208,0.057987,-0.045204,-0.016952,0.015730
1765916347.160931,-10.008368,-0.095648,0.556552,-0.045204,-0.027336,0.009774
1765916347.164898,-10.301888,0.059780,0.810617,-0.044899,-0.022602,0.005651
1765916347.166867,-9.943806,0.052009,0.399330,-0.045051,-0.021838,0.013439
1765916347.169890,-9.774628,0.122549,0.032281,-0.046884,-0.032376,0.011301
1765916347.171968,-10.138689,0.177547,0.524868,-0.050091,-0.031307,0.011606
1765916347.174861,-10.185316,-0.088474,0.554758,-0.047037,-0.027947,0.019090
1765916347.176906,-9.950381,-0.197274,0.118364,-0.045662,-0.025809,0.015730
1765916347.179862,-9.813485,-0.139885,0.137494,-0.049327,-0.018937,0.007178
1765916347.182883,-9.949186,0.035868,0.480033,-0.044746,-0.022755,0.009010
1765916347.184858,-9.907339,0.025108,0.381396,-0.045662,-0.028100,0.011454
1765916347.187869,-9.907339,0.025108,0.381396,-0.045662,-0.026420,0.011454
1765916347.189869,-9.956359,0.017934,0.349713,-0.052229,-0.017562,0.011606
1765916347.191860,-9.869678,-0.099235,0.167384,-0.051313,-0.029169,0.020464
1765916347.193918,-10.056191,-0.170971,0.322812,-0.048869,-0.038026,0.012217
1765916347.196933,-10.110592,0.025108,0.506934,-0.049175,-0.022144,0.006567
1765916347.199902,-9.891200,0.129723,0.388570,-0.041997,-0.013286,0.016188
1765916347.201928,-9.820659,0.059780,0.329388,-0.044288,-0.023976,0.018479
1765916347.204933,-10.326398,0.039455,0.759804,-0.051924,-0.029322,0.010079
1765916347.206897,-10.451936,0.027499,0.951100,-0.050244,-0.020464,0.013744
1765916347.208001,-10.074127,-0.157819,0.448350,-0.044288,-0.026878,0.020922
1765916347.212927,-9.909731,-0.109397,0.221186,-0.049786,-0.043219,0.008705
1765916347.215015,-10.045432,-0.033477,0.154830,-0.054520,-0.041233,0.006720
1765916347.217885,-9.893590,0.114180,0.004782,-0.042455,-0.024129,0.013592
1765916347.219898,-9.845766,0.119560,0.114778,-0.043830,-0.020769,0.009468
1765916347.220961,-10.272595,0.197872,0.927786,-0.052229,-0.020769,0.008552
1765916347.224914,-10.306072,0.011956,0.688666,-0.053756,-0.022144,0.015272
1765916347.226947,-10.057388,-0.077116,0.392755,-0.051007,-0.031154,0.018173
1765916347.229969,-9.877449,0.001793,0.309660,-0.051313,-0.025198,0.012828
1765916347.233030,-9.948587,-0.023912,0.546389,-0.051160,-0.025351,0.016188
1765916347.234914,-9.855330,0.038259,0.359876,-0.051618,-0.028863,0.011912
1765916347.237950,-9.951577,0.156624,0.298900,-0.054825,-0.027642,0.012981
1765916347.239924,-10.059779,0.037064,0.654591,-0.054214,-0.030085,0.015577
1765916347.241915,-10.127929,-0.123147,0.567312,-0.049327,-0.030085,0.016493
1765916347.244934,-10.014346,-0.259445,0.237924,-0.051465,-0.039554,0.010232
1765916347.247094,-9.810495,0.129125,0.000000,-0.045662,-0.028253,0.002902
1765916347.249986,-9.733380,0.207437,0.192492,-0.043677,-0.022449,0.014661
1765916347.250997,-9.943806,0.111191,0.552367,-0.048869,-0.032681,0.017410
1765916347.254931,-10.184121,0.114778,0.673123,-0.049938,-0.028100,0.014203
1765916347.256915,-10.003586,-0.158417,0.239120,-0.050396,-0.023518,0.022602
1765916347.259897,-9.812887,-0.290531,-0.028097,-0.046578,-0.031154,0.015577
1765916347.261886,-9.976088,0.060378,0.498565,-0.051618,-0.027794,0.006414
1765916347.262905,-10.118362,0.156624,0.843496,-0.053145,-0.015272,0.010996
1765916347.265942,-9.709468,0.086083,0.074127,-0.051313,-0.024129,0.020311
1765916347.269957,-9.913317,0.068747,0.252869,-0.053756,-0.042608,0.012981
1765916347.272904,-10.355091,-0.061573,0.876375,-0.054214,-0.032529,0.016035
1765916347.274945,-10.182925,-0.176949,0.704806,-0.046120,-0.025809,0.020617
1765916347.276898,-9.691534,-0.088474,0.035868,-0.052076,-0.037721,0.012828
1765916347.279861,-9.830821,0.126734,0.293520,-0.056352,-0.037721,0.005345
1765916347.280919,-10.093256,0.176949,0.653395,-0.049327,-0.032529,0.016188
1765916347.284971,-9.935436,0.009565,0.319225,-0.048258,-0.032223,0.019853
1765916347.286973,-9.628167,-0.046628,-0.004782,-0.053756,-0.025809,0.016188
1765916347.289888,-9.698708,-0.129125,0.111191,-0.054672,-0.030391,0.015577
1765916347.291927,-10.070539,-0.105213,0.613343,-0.042150,-0.030391,0.018173
1765916347.294883,-10.070539,-0.105213,0.613343,-0.042150,-0.026267,0.018173
1765916347.296857,-10.052007,0.246294,0.649809,-0.051771,-0.023213,0.011148
1765916347.299850,-9.790769,0.164993,0.257054,-0.051007,-0.023213,0.020159
1765916347.302892,-9.853538,-0.044237,0.346724,-0.051618,-0.036805,0.020769
1765916347.304937,-10.222381,-0.062769,0.560139,-0.059407,-0.032529,0.011454
1765916347.306900,-10.222381,-0.062769,0.560139,-0.059407,-0.021380,0.011454
1765916347.309899,-9.903154,-0.090268,0.455524,-0.050091,-0.019548,0.019242
1765916347.312875,-9.825441,0.100430,0.393352,-0.054062,-0.033445,0.013286
1765916347.314874,-9.906742,0.037064,0.369440,-0.057116,-0.034972,0.014355
1765916347.317909,-9.867885,0.059780,0.160210,-0.051160,-0.032681,0.018631
1765916347.318409,-9.781204,0.035868,0.261836,-0.049022,-0.027794,0.018937
1765916347.321938,-9.808702,-0.111191,0.471066,-0.048564,-0.031307,0.018173
1765916347.322923,-9.771639,-0.072932,0.138690,-0.050855,-0.031307,0.015577
1765916347.326881,-9.784791,0.056193,0.118962,-0.049175,-0.036194,0.016035
1765916347.329938,-9.879243,0.267814,0.271999,-0.056047,-0.017868,0.013439
1765916347.331985,-9.923481,0.162602,0.503348,-0.054978,-0.016188,0.020769
1765916347.334912,-9.882831,-0.090866,0.700622,-0.058490,-0.027184,0.021075
1765916347.336937,-9.998802,-0.043042,0.532640,-0.061392,-0.027184,0.015119
1765916347.339862,-9.811094,-0.217599,0.167982,-0.058032,-0.023060,0.016341
1765916347.341916,-9.811692,-0.083094,0.096844,-0.050702,-0.026725,0.014203
1765916347.344933,-10.254662,0.249880,0.827355,-0.050855,-0.026725,0.014050
1765916347.347898,-10.254662,0.249880,0.827355,-0.050855,-0.025656,0.014050
1765916347.349952,-9.799137,-0.174558,0.078910,-0.052382,-0.033292,0.022449
1765916347.351884,-9.863700,-0.026303,0.153635,-0.048717,-0.028558,0.022449
1765916347.354899,-10.269009,-0.009565,0.951100,-0.054520,-0.025962,0.014355
1765916347.356846,-10.227761,0.053204,0.876375,-0.051924,-0.026573,0.015424
1765916347.362096,-10.227761,0.053204,0.876375,-0.051924,-0.028711,0.015424
1765916347.362596,-9.634145,0.038259,-0.365256,-0.058490,-0.027794,0.017257
1765916347.364872,-10.022118,-0.011956,0.478240,-0.050549,-0.026267,0.018937
1765916347.366901,-10.303681,0.075323,1.159732,-0.049327,-0.017104,0.020159
1765916347.369931,-10.215207,0.045433,0.852463,-0.059712,-0.017104,0.016799
1765916347.371980,-10.215207,0.045433,0.852463,-0.059712,-0.025962,0.016799
1765916347.374937,-10.038857,0.013152,0.188905,-0.055894,-0.037110,0.022449
1765916347.376882,-10.013150,-0.206839,0.322812,-0.055283,-0.037110,0.023060
1765916347.377974,-9.935436,-0.027499,0.337159,-0.053909,-0.029169,0.013439
1765916347.381976,-9.787182,0.115973,0.218795,-0.054367,-0.018479,0.019242
1765916347.384906,-9.507411,0.002391,-0.033477,-0.052076,-0.029932,0.021380
1765916347.387847,-9.972500,0.231349,0.347322,-0.057421,-0.033445,0.012675
1765916347.388347,-9.941415,0.095648,0.518293,-0.054367,-0.021838,0.020617
1765916347.390840,-9.750119,-0.040053,0.303085,-0.054062,-0.019395,0.026878
1765916347.394970,-10.013150,-0.064562,0.571497,-0.058185,-0.027947,0.019548
1765916347.395882,-10.227163,-0.014945,0.818986,-0.060323,-0.024740,0.014966
1765916347.399942,-9.793160,-0.024510,0.119560,-0.057116,-0.030849,0.019242
1765916347.401898,-9.674795,0.111191,-0.019130,-0.062461,-0.035583,0.014661
1765916347.404906,-9.674795,0.111191,-0.019130,-0.062461,-0.030543,0.014661
1765916347.407838,-10.218794,0.118364,0.701817,-0.059254,-0.026725,0.027489
1765916347.409912,-10.003586,-0.240316,0.520086,-0.055131,-0.025809,0.027947
1765916347.412909,-9.864299,-0.219990,0.205045,-0.058338,-0.030391,0.016493
1765916347.414911,-9.875656,-0.056791,0.221186,-0.057421,-0.032223,0.015882
1765916347.416877,-9.927666,0.233142,0.453132,-0.057421,-0.032376,0.015882
1765916347.419879,-10.020324,0.340746,0.619919,-0.056047,-0.026725,0.019395
1765916347.420884,-9.967119,0.052606,0.457317,-0.062003,-0.026573,0.024893
1765916347.424886,-10.050214,-0.088474,0.356289,-0.059712,-0.036041,0.023671
1765916347.426848,-9.903154,-0.121951,0.246294,-0.058796,-0.036041,0.021838
1765916347.429890,-9.909132,0.081301,0.290531,-0.063225,-0.032529,0.014661
1765916347.432853,-9.968913,0.219990,0.515304,-0.067806,-0.028711,0.017868
1765916347.434852,-9.965326,0.028097,0.541607,-0.062461,-0.037874,0.022144
1765916347.436936,-10.027497,0.121951,0.236729,-0.062766,-0.037263,0.021991
1765916347.439868,-9.910329,-0.208034,0.031683,-0.066584,-0.037263,0.022449
1765916347.441904,-9.903154,-0.235533,0.169775,-0.055283,-0.030543,0.022602
1765916347.444856,-10.118960,-0.135701,0.730512,-0.057116,-0.032070,0.019395
1765916347.445855,-10.118960,-0.135701,1.132233,-0.057116,-0.023824,0.019395
1765916347.449856,-9.847560,0.395146,0.172166,-0.059712,-0.029322,0.020006
1765916347.452893,-9.805116,0.100430,-0.020325,-0.062919,-0.046578,0.026725
1765916347.453393,-10.076518,-0.126136,0.485414,-0.062156,-0.039248,0.024893
1765916347.456854,-10.326398,-0.106408,0.991750,-0.063530,-0.024587,0.021533
1765916347.457893,-9.924676,0.019130,0.496174,-0.065821,-0.027794,0.016646
1765916347.462880,-9.827832,0.313247,0.105213,-0.067653,-0.044593,0.011454
1765916347.464869,-10.136297,0.346724,0.522477,-0.063377,-0.042455,0.021533
1765916347.466872,-9.849353,0.029890,0.393352,-0.060018,-0.032529,0.032834
1765916347.469861,-9.589908,-0.198470,0.105213,-0.064141,-0.035430,0.023060
1765916347.470909,-9.832614,0.068149,0.312052,-0.067959,-0.035277,0.015882
1765916347.474902,-9.951577,0.029292,0.383190,-0.058948,-0.034056,0.022297
1765916347.476846,-10.005977,0.026303,0.536824,-0.054978,-0.031001,0.021075
1765916347.479845,-10.035867,0.144070,0.865614,-0.056963,-0.020464,0.022449
1765916347.482866,-9.641318,-0.123147,0.356289,-0.062461,-0.042150,0.026725
1765916347.484840,-9.780606,-0.026901,0.291726,-0.064141,-0.042150,0.020617
1765916347.485869,-10.133906,0.178144,0.705404,-0.069791,-0.036499,0.014813
1765916347.487831,-10.029292,0.028097,0.575084,-0.065668,-0.032834,0.022907
1765916347.491883,-9.794355,0.082496,0.190100,-0.061392,-0.031307,0.025809
1765916347.494867,-10.060376,-0.123147,0.571497,-0.067501,-0.041081,0.023366
1765916347.496900,-10.106407,-0.110593,0.486609,-0.062766,-0.041081,0.016493
1765916347.499888,-9.782997,0.101626,0.176351,-0.061697,-0.038943,0.012828
1765916347.500859,-9.480511,0.477642,-0.015543,-0.060476,-0.021991,0.012523
1765916347.504872,-9.692730,0.466284,0.416069,-0.067501,-0.023060,0.025809
1765916347.506895,-10.260639,0.027499,1.041368,-0.072540,-0.030849,0.034819
1765916347.509857,-10.196675,-0.388570,0.689861,-0.067348,-0.030849,0.029627
1765916347.511880,-9.679578,-0.016738,0.034672,-0.067195,-0.029932,0.013134
1765916347.514909,-9.451219,0.219990,-0.150646,-0.069028,-0.027947,0.012828
1765916347.515891,-9.609037,0.321616,0.176351,-0.060476,-0.035888,0.024893
1765916347.519893,-9.609037,0.321616,0.176351,-0.060476,-0.036346,0.024893
1765916347.521884,-10.026900,-0.028694,0.626494,-0.071929,-0.029474,0.023518
1765916347.524845,-9.556431,-0.017934,-0.230153,-0.065363,-0.025809,0.020617
1765916347.526871,-9.563604,0.072334,-0.001196,-0.067501,-0.025656,0.019700
1765916347.529893,-10.317431,0.235533,1.082018,-0.061392,-0.025656,0.018784
1765916347.532877,-10.317431,0.235533,1.082018,-0.061392,-0.018326,0.018784
1765916347.533377,-10.010758,0.054998,0.357484,-0.068111,-0.031154,0.018326
1765916347.536882,-9.751313,0.163797,-0.020325,-0.068722,-0.028863,0.016646
1765916347.539914,-9.910329,0.099235,0.549976,-0.066126,-0.026420,0.021228
1765916347.540906,-10.147655,0.121951,0.799856,-0.066279,-0.026878,0.025045
1765916347.544848,-10.128527,0.069345,0.511717,-0.072235,-0.031001,0.018479
1765916347.546870,-10.068149,0.035270,0.491392,-0.069028,-0.030543,0.019853
1765916347.547838,-9.892993,-0.008369,0.175155,-0.067653,-0.027642,0.020617
1765916347.551860,-10.236131,0.316236,0.866810,-0.062461,-0.023213,0.016188
1765916347.554916,-10.387374,0.335964,1.015064,-0.073457,-0.023213,0.016341
1765916347.555855,-10.056790,0.056193,0.251674,-0.067653,-0.031765,0.029016
1765916347.559831,-9.668818,-0.203252,-0.010760,-0.069333,-0.039095,0.023824
1765916347.560936,-10.108200,0.056193,0.695839,-0.069791,-0.039095,0.011454
1765916347.564863,-10.040649,0.224773,0.598398,-0.074220,-0.024587,0.011454
1765916347.566868,-9.827234,0.199665,0.121353,-0.072540,-0.040012,0.018326
1765916347.569844,-9.832614,0.089670,0.010163,-0.074984,-0.035888,0.023671
1765916347.572849,-10.124342,0.047824,0.758010,-0.065515,-0.033139,0.024435
1765916347.574859,-10.124939,-0.057987,0.780727,-0.072235,-0.026573,0.018631
1765916347.577907,-10.124939,-0.057987,0.780727,-0.072235,-0.037263,0.018631
1765916347.579860,-9.667024,0.083692,0.013152,-0.071013,-0.035583,0.014050
1765916347.581922,-9.892993,0.202056,0.536824,-0.058338,-0.035888,0.022297
1765916347.582861,-10.093256,0.076518,0.841702,-0.063072,-0.037263,0.020159
1765916347.586851,-10.266019,0.210426,0.784314,-0.073457,-0.039095,0.012675
1765916347.587844,-10.266019,0.210426,0.784314,-0.073457,-0.038485,0.012675
1765916347.590877,-9.729793,0.077714,-0.017934,-0.071471,-0.043677,0.024587
1765916347.594901,-9.995216,-0.005978,0.368245,-0.076358,-0.038943,0.019242
1765916347.597683,-10.175154,-0.000598,0.703611,-0.068417,-0.029474,0.021380
1765916347.599914,-9.882831,0.043042,0.555954,-0.071471,-0.025198,0.016799
1765916347.601924,-9.921089,0.283357,0.420851,-0.065973,-0.031307,0.018479
1765916347.604956,-9.992825,0.289335,0.592420,-0.067653,-0.032987,0.022297
1765916347.606894,-10.125537,-0.076518,0.618125,-0.066432,-0.043219,0.027947
1765916347.609965,-10.157818,-0.160210,0.657580,-0.068111,-0.038332,0.022907
1765916347.611935,-10.057388,0.135103,0.494978,-0.074373,-0.038332,0.013744
1765916347.613895,-10.025704,0.343735,0.347322,-0.074678,-0.041386,0.019090
1765916347.618096,-9.979075,0.156026,0.204448,-0.073915,-0.052229,0.027642
1765916347.619910,-10.195478,0.104017,0.432807,-0.076053,-0.044440,0.024435
1765916347.622951,-10.248086,-0.075323,0.750239,-0.077122,-0.026267,0.022144
1765916347.624909,-10.062170,-0.081899,0.689861,-0.071471,-0.024435,0.019395
1765916347.626942,-9.840983,-0.047824,0.441176,-0.068722,-0.044899,0.021075
1765916347.629915,-10.229554,0.233142,0.872788,-0.075289,-0.044288,0.011148
1765916347.631904,-10.227163,0.194883,0.710784,-0.069944,-0.029169,0.021838
1765916347.635920,-9.704088,-0.068149,0.269010,-0.067348,-0.035583,0.029169
1765916347.636957,-9.823050,0.164395,0.431014,-0.078802,-0.043524,0.014813
1765916347.640921,-10.102820,0.298900,0.598996,-0.080329,-0.037263,0.021838
1765916347.641879,-9.811692,-0.158417,0.159613,-0.073457,-0.043524,0.033903
1765916347.644903,-9.582136,-0.214012,0.075323,-0.075289,-0.042302,0.023366
1765916347.646889,-9.962337,0.083692,0.823171,-0.075289,-0.031001,0.012981
1765916347.649910,-10.135101,0.196676,0.968436,-0.073762,-0.048411,0.022144
1765916347.651949,-10.070539,0.173362,0.499163,-0.072693,-0.048411,0.023824
1765916347.652943,-9.942610,0.027499,0.521282,-0.074526,-0.038943,0.021075
1765916347.657883,-9.891797,-0.004185,0.475251,-0.074678,-0.032529,0.025351
1765916347.659880,-9.942013,-0.052606,0.587040,-0.082009,-0.047342,0.020311
1765916347.661868,-10.053802,0.069345,0.518293,-0.080481,-0.051313,0.017562
1765916347.664860,-10.021520,0.280966,0.469871,-0.072693,-0.034208,0.021991
1765916347.666873,-9.658057,0.107604,0.361071,-0.077122,-0.041997,0.028711
1765916347.669883,-9.788378,0.164993,0.528455,-0.079260,-0.041997,0.024282
1765916347.671924,-10.065758,0.037064,0.744261,-0.083994,-0.038943,0.020617
1765916347.672884,-10.027497,0.170971,0.545194,-0.074067,-0.038332,0.027184
1765916347.676941,-9.809300,0.017934,0.435198,-0.074067,-0.034667,0.027184
1765916347.679916,-9.734576,0.013152,0.393352,-0.072540,-0.042150,0.026114
1765916347.681875,-10.060975,0.172764,0.533835,-0.077580,-0.043066,0.021838
1765916347.684893,-10.292323,0.316834,0.918221,-0.076205,-0.034361,0.025045
1765916347.686895,-9.619798,0.020325,0.105811,-0.079565,-0.030238,0.038026
1765916347.689941,-9.738162,-0.215208,0.233142,-0.082009,-0.037874,0.027184
1765916347.692844,-9.769846,-0.126734,0.510521,-0.076205,-0.029627,0.022449
1765916347.694874,-9.948587,-0.060976,0.660569,-0.073304,-0.040928,0.026267
1765916347.696974,-9.923481,0.266619,0.662362,-0.069791,-0.037110,0.019700
1765916347.697960,-9.409372,0.205643,-0.009565,-0.074526,-0.047647,0.029932
1765916347.701886,-9.518172,0.052606,0.096844,-0.070555,-0.047647,0.028253
1765916347.704944,-10.010161,0.088474,0.536824,-0.074220,-0.038485,0.025351
1765916347.706881,-9.824244,-0.077714,0.398733,-0.073915,-0.035277,0.034056
1765916347.709897,-9.508607,-0.107604,-0.349115,-0.081092,-0.034514,0.024435
1765916347.710849,-9.741750,0.151243,0.262434,-0.076816,-0.025656,0.022755
1765916347.714888,-10.035867,0.156026,0.949904,-0.070097,-0.025656,0.026420
1765916347.716013,-9.997607,0.228957,0.771162,-0.071929,-0.030391,0.029322
1765916347.719852,-9.918698,0.169177,0.678503,-0.079260,-0.033139,0.025962
1765916347.722885,-9.932447,-0.086083,0.314443,-0.076205,-0.040623,0.027031
1765916347.724941,-9.932447,-0.086083,0.314443,-0.076205,-0.050244,0.027031
1765916347.726151,-10.093853,0.025108,0.456719,-0.075289,-0.041692,0.018784
1765916347.730190,-10.093853,0.025108,0.456719,-0.075289,-0.030085,0.018784
1765916347.732858,-9.866092,0.037064,0.499761,-0.072693,-0.040164,0.024435
1765916347.734871,-10.372428,0.262434,1.078431,-0.069028,-0.040164,0.023976
1765916347.737898,-10.497967,0.245098,0.882353,-0.077733,-0.040317,0.025656
1765916347.742075,-9.750119,0.077714,0.101626,-0.078343,-0.033292,0.028405
1765916347.742575,-9.396221,-0.034075,-0.246294,-0.070708,-0.040623,0.035583
1765916347.744855,-10.105211,-0.005978,1.065877,-0.073151,-0.039401,0.026878
1765916347.747871,-10.365852,0.202056,1.030009,-0.078191,-0.039401,0.021228
1765916347.749942,-9.961740,0.164395,0.195481,-0.079412,-0.042302,0.029932
1765916347.752015,-9.601266,0.229555,-0.230751,-0.080023,-0.047037,0.027642
1765916347.757275,-10.047822,0.169775,0.618723,-0.086437,-0.043219,0.033445
1765916347.757775,-10.514107,0.029890,1.329507,-0.085216,-0.036957,0.031765
1765916347.759919,-10.305474,-0.019130,0.880559,-0.078954,-0.033139,0.030849
1765916347.762899,-9.708273,-0.120756,0.123147,-0.073915,-0.043677,0.031918
1765916347.764895,-9.621591,0.074127,-0.060976,-0.075289,-0.044288,0.023366
1765916347.766926,-10.205642,0.254663,1.072453,-0.071013,-0.044288,0.024893
1765916347.769913,-9.961740,0.213415,0.718556,-0.072082,-0.043371,0.032987
1765916347.774123,-9.898373,0.059182,0.453730,-0.079718,-0.043371,0.035583
1765916347.774953,-9.718434,0.050215,0.087279,-0.082925,-0.046273,0.029627
1765916347.776889,-9.974891,0.065160,0.518293,-0.075136,-0.051618,0.031460
1765916347.779894,-10.228956,0.084888,0.975610,-0.078802,-0.044746,0.024129
1765916347.782864,-10.228956,0.084888,0.975610,-0.078802,-0.030696,0.024129
1765916347.784857,-9.649688,-0.199665,0.211621,-0.081551,-0.042150,0.036499
1765916347.786938,-9.860711,0.093257,0.200861,-0.079260,-0.054214,0.020464
1765916347.789931,-10.160808,0.225968,0.997130,-0.074067,-0.039706,0.028558
1765916347.791847,-9.933045,-0.014347,0.713175,-0.074678,-0.039248,0.038943
1765916347.794872,-9.596484,-0.025108,-0.073529,-0.083994,-0.047342,0.027489
1765916347.796869,-9.655666,0.163797,0.029890,-0.086896,-0.047800,0.023824
1765916347.797914,-10.040649,0.319225,0.804041,-0.078496,-0.037874,0.029932
1765916347.802078,-9.837397,0.272597,0.733501,-0.076664,-0.036499,0.037110
1765916347.804867,-9.637732,-0.058584,0.416667,-0.094531,-0.038332,0.029932
1765916347.806913,-9.640123,0.147059,0.348517,-0.080481,-0.045357,0.029016
1765916347.809855,-9.659253,-0.031683,0.144668,-0.078038,-0.054672,0.038179
1765916347.812913,-9.870276,0.261239,0.396341,-0.075595,-0.053909,0.031154
1765916347.814874,-9.849951,0.178144,0.480631,-0.085521,-0.034819,0.030391
1765916347.816857,-9.721423,0.032281,0.234338,-0.083230,-0.045968,0.036499
1765916347.817893,-10.163795,0.292922,0.679101,-0.085216,-0.051924,0.023671
1765916347.822879,-10.299497,0.175753,1.028216,-0.086132,-0.034361,0.031154
1765916347.824847,-9.939023,0.062171,0.412482,-0.084452,-0.034667,0.037721
1765916347.828166,-10.147058,0.026901,0.686274,-0.085216,-0.052076,0.030238
1765916347.829895,-10.380199,0.163199,1.040770,-0.088270,-0.052076,0.023518
1765916347.831941,-10.273791,0.304878,0.535629,-0.080023,-0.052382,0.031765
1765916347.834908,-9.826636,0.253467,0.164993,-0.083841,-0.040775,0.036652
1765916347.836889,-9.838593,0.221186,0.277379,-0.094531,-0.040775,0.035125
1765916347.839973,-10.163795,0.133907,1.083214,-0.094531,-0.039554,0.035125
1765916347.841917,-10.074127,-0.147059,0.460904,-0.089644,-0.046578,0.041997
1765916347.844860,-9.999999,-0.070540,0.369440,-0.085368,-0.042913,0.033139
1765916347.845915,-9.707077,0.049020,0.504543,-0.084910,-0.031001,0.028863
1765916347.850036,-10.203251,0.289933,1.041368,-0.082009,-0.040623,0.033750
1765916347.851951,-10.027497,0.175753,0.534433,-0.083536,-0.052687,0.033598
1765916347.854899,-9.826636,0.287542,0.099235,-0.084758,-0.054978,0.034972
1765916347.856862,-9.686751,0.052606,0.191296,-0.086590,-0.041692,0.035125
1765916347.859878,-9.996411,0.149450,0.790292,-0.090103,-0.041997,0.033445
1765916347.860880,-10.095646,0.083692,1.057508,-0.092088,-0.041997,0.032376
1765916347.864917,-9.861309,0.209230,0.376614,-0.092393,-0.045357,0.031154
1765916347.866922,-9.619201,0.158417,0.096844,-0.088575,-0.055589,0.032987
1765916347.869915,-10.029889,0.354495,0.719751,-0.087965,-0.051618,0.029932
1765916347.871941,-10.225968,0.205643,0.964251,-0.089950,-0.051465,0.035277
1765916347.874944,-9.748923,0.043042,-0.004782,-0.093157,-0.051465,0.034208
1765916347.877871,-9.782400,0.087877,0.093257,-0.088575,-0.052993,0.029627
1765916347.879874,-10.104613,0.127929,0.940339,-0.093768,-0.039401,0.027642
1765916347.880882,-10.438784,0.176949,1.215925,-0.089644,-0.046273,0.030543
1765916347.884860,-10.135101,0.171569,0.930775,-0.093157,-0.045815,0.028405
1765916347.886987,-9.827832,0.284553,0.315638,-0.093310,-0.045815,0.027642
1765916347.890037,-9.897178,0.058584,0.466882,-0.093310,-0.058185,0.027642
1765916347.894192,-10.198468,0.182927,0.921808,-0.081551,-0.051160,0.022449
1765916347.894890,-9.750716,0.169775,0.553563,-0.077580,-0.041386,0.031001
1765916347.895837,-9.542084,0.320421,0.082496,-0.086743,-0.046273,0.025198
1765916347.899946,-9.817670,0.506934,0.618125,-0.084299,-0.046426,0.028253
1765916347.900851,-9.817670,0.506934,0.618125,-0.084299,-0.046273,0.028253
1765916347.904872,-9.917501,0.133907,0.584648,-0.090255,-0.057421,0.035430
1765916347.906866,-9.935436,0.289933,0.604974,-0.094073,-0.046273,0.029474
1765916347.909849,-9.935436,0.289933,0.604974,-0.094073,-0.053603,0.029474
1765916347.911904,-9.616212,-0.016738,0.130320,-0.087659,-0.060323,0.029780
1765916347.914890,-9.980869,0.438187,0.808226,-0.090561,-0.039248,0.016035
1765916347.916978,-10.090864,0.419656,1.304400,-0.094531,-0.045357,0.029322
1765916347.919933,-9.819464,0.297704,0.681492,-0.093157,-0.045357,0.034819
1765916347.920915,-10.107603,0.129125,0.798661,-0.102320,-0.058948,0.026114
1765916347.924896,-9.841581,0.138092,0.284553,-0.098349,-0.047495,0.028253
1765916347.925897,-9.603060,-0.072932,0.191296,-0.091019,-0.044746,0.032223
1765916347.929921,-9.674795,0.130320,0.432807,-0.084910,-0.038790,0.020617
1765916347.932901,-9.861309,0.318030,0.695839,-0.089492,-0.038790,0.020159
1765916347.934891,-9.803921,0.443568,0.677905,-0.091019,-0.033445,0.026725
1765916347.937873,-9.947392,0.429818,0.804639,-0.093462,-0.034819,0.031460
1765916347.939902,-10.024508,-0.051411,1.008489,-0.102320,-0.037721,0.033903
1765916347.940871,-9.928263,-0.050215,0.465088,-0.093157,-0.046884,0.033903
1765916347.944876,-9.727402,0.016738,0.170971,-0.095142,-0.046578,0.026878
1765916347.947887,-9.858918,0.197274,0.332377,-0.091324,-0.042455,0.026878
1765916347.949861,-10.117167,0.392157,0.795672,-0.084758,-0.027489,0.026725
1765916347.951860,-9.778812,0.192492,0.668938,-0.089186,-0.027489,0.032529
1765916347.955163,-9.778812,0.192492,0.668938,-0.089186,-0.036652,0.032529
1765916347.958136,-10.058583,0.034672,0.636059,-0.097128,-0.043677,0.035125
1765916347.959867,-10.056191,-0.214012,0.724534,-0.094837,-0.048717,0.033139
1765916347.961904,-9.905546,0.210426,0.370636,-0.090103,-0.036957,0.024740
1765916347.964879,-9.901959,0.176949,0.607365,-0.092852,-0.036957,0.027947
1765916347.966877,-9.901959,0.176949,0.607365,-0.092852,-0.042913,0.027947
1765916347.969892,-10.094451,0.313247,0.738881,-0.086132,-0.047342,0.033903
1765916347.972863,-10.090864,0.065160,0.828551,-0.095906,-0.032529,0.034361
1765916347.973363,-10.042442,0.175753,0.631277,-0.096211,-0.034361,0.033139
1765916347.976905,-9.892993,-0.139287,0.389168,-0.095753,-0.042913,0.033903
1765916347.979897,-9.836799,0.016141,0.298302,-0.093615,-0.058185,0.022449
1765916347.983484,-10.023313,0.348517,0.572692,-0.094684,-0.046426,0.023366
1765916347.984867,-9.884624,0.308465,0.475849,-0.096517,-0.033598,0.036652
1765916347.985878,-9.988043,0.202056,0.469871,-0.092393,-0.042608,0.039859
1765916347.989900,-10.266617,0.103419,1.152558,-0.096211,-0.042608,0.033598
1765916347.992901,-9.984456,-0.002391,0.515304,-0.096364,-0.043830,0.038485
1765916347.994899,-9.791367,0.007174,0.134505,-0.093768,-0.054214,0.036499
1765916347.996915,-9.997607,0.082496,0.545791,-0.099724,-0.055741,0.024587
1765916347.999875,-10.132710,0.313247,0.635461,-0.099724,-0.044899,0.024587
1765916348.001944,-9.933643,0.167384,0.636059,-0.093004,-0.044440,0.036041
1765916348.004852,-10.089071,0.145863,0.807030,-0.097586,-0.047647,0.036346
1765916348.007874,-10.245097,0.013152,0.988163,-0.090408,-0.047800,0.037874
1765916348.010005,-10.124342,-0.010163,0.912243,-0.088728,-0.048411,0.035583
1765916348.013170,-10.124342,-0.010163,0.912243,-0.088728,-0.055131,0.035583
1765916348.014934,-10.100429,0.180536,0.506934,-0.099571,-0.057269,0.023824
1765916348.017013,-10.191295,0.371832,0.893113,-0.092546,-0.049633,0.031918
1765916348.019986,-9.919893,0.322214,0.575681,-0.094073,-0.049327,0.037110
1765916348.021934,-9.702294,0.224773,0.322812,-0.096059,-0.049327,0.035277
1765916348.024980,-9.946795,0.077116,0.730512,-0.093462,-0.044593,0.037874
1765916348.027862,-9.837996,0.004782,0.633070,-0.085368,-0.047189,0.041539
1765916348.030053,-9.686751,0.051411,0.426829,-0.094073,-0.047189,0.029016
1765916348.031865,-9.819464,0.338953,0.728718,-0.092852,-0.047953,0.026114
1765916348.034840,-9.826038,0.404113,0.521282,-0.090561,-0.047953,0.037874
1765916348.037893,-9.676588,0.246294,0.283357,-0.092088,-0.058185,0.043371
1765916348.039839,-9.722619,0.135103,0.344333,-0.095906,-0.048258,0.036346
1765916348.041897,-9.885221,-0.058584,0.628288,-0.087812,-0.036499,0.040164
1765916348.044891,-10.130320,0.105213,0.974414,-0.079412,-0.049327,0.037721
1765916348.047031,-10.197272,0.296509,0.836920,-0.090255,-0.049327,0.028558
1765916348.050155,-10.063964,0.400526,0.616930,-0.092088,-0.047647,0.039554
1765916348.052886,-9.736967,0.136298,0.182329,-0.093768,-0.048564,0.045051
1765916348.054846,-10.043041,0.210426,0.648015,-0.089186,-0.056505,0.040470
1765916348.056849,-10.178144,0.136298,0.832138,-0.094990,-0.038179,0.038026
1765916348.059868,-10.132710,0.099235,0.842898,-0.087812,-0.045051,0.043066
1765916348.061922,-10.015541,0.146461,0.818986,-0.088423,-0.043524,0.036499
1765916348.066067,-10.090864,0.367049,0.686274,-0.092699,-0.051771,0.037874
1765916348.066957,-10.147655,0.199665,0.757413,-0.103694,-0.053451,0.039706
1765916348.069903,-10.157221,0.334170,0.509923,-0.097891,-0.047953,0.037263
1765916348.071894,-10.067551,0.221784,0.602582,-0.098960,-0.043371,0.040623
1765916348.074895,-10.068746,0.033477,0.908058,-0.097433,-0.042455,0.039095
1765916348.076872,-10.010758,0.101626,0.920612,-0.094379,-0.044593,0.038790
1765916348.082148,-9.912720,0.041846,0.658776,-0.089034,-0.054062,0.034819
1765916348.082648,-9.997607,0.367049,0.583453,-0.093462,-0.057421,0.034208
1765916348.084880,-10.111190,0.331181,0.685079,-0.094837,-0.058490,0.038485
1765916348.085935,-9.997607,0.184720,0.576877,-0.102625,-0.054825,0.038179
1765916348.089862,-9.913317,0.280966,0.630081,-0.099266,-0.043830,0.035277
1765916348.090923,-9.800333,0.104017,0.577475,-0.094531,-0.043830,0.042455
1765916348.092902,-9.866092,0.029890,0.858441,-0.090103,-0.054672,0.042455
1765916348.097920,-10.034670,0.284553,0.750837,-0.094531,-0.056200,0.033750
1765916348.102137,-9.977283,0.327594,0.490196,-0.092699,-0.055894,0.041081
1765916348.102273,-9.650286,0.210426,0.300693,-0.094837,-0.056352,0.041386
1765916348.104941,-9.946198,0.168580,0.628886,-0.103084,-0.056352,0.043524
1765916348.106958,-10.023911,0.031086,0.807628,-0.104153,-0.056352,0.039095
1765916348.109917,-9.787182,0.175753,0.335366,-0.097891,-0.049938,0.038943
1765916348.112894,-9.678382,0.216404,0.463893,-0.094379,-0.057269,0.042455
1765916348.114891,-9.710664,0.247489,0.631277,-0.094990,-0.054520,0.037110
1765916348.116929,-9.771639,0.429220,0.498565,-0.102320,-0.058185,0.039248
1765916348.122118,-9.893590,0.438187,0.826160,-0.102625,-0.048717,0.036805
1765916348.122618,-9.860711,0.347920,0.706600,-0.106901,-0.056200,0.043982
1765916348.124868,-9.839788,0.005978,0.615734,-0.109345,-0.056200,0.042761
1765916348.126844,-9.839788,0.005978,0.615734,-0.109345,-0.049786,0.042761
1765916348.129906,-9.895385,0.284553,0.771162,-0.099418,-0.047495,0.041692
1765916348.132876,-9.573170,0.309660,0.371832,-0.103084,-0.050549,0.038485
1765916348.134994,-9.695121,0.407700,0.373027,-0.105222,-0.050855,0.039095
1765916348.138143,-9.927068,0.280966,0.915830,-0.109039,-0.050855,0.043066
1765916348.139846,-9.927068,0.280966,0.915830,-0.109039,-0.041692,0.043066
1765916348.141921,-9.552844,0.185318,0.390961,-0.108429,-0.046884,0.040012
1765916348.142870,-9.675991,0.232544,0.419656,-0.108887,-0.049938,0.036652
1765916348.147130,-10.240315,0.272597,1.116093,-0.098655,-0.041233,0.040470
1765916348.150081,-9.998802,0.037661,0.923601,-0.099876,-0.041233,0.038026
1765916348.151030,-9.879243,0.454328,0.491392,-0.100793,-0.041233,0.033445
1765916348.154864,-9.618603,0.380201,0.483022,-0.110872,-0.045509,0.036499
1765916348.156862,-9.936632,0.347322,0.774749,-0.109039,-0.045509,0.040623
1765916348.159921,-10.043638,0.248685,1.024629,-0.105985,-0.041692,0.041386
1765916348.161862,-10.015541,0.320421,0.991152,-0.109192,-0.033292,0.037874
1765916348.164843,-9.588712,0.313845,0.260641,-0.110567,-0.040623,0.041692
1765916348.168096,-9.708870,0.384983,0.485414,-0.112246,-0.053756,0.037721
1765916348.170078,-10.350309,0.541607,1.176470,-0.112552,-0.039248,0.037263
1765916348.171893,-10.350309,0.541607,1.176470,-0.112552,-0.038790,0.037263
1765916348.173945,-10.022716,-0.010163,0.985174,-0.115148,-0.041081,0.041081
1765916348.177853,-9.799137,0.279770,0.522477,-0.108429,-0.042761,0.036346
1765916348.179881,-9.869678,0.284553,0.620516,-0.109650,-0.054978,0.036957
1765916348.182169,-10.112385,0.381396,0.768771,-0.107054,-0.050244,0.031307
1765916348.184868,-10.112385,0.381396,0.768771,-0.107054,-0.033903,0.031307
1765916348.185873,-9.827832,0.341942,0.428025,-0.104763,-0.036805,0.043219
1765916348.189911,-10.025704,0.275586,0.756815,-0.109650,-0.043982,0.036805
1765916348.191894,-10.206838,0.222979,1.150167,-0.104458,-0.040623,0.035736
1765916348.194861,-10.093256,0.184720,0.606169,-0.105680,-0.041997,0.036652
1765916348.196846,-9.793758,0.205643,0.521282,-0.106291,-0.041844,0.031307
1765916348.199886,-9.860114,0.322214,0.595409,-0.105527,-0.035888,0.034667
1765916348.202871,-9.912122,0.436394,0.405308,-0.103542,-0.048869,0.033445
1765916348.204852,-10.135101,0.481229,0.970827,-0.116675,-0.032834,0.032987
1765916348.207881,-10.057985,0.358680,0.830942,-0.110719,-0.032834,0.038179
1765916348.209856,-9.692730,-0.058584,0.598996,-0.113926,-0.045815,0.040470
1765916348.214569,-9.826636,0.279173,0.430416,-0.110872,-0.054825,0.028711
1765916348.215069,-10.245097,0.462099,1.046150,-0.109345,-0.047495,0.029474
1765916348.216885,-9.964130,0.343137,0.804639,-0.106291,-0.039554,0.038943
1765916348.219871,-10.056191,0.508130,0.691057,-0.104611,-0.041692,0.037263
1765916348.222850,-9.972500,0.137494,0.749043,-0.112857,-0.041844,0.039248
