time,acc_x_g,acc_y_g,acc_z_g,gyro_x_rad_s,gyro_y_rad_s,gyro_z_rad_s
1765408935.673076,-7.9688004716849665,3.6332088524937394,4.824194868899317,-0.009393193950959033,-0.005989468636856548,-0.0018786707772484306
1765408935.673326,-7.895703954649648,3.6815596297518685,4.818827805242578,-0.010638826419853772,-0.005520356353791062,-0.0012659496084225124
1765408935.673576,-7.8226428342953565,3.7302150449816143,4.815448289368654,-0.0120285041934344,-0.004963034280108208,-0.0006047293045558921
1765408935.673826,-7.749287920699519,3.7780139086152147,4.815457957280085,-0.013589941241958491,-0.004232859398580666,0.00011668399284206082
1765408935.674122,-7.675516934119887,3.8236544388069436,4.820245850958355,-0.015334487059430994,-0.0032513856145606704,0.0009065836550061715
1765408935.674322,-7.601462837078178,3.8657162393785423,4.831122699000507,-0.017253624957721467,-0.0019504700077801508,0.0017685913852908556
1765408935.674522,-7.527535367132168,3.902694799590851,4.849256588350211,-0.019316552853669004,-0.00027578517715404666,0.0027006133543072863
1765408935.674722,-7.4544127578847705,3.9330485054359916,4.875612996293058,-0.021469078236415695,0.001810467053010187,0.003694113560492564
1765408935.674922,-7.383003562883978,3.9552564147295315,4.910901804212754,-0.02363397841670285,0.00432780376988287,0.004733776567418971
1765408935.675032,-7.314381513145874,3.9678832918558253,4.955533461187243,-0.02571287554178578,0.007276781819039018,0.005797604903203037
1765408935.675282,-7.249699177517259,3.9696471351353937,5.009586091394505,-0.02758955812028345,0.010639439425531479,0.0068574601194268964
1765408935.675532,-7.1900885890838655,3.9594841405582857,5.072785224162672,-0.029134559457772883,0.014380835518379122,0.007880011561001089
1765408935.675782,-7.13655861328992,3.936606810601757,5.144497864750399,-0.03021069695199427,0.01845158963129094,0.008828013181330899
1765408935.676098,-7.089899306624869,3.9005522584691303,5.223742461090251,-0.030679201765794313,0.022791255163499002,0.009661804548455723
1765408935.676298,-7.05060275075717,3.851218927543113,5.309215759592099,-0.03040603454845848,0.027332299418172282,0.010340937077223271
1765408935.676498,-7.018808111213319,3.788890446366939,5.3993366611101274,-0.029267987483310408,0.032004421319506024,0.010825849641117519
1765408935.676698,-6.994276281583741,3.714245251870963,5.492305999289428,-0.02715820797768561,0.0367389165186499,0.011079538806257118
1765408935.676898,-6.9763966003743745,3.628350458440264,5.586179582735554,-0.023990838430465865,0.04147280161914332,0.011069176204980158
1765408935.677057,-6.964225009750511,3.5326387239157144,5.678950127159556,-0.019704545947211435,0.04615243279277707,0.010767621007675147
1765408935.677307,-6.956550148283275,3.4288676956164315,5.7686324939164155,-0.014264808844564535,0.05073639329001669,0.010154767928058472
1765408935.677557,-6.951981681607857,3.319062827102508,5.853346363802127,-0.007664921753342774,0.055197473186597366,0.009218667118334753
1765408935.677807,-6.9490537271105,3.205445692248215,5.931390903458005,7.423413398814653e-05,0.0595236229405582,0.007956352699763873
1765408935.678026,-6.9463352141753765,3.090351185472761,6.001306620868826,0.0089055437745733,0.0637178338935993,0.006374322398707158
1765408935.678276,-6.942538210412745,2.976137967219886,6.061920263788698,0.018757979352830103,0.06779698231177944,0.004488625960568042
1765408935.678526,-6.936614889918662,2.865096962804801,6.11236964888258,0.029539710818387493,0.0717897580063889,0.002324545319078056
1765408935.678776,-6.92783453564786,2.7593626195072387,6.1521071909179845,0.04114181368496703,0.07573386905952899,-8.412554338591809e-05
1765408935.679705,-6.915834088627627,2.6608312854842264,6.180883477457148,0.053442376316206464,0.07967275905348996,-0.0026961824808656534
1765408935.679905,-6.900638867180111,2.5710909006662095,6.198714613346935,0.06631081140109027,0.08365208922788464,-0.005464479544067768
1765408935.680105,-6.88265330713857,2.491366214236504,6.20583844332529,0.07961218557259624,0.08771623084363746,-0.008337746571608868
1765408935.680305,-6.8626243095202595,2.4224834937766695,6.202665200015214,0.0932113947097096,0.09190498998373936,-0.011262712873155719
1765408935.680505,-6.841581935861727,2.364857602690766,6.189728106040382,0.10697703078798093,0.09625074931107691,-0.014186447537989269
1765408935.680001,-6.820763784680056,2.3185022958852146,6.167638996287107,0.12078481100255853,0.10077615829730693,-0.017058782765541347
1765408935.680251,-6.8015302294216875,2.2830621698698987,6.137052751725319,0.13452046973137496,0.10549244363534076,-0.019834663083787576
1765408935.680501,-6.785277633269039,2.257862718611249,6.098642400233918,0.14808204524893104,0.11039836240851424,-0.02247626052068901
1765408935.680751,-6.773355799787209,2.241973855725687,6.05308490894259,0.1613815251434248,0.11547979297741669,-0.024954704903746138
1765408935.681062,-6.766994563415914,2.2342819302854044,6.001056468266981,0.17434584643749687,0.1207099455725429,-0.027251297052948317
1765408935.681312,-6.767242845059816,2.2335652665239722,5.943235315029657,0.18691727450095894,0.12605016125610902,-0.029358105284602462
1765408935.681562,-6.774921928879465,2.23856835961484,5.880309632251174,0.1990532067378666,0.13145124744503775,-0.031277893900526724
1765408935.681812,-6.7905933466291435,2.2480701269254366,5.812987791863335,0.2107254650189768,0.1368552724482458,-0.0330233901960648
1765408935.682056,-6.814540747705921,2.2609421835871224,5.7420082174027876,0.2219191576938645,0.14219771352815158,-0.0346159541248163
1765408935.682306,-6.846764682087926,2.276193991744436,5.668146574683566,0.23263120936161022,0.14740982976555786,-0.0360837633015751
1765408935.682556,-6.886989420456216,2.293002846428081,5.592219079003729,0.24286867230424938,0.1524211243748444,-0.03745966161483969
1765408935.682806,-6.934681463035373,2.310727943181056,5.515082167061156,0.25264693798859966,0.15716177408583684,-0.03877884412975458
1765408935.683031,-6.989079541162693,2.3289091447022603,5.437629578630556,0.26198795221331156,0.16156492248951893,-0.040076565069491275
1765408935.683281,-7.04923514789831,2.347252337652216,5.360787252710805,0.2709185097596128,0.16556874652316642,-0.04138605327290132
1765408935.683531,-7.114061143978584,2.3656042042873673,5.285505069959957,0.2794686780695657,0.16911821405952712,-0.04273679484600309
1765408935.683781,-7.182384614701825,2.3839197588516243,5.212743893555065,0.28767038009560586,0.17216646744445394,-0.044153300556088085
1765408935.684053,-7.252999568429277,2.4022262555606955,5.1434569531969965,0.29555614980318284,0.17467579234661879,-0.045654424714663196
1765408935.684303,-7.324715255861535,2.420587133811313,5.078565322114562,0.303158056970618,0.17661815321240262,-0.04725324606606424
1765408935.684553,-7.396396648953383,2.439069390630061,5.018927505198926,0.31050678639765567,0.1779752974929787,-0.048957462147712676
1765408935.684803,-7.466995014133094,2.4577170188079362,4.96530387857649,0.3176308611034833,0.17873846540372348,-0.050770194364024954
1765408935.685044,-7.535568347565263,2.4765320291787485,4.918318464892492,0.32455602263433786,0.17890779162965678,-0.05269106204799919
1765408935.685294,-7.6012928224223995,2.49546351187871,4.878422070858754,0.33130480834465786,0.1784915271728999,-0.05471737180463541
1765408935.685544,-7.663466566888843,2.514404643430203,4.8458605994019965,0.33789636984199806,0.17750522300423277,-0.05684528808274844
1765408935.685794,-7.721506388996888,2.533197479265039,4.82065071113227,0.3443465489271542,0.17597100520851686,-0.05907088572209625
1765408935.686018,-7.774937594889338,2.5516451542220437,4.80256378545153,0.3506681834396279,0.1739170437410356,-0.06139100916782929
1765408935.686268,-7.823377475959469,2.569530238114299,4.7911193075234175,0.3568715788926741,0.17137727387245824,-0.06380387335211599
1765408935.686518,-7.866514089221587,2.586636805455192,4.785589536008565,0.36296506334713974,0.16839137222125047,-0.06630935887775062
1765408935.686768,-7.9040830023908155,2.6027731526240294,4.7850173154514035,0.36895554057035734,0.1650049300279511,-0.06890898896569522
1765408935.687031,-7.935845386650652,2.6177923986718317,4.788247969776432,0.37484896518051963,0.16126971867605286,-0.07160561442950134
1765408935.687281,-7.9615710653544705,2.631608940013498,4.7939749432996335,0.3806506809395882,0.15724391307174862,-0.07440286206308037
1765408935.687531,-7.981029575982349,2.6442092720964556,4.800797624882518,0.3863655885865505,0.15299212729574133,-0.07730442155245539
1765408935.687781,-7.993990741701722,2.655656042851406,4.807288512429926,0.3919981373431153,0.14858511881049713,-0.08031326224213144
1765408935.688114,-8.000234057645182,2.666084780663905,4.812065562089751,0.3975521562133928,0.14409902711277348,-0.08343088360891009
1765408935.688364,-7.999564441852876,2.675693680793388,4.813864689312163,0.40303055590165254,0.1396140348884101,-0.0866567042462319
1765408935.688614,-7.99183150081587,2.684727805758525,4.811607373025206,0.40843494651979007,0.13521239103766386,-0.08998767610757448
1765408935.688864,-7.976950272932184,2.6934596170043257,4.804458933977302,0.41376523351871064,0.13097582525586837,-0.09341817506355554
1765408935.689039,-7.954922438592408,2.7021677385389857,4.791873760622155,0.4190192669214858,0.12698249645989435,-0.0969401772509807
1765408935.689289,-7.925857463381057,2.711115543619312,4.773624447997732,0.42419261772148165,0.1233037142358742,-0.10054369879386962
1765408935.689539,-7.889993066730416,2.720531066605857,4.749812835265611,0.4292785396103185,0.12000072136392599,-0.10421745950100636
1765408935.689789,-7.847713960929104,2.73058998311359,4.720862215068709,0.4342681488184799,0.11712182105227234,-0.10794971718351504
1765408935.690616,-7.799566965557355,2.7414034551679705,4.687490946206536,0.4391508226163775,0.11470009254346378,-0.11172919599384362
1765408935.690866,-7.746269672024415,2.7530120362031534,4.6506682240069654,0.4439147821326136,0.11275188445363525,-0.11554600795930894
1765408935.691116,-7.688709629007655,2.765385816230411,4.611553659098045,0.44854779891451657,0.11127621970164368,-0.1193924615105816
1765408935.691366,-7.627932013404507,2.7784301884805633,4.571424215620228,0.45303795761790794,0.11025519465072832,-0.12326366769731589
1765408935.691112,-7.56511544402093,2.7919962126596025,4.531594459033522,0.45737441697722003,0.10965540552092717,-0.12715787694789216
1765408935.691362,-7.501537061098135,2.8058940746872794,4.493337685727929,0.46154812607767526,0.10943037461756482,-0.13107649482768566
1765408935.691612,-7.438528742165473,2.8199072366614053,4.457815302921404,0.4655524672483627,0.10952386362979769,-0.13502374590384675
1765408935.691862,-7.377426562383526,2.833804035925733,4.426019800380729,0.4693838154508373,0.10987385696605732,-0.13900600150827847
1765408935.692159,-7.319515872822774,2.847343785959944,4.398733909783622,0.4730420278851969,0.1104169078245572,-0.14303085829075965
1765408935.692409,-7.265974911574816,2.86027625212876,4.376506304636029,0.4765308921138476,0.11109249638812002,-0.14710611668423806
1765408935.692659,-7.217820455899572,2.872335858429587,4.359642831036498,0.4798585491271884,0.11184705422133395,-0.15123882773938835
1765408935.692909,-7.175859382201891,2.8832338421442336,4.348211462247866,0.4830378727718882,0.1126373407981501,-0.15543454994598302
1765408935.693097,-7.140650046461059,2.892652257125942,4.342058668441607,0.4860867516747551,0.11343290810454833,-0.15969690484667887
1765408935.693347,-7.112477095971235,2.900243440304436,4.340834778343275,0.4890282013875575,0.11421746555089769,-0.16402745960617537
1765408935.693597,-7.091342596333918,2.905637489406247,4.344026328294451,0.4918902315212754,0.11498906204244248,-0.16842590528860724
1765408935.693847,-7.0769752609869325,2.90845844832207,4.350994090654751,0.4947053996629632,0.11575911707959013,-0.17289045194198124
1765408935.694037,-7.068858365951665,2.9083476645582196,4.361015824034163,0.4975100050659311,0.11655043058965721,-0.17741834252509384
1765408935.694287,-7.066275755282143,2.904991077479276,4.373332285317322,0.5003429154460111,0.11739436656330797,-0.18200640668455242
1765408935.694537,-7.068373793421296,2.8981466696124065,4.387193629498772,0.5032440721912219,0.11832744673004358,-0.18665161831446278
1765408935.694787,-7.074234711518262,2.8876689710284835,4.401901582035614,0.5062527670936523,0.11938762497687887,-0.19135165852561672
1765408935.695022,-7.082954054178917,2.8735289969182536,4.416841952837869,0.5094058163702864,0.12061054434615238,-0.19610549541762395
1765408935.695272,-7.093713331454414,2.855829650694684,4.431503226277417,0.5127357731456412,0.12202609213948679,-0.20091396366891964
1765408935.695522,-7.105839370705547,2.8348174162183635,4.445479689885883,0.5162693183150022,0.12365555008837531,-0.2057802666525412
1765408935.695772,-7.118843725009638,2.8108904923340434,4.458460171297055,0.5200259498916249,0.1255095831630878,-0.2107102662151346
1765408935.69604,-7.132437936831364,2.784601975003275,4.470204752294318,0.524017052936386,0.12758723199487768,-0.21571241608037944
1765408935.69629,-7.146523154272313,2.7566555101205354,4.480512178072687,0.5282453875547685,0.12987598626930366,-0.220797245122902
1765408935.69654,-7.161155596080992,2.7278908212811834,4.489181228450532,0.5327049991374869,0.1323529350935311,-0.22597637412916746
1765408935.69679,-7.176492564085562,2.6992576649132496,4.495970712547655,0.5373815388767862,0.13498692089825096,-0.2312611189040741
1765408935.697069,-7.192726648439383,2.6717786116484534,4.500564475092238,0.542252971804322,0.13774155771233346,-0.23666078443037433
1765408935.697319,-7.210017670594634,2.646502965410466,4.502548505624448,0.5472906311037544,0.14057889869750195,-0.2421807944540641
1765408935.697569,-7.228432105906682,2.6244554912902447,4.501405985625252,0.5524605512215,0.1434634501416998,-0.24782082949894735
1765408935.697819,-7.247898324804963,2.6065840209839837,4.496533384844015,0.5577249875969009,0.14636615059267707,-0.2535731619163726
1765408935.698052,-7.268183698893399,2.5937094669984098,4.48727774438559,0.5630440163623743,0.14926789683784542,-0.25942138188935154
1765408935.698302,-7.288896878679072,2.586480795984017,4.4729925286397245,0.5683771083891637,0.1521622258186633,-0.2653397047393092
1765408935.698552,-7.3095153016210075,2.58533669453816,4.453106681571254,0.5736845912359658,0.1550568521676831,-0.27129302694625174
1765408935.698802,-7.329434473149433,2.5904753505453786,4.427199120730719,0.5789289456689591,0.15797389040247084,-0.27723784403043056
1765408935.69908,-7.348032600956985,2.601834007973973,4.395069583039712,0.5840759151935822,0.16094872818203743,-0.28312406241551274
1765408935.699413,-7.364742203780319,2.6190804765261926,4.356796417039966,0.5890954228680038,0.1640276448115392,-0.2888976428871714
1765408935.699747,-7.379119024825313,2.641618976121891,4.312772020007181,0.5939622938432838,0.16726438402021354,-0.29450391062055725
1765408935.700114,-7.390897910739327,2.6686118946135395,4.263707627145354,0.5986567905143056,0.17071599061613318,-0.29989126366078206
1765408935.700364,-7.400026207203864,2.6990171375933953,4.210602483336301,0.6031649811704619,0.17443830149554898,-0.3050149365353891
1765408935.700614,-7.40666867863654,2.731638563969026,4.154678515286364,0.6074789677975682,0.17848153119030524,-0.3098404632034966
1765408935.700864,-7.411183941213669,2.7651857356161718,4.09728913807455,0.611596987594494,0.1828863908526169,-0.31434653853743266
1765408935.701,-7.414079607740464,2.798339319083084,4.0398176054410095,0.6155233850396528,0.18768111115157846,-0.318527063781556
1765408935.70125,-7.415959396298057,2.8298190639681686,3.9835841712627995,0.6192684359561305,0.19287961180465601,-0.3223922354838106
1765408935.7015,-7.417477455738634,2.8584509606005266,3.9297802499624375,0.6228479933006577,0.19848090082578798,-0.3259685902314537
1765408935.70175,-7.419311315264685,2.883228655454201,3.8794407273110245,0.6262829195041848,0.2044696181945784,-0.32929797784201215
1765408935.702119,-7.422156243481647,2.9033628179064555,3.8334541260832764,0.6295982808065015,0.21081747915116214,-0.33243553244973933
1765408935.702369,-7.426734287085404,2.918312717125268,3.7925987636238068,0.6328223098926982,0.21748525422218318,-0.33544683569861583
1765408935.702619,-7.43380524162221,2.9277973130771366,3.757586097487006,0.6359851872267422,0.2244248886448741,-0.33840457051428746
1765408935.702869,-7.4441664993009455,2.931787299133701,3.7290924993608914,0.6391177301230081,0.23158142758593864,-0.3413849925684691
1765408935.703033,-7.4586331728798525,2.9304825553178593,3.7077665449465553,0.6422500904769876,0.23889454505717758,-0.34446448281701286
1765408935.703283,-7.477995997577708,2.924280203631838,3.6942066777995732,0.6454105420979185,0.24629962870483807,-0.34771633131815877
1765408935.703533,-7.502959069525601,2.9137375556136136,3.688909784179465,0.6486244062268623,0.2537285231200052,-0.35120781270763257
1765408935.703783,-7.534061430697968,2.899533310530783,3.692193947040951,0.6519131427552076,0.26111016474314996,-0.3549975870091795
1765408935.70406,-7.571587619313332,2.8824302852998853,3.7041013541636594,0.6552936286693952,0.2683714245407598,-0.3591334716522625
1765408935.70431,-7.6154749140801705,2.863243075120575,3.7242926660947764,0.6587776416140624,0.2754384784121441,-0.36365063199307573
1765408935.70456,-7.665229021452022,2.8428131023447003,3.751950334497047,0.66237155521615,0.2822389337032969,-0.36857021482093355
1765408935.70481,-7.719863050579692,2.8219913374880616,3.7857110824555096,0.6660762353291378,0.2887047678995632,-0.37389843342310153
1765408935.705074,-7.77787501135778,2.8016267434722972,3.823645482361795,0.6698871099062608,0.294775933320352,-0.37962612886126296
1765408935.705324,-7.837276531534747,2.7825572814842023,3.863297299335118,0.6737943740620724,0.3004043136647377,-0.3857288623987826
1765408935.705574,-7.8956799714251416,2.7656001097402063,3.9017884316618634,0.6777832853506619,0.3055576191101562,-0.3921676048425068
1765408935.705824,-7.950442627080206,2.7515379873589576,3.935986315281973,0.6818345034390365,0.3102227726457547,-0.3988900731696304
1765408935.706103,-7.998856797996841,2.741099877025465,3.9627202273240836,0.6859244378731919,0.3144083605952902,-0.4058327364111336
1765408935.706436,-8.038366038799406,2.734935339019681,3.9790242504861815,0.6900255877096272,0.3181457905915058,-0.41292347346871194
1765408935.70677,-8.066783056874623,2.733583969672071,3.982380458946475,0.6941068810159862,0.3214889096973965,-0.42008480824981004
1765408935.707058,-8.082483877463956,2.7374421984802972,3.9709360255706794,0.6981340457443056,0.3245119646169752,-0.42723757727579165
1765408935.707308,-8.084555666501196,2.7467301600155127,3.943670933388584,0.7020700648840494,0.32730592139023285,-0.4343048212323365
1765408935.707558,-8.072881548744013,2.761461545252677,3.900498038341097,0.7058757836370629,0.329973305477157,-0.44121565612218744
1765408935.707808,-8.04815411328917,2.7814196791525787,3.84228425174674,0.709510737091804,0.3326218853113793,-0.44790888287643055
1765408935.708074,-8.011818503055517,2.8061435113738424,3.7707900672769923,0.7129342509298966,0.33535769765051615,-0.45433612861652
1765408935.708324,-7.9659541934472164,2.834927371705257,3.6885335062358644,0.7161068374859996,0.3382780622364165,-0.4604643557522444
1765408935.708574,-7.913110699654622,2.8668379544511415,3.598592848124754,0.7189918652068664,0.341465303624726,-0.4662776073653483
1765408935.708824,-7.856116477383388,2.9007511243674444,3.50436963673492,0.7215574227159026,0.3449818589560736,-0.4717778715729736
1765408935.709101,-7.797882280232856,2.9354097773307517,3.4093386395894547,0.7237782410572452,0.3488673000331256,-0.47698494635503286
1765408935.709351,-7.7412196249584175,2.969501593764701,3.3168132390403415,0.7256374954032014,0.35313754483312093,-0.48193518953230646
1765408935.709601,-7.688691217338664,3.001751636619846,3.2297515566892043,0.7271282893075084,0.3577862007349841,-0.4866790895314426
1765408935.709851,-7.642503838221385,3.0310202544346785,3.1506204100357413,0.7282546338910024,0.36278763833368916,-0.49127772751626225
1765408935.710137,-7.604446987077051,3.0563938934645725,3.0813232651499405,0.7290317746392349,0.3681011489527095,-0.495798397894562
1765408935.710387,-7.575874113120883,3.0772570486421666,3.02318790375106,0.7294857861876812,0.3736754667645054,-0.5003098262831275
1765408935.710637,-7.557718454381078,3.093337363059679,2.9770018638575513,0.7296524334153247,0.37945302578769907,-0.5048774877184051
1765408935.710887,-7.550532796559701,3.104720576737104,2.94307969182616,0.7295753658394095,0.3853735024712435,-0.5095594666841664
1765408935.711073,-7.554541675705191,3.111835467381309,2.9213452180932244,0.7293037647972134,0.39137639835600735,-0.5144031628078548
1765408935.711323,-7.569694783826697,3.1154105085751125,2.911413037364076,0.7288896038584712,0.39740259951830936,-0.5194429993268433
1765408935.711573,-7.595710912064242,3.1164047130612063,2.912654964101248,0.7283847187385831,0.40339498882685626,-0.5246991892914343
1765408935.711823,-7.632103401741601,3.11591686636446,2.9242399589020294,0.7278379136684745,0.4092982981100026,-0.5301775742947078
1765408935.712101,-7.678182510227181,3.115081033811609,2.9451417750754856,0.727292345599867,0.4150585039753001,-0.5358705337160851
1765408935.712434,-7.733037914878784,3.114960365282897,2.9741180896680635,0.7267834113658895,0.4206221883513952,-0.5417589008098651
1765408935.712768,-7.79551338870013,3.11645283246116,3.0096755334022753,0.7263373123784576,0.42593634020232346,-0.5478146937119195
1765408935.713083,-7.864191049525179,3.1202200211147977,3.0500418240582827,0.7259703938974427,0.43094900981981593,-0.5540043373173371
1765408935.713333,-7.937401247833441,3.1266447727300832,3.093165412069711,0.7256892628537556,0.43561104756607005,-0.5602920022590439
1765408935.713583,-8.013266646024663,3.135818061407897,3.1367551750276053,0.725491598592232,0.43987891914254057,-0.5666427410465066
1765408935.713833,-8.08977933912792,3.1475519887978556,3.1783620539912785,0.7253675091052243,0.4437183443104336,-0.5730252077145959
1765408935.71403,-8.164902396386063,3.1614145901552932,3.2154957126857506,0.7253012612067375,0.4471082974162212,-0.5794138450738681
1765408935.71428,-8.236683735650855,3.17678232562503,3.245764132158361,0.7252732115714172,0.4500447705692408,-0.5857904794126221
1765408935.71453,-8.303369570207606,3.1929061883483367,3.267021725882091,0.7252617667059852,0.4525436554677409,-0.5921452674406619
1765408935.71478,-8.363505054398466,3.2089864380605237,3.2775108442771006,0.7252452015325849,0.45464215350639886,-0.5984769149365772
1765408935.715042,-8.416011039357336,3.2242494094530874,3.275982054864533,0.7252031812154073,0.45639827247979114,-0.6047920805792351
1765408935.715292,-8.460228893866526,3.238018608377564,3.261780518649111,0.7251178709441983,0.4578881975006369,-0.6111039325889724
1765408935.715542,-8.495930175509061,3.24977223917122,3.2348891269197377,0.724974581521527,0.4592016040928538,-0.6174299384512303
1765408935.715792,-8.523293326050876,3.2591809314850098,3.195923524973481,0.7247619650732741,0.46043527602078654,-0.6237891037020146
1765408935.716004,-8.542854253136415,3.266122713601012,3.146079668837826,0.724471820917271,0.46168565954864316,-0.6301989849424815
1765408935.716254,-8.555440976551203,3.270676189284949,3.0870408436040195,0.7240985899981125,0.4630411812840057,-0.6366728393902125
1765408935.716504,-8.562103586562456,3.2730958033104494,3.0208562722393357,0.7236386206922406,0.4645752325501481,-0.6432172284337416
1765408935.716754,-8.564048417464125,3.2737740469129033,2.9498049893297282,0.7230892936217062,0.466340659898812,-0.6498303020710648
1765408935.717066,-8.562579919988911,3.2731948434511744,2.8762563763724094,0.7224481028094346,0.4683664078853929,-0.6565009011352846
1765408935.717316,-8.559048272148488,3.2718814297397363,2.8025357346782034,0.721711803492859,0.4706566567903853,-0.6632085459480868
1765408935.717566,-8.55479898213081,3.2703418645419795,2.7308024924297714,0.7208757459019487,0.473192422247647,-0.6699243290536827
1765408935.717816,-8.551123281640495,3.269015975302433,2.6629497430430464,0.7199335050873954,0.47593521236281605,-0.6766126789952271
1765408935.71804,-8.549211993715012,3.2682284176680723,2.6005339132341176,0.7188768806268635,0.47883206213286167,-0.6832338944897886
1765408935.718373,-8.550117391720528,3.2681527730029427,2.5447403857726765,0.7176962853662783,0.48182113146736766,-0.6897472613339783
1765408935.718707,-8.554726523587316,3.2687908877950926,2.4963853023819014,0.7163814878230442,0.48483705708842234,-0.696114476333966
1765408935.719073,-8.563746950455698,3.26997011937274,2.4559475576504326,0.7149226321753228,0.48781537949709436,-0.7023030394115848
1765408935.719323,-8.577703437703216,3.2713591761570053,2.4236202523240435,0.7133114366209199,0.4906956152548882,-0.7082892518191749
1765408935.719573,-8.5969425981708,3.272501195221086,2.3993690031997095,0.7115424610617564,0.49342286343109143,-0.7140604782781032
1765408935.719823,-8.621641970722177,3.272860954820449,2.3829856371655334,0.7096143308886861,0.495948126271166,-0.7196163956346937
1765408935.720122,-8.651820476231018,3.271881957229539,2.3741286691398598,0.7075308006621789,0.4982277042088881,-0.724969057893338
1765408935.720372,-8.687348370128715,3.2690483867685276,2.372345172980701,0.7053015421978682,0.5002220899954826,-0.7301417389592825
1765408935.720622,-8.727956221937012,3.263946120935427,2.3770722353739866,0.7029425523959105,0.5018947946068651,-0.7351666447674247
1765408935.720872,-8.773243837491528,3.256315953530014,2.387621151496292,0.7004761019048636,0.5032115263290187,-0.7400817073193162
1765408935.721106,-8.822691497411045,3.2460918751051957,2.4031534973677973,0.6979301861430833,0.5041400922069896,-0.7449267898038541
1765408935.721356,-8.875677080132792,3.233418719333278,2.4226624896991247,0.6953374890966818,0.5046512679409282,-0.7497397305251416
1765408935.721606,-8.93150246215156,3.2186465763375978,2.4449729135692664,0.6927339190794575,0.504720702611274,-0.7545526931399235
1765408935.721856,-8.989430362697636,3.2023026438518842,2.4687684354668087,0.6901568189562801,0.5043317306713896,-0.7593892434752687
1765408935.722056,-9.048729262766877,3.18504335085133,2.4926487859879023,0.6876429885566885,0.5034787875078731,-0.7642624583503841
1765408935.722306,-9.10872054232428,3.1675908862317743,2.515213112193956,0.68522668053742,0.5021709859424763,-0.769174238461885
1765408935.722556,-9.168819486776794,3.150659946764247,2.5351601383820777,0.6829377391873929,0.500435330622475,-0.7741158699875409
1765408935.722806,-9.228561044121646,3.134882816783741,2.551391056835445,0.6808000434232623,0.4983190440085871,-0.7790697389181012
1765408935.723052,-9.287602940880081,3.1207422649092456,2.563098985779207,0.6788303915269496,0.4958905549360644,-0.7840119389740112
1765408935.723302,-9.345702940436865,3.1085207398385837,2.56983077189381,0.6770379266257176,0.49323884593692574,-0.7889153800500642
1765408935.723552,-9.40267208195408,3.098271516283111,2.571511925056536,0.6754241472619987,0.4904710429602911,-0.793752970468231
1765408935.723802,-9.458309612124307,3.089814653362912,2.5684308225123043,0.6739834777107749,0.487708321065037,-0.7985005185147566
1765408935.724034,-9.5123273619754,3.0827588770185317,2.5611822946000293,0.6727042963882434,0.4850803545097953,-0.8031391080836616
1765408935.724284,-9.56427270622596,3.076548981311251,2.550574240758263,0.6715702536010163,0.48271865560420274,-0.8076567791395367
1765408935.724534,-9.613461249314156,3.0705356471870506,2.5375058681698364,0.6705616704141613,0.4807492517385162,-0.8120493732606748
1765408935.724784,-9.658932455753277,3.064060383010505,2.5228323563297095,0.6696568099021631,0.47928525731461474,-0.8163204291831634
1765408935.725064,-9.699441433987964,3.056543955458966,2.5072358146832023,0.6688328496186481,0.478419977371687,-0.8204800875987559
1765408935.725397,-9.733496406160606,3.047564445001939,2.4911238521619348,0.6680664531278974,0.4782211855620485,-0.8245431084517366
1765408935.725731,-9.75944449986984,3.036912439841357,2.4745740359416675,0.6673339286365574,0.4787271211675713,-0.8285262744296877
1765408935.726092,-9.775600212821102,3.0246153774946403,2.457335419220224,0.6666110531466235,0.4799445479869513,-0.8324455711781702
1765408935.726342,-9.78040302932597,3.0109285352021535,2.4388880965264756,0.665872705414105,0.4818489444368849,-0.836313549972464
1765408935.726592,-9.772584524504799,2.99629472861888,2.418549926250187,0.66509247983668,0.484386614440098,-0.8401372118456042
1765408935.726842,-9.75132214096584,2.9812780454681125,2.395609119816518,0.6642424545274108,0.48747830452445556,-0.8439166601990675
1765408935.727102,-9.716357976591663,2.9664798016786413,2.369456363084316,0.6632932671972932,0.4910238400556338,-0.8476446927099712
1765408935.727352,-9.668066797359655,2.952447940480934,2.3396928316100576,0.6622146045621194,0.494907341767652,-0.851307437007973
1765408935.727602,-9.60746665364502,2.9395935009431935,2.3061992745916213,0.6609761292581015,0.49900268360187366,-0.8548860349991604
1765408935.727852,-9.536175129470635,2.9281279586076905,2.2691620044568084,0.6595487701279834,0.5031789349016015,-0.8583592186668715
1765408935.728077,-9.456321590610779,2.918032279680113,2.229060090292381,0.6579062195600992,0.5073055705346139,-0.8617064273532735
1765408935.728327,-9.370429104047828,2.9090629809223802,2.1866221550131706,0.6560264391882876,0.5112572532942186,-0.8649109715690194
1765408935.728577,-9.281279128278834,2.9007939143748676,2.1427613954157207,0.6538929797568716,0.5149180350072861,-0.8679627151817543
1765408935.728827,-9.191769595599732,2.892686614200371,2.098496440825603,0.6514959652092688,0.5181849097638788,-0.8708598335695872
1765408935.729043,-9.104774690197639,2.8841779492903457,2.054865621964893,0.6488326554673101,0.5209707577174864,-0.8736093687942844
1765408935.729293,-9.023012849391636,2.874771609684913,2.0128426058703264,0.6459075632494623,0.5232067745657466,-0.8762264903870683
1765408935.729543,-8.948927613021509,2.8641192527177286,1.9732604507732756,0.6427321457813823,0.5248444471027514,-0.8787325534475634
1765408935.729793,-8.884584078363535,2.8520782164565026,1.9367490021569256,0.6393241280116513,0.5258570403429609,-0.8811522277104514
1765408935.730047,-8.831582873321503,2.838736411048268,1.9036887556756628,0.635706548765695,0.5262404854884715,-0.8835101419219596
1765408935.730297,-8.790993977422573,2.824401148234088,1.8741834085005598,0.631906649278757,0.5260135486167592,-0.8858275892237609
1765408935.730547,-8.763313494601276,2.809555247734855,1.8480524761230916,0.6279547265962921,0.525217200434008,-0.8881198137844407
1765408935.730797,-8.748446704609005,2.7947885057778223,1.8248441730486007,0.6238830441822142,0.5239131574950396,-0.8903942634277424
1765408935.73106,-8.745720209180652,2.780715130206003,1.8038677744302984,0.6197248442389891,0.5221816062598981,-0.8926500232561879
1765408935.731393,-8.753924957576132,2.7678891188363073,1.7842441277543797,0.6155134650750412,0.5201181542331658,-0.8948784865547442
1765408935.731727,-8.771390525605108,2.7567301222906857,1.7649723901578063,0.6112815425439373,0.5178300805674838,-0.8970651526658874
1765408935.732062,-8.796089136927366,2.747471071523546,1.7450099259081548,0.6070602634546868,0.5154319825422607,-0.8991922532148261
1765408935.732312,-8.825765121019435,2.7401350879667814,1.7233604019277766,0.6028786380214771,0.5130409376116669,-0.901241750131363
1765408935.732562,-8.858081455838846,2.734543822414669,1.6991625678120135,0.5987627692039361,0.5107713375359801,-0.903198195131978
1765408935.732812,-8.890770745802666,2.730354058226508,1.671769955520014,0.5947351186538667,0.5087296167555012,-0.9050510026979383
1765408935.733025,-8.92177602263418,2.727115293486837,1.6408117170580052,0.5908137958720183,0.5070091818950148,-0.906795813567248
1765408935.733275,-8.949368925975689,2.724338338974214,1.6062282377184998,0.5870119190894647,0.5056859163931557,-0.9084347641819966
1765408935.733525,-8.972237674878185,2.7215636264458016,1.5682804438409226,0.5833371067587182,0.5048146486568561,-0.9099756245211875
1765408935.733775,-8.989541273507525,2.7184180439003227,1.527535380612737,0.5797911601613557,0.5044269195108736,-0.9114299317425801
1765408935.734101,-9.000927729418407,2.7146511819538826,1.4848308086924522,0.5763699957434226,0.5045302668395643,-0.9128104137475179
1765408935.734351,-9.0065140615772,2.7101460914223923,1.441219935370809,0.5730638764070738,0.5051090745511868,-0.914128123763081
1765408935.734601,-9.006827167064287,2.704905057976856,1.3978969683269926,0.5698579651594055,0.5061268364866839,-0.9153897568740205
1765408935.734851,-9.002708395271195,2.699015529874632,1.3561060484821614,0.5667331838163384,0.5075295063494579,-0.9165955833812338
1765408935.735117,-8.995189969648777,2.692603822951664,1.3170391361293667,0.563667317676717,0.5092494869997992,-0.9177383343456256
1765408935.735367,-8.985356236602144,2.6857849836955077,1.2817311254156019,0.5606362774630299,0.511209784180408,-0.9188032435354947
1765408935.735617,-8.974205673156556,2.67861738177071,1.2509622146939392,0.5576154177724889,0.5133279106914287,-0.9197692991734769
1765408935.735867,-8.962530139243146,2.6710703555724242,1.225178266589984,0.5545808147769551,0.515519250345276,-0.9206115809001425
1765408935.736092,-8.950825727627874,2.663011622930849,1.2044390561221747,0.5515104171160724,0.5176997333349046,-0.9213043647787733
1765408935.736342,-8.93924449444639,2.654217702042224,1.1884008070838643,0.5483849958812455,0.519787796966172,-0.9218245255533901
1765408935.736592,-8.92758925697399,2.644406017547412,1.1763333188829281,0.5451888342754061,0.5217056965399918,-0.9221547070063997
1765408935.736842,-8.915347186905063,2.633283130443512,1.167166234290251,0.5419101226288467,0.5233803063309934,-0.922285779406331
1765408935.737193,-8.90175475611896,2.6206007835865095,1.1595571907034332,0.5385410616171659,0.5247436251065195,-0.9222182256398502
1765408935.737443,-8.885886736563037,2.6062104861705966,1.1519767666086793,0.5350777159475296,0.5257332634622558,-0.9219622543219008
1765408935.737693,-8.866762813204032,2.590107649460987,1.1428076317768756,0.5315196873159805,0.5262932083604449,-0.9215366060097363
1765408935.737943,-8.843464712284543,2.572457274633103,1.1304551712119844,0.5278696812584878,0.5263751085343228,-0.9209661944200713
1765408935.738504,-8.815254992154083,2.5535951029238726,1.1134645991091312,0.5241330340969829,0.5259402114082169,-0.9202789057299927
1765408935.738837,-8.78168764358974,2.534001650641181,1.0906373880964846,0.5203172555671274,0.5249619385493987,-0.9195020378404021
1765408935.739171,-8.742701184271676,2.514251531321154,1.061138747932191,0.5164316334131922,0.5234289330263747,-0.9186589451269523
1765408935.739092,-8.698686322761144,2.494945414503634,1.0245876800387,0.5124869327177217,0.52134825640649,-0.9177664219906435
1765408935.739342,-8.650521853164998,2.4766351420875483,0.9811216127919108,0.5084952020685366,0.5187482763704985,-0.9168332178558893
1765408935.739592,-8.599574483796069,2.459753427044311,0.9314289147021039,0.5044696766503781,0.5156807074035478,-0.9158598751201679
1765408935.739842,-8.547661405584936,2.4445587764659766,0.8767449424990739,0.5004247515944293,0.5122212811367497,-0.9148398655230469
1765408935.740071,-8.496978478053636,2.431104015016301,0.8188108804593531,0.49637598587913967,0.5084686371893653,-0.9137617922845968
1765408935.740321,-8.450000623042019,2.4192327544410293,0.7597986479021718,0.4923400836278648,0.5045412175351346,-0.9126122534372717
1765408935.740571,-8.409362333897054,2.4086030489439834,0.7022074063660325,0.48833479035326227,0.500572182421693,-0.9113788748901044
1765408935.740821,-8.377724198442257,2.3987332154237917,0.6487361067119093,0.4843786487008164,0.49670261598312315,-0.9100530439320722
1765408935.74102,-8.357627881618477,2.389062809650705,0.6021336601720235,0.48049058772606423,0.49307353031815443,-0.9086319662691094
1765408935.74127,-8.351340979480435,2.3790216046197425,0.5650278317414096,0.47668936029021064,0.48981737176329143,-0.9071197722626028
1765408935.74152,-8.36069697257359,2.3680995038910773,0.5397386468366933,0.4729928730698594,0.487049845561635,-0.9055274964369123
1765408935.74177,-8.386942724316318,2.35590968868877,0.5280905966165845,0.469417463873545,0.4848628861232837,-0.9038718805257167
1765408935.742039,-8.430612345915396,2.3422367037163396,0.5312458442098859,0.46597718174172975,0.48331950072544566,-0.9021731261407606
1765408935.742289,-8.491447866962542,2.327062300765713,0.5495837527197605,0.462683125443787,0.48245099845615363,-0.9004519197997044
1765408935.742539,-8.568382638225566,2.3105653786267943,0.58264823162319,0.4595428880293985,0.48225680011707156,-0.8987262034529565
1765408935.742789,-8.659594131792307,2.2930970971383884,0.6291740745346519,0.45656013052208,0.48270666540206664,-0.8970082097475246
1765408935.743061,-8.762621750682806,2.275136148730599,0.6871896310437864,0.4537342761905273,0.48374485115535454,-0.8953022136286596
1765408935.743311,-8.874535388197112,2.25723101097455,0.7541802149849678,0.4510602978245689,0.4852955006192824,-0.8936033102668481
1765408935.743561,-8.99213375422053,2.2399361271149933,0.827288249896241,0.4485285724365398,0.48726849746168555,-0.8918973709466832
1765408935.743811,-9.112148796784007,2.2237486646548783,0.9035237685720426,0.44612479319564985,0.489565094128893,-0.8901621897958861
1765408935.744087,-9.231433890084636,2.209052618837282,0.9799617194882644,0.4438299462863656,0.4920827969921148,-0.8883697118838348
1765408935.74442,-9.347117917408857,2.1960771565829957,1.0539080360321915,0.4416203757956929,0.4947192032861617,-0.8864891058461338
1765408935.744754,-9.45671361226524,2.184875218852725,1.123021953209014,0.4394679712287874,0.49737469468330175,-0.8844903119753555
1765408935.745082,-9.55817573016763,2.1753259261282296,1.185387170940603,0.4373405189587751,0.4999540845281283,-0.8823475920286673
1765408935.745332,-9.649912391043614,2.1671605231099558,1.2395306767270786,0.43520226303852905,0.5023674872829426,-0.8800425707765613
1765408935.745582,-9.730760068608976,2.1600074748256115,1.2843957733881635,0.4330147233201213,0.5045308089351264,-0.8775663173808682
1765408935.745832,-9.799937272370423,2.153449305927062,1.3192829164888245,0.4307378100468726,0.5063663053437568,-0.8749201661872803
1765408935.746029,-9.856992955309826,2.147082825855471,1.3437757006001207,0.4283312402006034,0.5078035953029532,-0.8721151857369127
1765408935.746279,-9.901763886752404,2.140575138112141,1.3576693600690821,0.42575620314965573,0.5087813615103439,-0.8691704106087951
1765408935.746529,-9.93435196989926,2.133708960839972,1.3609169677857593,0.42297716312363015,0.5092497713758268,-0.8661101066497837
1765408935.746779,-9.95512795839272,2.1264115359403597,1.3536048934534612,0.4199636490390665,0.5091734465934251,-0.8629604444831391
1765408935.747027,-9.964761687942525,2.118762410884544,1.335963329553985,0.41669187751741277,0.5085346370236957,-0.8597460278664179
1765408935.747277,-9.964271248101685,2.110977732231574,1.30840973680793,0.4131460744564306,0.5073361340059355,-0.8564867555576879
1765408935.747527,-9.955076583760091,2.1033723704024343,1.2716149055149917,0.40931939198053385,0.5056034101026575,-0.8531954508057924
1765408935.747777,-9.939039218953114,2.0963047733615063,1.226575773070942,0.4052143534880599,0.5033855063669609,-0.8498765541596844
1765408935.748028,-9.91847011162048,2.0901117052356324,1.1746773655387726,0.40084279851273574,0.5007543014231539,-0.8465259896940229
1765408935.748278,-9.896091368289607,2.085041294389288,1.1177270769329777,0.39622534307559576,0.49780197014266625,-0.843132159170114
1765408935.748528,-9.874943288008902,2.0811938155721412,1.0579463971596685,0.3913904164842685,0.4946366384368983,-0.8396779166638443
1765408935.748778,-9.858235006889995,2.0784797008776503,0.9979083787214652,0.38637297069387794,0.4913764329906843,-0.836143285656501
1765408935.749096,-9.849144595504553,2.076602053796326,0.940415095265038,0.3812129744062044,0.4881423071784533,-0.8325085794006017
1765408935.749346,-9.850582609371958,2.075066517977049,0.888318590160119,0.37595380105264603,0.48505020560871437,-0.8287575190773322
1765408935.749596,-9.864940994585089,2.073216608929522,0.8442998576088127,0.3706406032961959,0.4822032848228509,-0.8248799624136091
1765408935.749846,-9.893855382666354,2.0702893822245296,0.8106306464956395,0.3653187453160935,0.4796849764678699,-0.8208739448057287
1765408935.75005,-9.938011431525696,2.0654849091312086,0.7889497783153172,0.36003234743747187,0.47755362162978443,-0.8167468418987115
1765408935.7503,-9.997023710449282,2.058042641926046,0.7800872676241584,0.35482298859901784,0.47583923219924534,-0.812515549446457
1765408935.75055,-10.069408316960573,2.0473174785347723,0.7839647637396268,0.34972860213923,0.4745426786542049,-0.8082056418705351
1765408935.7508,-10.152658790409033,2.0328478602846474,0.7995901316457151,0.34478258013984736,0.47363728952957784,-0.8038495399916159
1765408935.751042,-10.24342110534408,2.0144080812700937,0.8251496040057898,0.34001307881558734,0.47307252031732666,-0.7994838170585902
1765408935.751292,-10.337750294089268,1.9920381980977182,0.858185978523233,0.33544251131578345,0.4727790844183153,-0.7951458953516793
1765408935.751542,-10.431420697090577,1.966048008206188,0.8958385956965074,0.33108722722141215,0.47267480252626504,-0.7908704900941534
1765408935.751792,-10.520255424967038,1.9369956802718005,0.9351126587742863,0.32695739003093016,0.47267043648777884,-0.786686196085872
1765408935.752018,-10.600439430629566,1.905645100264671,0.9731434323735736,0.32305706105471166,0.47267490555963165,-0.7826125697379602
1765408935.752351,-10.668784778258095,1.8729076100934026,1.0074246483725349,0.3193844862974441,0.4725994948600522,-0.7786579578801791
1765408935.752685,-10.72292490669104,1.839773633153986,1.0359779799757203,0.31593256815601306,0.4723609027290774,-0.7748182143854269
1765408935.753035,-10.761424832476203,1.8072389618959366,1.0574495831282944,0.31268948141056413,0.47188318088973447,-0.7710763735778737
1765408935.753285,-10.783804608418272,1.7762305798747493,1.071129273351601,0.30963936490012056,0.4710987694599482,-0.7674033205149037
1765408935.753535,-10.790482786137728,1.7475379612446458,1.0768974812009524,0.3067630045888773,0.46994892141608324,-0.7637594694979029
1765408935.753785,-10.782654076686713,1.7217566965663635,1.0751140875495593,0.3040384372879276,0.46838386069856386,-0.7600973898527206
1765408935.75406,-10.762119838206747,1.6992507513800514,1.0664698529854464,0.3014414437148299,0.4663630166002861,-0.7563652015758429
1765408935.75431,-10.731091182469303,1.6801372348383898,1.0518235499189623,0.2989459451679209,0.4638555980388624,-0.7525104411028207
1765408935.75456,-10.691983542189075,1.6642938658375812,1.0320462484751054,0.29652435256833504,0.4608416133740551,-0.7484840173781504
1765408935.75481,-10.647220119879893,1.651385770815103,1.0078906050299836,0.2941479346435437,0.45731325586408555,-0.7442438724143183
1765408935.755018,-10.599060058593713,1.6409061528857793,0.9798989487611832,0.29178727335370713,0.4532764278434301,-0.7397580258600611
1765408935.755268,-10.549464376595152,1.6322250498685882,0.9483591433805544,0.2894128582322186,0.44875209320607146,-0.7350067874039663
1765408935.755518,-10.500008100383285,1.6246412318030057,0.9133109375417287,0.28699584117601934,0.44377711593221647,-0.7299840292731704
1765408935.755768,-10.451841488022433,1.6174335911948754,0.8745983620851262,0.28450894219903233,0.43840425804035876,-0.7246975016989015
1765408935.756044,-10.405698241929603,1.6099096558674473,0.831957519176646,0.2819274757069064,0.43270108638197635,-0.7191682332969683
1765408935.756294,-10.361945009543406,1.6014494863512954,0.7851256233572653,0.27923045333077573,0.4267476759029845,-0.7134290848528555
1765408935.756544,-10.320664038292927,1.5915428466528077,0.7339565340777402,0.27640170233315897,0.42063317058725597,-0.7075225440009848
1765408935.756794,-10.28175889188253,1.5798168310201584,0.6785287781088765,0.27343091599193414,0.4144514275598475,-0.7014978952976006
1765408935.757074,-10.245071372969138,1.566051384935303,0.6192330463996553,0.2703145378998718,0.4082960894861522,-0.6954079782082895
1765408935.757324,-10.210496458514113,1.5501818860952206,0.55682770061035,0.2670563906793002,0.40225550094459644,-0.689305811045714
1765408935.757574,-10.178081389160903,1.532290322499383,0.4924535870227138,0.26366798697713784,0.39640792082786247,-0.6832413637076542
1765408935.757824,-10.148095528400615,1.5125882308836431,0.42760328521144814,0.26016848617016713,0.39081748424639884,-0.6772587001027416
1765408935.758027,-10.121060297337484,1.491394503820998,0.36404468944979085,0.2565842741285532,0.38553130785731965,-0.6713936202192985
1765408935.758277,-10.097734217627153,1.469109702759315,0.3037050038132469,0.2529481594017841,0.38057799486300964,-0.6656718642237593
1765408935.758527,-10.07905596851242,1.446187228018113,0.24852846732223327,0.2492982092059849,0.3759675996772189,-0.6601079282886196
1765408935.758777,-10.066055872310868,1.4231021776681196,0.20032707398503197,0.2456762779789973,0.37169289915509124,-0.6547045643841987
1765408935.759076,-10.059750951608356,1.4003205983957516,0.16064539600820346,0.2421262891694007,0.3677316276550623,-0.6494530331197825
1765408935.759326,-10.061039660492403,1.378272923672978,0.13065741812303225,0.23869232498883558,0.3640492058400062,-0.6443341100606017
1765408935.759576,-10.070609985993885,1.3573342393144836,0.11110628662681558,0.2354165874251158,0.3606014664436861,-0.6393197386974628
1765408935.759826,-10.088870123981625,1.337811461316313,0.10228921396377408,0.23233732724678172,0.3573369727246855,-0.6343751419826856
1765408935.760061,-10.115906088264756,1.3199355337189755,0.10408178767773009,0.22948687642769708,0.3541987137935603,-0.629461187538584
1765408935.760394,-10.151466867894161,1.3038564074377952,0.11599075364705541,0.22688993991689171,0.3511251825913752,-0.6245368355310346
1765408935.760728,-10.194975323876866,1.2896395023950045,0.13722274617855773,0.22456229689775226,0.34805102428655266,-0.619561544372339
1765408935.760986,-10.245560848891378,1.2772637204560207,0.16675705827589443,0.22251002862107036,0.34490754007185115,-0.6144975425320865
1765408935.761236,-10.30210703156013,1.2666221373290927,0.20341148332977974,0.22072933063820888,0.341623342675009,-0.6093118890727667
1765408935.761486,-10.363305072518788,1.2575267981312903,0.24589157874827255,0.21920689468913407,0.3381254146157027,-0.6039782444804705
1765408935.761736,-10.427703744441361,1.2497185576268708,0.29281736529268915,0.21792078183880048,0.3343407504301401,-0.5984782687488568
1765408935.762029,-10.493750514703788,1.2428821341486815,0.34272839663637855,0.21684166822891118,0.33019868371834066,-0.5928025705785122
1765408935.762279,-10.559824579108394,1.2366659378561982,0.3940760497839217,0.21593432808526825,0.325633904437443,-0.5869511513320121
1765408935.762529,-10.624267736717096,1.2307055835204421,0.44521688770644313,0.21515921950082384,0.3205900585643786,-0.5809333092585831
1765408935.762779,-10.685420781435921,1.2246488568146434,0.49442088978165377,0.21447405503278005,0.31502370669186786,-0.5747669944882571
1765408935.763025,-10.741671177764209,1.2181787000810909,0.5399042083869033,0.2138352734351355,0.3089083238976311,-0.5684776502823257
1765408935.763275,-10.791513796127514,1.2110308413691084,0.5798902624951693,0.21319937643020606,0.30223795922543173,-0.5620966427708808
1765408935.763525,-10.833622345785951,1.203004575716302,0.6126971252793301,0.21252413744383053,0.29503013285906987,-0.5556594353244544
1765408935.763775,-10.866926015347333,1.1939675431399257,0.6368439842405763,0.2117697090050574,0.2873275346254175,-0.54920366350686
1765408935.76403,-10.890683820367945,1.183856157082569,0.651165209400415,0.2108996519172524,0.27919812464408156,-0.5427672161177576
1765408935.76428,-10.904548056997477,1.1726724822673715,0.6549176768951719,0.20988189821022482,0.2707333560715232,-0.5363863792703711
1765408935.76453,-10.90860838958826,1.1604776023180152,0.6478663317336308,0.20868964928462835,0.26204444033373614,-0.5300940949259838
1765408935.76478,-10.90340997996792,1.1473819612719343,0.6303351702900126,0.20730219171317635,0.25325681735978806,-0.5239184098586251
1765408935.765015,-10.889942325261384,1.1335338863429616,0.6032152027620031,0.20570558145411144,0.24450322716915834,-0.5178812086077088
1765408935.765265,-10.869598860192495,1.1191073041465263,0.5679260760192838,0.20389311956603307,0.23591597241110343,-0.5119973226921746
1765408935.765515,-10.844110061561958,1.104288991880794,0.5263332145724141,0.20186554093619188,0.2276190969559158,-0.5062740970008807
1765408935.765765,-10.815454820701937,1.0892657429988704,0.4806274412788209,0.1996308646716131,0.2197212623919796,-0.5007114666277476
1765408935.766035,-10.78575618838693,1.0742125113661787,0.4331782051151414,0.19720389553646697,0.21231005493007848,-0.49530253488425674
1765408935.766285,-10.757167659505718,1.0592827881581814,0.38637357110496917,0.19460540845956617,0.20544828785266853,-0.49003455576921995
1765408935.766535,-10.731754909144303,1.0446017355439063,0.34246005468259716,0.19186109012475108,0.199172600911521,-0.48489015827878473
1765408935.766785,-10.711376768144314,1.0302617684737974,0.3033946026608671,0.1890003436227006,0.19349434609387905,-0.4798486414571586
1765408935.767022,-10.697570181107496,1.0163201650993237,0.2707206808122216,0.18605506570478836,0.18840244675546697,-0.47488720891403885
1765408935.767272,-10.69144718448967,1.002798742130778,0.24548009295020815,0.1830584784940986,0.18386768202521786,-0.4699820647593644
1765408935.767522,-10.69361537232676,0.9896859592230524,0.22817019038358696,0.18004406161850997,0.17984772444299307,-0.46510933303988994
1765408935.767772,-10.704133964694705,0.9769416785087388,0.21875137271169218,0.1770446083199533,0.17629225545946223,-0.4602457855207608
1765408935.768053,-10.722514231101963,0.9645043703069482,0.2167029613206267,0.17409141719221377,0.17314757526724664,-0.4553693795335405
1765408935.768303,-10.747766742616534,0.9523001265425122,0.22111895112769836,0.1712136184055913,0.1703602749321742,-0.4504596281004914
1765408935.768553,-10.778490898053255,0.9402526343085247,0.23083082269686198,0.16843762243634194,0.1678797207628929,-0.4454978440724479
1765408935.768803,-10.812996184567803,0.928293279595883,0.2445427553692206,0.16578667735791064,0.16565928361358187,-0.44046730694547276
1765408935.769011,-10.84944072374563,0.9163705236491292,0.2609641788709452,0.16328052145323813,0.16365639856543004,-0.43535339189765965
1765408935.769261,-10.885971469904835,0.9044573699877131,0.27892515336727647,0.16093511352278947,0.16183165259528573,-0.4301436849536494
1765408935.769511,-10.920852288857631,0.8925553239145506,0.29746246101488505,0.15876242143072297,0.1601471900811487,-0.4248280992620601
1765408935.769761,-10.952570369571108,0.8806933385033253,0.3158692239152249,0.15677026273760483,0.15856482292409016,-0.41939900999206575
1765408935.77005,-10.979916032332625,0.8689213084732199,0.3337069987913537,0.15496221675723806,0.15704432057311568,-0.41385143116022793
1765408935.7703,-11.00203402316739,0.8572995591676738,0.3507841866654342,0.1533376458391718,0.15554237764820786,-0.4081832497453289
1765408935.77055,-11.018445569694443,0.8458875417620384,0.36710726789989917,0.15189185799860952,0.15401265715410806,-0.40239549683562076
1765408935.7708,-11.029041093551516,0.8347353246937397,0.3828127510343434,0.15061641535247314,0.1524070906311468,-0.3964925792073652
1765408935.771043,-11.034044604230077,0.8238799267225463,0.3980886278764573,0.14949956239241588,0.15067835628660936,-0.3904823509516239
1765408935.771293,-11.033952561641478,0.8133458932426643,0.4130943584719192,0.14852673146067233,0.14878323505434146,-0.38437591186851666
1765408935.771543,-11.029452348681955,0.8031473945411235,0.42788790318416386,0.14768108069710045,0.14668639938883998,-0.3781870886179502
1765408935.771793,-11.021328611574155,0.7932887441221683,0.4423677445499337,0.1469440247745457,0.14436411906482532,-0.37193165663369554
1765408935.772075,-11.010368997552517,0.7837616437097447,0.45623743162607816,0.14629572769089133,0.14180737387232098,-0.36562644252753523
1765408935.772325,-10.997282244224042,0.7745396499525165,0.46899884946005604,0.14571554022793817,0.13902395477060958,-0.3592884674953011
1765408935.772575,-10.982639271167095,0.7655720287968987,0.4799768851521961,0.1451823795202042,0.1360392967060023,-0.3529342489058852
1765408935.772825,-10.966842411213701,0.7567795080462085,0.4883727979238741,0.14467506079660775,0.13289596166464732,-0.34657930058494235
1765408935.773037,-10.950122091243129,0.7480535263019884,0.4933385544873575,0.1441726048177352,0.12965182311879672,-0.3402378064670467
1765408935.773287,-10.932556729239604,0.7392592022403469,0.4940617075564619,0.14365456240139696,0.12637708431468556,-0.333922419827197
1765408935.773537,-10.914110519454661,0.7302412801698172,0.48985033655839555,0.1431014115708583,0.12315032646309203,-0.32764416183274103
1765408935.773787,-10.894683628779944,0.7208321248301848,0.48020901065028415,0.14249507985173604,0.12005385580262612,-0.32141242939959364
1765408935.774047,-10.874169123186135,0.71086126819699,0.46489875120390817,0.1418196218308093,0.1171686930804988,-0.3152351386692699
1765408935.774247,-10.852510858563088,0.7001665050239666,0.44397638068828,0.1410620481263258,0.11456960037559578,-0.30911901123783125
1765408935.774847,-10.829756862215255,0.6886065119111441,0.41781110519268894,0.14021326187839228,0.11232055350273612,-0.30306996631448063
1765408935.775059,-10.80610297859515,0.6760743115253686,0.38707777788361347,0.13926901614211498,0.1104710413939657,-0.2970935378815356
1765408935.775309,-10.781921415195292,0.662510055560265,0.3527267430394041,0.13823077066898273,0.1090535045992025,-0.2911952120197738
1765408935.775559,-10.757769013079157,0.6479111223251531,0.3159307832544498,0.13710631464113382,0.1080821103618841,-0.2853805884497248
1765408935.775809,-10.73437179511449,0.6323377402251201,0.27801207180820325,0.13591003857562825,0.10755291161384439,-0.2796553181568034
1765408935.776078,-10.712585828477756,0.6159131503037601,0.24035576150078503,0.13466277451733683,0.10744527824789307,-0.2740248423336005
1765408935.776328,-10.693338535921825,0.5988182053148972,0.20431972509564594,0.13339116665363887,0.1077243511471054,-0.2684940199802843
1765408935.776578,-10.677557913939605,0.5812809052622246,0.1711505412622529,0.13212658014750078,0.10834417620106629,-0.26306675181918215
1765408935.776828,-10.66609886135478,0.5635619379518769,0.1419144225928301,0.13090360104104637,0.10925114259746921,-0.2577456902840381
1765408935.777083,-10.659675606743312,0.5459381487606882,0.11744907391013473,0.1297582161054689,0.11038738044272357,-0.25253209275284977
1765408935.777283,-10.658806954304731,0.528686570302548,0.09833859411791987,0.12872578427176534,0.11169385245921352,-0.247425840335031
1765408935.777483,-10.663777361838708,0.5120714164924142,0.08490911707338708,0.12783892657618287,0.11311297467234616,-0.2424256075852306
1765408935.777683,-10.674613229617398,0.496335313707803,0.07723954049859426,0.1271254730167361,0.11459069556764451,-0.2375291369655314
1765408935.777883,-10.691071854658027,0.4816948732034338,0.07518080423952911,0.1266066058109125,0.11607803974013126,-0.23273355700621262
1765408935.778091,-10.712640925615794,0.46834006109662374,0.07837876699908179,0.12629532297281698,0.11753217542819101,-0.22803568148342454
1765408935.778341,-10.738548480009758,0.45643640731071206,0.08629875684351902,0.12619531659746924,0.11891709039407602,-0.22343222940020876
1765408935.778591,-10.767785399416857,0.44612851657096225,0.0982529272573739,0.12630032382732012,0.12020395982867016,-0.21891991663746582
1765408935.778841,-10.79914324524419,0.4375427850026253,0.11343309086276666,0.12659397027576508,0.12137127464624843,-0.21449539718165994
1765408935.779055,-10.83126884593039,0.4307871729022952,0.13095081374749257,0.12705008808759732,0.12240477520561688,-0.21015506845865475
1765408935.779305,-10.862734224679782,0.42594655628770584,0.14988399728082602,0.12763345706510162,0.1232972077391456,-0.2058947892770252
1765408935.779555,-10.892117526255026,0.4230733654844478,0.16932667718574196,0.12830089499197642,0.12404790381382134,-0.20170958193297972
1765408935.779805,-10.918088193850684,0.4221744576072314,0.18843710734861427,0.12900261855522813,0.12466219041403898,-0.19759339699262374
1765408935.780047,-10.939487867965607,0.4231960764516662,0.20647817998946016,0.1296838029809856,0.12515065674718706,-0.19353901112204977
1765408935.780297,-10.95539809747289,0.42600929291180833,0.2228443930785969,0.13028627419902064,0.12552831030812472,-0.18953811189784894
1765408935.780547,-10.965187988624681,0.43039865828660046,0.2370719490257805,0.13075027030250777,0.12581364918278673,-0.18558159931039506
1765408935.780797,-10.968538874517419,0.43605687603235643,0.24883257847175358,0.13101621610086825,0.12602767588277994,-0.18166009511396172
1765408935.781017,-10.96544696040174,0.44258778857986714,0.25791508154198806,0.13102646489821237,0.12619288002797008,-0.1777646026933968
1765408935.781217,-10.956207226819593,0.4495187459258012,0.26419998220182217,0.1307269672767533,0.12633220787511928,-0.17388722199313875
1765408935.781417,-10.94138276669417,0.456321739570321,0.2676326640525257,0.13006882495359892,0.12646801447285735,-0.17002181485128348
1765408935.781617,-10.921763917699128,0.4624411465461518,0.2681997261579316,0.1290096837448509,0.1266209777559015,-0.16616453984287624
1765408935.781817,-10.898321354555499,0.46732521348375866,0.2659119016014768,0.12751491938733506,0.12680895917337756,-0.16231422084828334
1765408935.782013,-10.872156713155075,0.47045874002580007,0.26079452524330576,0.1255585746828054,0.12704582027765426,-0.15847255484849196
1765408935.782263,-10.844453430235793,0.47139520021750686,0.25288416418022197,0.12312401149354105,0.12734023873002887,-0.15464417800422697
1765408935.782513,-10.816429616805724,0.4697868988238198,0.24222900452177268,0.12020424274854605,0.12769460396433036,-0.15083659354843332
1765408935.782763,-10.789294168701238,0.4654114248073678,0.22889104206814193,0.11680191225881575,0.1281041041414213,-0.14705994154420918
1765408935.783068,-10.764206905779755,0.4581920955519004,0.2129488590516093,0.11292890165402382,0.12855612818460102,-0.14332658263252587
1765408935.783318,-10.742243234505699,0.44820990075239325,0.19450003449397335,0.10860556547103568,0.12903009376962662,-0.13965048421946435
1765408935.783568,-10.724363671437116,0.43570486931367214,0.17366251451059148,0.10385962329152096,0.12949778200015782,-0.13604642742754028
1765408935.783818,-10.711388464227856,0.4210655018077814,0.15057496533030018,0.09872476899308846,0.12992421678351052,-0.1325290789944271
1765408935.784075,-10.703977301267948,0.4048056248075728,0.12539665892033022,0.09323908892573018,0.13026906701154803,-0.12911199086263705
1765408935.784275,-10.70261374547421,0.3875289373488067,0.09830724257527769,0.08744340692825642,0.13048847800422433,-0.1258066100904177
1765408935.784475,-10.707593886925599,0.36988299296387356,0.06950626926056777,0.08137968597159745,0.1305371773994238,-0.12262139788697267
1765408935.784675,-10.719019058898017,0.3525060899445229,0.03921240012015322,0.07508960702640485,0.13037066627491517,-0.11956114959916081
1765408935.784875,-10.736793241569483,0.3359716721413594,0.007662796708612613,0.06861341731571086,0.12994729786739645,-0.11662657317667682
1765408935.785028,-10.760626451879217,0.32073489568363106,-0.0248862973960902,0.06198910657031295,0.12923006104321844,-0.11381414125818037
1765408935.785278,-10.790045240632674,0.3070853288452342,-0.058157093130215484,0.055251945768008584,0.12818792618067767,-0.11111620130871187
1765408935.785528,-10.824410264333192,0.2951090157637689,-0.09184616524492198,0.048434405739200825,0.12679667135679307,-0.10852131441956595
1765408935.785778,-10.862939626289611,0.28466272162769984,-0.1256197234494142,0.041566448916245245,0.12503916938157958,-0.1060147893764909
1765408935.78605,-10.904736184133967,0.2753628733406487,-0.1591092760978244,0.034676153240516545,0.12290516943683931,-0.10357937228759828
1765408935.78625,-10.948817227814665,0.2665910417959306,-0.19190851118353824,0.027790596202172887,0.12039065325519113,-0.10119603787472665
1765408935.78645,-10.994145159639254,0.2575165842016817,-0.22357232648116654,0.02093691280268215,0.1174968899773978,-0.09884481382762948
1765408935.78665,-11.039657730746287,0.24713553169011,-0.25361923432098143,0.014143444256323627,0.11422935007436859,-0.09650556594900457
1765408935.78685,-11.08429625832918,0.234323411288537,-0.2815383326199209,0.007440901408471165,0.11059665287831041,-0.09415868494641007
1765408935.787067,-11.127030424067884,0.2178987490793633,-0.3068013973673465,0.0008634614401588485,0.1066097058039408,-0.0917856438195419
1765408935.787317,-11.166878794498631,0.19669356645509353,-0.3288795814762915,-0.0055503066961817464,0.10228114951561741,-0.08936942720442237
1765408935.787567,-11.202924829783939,0.16962709272514362,-0.3472631955836578,-0.011756820334422026,0.09762516287618091,-0.08689485482249511
1765408935.787817,-11.234328544076805,0.1357789709831169,-0.3614825357890724,-0.017707308827574528,0.092657618482934,-0.08434882303454315
1765408935.788032,-11.260334122547162,0.09445830395248003,-0.3711277374057989,-0.02334821577516822,0.08739652727578627,-0.08172047895465608
1765408935.788232,-11.280273901649577,0.04526490228575018,-0.3758659735075952,-0.028622264030883193,0.08186267438031682,-0.07900133126247655
1765408935.788432,-11.293569322730079,-0.011860973382859514,-0.37545492913514755,-0.033470204885515734,0.07608032575837805,-0.0761852953853759
1765408935.788632,-11.299729731379054,-0.07660414583053937,-0.3697523031609128,-0.03783319081063127,0.07007787942018741,-0.07326867015104661
1765408935.788832,-11.298350148728188,-0.14825886253428597,-0.3587216934776133,-0.04165562163638257,0.063888354976045,-0.07025004864439219
1765408935.789043,-11.289109388453124,-0.22573463616311215,-0.3424351103397801,-0.0448882356577623,0.057549656486887694,-0.06713017311497475
1765408935.789293,-11.271770071606259,-0.3075847905385943,-0.3210717173871991,-0.04749117152662008,0.05110458241968686,-0.06391174731447334
1765408935.789543,-11.246181975040065,-0.39205705899398097,-0.2949120954722415,-0.04943672430025175,0.04460057573591602,-0.06059922160960875
1765408935.789793,-11.212289573657882,-0.47716365857758464,-0.2643278834044592,-0.050711553133794156,0.03808921309773321,-0.057198571495462695
1765408935.789995,-11.17014379733144,-0.5607664867889767,-0.22976750858950604,-0.051318153867617455,0.031625439963753645,-0.053717095587288884
1765408935.790245,-11.119917311213039,-0.6406717492953027,-0.19173897327488532,-0.051275475034024784,0.02526657167353302,-0.05016325481416809
1765408935.790495,-11.061922105947874,-0.7147278331228343,-0.1507903340816564,-0.0506186248809361,0.0190710934976483,-0.04654655838209607
1765408935.790745,-10.996627482736713,-0.7809207284279203,-0.10748857728268646,-0.04939768659761633,0.013097300210287264,-0.04287748673511978
1765408935.791014,-10.924675435281856,-0.8374623707298837,-0.062398623223593644,-0.04767572367139033,0.007401817723383153,-0.039167441290416605
1765408935.791264,-10.846889457573067,-0.8828682982644691,-0.01606543777917124,-0.04552611125875627,0.0020380511353884564,-0.035428724894931166
1765408935.791514,-10.764272784124767,-0.9160217001868949,0.030997614713312607,-0.04302936973542181,-0.0029453850588640335,-0.03167457160962555
1765408935.791764,-10.677993317723214,-0.9362214297666622,0.07831236083684558,-0.04026970202606666,-0.0075061751761259935,-0.027919246138534214
1765408935.792023,-10.589354476314538,-0.9432120944637962,0.12543148884173316,-0.03733144359231189,-0.011609646330679511,-0.024178221890034022
1765408935.792273,-10.499753055692045,-0.9371948247737398,0.17192800169580838,-0.03429561914461523,-0.015229840404132673,-0.020468432217048478
1765408935.792523,-10.410626584193079,-0.9188174890681379,0.21738105452309572,-0.031236767385118228,-0.018350224435716087,-0.016808577271897097
1765408935.792773,-10.323393732172653,-0.8891429767549304,0.26136133267986583,-0.02822016196281844,-0.02096398293877115,-0.013219454231737713
1765408935.79307,-10.239392355189182,-0.8495942914289546,0.30341943660698495,-0.0252995428920051,-0.023073873554041852,-0.009724255068527895
1765408935.79332,-10.159820549910533,-0.8018764053685696,0.343080531102679,-0.02251547897884417,-0.024691666559248003,-0.006348745829209234
1765408935.79357,-10.085686339231248,-0.7478775411599378,0.3798476847154267,-0.019894487024720253,-0.025837227330942247,-0.003121217311411282
1765408935.79382,-10.01777106210148,-0.6895562917616765,0.4132151213016117,-0.01744901280121317,-0.026537332459405944,-7.209729088457136e-05
1765408935.794082,-9.956610147217889,-0.6288245076839033,0.4426911525293508,-0.015178321807778594,-0.02682432674621803,0.0027668473815502742
1765408935.794282,-9.902492693825948,-0.5674377241525534,0.46782872866531516,-0.013070262209716549,-0.02673472800278797,0.005363716069667978
1765408935.794482,-9.855478543615142,-0.5069041416773385,0.48825968171567324,-0.011103768379807156,-0.026307872950372943,0.007687993784647722
1765408935.794682,-9.815429214081263,-0.4484199400555307,0.5037278597170772,-0.009251895911282044,-0.025584673225365402,0.009712218254095118
1765408935.794882,-9.782047914184453,-0.39283428055738684,0.5141169419971822,-0.00748513507835671,-0.024606520557351047,0.011413602665997023
1765408935.795043,-9.754923738089246,-0.34064341544303556,0.5194699424048286,-0.005774741468018962,-0.023414355880028007,0.012775449980749566
1765408935.795293,-9.733575468286848,-0.2920108250869277,0.5199983011972956,-0.004095840365580256,-0.02204790528269908,0.013788250862703896
1765408935.795543,-9.717491063432677,-0.2468090966728019,0.5160792134845215,-0.0024300938170380222,-0.020545080146592617,0.014450409674171409
1765408935.795793,-9.70615997517455,-0.20467870570052601,0.5082409811236867,-0.0007677590410463626,-0.01894153058157595,0.014768576662544454
1765408935.796083,-9.699096714785828,-0.16509844344630167,0.49713746579308743,0.0008909875785880541,-0.01727033021908182,0.01475758187448357
1765408935.796283,-9.695855189343634,-0.12746172639875716,0.4835136468741491,0.0025355350222479706,-0.015561762875077122,0.014439976992488461
1765408935.796483,-9.696034217142993,-0.09115254979738435,0.4681649416351907,0.004145148187054199,-0.013843183550128636,0.013845206644912941
1765408935.796683,-9.699275452321238,-0.05561485749648954,0.4518935745956294,0.0056900633943685825,-0.01213893826263871,0.013008457733571803
1765408935.796883,-9.705255535050615,-0.020410020496766764,0.43546555660952596,0.0071332715187154,-0.010470341591793636,0.01196926804102148
1765408935.797083,-9.713674402503766,0.014741141051185153,0.4195713597279473,0.008432843403170439,-0.008855716952977747,0.010769997658204408
1765408935.797283,-9.724241578947105,0.04993340989260538,0.40479253321656994,0.009544618618010137,-0.007310499195340681,0.009454266957004328
1765408935.797483,-9.736662387040779,0.08506935020405312,0.39157603459993673,0.010425061664635771,-0.005847386990625394,0.008065446331410184
1765408935.797683,-9.750626381420677,0.11986756365287242,0.3802179616906016,0.01103408740873117,-0.004476520731278823,0.006645259557366489
1765408935.797883,-9.765800329239047,0.153885048787166,0.37085794277324363,0.011337668598273124,-0.003205657161033296,0.0052325452879684224
1765408935.798025,-9.78182734805868,0.18655078117866264,0.3634843050692646,0.011310063653094485,-0.002040319469043006,0.0038622096465268183
1765408935.798225,-9.79833265434843,0.2172069463198538,0.3579488811399652,0.010935540118668664,-0.0009839179188392809,0.0025643901331549286
1765408935.798425,-9.814935389059062,0.24515410574111576,0.3539897020368665,0.010209511221408993,-3.785094655946306e-05,0.001363835658493431
1765408935.798625,-9.831265375729432,0.26969695012020634,0.3512598134567493,0.009139044453113915,0.0007983962987083841,0.0002794979294291136
1765408935.798825,-9.84698314648528,0.29018780798799515,0.34936033676650424,0.007742742059437684,0.001527136311356003,-0.0006756673788298184
1765408935.799068,-9.861800951458878,0.306065410119431,0.3478753734263236,0.006050034886961051,0.0021523231842340805,-0.0014946828496371506
1765408935.799268,-9.875502004920447,0.3168866840163327,0.3464058839030562,0.004099969734758112,0.002679329930281795,-0.002176311494719175
1765408935.799468,-9.88795528541312,0.3223499570270289,0.34459978174289646,0.0019395981155839205,0.003114637089651951,-0.0027246158852387743
1765408935.799668,-9.899123805310278,0.32230897290723953,0.34217608579584724,-0.0003779149350463632,0.003465424808594443,-0.0031483533133431743
1765408935.799868,-9.909065094518262,0.3167781910687895,0.33894164115216335,-0.0027953483187966323,0.00373908118152639,-0.003460250456091296
1765408935.800088,-9.917923498821894,0.3059304871044158,0.3347995056502492,-0.0052535483563111805,0.003942659829729549,-0.003676187019823775
1765408935.800288,-9.925914804945977,0.29008848912017693,0.3297487959141438,-0.007693532524428424,0.0040823350348120095,-0.0038143017201044222
1765408935.800488,-9.933304677341235,0.2697105427809037,0.32387668208326426,-0.01005849884941445,0.004162912043107853,-0.0038940299522083207
1765408935.800688,-9.940383221242863,0.2453719557744545,0.3173440839454898,-0.012295673387663313,0.004187452643870927,-0.003935092493426563
1765408935.800888,-9.947438397396663,0.21774199555443105,0.31036714427550544,-0.014357933848124026,0.004157069968431146,-0.003956472808552748
1765408935.801091,-9.954730899665247,0.18755729962732015,0.30319662996724633,-0.016205155796601475,0.0040709300589615895,-0.003975439684300697
1765408935.801291,-9.962472598353692,0.15559285108576626,0.29609716913239087,-0.017805240401471537,0.003926471871400639,-0.004006683523862229
1765408935.801491,-9.97080998379856,0.12263215780208261,0.28932789585382185,-0.01913479755908055,0.003719827189167662,-0.004061631268211068
1765408935.801691,-9.979813376531519,0.08943846351599148,0.28312576402790895,-0.020179474437670757,0.003446396634738715,-0.004147986606581121
1765408935.801891,-9.989472054073401,0.056728689699533034,0.2776924601656202,-0.020933937034192204,0.0031015240640095746,-0.004269516917478192
1765408935.802068,-9.999694941715376,0.02515148559456146,0.2731854408778826,-0.021401528894968117,0.002681206437388256,-0.004426083947459074
1765408935.802268,-10.010316241449996,-0.004729709294452815,0.2697132313126739,-0.0215936424595888,0.002182773486347738,-0.004613893685055072
1765408935.802468,-10.021105338730292,-0.03244834650343419,0.2673348169537528,-0.02152884303082065,0.0016054716902706174,-0.004825922946099098
1765408935.802668,-10.031780327030681,-0.05764170297178336,0.2660626291974149,-0.021231786124358863,0.0009508958982618435,-0.005052470356685405
1765408935.802868,-10.042024338542754,-0.08005412135137441,0.2658681986799567,-0.020731970343966236,0.0002232307578503594,-0.00528178335082712
1765408935.803089,-10.051503668891009,-0.09953762328006009,0.2666892896516811,-0.020062372306863974,-0.0005707108785800787,-0.005500729797268039
1765408935.803339,-10.05988664931293,-0.11605038888754976,0.2684375208683036,-0.0192580169724415,-0.0014216389387639206,-0.005695502855025922
1765408935.803589,-10.06686229023353,-0.12965274661949971,0.2710059294136304,-0.018354543520143537,-0.002318090901173464,-0.005852357050099454
1765408935.803839,-10.072157647590474,-0.14049970029508202,0.2742761577997637,-0.017386830285178775,-0.003246844246755064,-0.005958365504350793
1765408935.804077,-10.075552681195841,-0.14882900334475144,0.2781248491051351,-0.016387739979530757,-0.004193393894339631,-0.006002168193798814
1765408935.804277,-10.076891439697512,-0.1549443779792322,0.2824288074822388,-0.015387039345391085,-0.005142463291055882,-0.005974662120857141
1765408935.804477,-10.076088883380095,-0.15919436888697713,0.2870687424732134,-0.014410537340885632,-0.006078527387709083,-0.005869576067013153
1765408935.804677,-10.073133249319971,-0.1619481642815218,0.29193169813541425,-0.013479472438337282,-0.006986329021689299,-0.005683876011390233
1765408935.804877,-10.068084219845291,-0.16357030963532274,0.296912306100584,-0.01261016116320196,-0.007851371323874713,-0.005417958756915292
1765408935.805038,-10.061067298166238,-0.16439653396929743,0.30191296495080105,-0.011813898568559978,-0.008660372737248378,-0.00507560876676907
1765408935.805238,-10.052264967894432,-0.16471289183079144,0.3068432104489045,-0.011097083305283566,-0.009401676262384319,-0.004663716538462097
1765408935.805438,-10.041905465445405,-0.1647400597115548,0.31161880024345423,-0.010461531571028915,-0.010065605150825342,-0.004191784260554987
1765408935.805638,-10.030250166869084,-0.16462394029754487,0.31616110382720164,-0.00990494560760693,-0.010644753025601339,-0.0036712702769323017
1765408935.805838,-10.017580618824313,-0.16443289611901382,0.32039725875778297,-0.00942150737355989,-0.011134192778496612,-0.0031148407497220464
1765408935.806935,-10.00418620690486,-0.16416119887685454,0.32426142044633377,-0.009002570744329329,-0.011531589515627874,-0.0025356018245797298
1765408935.807135,-9.99035333218331,-0.16373778543352902,0.32769725733120303,-0.008637425143371487,-0.011837206517320259,-0.0019463813912424935
1765408935.807335,-9.976356619414702,-0.16303913627659458,0.3306614342611962,-0.008314101300086455,-0.012053796736605556,-0.0013591196278762785
1765408935.807535,-9.962452166793836,-0.16190493891804394,0.3331273248790957,-0.008020186798959177,-0.012186377241124936,-0.0007844122004686818
1765408935.807735,-9.948872499192998,-0.16015511468548896,0.3350880413650578,-0.007743616537447893,-0.012241893209289204,-0.00023122966591338973
1765408935.807151,-9.935822904853495,-0.1576068035466957,0.3365581916967507,-0.0074734029524042254,-0.012228789400117653,0.00029318514734696184
1765408935.807351,-9.923479020300867,-0.1540900536191066,0.3375741655395289,-0.007200272998632193,-0.012156514290427496,0.0007832597832757149
1765408935.807551,-9.911985587615154,-0.1494612099529939,0.3381928442349706,-0.006917181508125765,-0.012034983607506988,0.0012349101920918018
1765408935.807751,-9.901456244965825,-0.1436132696969698,0.3384885717956608,-0.006619673195611078,-0.011874030309648833,0.0016452836061431682
1765408935.807951,-9.89197422466535,-0.13648276590104996,0.33854837904055657,-0.0063060715528521095,-0.01168287083024842,0.002012481631970562
1765408935.808144,-9.883593970603528,-0.12805310595778727,0.33846587888642243,-0.0059774865585290405,-0.011469621128322198,0.002335311666829536
1765408935.808344,-9.876343773694737,-0.11835469150651927,0.33833463622627596,-0.005637653407745709,-0.011240897394061294,0.00261309589969828
1765408935.808544,-9.87022940281208,-0.10746245401911232,0.33824185588446914,-0.005292632838710654,-0.011001533678991388,0.0028455448655233034
1765408935.808744,-9.865238452019756,-0.09549155204048708,0.3382629413245809,-0.004950411120493521,-0.010754442752124404,0.0030326847782556517
1765408935.808944,-9.861344969020452,-0.08259190921039804,0.33845714077333894,-0.004620433304263591,-0.01050063740757624,0.0031748183991857112
1765408935.80916,-9.858514005626102,-0.06894211712464227,0.3388643547370261,-0.0043130940563459175,-0.010239415996537563,0.0032724989347339547
1765408935.80936,-9.85670591448657,-0.05474306308376287,0.33950319776619936,-0.004039204144588383,-0.0099686975846524,0.0033265045849168217
1765408935.80956,-9.855880284758188,-0.04021151234449358,0.34037040263832674,-0.0038094496981432675,-0.00968547322492622,0.003337813604961034
1765408935.80976,-9.855999301199848,-0.025573802324885233,0.3414415497987048,-0.00363386286455301,-0.00938632824316925,0.0033075890804068714
1765408935.80996,-9.857030178673714,-0.011059805600841962,0.34267299289313796,-0.003521323023002378,-0.00906798927270221,0.003237184298799508
1765408935.810078,-9.858946354020786,0.0031026323595138394,0.34400483960759126,-0.0034791063393620337,-0.008727854020453762,0.00312817442254292
1765408935.810278,-9.861727333576212,0.0166925430115748,0.34536490865422703,-0.003512499442011575,-0.008364465450331485,0.002982412041689375
1765408935.810478,-9.86535732948391,0.0294997902752269,0.34667357307419955,-0.0036244917016186023,-0.007977894969156145,0.002802096515817762
1765408935.810678,-9.869822872625619,0.04132810621944548,0.3478492074828557,-0.0038155600065043365,-0.007570004205005893,0.002589842098113023
1765408935.810878,-9.87510944713995,0.05199737332647204,0.3488136629741387,-0.004083558955578926,-0.007144563565049884,0.0023487288164309563
1765408935.811091,-9.881197062531491,0.061345450420734894,0.34949704657319675,-0.004423726680743955,-0.0067072177512578195,0.0020823219811287683
1765408935.811291,-9.888054785864771,0.06922986305842876,0.34984125209074046,-0.0048288112043375145,-0.006265302478546789,0.0017946490741108695
1765408935.811491,-9.895634576215008,0.07552964252129496,0.3498020499902542,-0.005289314781017474,-0.005827529958049244,0.001490126545152543
1765408935.811691,-9.903865082298127,0.08014756948244393,0.34934982146757587,-0.005793845716910494,-0.005403570630353252,0.001173435117204518
1765408935.811891,-9.912646262430059,0.08301304839734114,0.34846915656740796,-0.006329560375580736,-0.005003565053668289,0.0008493507439394513
1765408935.812035,-9.921845822527533,0.08408572296131796,0.34715770844470545,-0.006882673208240882,-0.004637604009277843,0.000522547793103318
1765408935.812235,-9.931298547073574,0.08335969174667295,0.3454249536246136,-0.007439009590832373,-0.004315216052382625,0.00019739949231656332
1765408935.812435,-9.940809420207835,0.08086785282945494,0.34329158610107763,-0.007984574631064787,-0.004044897329619306,-0.00012219427705384685
1765408935.812635,-9.950160818868357,0.07668562239439981,0.34078992158477256,-0.008506110433457741,-0.0038337085484236363,-0.0004329235536767862
1765408935.812835,-9.959123175917956,0.0709331408707402,0.33796507446779095,-0.00899161429271547,-0.0036869536540250847,-0.0007321112332517184
1765408935.813088,-9.967467830591099,0.06377513869401816,0.33487627560270083,-0.009430791696905588,-0.003607949397208742,-0.001017680326730827
1765408935.813288,-9.974980616631157,0.05541786294640275,0.3315977687210277,-0.009815422160303122,-0.003597893147796733,-0.0012880594144636399
1765408935.813488,-9.981474909758019,0.04610281802690936,0.32821898091005686,-0.010139622091171748,-0.0036558314356908944,-0.0015420508213613356
1765408935.813688,-9.98680298379334,0.036097481512617956,0.3248437166314244,-0.01039999443573268,-0.0037787216958313622,-0.0017786891144480656
1765408935.813888,-9.990864540553753,0.025683542320339755,0.3215879963411374,-0.010595658756788298,-0.003961570902905652,-0.001997114206136119
1765408935.814098,-9.993611461992039,0.01514351929808869,0.31857618837159773,-0.010728159532138619,-0.004197633427527344,-0.0021964767824879075
1765408935.814298,-9.995048339186,0.004746851637180943,0.3159354007997855,-0.010801256026268597,-0.0044786543659166185,-0.002375886459353141
1765408935.814498,-9.995228925815681,-0.005263292252923424,0.31378845838950165,-0.010820603378062649,-0.004795147948437777,-0.002534405296991229
1765408935.814698,-9.99424903475362,-0.014681219039899157,0.31224593241561216,-0.010793341054425582,-0.005136702897859689,-0.0026710804036653496
1765408935.814898,-9.992236570024343,-0.023346853051746948,0.3113977171582738,-0.010727611910799722,-0.00549231122113524,-0.0027850007318842166
1765408935.818071,-9.989339619327977,-0.031150161446944737,0.31130481860001596,-0.010632042013674658,-0.0058507232706773325,-0.002875358960925347
1765408935.818271,-9.985713884412618,-0.03803172318227479,0.31199232013333117,-0.010515215572875422,-0.006200833761297519,-0.0029415027347406923
1765408935.818471,-9.981510944299345,-0.043979721647873594,0.31344461231882226,-0.010385179305003935,-0.006532095545641759,-0.002982968892213448
1765408935.818671,-9.976868702256539,-0.049023885832463726,0.3156037548634904,-0.010249008214542877,-0.006834942807511403,-0.002999504315801925
1765408935.818871,-9.971904948576393,-0.05322708135260381,0.3183714399007841,-0.010112462452051328,-0.0071011920486942545,-0.00299108294069536
1765408935.818135,-9.966714526306397,-0.0566754520521124,0.32161463846292787,-0.009979760881996768,-0.007324384655108803,-0.0029579292260942676
1765408935.818335,-9.961370192677752,-0.05946814686976952,0.32517460919766733,-0.009853487717294244,-0.007500037567910551,-0.002900555526831257
1765408935.818535,-9.95592681875476,-0.061707582248152676,0.3288784566734249,-0.009734634377835782,-0.0076257747053813775,-0.0028198157204199215
1765408935.818735,-9.950428076327638,-0.06349089006452059,0.33255200067765883,-0.009622763790988975,-0.0077013222318144114,-0.0027169703773315236
1765408935.818935,-9.944914448670936,-0.06490287548524404,0.3360326258525202,-0.00951627256224839,-0.007728367683964599,-0.0025937503733784793
1765408935.819064,-9.939431395199733,-0.06601064944090425,0.33918101023628255,-0.009412719740792486,-0.007710301809082232,-0.002452399269835121
1765408935.819264,-9.934036603523232,-0.06686009996854396,0.3418908257811782,-0.009309189205517864,-0.007651874418759667,-0.0022956747094587545
1765408935.819464,-9.928805237159814,-0.06747434282030365,0.34409544112182644,-0.009202653965254168,-0.007558799290032364,-0.002126797289221217
1765408935.819664,-9.923832041624232,-0.06785411772140117,0.3457706127868945,-0.00909031314982337,-0.007437343276492662,-0.0019493478552863308
1765408935.819864,-9.919229449775642,-0.06797985733278597,0.34693255554051894,-0.008969876846562449,-0.007293935457249841,-0.0017671239840281816
1765408935.820021,-9.915121529774238,-0.06781503513189413,0.347631615338755,-0.008839781769306769,-0.007134830820120081,-0.0015839695949264488
1765408935.820221,-9.911634443218292,-0.06731046403017575,0.3479425547809395,-0.008699331577129888,-0.006965855173728325,-0.00140359024858146
1765408935.820421,-9.908884670634373,-0.0664093691755605,0.34795283585654085,-0.008548766565886564,-0.0067922445394693306,-0.001229366268731073
1765408935.820621,-9.906966535687058,-0.06505315041012796,0.3477503283413155,-0.008389274918137927,-0.00661857830693527,-0.0010641793310816783
1765408935.820821,-9.905940628899394,-0.06318770992778988,0.3474118475535729,-0.00822295958245599,-0.006448794094781788,-0.0009102726421749164
1765408935.821018,-9.90582464256122,-0.06077006448120789,0.3469938758921901,-0.008052771267972424,-0.006286263117313889,-0.0007691650506739105
1765408935.821268,-9.906587825822628,-0.0577747600822141,0.3465265698736601,-0.007882411372246574,-0.006133897529066297,-0.0006416335022490434
1765408935.821518,-9.908149760479505,-0.05419946395950072,0.3460116279472497,-0.007716202547636815,-0.005994258078419246,-0.0005277685149370551
1765408935.821768,-9.910383590614275,-0.050069115611840936,0.34542399798658896,-0.007558921691346184,-0.005869634844448848,-0.0004270972427655625
1765408935.82209,-9.9131233737916,-0.04543818215440256,0.34471698260498446,-0.007415591125538469,-0.005762085219000882,-0.0003387603555099521
1765408935.82229,-9.916174876776854,-0.04039078486579402,0.3438300501740621,-0.0072912286872756655,-0.005673425592182292,-0.0002617229993525882
1765408935.82249,-9.91932881778607,-0.035038635256555914,0.3426983923195057,-0.007190565964894882,-0.005605181601994479,-0.00019499602388353977
1765408935.82269,-9.922375237792423,-0.029516829458392835,0.34126294966810927,-0.007117753471182254,-0.005558507720680602,-0.0001378407546673792
1765408935.82289,-9.925117510072202,-0.023977680109286536,0.33947948337893175,-0.007076077929337514,-0.005534092921107464,-8.992954288378163e-05
1765408935.823089,-9.927384613050922,-0.018582970392876683,0.3373254897345348,-0.007067717640321897,-0.005532073182636942,-5.143770360273779e-05
1765408935.823289,-9.929040640222217,-0.013495236409792017,0.3348042194647653,-0.007093558508636014,-0.005551969973964254,-2.3052076617421496e-05
1765408935.823489,-9.929990920086915,-0.008868801221071872,0.3319455095810316,-0.007153088439669058,-0.005592666650214054,-5.895216002402646e-06
1765408935.823689,-9.930184490010006,-0.004841249192422623,0.3288034900469161,-0.0072443818299744635,-0.005652426212122324,-1.3770605881180792e-06
1765408935.823889,-9.92961308250607,-0.0015259143201385972,0.3254516142715873,-0.007364177390508776,-0.005728948877366222,-1.099408473820511e-05
1765408935.824082,-9.928307274374259,0.0009941438065023363,0.3219759158048322,-0.007508042436149919,-0.005819467438907645,-3.6099555131479205e-05
1765408935.824282,-9.926330862975249,0.0026702737631505652,0.31846771794749507,-0.007670608765136644,-0.005920879082055975,-7.767020402507279e-05
1765408935.824482,-9.923774635810583,0.0034901679716770654,0.3150169915214793,-0.007845861333524377,-0.006029910527145531,-0.00013609568426750367
1765408935.824682,-9.920750426663794,0.003477447462298606,0.31170717510766116,-0.008027458635783044,-0.006143308721256151,-0.00021101593437711696
1765408935.824882,-9.91738588431316,0.002688944255299332,0.3086117740127779,-0.008209060522963177,-0.006258043991583645,-0.00030122565298109814
1765408935.825111,-9.913819958979413,0.0012099391527648443,0.30579266568135327,-0.008384637231108024,-0.006371508576918701,-0.00040465484744204796
1765408935.825278,-9.910198851462145,-0.0008522091870062164,0.3032998253428452,-0.008548736209981556,-0.006481691487255816,-0.0005184235980868373
1765408935.825444,-9.906672053659664,-0.0033754841639957664,0.30117210019754453,-0.008696690338005499,-0.006587310549381726,-0.000638961829517599
1765408935.825611,-9.903388076603115,-0.006231047292677908,0.29943864726923924,-0.008824758606477044,-0.006687884158420082,-0.0007621821510795174
1765408935.825778,-9.900489464531786,-0.00929083054234619,0.29812064986556724,-0.008930196916590886,-0.006783729258897837,-0.0008836934421700756
1765408935.825944,-9.898106729986068,-0.012434270573660705,0.297232888830255,-0.009011264017579654,-0.006875878911918499,-0.0009990418282112901
1765408935.82608,-9.896350983954019,-0.01555371616321731,0.2967847273696209,-0.009067176193376443,-0.006965921435581302,-0.0011039637454401277
1765408935.82633,-9.895305357820945,-0.018558260070857095,0.29678023863195563,-0.009098030700306292,-0.007055771440452203,-0.0011946354708671442
1765408935.82658,-9.895015799049506,-0.02137596984018491,0.29721760226940525,-0.009104719135530365,-0.007147389629876285,-0.0012679063060854992
1765408935.82683,-9.895482305375399,-0.02395465726298345,0.2980882871395273,-0.00908884841337733,-0.007242472448644884,-0.001321506328699208
1765408935.827085,-9.896651932651752,-0.02626140873804523,0.29937663305203094,-0.009052679978208336,-0.0073421342900787424,-0.0013542207274323034
1765408935.827285,-9.898414862391093,-0.028281105167351574,0.3010602084130912,-0.008999087165870182,-0.007446604182223634,-0.0013660204772343435
1765408935.827485,-9.900604508978805,-0.030014124640941314,0.30311098351292715,-0.00893151842652996,-0.007554956964458196,-0.001358136340230972
1765408935.827685,-9.90300224990519,-0.031473396839421436,0.3054971677930868,-0.008853945783416032,-0.007664898089003218,-0.0013330635212026871
1765408935.827885,-9.905347006870114,-0.032681004552027985,0.30818556104880945,-0.008770776946511336,-0.007772622384267396,-0.0012944887719080536
1765408935.828087,-9.907349590328664,-0.03366459309443902,0.31114431208109133,-0.008686715222720232,-0.00787276796236248,-0.0012471384514587112
1765408935.828287,-9.908711340590726,-0.03445388852001364,0.3143458850378032,-0.008606561666633167,-0.007958482043098463,-0.0011965527429919185
1765408935.828487,-9.90914609407588,-0.0350775910264469,0.317769792899481,-0.008534966609100417,-0.008021604380719098,-0.0011487961131937043
1765408935.828687,-9.908403983270578,-0.03556083477066804,0.32140448389975385,-0.008476149319108511,-0.008052961394867247,-0.0011101159317451503
1765408935.828887,-9.906295247292322,-0.035923366493601554,0.32524789420110856,-0.00843361164189642,-0.008042755250603788,-0.0010865616496613677
1765408935.82908,-9.9027121485631,-0.03617860788217949,0.32930655077314874,-0.008409872956974452,-0.007981025926402662,-0.0010835806037096446
1765408935.82928,-9.897647112954365,-0.036333759912644474,0.3335933950195268,-0.008406250876707409,-0.007858158477919479,-0.0011056148386495914
1765408935.82948,-9.891205226661238,-0.036391000901404125,0.33812452610752747,-0.008422707048088144,-0.007665405341818036,-0.0011557313853108326
1765408935.82968,-9.883609360680962,-0.03634961381096306,0.34291503468294554,-0.008457772690425632,-0.0073953980604191,-0.0012353198049260452
1765408935.82988,-9.875196643486664,-0.03620863938779261,0.34797426095673245,-0.008508565056560998,-0.007042630192056829,-0.0013438843798251226
1765408935.830088,-9.866405724544371,-0.03596951400583384,0.3533010831501308,-0.008570902694544249,-0.006603895130939286,-0.0014789488899520644
1765408935.830288,-9.857755010419648,-0.035638163891265597,0.3588799217176253,-0.008639522215124013,-0.006078656644523022,-0.0016360849215475096
1765408935.830488,-9.849812635511688,-0.035226132246450666,0.36467790602298467,-0.008708390837253955,-0.005469322636374367,-0.0018090711489705434
1765408935.830688,-9.843159451919862,-0.03475043776447849,0.37064328473372743,-0.008771098030909764,-0.004781391644896472,-0.001990187691534771
1765408935.830888,-9.838347039273911,-0.034231991538469925,0.3767049429749004,-0.008821299683706608,-0.004023447320292501,-0.0021706425028916337
1765408935.831068,-9.8358537600154,-0.033692572694630524,0.38277289997089925,-0.008853182886005067,-0.0032069832382452517,-0.0023411138499753706
1765408935.831268,-9.836043030486131,-0.03315064236752737,0.38873978849826135,-0.0088619181301424,-0.0023460456062391545,-0.0024923747793547508
1765408935.831468,-9.83912874942576,-0.03261674784349916,0.3944834358460771,-0.008844064983790504,-0.0014566875219316053,-0.0026159451688308995
1765408935.831668,-9.845152575118407,-0.03208989874724854,0.39987068979930024,-0.008797895636330143,-0.0005562431121373754,-0.0027047018727874455
1765408935.831868,-9.853976154221451,-0.031556621013354796,0.4047624738502432,-0.008723600825815093,0.00033754029469122314,-0.0027533789733343405
1765408935.832121,-9.865289005161786,-0.030993687119693462,0.4090197329805298,-0.008623349003888574,0.0012074347912434578,-0.0027589136099169936
1765408935.832321,-9.878630573437578,-0.03037377004191115,0.4125096782940246,-0.008501184400176925,0.0020376267171183923,-0.002720624628314079
1765408935.832521,-9.893423559382912,-0.029671711441835308,0.4151118080190383,-0.00836277098966359,0.0028144796315814394,-0.0026402275503990876
1765408935.832721,-9.90901485094079,-0.02886911608783127,0.41672355165672004,-0.008215012374312824,0.003527106962782406,-0.002521684979512572
1765408935.832921,-9.92472012994455,-0.02795657687061354,0.4172656844823263,-0.00806559476335276,0.004167730229187583,-0.002370888456651218
1765408935.833076,-9.939868467863198,-0.02693459627731133,0.41668746075288243,-0.007922502323622833,0.004731815101167687,-0.002195187474995066
1765408935.833276,-9.953843782791326,-0.025814744920831637,0.41497079752236293,-0.007793539204235825,0.005217988342684476,-0.0020028186500563433
1765408935.833476,-9.966120588777779,-0.024621472235196624,0.412132551563675,-0.007685874121090362,0.005627763721763216,-0.0018023156905591679
1765408935.833676,-9.976292022594661,-0.023393364203539428,0.40822451169466034,-0.007605619094419482,0.005965137099888275,-0.0016019734995485844
1765408935.833876,-9.984088829772759,-0.02218217503270305,0.40333167466397807,-0.007557464282045056,0.006236119012303822,-0.001409398126933154
1765408935.83409,-9.989388758929497,-0.021049207062223144,0.39756971250277034,-0.007544399348019798,0.006448245552468036,-0.0012311324501907788
1765408935.83429,-9.992216428804648,-0.02006033040083761,0.3910820469141232,-0.0075675460318858495,0.0066100734457797666,-0.0010723442922417653
1765408935.83449,-9.992734133277994,-0.019281369020912997,0.3840362176851514,-0.00762611068707333,0.006730654103615465,-0.0009365977792776758
1765408935.83469,-9.991224396114319,-0.018774398423331205,0.3766188235126005,-0.007717451320019187,0.006818991422646547,-0.0008257551100943002
1765408935.83489,-9.988065579286593,-0.018594055463321577,0.3690283950051956,-0.007837246928997297,0.006883499181392218,-0.0007400371806102388
1765408935.835048,-9.98370250077397,-0.018782761176336923,0.36146613261187005,-0.00797975545628661,0.006931482157585052,-0.000678220260717465
1765408935.835248,-9.9786145687437,-0.019364971280972986,0.3541252761452109,-0.008138145750554184,0.00696867689607016,-0.0006379078543719056
1765408935.835448,-9.973284041497006,-0.020342010407748932,0.34718040774360986,-0.008304885930276935,0.006998898853792941,-0.0006158216869798003
1765408935.835648,-9.96816658627357,-0.02168938704509097,0.34077785045757064,-0.008472166091441137,0.007023842457280288,-0.0006080916755565036
1765408935.835848,-9.963665631458689,-0.023357449420862812,0.33502782459347613,-0.008632330100181784,0.007043067424139,-0.0006105551043894184
1765408935.836074,-9.96011151361441,-0.02527474880737608,0.32999876708871523,-0.008778290979593331,0.007054181106181535,-0.0006190742869605787
1765408935.836274,-9.957746288721633,-0.027352727922963217,0.3257143287786111,-0.00890390610141295,0.007053196136349921,-0.0006298555461924493
1765408935.836474,-9.956715096718364,-0.029490760626808478,0.322153656746812,-0.009004289710832928,0.0070350145770339215,-0.0006397277439751433
1765408935.836674,-9.95706476628845,-0.03158149424471952,0.3192553437288273,-0.009076041107526215,0.006993976144672916,-0.0006463386821876089
1765408935.836874,-9.958749746245124,-0.033516895310889534,0.31692495135016346,-0.009117370537841592,0.0069244118982244385,-0.0006482532337861048
1765408935.837033,-9.961644646423194,-0.03519498240962909,0.3150455121626165,-0.0091281147533557,0.00682115663700118,-0.0006449678248302996
1765408935.837283,-9.965562026323841,-0.03652646184353521,0.31349003096517825,-0.009109647822895034,0.006679983391998981,-0.0006368674227017471
1765408935.837533,-9.9702737161156,-0.03744020359659175,0.3121347457273482,-0.009064703348325136,0.006497932801210334,-0.0006251364429134299
1765408935.837783,-9.975533714279818,-0.03788702732863151,0.3108717081478899,-0.00899712830443777,0.0062735239457429376,-0.000611612555303211
1765408935.83803,-9.981100452860701,-0.03784212589664475,0.30961913512765105,-0.008911589195119602,0.006006847880388663,-0.0005985694143047201
1765408935.83823,-9.98675612947864,-0.03730683331102685,0.3083281566399528,-0.008813251289282504,0.005699552506500747,-0.0005884387190163541
1765408935.83843,-9.992321109294581,-0.0363099695466117,0.3069851649261868,-0.008707450503409422,0.005354728213289386,-0.0005835142637868303
1765408935.83863,-9.997662078448764,-0.03490806106898523,0.3056097737189156,-0.008599373919874769,0.004976705526730288,-0.0005856943661578996
1765408935.83883,-10.002693480821815,-0.0331831921873061,0.30424907057013595,-0.008493761251338751,0.004570780672643125,-0.0005963047205580353
1765408935.839053,-10.007372666971396,-0.031237669300499628,0.30296920740797706,-0.008394638546509701,0.004142887785106129,-0.0006160128302099597
1765408935.839253,-10.011690092508148,-0.02918585214980535,0.3018455309457299,-0.008305096732746528,0.0036992375989300563,-0.0006448183077299146
1765408935.839453,-10.015656669246018,-0.02714457559383787,0.30095255235006096,-0.008227128780013708,0.0032459475800777284,-0.0006820950211700717
1765408935.839653,-10.019290684704535,-0.025223860726748086,0.3003550207218251,-0.008161538745613466,0.0027886963008174662,-0.0007266697181202646
1765408935.839853,-10.0226063841389,-0.023519111931205733,0.30010104756286277,-0.00810793371115714,0.002332434479112968,-0.0007769327503128689
1765408935.840099,-10.025605549121542,-0.02210525075239751,0.30021772500786137,-0.00806480572618542,0.0018811710004220084,-0.0008309771849228085
1765408935.840299,-10.028272603298594,-0.02103275877996973,0.30070926629525935,-0.008029704332710295,0.0014378345587281274,-0.0008867535689492129
1765408935.840499,-10.030573170347836,-0.020325553355856788,0.30155747936183164,-0.007999490438398765,0.0010042046095835762,-0.0009422195273072561
1765408935.840699,-10.03245559628425,-0.019980799611540156,0.3027242128169848,-0.00797065113802968,0.0005809109245404585,-0.0009954649122354293
1765408935.840899,-10.033854658269748,-0.019970802797388734,0.3041551532177315,-0.007939645936317071,0.00016750859235731467,-0.0010448033512790598
1765408935.841057,-10.034696551887352,-0.020246834617616137,0.30578413570766755,-0.007903249982586043,-0.00023736481752858376,-0.0010888318566784916
1765408935.841257,-10.034904395359609,-0.02074431372293095,0.3075372490615416,-0.00785886083643892,-0.0006357518265510331,-0.001126465112354165
1765408935.841457,-10.034403909551758,-0.021388569441570287,0.3093365354286162,-0.007804742736824179,-0.001030071503134672,-0.0011569491324903603
1765408935.841657,-10.03312937165214,-0.0221006476693299,0.3111036558240484,-0.0077401936322858845,-0.0014227750054533602,-0.0011798539815601951
1765408935.841857,-10.03103005658407,-0.022803024842494204,0.31276407039525667,-0.007665629706368975,-0.0018159925290282886,-0.0011950433782151684
1765408935.842025,-10.02807707657004,-0.02342524493853282,0.31425197951179734,-0.0075825871297377,-0.002211206401780835,-0.0012026237027430856
1765408935.842225,-10.024270049508488,-0.023909229039276732,0.31551578619677156,-0.007493643274666144,-0.0026089831655800757,-0.0012028819518515048
1765408935.842425,-10.01964269136855,-0.024213625062462694,0.3165234874817558,-0.007402261900857152,-0.0030087911637574198,-0.0011962236735526058
1765408935.842625,-10.014266348170425,-0.02431648254005508,0.31726723906294624,-0.007312570068678013,-0.0034089186494413244,-0.0011831162628803062
1765408935.842825,-10.008250577367972,-0.02421586360803894,0.3177662570438622,-0.007229080647593722,-0.0038064923882977805,-0.0011640370369789055
1765408935.843065,-10.001740093700052,-0.02392850308056167,0.3180672019345054,-0.007156383457158283,-0.004197584718112795,-0.0011394262852428578
1765408935.843265,-9.994907755210978,-0.023487005037901295,0.3182413631962229,-0.007098835654876497,-0.004577394733228782,-0.00110965247958001
1765408935.843465,-9.987943802799439,-0.022936168668157845,0.31837842139506917,-0.007060281939290567,-0.004940494559580527,-0.0010750024446766447
1765408935.843665,-9.981042155041052,-0.022328919335261058,0.3185771954604977,-0.007043826403572829,-0.005281134017433979,-0.0010357061579039982
1765408935.843865,-9.974385014517019,-0.02172211911412062,0.31893434394769954,-0.007051665542829641,-0.005593589550943224,-0.000991994165013765
1765408935.844081,-9.968127309475946,-0.02117237867309477,0.3195323467591239,-0.007084982609901083,-0.005872530812260249,-0.0009441729010163262
1765408935.845109,-9.96238266144963,-0.02073198891049479,0.3204282960926291,-0.007143900040042534,-0.006113370168361692,-0.0008926966916453987
1765408935.847095,-9.95721265861565,-0.020445247269152908,0.32164511433862925,-0.0072274865788509975,-0.0063125609531776705,-0.0008382169168258548
1765408935.850067,-9.952621067818052,-0.020345616945888833,0.3231666483513335,-0.007333814664489124,-0.00646781729830583,-0.000781597735728082
1765408935.852095,-9.948554063756758,-0.020454101127138753,0.3249374974015728,-0.0074600600776460755,-0.006578237992345004,-0.0007239007264217729
1765408935.855052,-9.944906671873651,-0.020778895648478696,0.32686755724947236,-0.0076026328832769306,-0.006644327282133818,-0.0006663508821532426
1765408935.857084,-9.941534747467731,-0.021316027185508,0.328840535284802,-0.007757329838930769,-0.006667916440327892,-0.0006102971409153833
1765408935.860015,-9.938271230668374,-0.022050555998870215,0.33072539170083176,-0.007919503093589528,-0.006651999732983065,-0.0005571731810588716
1765408935.862031,-9.934945093102693,-0.022958068726332916,0.33238960800387435,-0.008084243572420203,-0.006600504627818023,-0.0005084566563343657
1765408935.865016,-9.93140110570369,-0.024006419090142093,0.33371300251862196,-0.008246576161068858,-0.00651801769811249,-0.00046562355120258924
1765408935.867993,-9.927518265269118,-0.02515777435522676,0.33460048231690953,-0.00840165847275074,-0.006409486366469827,-0.00043009768265785814
1765408935.869069,-9.923224676625402,-0.02637094220402326,0.334992050633094,-0.008544970511794467,-0.006279915209428882,-0.0004031986284722742
1765408935.872111,-9.91850713871791,-0.027603797681425835,0.3348688651527716,-0.008672483322894348,-0.006134074952068542,-0.00038609221094223085
1765408935.873064,-9.913414508337757,-0.028815532729427672,0.33425491240088545,-0.0087807996993789,-0.005976240870318931,-0.00037974674929139275
1765408935.877095,-9.908054743477464,-0.029968478084765632,0.3332144518632832,-0.008867263741923958,-0.0058099742519941424,-0.0003848962573423968
1765408935.878058,-9.902586158805999,-0.031029391912075658,0.33184568789311747,-0.008930035531839306,-0.005637957944967845,-0.0004020095964750458
1765408935.882085,-9.897203962864895,-0.03197027457912956,0.33027142900220063,-0.00896812597249804,-0.005461896584854094,-0.00043126424688708727
1765408935.886083,-9.892123672853192,-0.03276882334272227,0.32862790940651465,-0.008981390329009532,-0.005282491568593353,-0.000472524966722504
1765408935.886583,-9.887563338338262,-0.03340856143850769,0.32705319191419135,-0.008970486877493007,-0.005099496081680843,-0.0005253285878024576
1765408935.890654,-9.88372644081542,-0.03387858707445346,0.3256763929135979,-0.008936813109038867,-0.004911846199868391,-0.000588874714523076
1765408935.892131,-9.880786951767238,-0.03417292649277756,0.32460854864673794,-0.008882431247934693,-0.00471785486744759,-0.0006620195070296219
1765408935.895028,-9.878877603499417,-0.03428965276794756,0.323935634867759,-0.008809989227795516,-0.004515450392874575,-0.000743269363226919
1765408935.897097,-9.878082080649786,-0.03423011696614938,0.32371411030487646,-0.008722637755478423,-0.004302439395369936,-0.0008307754462465637
1765408935.901054,-9.87843145610273,-0.03399866004129837,0.32396911696380926,-0.00862394074525754,-0.004076773144147715,-0.0009223370294477101
1765408935.902078,-9.879904677088827,-0.033602972786693,0.3246950097859278,-0.008517774281695005,-0.0038367955724949126,-0.0010154263405273392
1765408935.905094,-9.882432426437534,-0.03305496050796192,0.3258574748650702,-0.008408208862849785,-0.0035814534670680536,-0.0011072457386964198
1765408935.90707,-9.885903521898923,-0.03237173332280951,0.327396509172351,-0.00829937273576646,-0.0033104555795449237,-0.001194820241048466
1765408935.910115,-9.890173190513504,-0.031576290602725855,0.3292299748934243,-0.00819529891928052,-0.0030243745430801254,-0.0012751188272280768
1765408935.911094,-9.895072761528356,-0.030697586463826795,0.3312578837978887,-0.008099760927590634,-0.0027246905401315186,-0.0013451911321727278
1765408935.913121,-9.900420316137268,-0.029769864813793782,0.333367655800328,-0.008016102366657821,-0.0024137808424465963,-0.0014023051234642373
1765408935.917038,-9.906031714106366,-0.028831333920488342,0.33544040272889464,-0.007947067083148471,-0.002094867202927202,-0.0014440760779962595
1765408935.920006,-9.91173139770032,-0.027922345100955048,0.33735805902765365,-0.007894639915833265,-0.0017719387749196638,-0.0014685835008662559
1765408935.92205,-9.917362415065753,-0.027083252347533927,0.3390109495751607,-0.007859910943113727,-0.0014496634509411413,-0.0014744754034777012
1765408935.925068,-9.922795027851095,-0.026352115671515727,0.3403050877996534,-0.007842977927908112,-0.0011332861983479048,-0.0014610572915487654
1765408935.926077,-9.92793311999902,-0.025762418128031404,0.34116828578661135,-0.007842902854223682,-0.0008285014687755982,-0.001428359632989869
1765408935.930024,-9.932717656154624,-0.025340995094939315,0.34155425611806695,-0.007857737233516768,-0.0005412876051872924,-0.0013771764942112014
1765408935.932012,-9.937126712062472,-0.02510638637125968,0.34144420660950914,-0.007884625244745582,-0.00027770029457832004,-0.0013090706451049973
1765408935.936106,-9.941171921014773,-0.02506777967841717,0.34084567311690545,-0.007919984648488752,-4.363011456516118e-05,-0.0012263450040946957
1765408935.938089,-9.944891464576928,-0.025224621802334403,0.3397884924850986,-0.007959755593014877,0.0001554651195420728,-0.0011319841693430122
1765408935.94006,-9.948340162521248,-0.025566873159255453,0.3383182265340362,-0.007999699019189017,0.0003148344669833618,-0.0010295708444739992
1765408935.942095,-9.951577867739996,-0.026075811612357714,0.33648809817309255,-0.008035719611225274,0.00043068709052853163,-0.0009231792963066715
1765408935.94309,-9.954657934850406,-0.0267252732569575,0.33435111894898534,-0.008064182776023941,0.0005003967260059105,-0.0008172431139256557
1765408935.946057,-9.957617613990886,-0.027483268533273285,0.33195409280832666,-0.008082192322147448,0.000522639306872084,-0.0007163917102417565
1765408935.950078,-9.96047183018429,-0.02831400721336982,0.32933467370657926,-0.00808779790327643,0.0004974575942507625,-0.0006252532867960793
1765408935.953076,-9.963211242300527,-0.029180395679106613,0.3265220273875096,-0.008080109399777241,0.00042625419378419685,-0.0005482315847557702
1765408935.95507,-9.96580483593883,-0.030046917766514823,0.3235409662629765,-0.00805930718079469,0.0003117197468637647,-0.0004892749238254587
1765408935.958035,-9.968206463688594,-0.030882512813097205,0.3204185373990924,-0.008026551198223434,0.00015770907549383288,-0.0004516621124666847
1765408935.960048,-9.970363815526905,-0.03166283651236493,0.3171911718493122,-0.007983807640867218,-3.0919236034534427e-05,-0.0004378278318789855
1765408935.96205,-9.97222776066962,-0.03237134410993126,0.31391024388895084,-0.007933625582644063,-0.0002484886408390803,-0.000449242824243342
1765408935.965156,-9.973760184463416,-0.03299898127770782,0.31064449777328884,-0.007878900526192903,-0.0004887119491580582,-0.0004863560766260754
1765408935.967131,-9.974939135035285,-0.03354269980986386,0.307478838373441,-0.00782265402362743,-0.0007449200169384536,-0.000548599581924366
1765408935.971087,-9.975760830158215,-0.034003287998911086,0.30450984018514465,-0.007767843898286714,-0.001010311217884185,-0.0006344516484272925
1765408935.973051,-9.976238674793969,-0.034383028157094264,0.3018388629566297,-0.007717206330254251,-0.00127821988248682,-0.0007415510170951798
1765408935.973551,-9.97639998613962,-0.03468356158274936,0.2995640491639864,-0.007673124917383162,-0.0015423982477501528,-0.0008668496436274912
1765408935.97812,-9.976281533472056,-0.034904207528999455,0.29777265821414717,-0.007637524061766264,-0.0017972950759598965,-0.0010067878346438715
1765408935.980084,-9.975925025418126,-0.03504092453653413,0.29653492477527704,-0.0076117908857094374,-0.0020382983168963785,-0.0011574746410497583
1765408935.982104,-9.975373343255162,-0.03508608377177434,0.29590003899190753,-0.007596734949931268,-0.002261903785810187,-0.0013148601646576412
1765408935.98502,-9.974667955373778,-0.03502915254267273,0.2958943698373163,-0.007592594680493682,-0.0024657863202663744,-0.0014748925645173632
1765408935.986032,-9.973847691442126,-0.03485822011124805,0.2965217976889972,-0.007599093998519595,-0.002648775080512439,-0.0016336579849822311
1765408935.990069,-9.972948711353201,-0.03456210191805599,0.2977656943984836,-0.00761554374271242,-0.0028107533766984732,-0.0017875040984520333
1765408935.993023,-9.972005030161052,-0.034132644493070054,0.29959165480222116,-0.007640972420424573,-0.002952509137606868,-0.001933146980362595
1765408935.995043,-9.971048707223988,-0.03356688040107109,0.30194999486270296,-0.0076742636925436,-0.0030755600496203545,-0.002067758727800028
1765408935.997137,-9.970109070148643,-0.032868804422655495,0.3047775434697073,-0.007714277178812241,-0.003181972624365321,-0.002189032573077579
1765408936.000117,-9.969210917856945,-0.0320506368747298,0.30799893726996885,-0.0077599344407717555,-0.0032741883226650842,-0.0022952240236441897
1765408936.00211,-9.968372086229426,-0.03113342590431804,0.31152790121439383,-0.007810260595745158,-0.003354864445645316,-0.0023851694424729133
1765408936.005139,-9.967600920232227,-0.030146781395144078,0.31526886544245913,-0.00786438150664377,-0.003426735265034229,-0.0024582862542371947
1765408936.008123,-9.96689425165159,-0.029127579753122027,0.31911914111003636,-0.00792148537556059,-0.0034924979181793284,-0.0025145604316366373
1765408936.011073,-9.966236473466395,-0.028117699461378168,0.32297185413061436,-0.007980764402373167,-0.0035547233405294437,-0.0025545251161444597
1765408936.013107,-9.965600037714363,-0.02716114890653535,0.32671964228501305,-0.008041355697368474,-0.0036157850196856965,-0.0025792291469547302
1765408936.016817,-9.964947190661134,-0.02630115013441234,0.3302587355073563,-0.00810230034454545,-0.0036777938267659118,-0.0025901898308574815
1765408936.017081,-9.964232382332403,-0.025577711367982103,0.3334928586823074,-0.00816253557593057,-0.003742529648015601,-0.002589324417284966
1765408936.020159,-9.963404829578675,-0.0250259693950523,0.3363366067397525,-0.008220928058459948,-0.003811365598203724,-0.002578859242078673
1765408936.021133,-9.96241097083499,-0.024675253970287702,0.3387181764162039,-0.008276347468862126,-0.0038851818059345757,-0.002561221416993243
1765408936.025143,-9.961196685242227,-0.024548581267436118,0.340581256539262,-0.008327771057157611,-0.0039642647355781,-0.0025389225084460963
1765408936.028099,-9.959709179360207,-0.02466221493826738,0.3418857335814769,-0.008374404730485287,-0.004048192300753397,-0.0025144451536578023
1765408936.028599,-9.9578986231685,-0.025025055316366326,0.3426071288563165,-0.008415805600709952,-0.004135716864601039,-0.0024901420534116083
1765408936.033084,-9.955719919492367,-0.02563785545258618,0.34273526710101576,-0.008451992696545015,-0.004224670497673564,-0.00246815433988052
1765408936.035087,-9.953135077085303,-0.026492466859390433,0.34227300599065175,-0.008483533257419577,-0.004311920880424352,-0.0024503544847646894
1765408936.037146,-9.950116384378138,-0.027571366389724117,0.3412356578877747,-0.008511591364633989,-0.004393400278437446,-0.0024383164059677367
1765408936.040058,-9.946650236073724,-0.028847621670074763,0.3396513414277968,-0.008537926452969254,-0.004464218536635699,-0.002433310793087421
1765408936.041086,-9.942741311829584,-0.030285334222400193,0.33756224525168266,-0.008564833330582085,-0.004518857973032256,-0.0024363186988358384
1765408936.045081,-9.938416703143783,-0.03184054858057919,0.3350265601667453,-0.008595021326924935,-0.004551435526549996,-0.0024480540151184025
1765408936.048106,-9.933729328390719,-0.03346261703935795,0.33212047930267863,-0.008631435834225635,-0.004556009957509158,-0.002468985813029621
1765408936.050099,-9.928759754559627,-0.035095995410020384,0.3289393894553765,-0.00867703038560633,-0.004526913704731083,-0.002499353303908745
1765408936.053082,-9.923615694417926,-0.036682401863421935,0.32559747208973244,-0.008734502439203559,-0.004459096336984338,-0.002539168964435223
1765408936.053582,-9.918428935245277,-0.03816324640660106,0.3222253162434405,-0.008806011855854995,-0.004348469333701738,-0.0025882092624600127
1765408936.058086,-9.91334992397867,-0.03948224616408303,0.3189654932700933,-0.008892907317336246,-0.004192236609207509,-0.0026459966006909023
1765408936.060012,-9.908540480673086,-0.0405881268312856,0.31596623758954884,-0.008995490683408873,-0.003989188693890754,-0.0027117793348795105
1765408936.061078,-9.90416524247828,-0.04143724176992197,0.3133735703081154,-0.009112849728115298,-0.003739937779944911,-0.0027845186848137614
1765408936.065017,-9.90038259016421,-0.041995871799110844,0.3113224930919474,-0.00924278488821943,-0.0034470744999978865,-0.0028628924320688444
1765408936.068087,-9.897335935961317,-0.042241973088741905,0.30992814961281395,-0.009381846735190645,-0.0031152301140629493,-0.0029453253234852264
1765408936.071072,-9.895146224965254,-0.042166216573838664,0.30927792992929665,-0.00952548872798148,-0.00275102924416819,-0.003030053629356051
1765408936.073069,-9.893906278462023,-0.04177224935271347,0.30942534057416005,-0.009668326179482725,-0.0023629226084546785,-0.00311522454684436
1765408936.075061,-9.893677265668417,-0.04107617275134588,0.3103861683895717,-0.009804481754959881,-0.0019608986889855943,-0.003199020729319832
1765408936.077065,-9.894487248566278,-0.04010530058989547,0.3121371409552425,-0.009927993089905622,-0.0015560852957654018,-0.0032797910422187903
1765408936.078093,-9.896331468195049,-0.038896357510532206,0.314616988608129,-0.0100332565258251,-0.0011602618636293936,-0.0033561666794623586
1765408936.082084,-9.899173839282195,-0.03749335225474495,0.3177295509597007,-0.01011547845790709,-0.0007853090287354396,-0.0034271481325075927
1765408936.085048,-9.902949031331536,-0.03594534123308595,0.32134840045758845,-0.01017110190362685,-0.00044262643857668815,-0.003492158024330312
1765408936.088066,-9.907564632374932,-0.034304195362641995,0.32532250140958,-0.010198171839832942,-0.00014255623367045127,-0.0035510614613330814
1765408936.090069,-9.912903226167185,-0.03262240371098605,0.32948267316989405,-0.010196599308095224,0.00010614435036009097,-0.003604157656371223
1765408936.092071,-9.918824578574455,-0.030950969462579185,0.3336488188682673,-0.010168283517331223,0.0002967383088745823,-0.0036521459933236424
1765408936.093053,-9.925168316912695,-0.02933753916622473,0.33763780661957893,-0.010117057520520185,0.0004248170686906877,-0.0036960684589657437
1765408936.098099,-9.931757504613024,-0.0278249527472425,0.3412716785404572,-0.010048439271547648,0.0004884571430554395,-0.003737230263552665
1765408936.100092,-9.938403466312055,-0.02645034608418778,0.34438573316483195,-0.009969194513376608,0.0004882122716503713,-0.003777103339093237
1765408936.103058,-9.94491203525011,-0.02524479762028502,0.34683593056524503,-0.009886746331538498,0.0004269437414269622,-0.00381722259457993
1765408936.103558,-9.95109097037186,-0.024233361719472744,0.3485048940674778,-0.009808492140504802,0.00030951223152222366,-0.0038590880188563506
1765408936.107069,-9.956757854498628,-0.02343525620860058,0.34930574949753646,-0.009741105703602081,0.00014237307381339143,-0.003904083011617318
1765408936.11016,-9.96174776210777,-0.022864002143809948,0.34918349017128497,-0.009689904797327223,-6.687485628873001e-05,-0.003953411839374863
1765408936.113097,-9.965920402193785,-0.02252741080287526,0.34811433755688875,-0.009658354522887417,-0.00030993898761340604,-0.0040080529182335975
1765408936.115123,-9.96916680738809,-0.02242738701580062,0.3461040723381685,-0.00964775704106051,-0.0005782423075914245,-0.004068725312182023
1765408936.116147,-9.971415548944758,-0.022559497589868593,0.3431861725321638,-0.009657156845959289,-0.0008632629677779924,-0.004135872022440524
1765408936.118106,-9.972638047473586,-0.0229121756036603,0.3394200803041453,-0.009683470568084383,-0.0011567878401981153,-0.004209667303232202
1765408936.123073,-9.972852244906306,-0.023465448531095476,0.33488950536451745,-0.00972183238636391,-0.001451078580907378,-0.00429005103692004
1765408936.125051,-9.972123907001894,-0.024189310755334797,0.32970051845707554,-0.009766128473462516,-0.0017389611730041442,-0.0043767844342411195
1765408936.127085,-9.970565026250409,-0.02504223462886074,0.32397916478987954,-0.009809674282435293,-0.002013854624347648,-0.004469513992882859
1765408936.128139,-9.968329048693619,-0.025970591333879984,0.31786836277388597,-0.009845968044270669,-0.0022697536178383736,-0.004567826745238586
1765408936.133155,-9.965602968773132,-0.026909730959171353,0.3115240061712685,-0.009869438483732678,-0.0025011812090499773,-0.004671279771283259
1765408936.135075,-9.962596786127165,-0.027787127084482038,0.3051104555290885,-0.009876101504909373,-0.0027031348096459404,-0.004779393045146552
1765408936.137069,-9.959531319649857,-0.028527457055868136,0.29879585813414905,-0.009864051631454358,-0.0028710565040558906,-0.004891607195241932
1765408936.140032,-9.956625703310646,-0.02905895803250168,0.2927478219606654,-0.00983373515536514,-0.003000859383151418,-0.005007220614563293
1765408936.14212,-9.954085858132995,-0.02932006183239224,0.28712980653314896,-0.009787977566033739,-0.003089033402102696,-0.00512532568759023
1765408936.145116,-9.952094884814425,-0.02926529279724003,0.28209824899126784,-0.009731764678568792,-0.003132841404692434,-0.0052447604316458625
1765408936.147063,-9.95080591208575,-0.028869683829836547,0.27780015315691553,-0.009671803130633911,-0.0031306006260011085,-0.005364085518653047
1765408936.150134,-9.950337686151196,-0.028131351335681225,0.2743708366375867,-0.009615909247031791,-0.0030820262300589713,-0.00548159306204708
1765408936.151043,-9.95077301316316,-0.027072188653228052,0.2719316567631548,-0.009572292743263315,-0.0029885941396031682,-0.00559535247785996
1765408936.155064,-9.952159806800502,-0.025736831279904962,0.2705875163635101,-0.009548810423619785,-0.002853869088202715,-0.005703295994620126
1765408936.157105,-9.954513924469556,-0.024190167656080282,0.2704237139778451,-0.009552263489899229,-0.0026837458710757566,-0.005803339624513411
1765408936.160055,-9.957822554774,-0.022513769837151577,0.27150158882972114,-0.009587801705210234,-0.0024865623974037773,-0.005893527384590041
1765408936.163073,-9.962046992045135,-0.02080168648688782,0.2738527697502568,-0.009658482158162405,-0.002273052664674686,-0.005972182664158704
1765408936.165159,-9.967124125398307,-0.019156019487639255,0.2774725402714334,-0.009765013690203966,-0.0020561133539894077,-0.006038052998273526
1765408936.16714,-9.972966502241409,-0.01768254430522008,0.28231336557886877,-0.00990570216130843,-0.0018503668593029133,-0.006090439688080666
1765408936.170146,-9.979461192352465,-0.01648634389525957,0.2882797024215691,-0.0100765965263537,-0.0016715239849908888,-0.006129306235483189
1765408936.172071,-9.986467998784518,-0.015667140482064777,0.2952250493070001,-0.010271820910112731,-0.0015355784656244816,-0.006155356577710313
1765408936.175077,-9.99381794398803,-0.015313959244062748,0.3029520849889839,-0.01048406377884225,-0.0014578917026695345,-0.006170067590192038
1765408936.177148,-10.001313237292111,-0.015499094398631051,0.31121663093016605,-0.010705181717863162,-0.001452241252951592,-0.006175656317020455
1765408936.180079,-10.008729870430384,-0.01627196394859369,0.31973586103699003,-0.01092686176705008,-0.0015299109736374489,-0.006174966986008914
1765408936.182123,-10.015823597403596,-0.01765398344853748,0.32820071265328604,-0.011141274251487105,-0.001698899320645915,-0.006171277338941244
1765408936.185089,-10.022339515531211,-0.019635702739902484,0.33629200463870224,-0.011341642658201735,-0.0019633169234461447,-0.006168043175907611
1765408936.18706,-10.02802485423256,-0.022177026267429373,0.3436993107845466,-0.011522664103943852,-0.0023230316696461664,-0.006168615833286636
1765408936.190083,-10.032643852003854,-0.025210578362868604,0.35014098891691653,-0.011680734029098515,-0.002773596337191205,-0.0061759726199092
1765408936.192149,-10.035992873300323,-0.028647518005716098,0.35538302709445796,-0.01181395695106553,-0.003306463896403681,-0.0061924941092725335
1765408936.195081,-10.037913554525595,-0.03238461850789042,0.3592540425548768,-0.011921955845752234,-0.0039094658084233985,-0.0062198099570566065
1765408936.198123,-10.038302061289576,-0.03631130394078508,0.3616542784842228,-0.01200552216533137,-0.00456750292267943,-0.0062587229201374606
1765408936.200154,-10.037113355013117,-0.04031553126963969,0.3625576309809552,-0.01206617246414529,-0.00526337839656966,-0.006309211359081255
1765408936.20214,-10.03436028366948,-0.044287822497296556,0.36200702692750064,-0.012105691568724895,-0.005978691010122669,-0.006370502339830462
1765408936.204112,-10.030108038122426,-0.048123296375141844,0.3601044188540472,-0.012125743272723885,-0.006694710920758839,-0.006441198916958077
1765408936.208107,-10.024465051180679,-0.0517221421181346,0.3569971794452675,-0.012127616109322318,-0.00739317901360222,-0.006519436968003747
1765408936.210175,-10.01757182132754,-0.054989479154124776,0.3528628444677026,-0.012112143915618984,-0.008056995824017841,-0.006603042342959202
