time,acc_x_g,acc_y_g,acc_z_g,gyro_x_rad_s,gyro_y_rad_s,gyro_z_rad_s
1765409879.460158,-7.97936610410772,-4.1499983690113655,-3.9855014272453366,-0.006109221406589983,-0.003551193954165586,0.0007491020293432333
1765409879.460358,-8.021721342670439,-4.131167141632173,-3.9552006781682447,-0.006858091120810576,-0.00436807948735027,9.76342940173595e-05
1765409879.460558,-8.063780240737488,-4.1133037952111,-3.9272100197306474,-0.007716338854918727,-0.005197296133740824,-0.0005893154399490052
1765409879.460758,-8.10612766225963,-4.09753342567709,-3.902875945354556,-0.00870382747439855,-0.0060236307217614695,-0.0013509850046622203
1765409879.460905,-8.149261803425969,-4.085070580010163,-3.883456140809097,-0.009829073938000872,-0.006828187929539984,-0.0022250935643194996
1765409879.461155,-8.193553997329536,-4.077183090598525,-3.870058622486137,-0.011087014182889666,-0.007588624910224014,-0.0032457957814191205
1765409879.461405,-8.239221140514609,-4.075145769283041,-3.863586701926772,-0.01245739537965823,-0.008279638540636552,-0.00444175618939938
1765409879.461655,-8.286313584109926,-4.080184653368138,-3.8646916534553735,-0.013903937579228365,-0.008873737339842726,-0.005834424303278797
1765409879.461856,-8.334719929408465,-4.093413586245096,-3.8737346735417475,-0.01537438299472149,-0.009342314762797382,-0.007436572080004323
1765409879.462106,-8.384188079706044,-4.115766304211094,-3.890760033089945,-0.01680151548244218,-0.00965701663746699,-0.00925113795019094
1765409879.462356,-8.43435974948863,-4.147928799909927,-3.9154816435868143,-0.018105177014130575,-0.009791367537457402,-0.011270411632998521
1765409879.462606,-8.484813940192984,-4.190278164937253,-3.947285156502091,-0.01919523065690515,-0.009722588509042472,-0.013475593630078874
1765409879.462898,-8.53511381216764,-4.242834779652376,-3.985247175032689,-0.019975330759366056,-0.009433504918093775,-0.01583676811025826
1765409879.463148,-8.584851075174647,-4.3052341229776925,-4.028172167746055,-0.02034727726325102,-0.008914419530930232,-0.018313325751574013
1765409879.463398,-8.63368272653015,-4.37672263117789,-4.074646148569514,-0.020215665460317746,-0.00816481987866058,-0.020854852553177098
1765409879.463648,-8.681356541833061,-4.456179569068027,-4.123104360455638,-0.01949250130873798,-0.007194794449123049,-0.023402462541418454
1765409879.463875,-8.727723562654786,-4.542164589957657,-4.171908641868451,-0.018101440185243546,-0.006026040598494822,-0.025890511534114754
1765409879.464125,-8.772737479234014,-4.632988855196092,-4.219429215993685,-0.015981328584541602,-0.0046923613881417,-0.028248602992346463
1765409879.464375,-8.816442280077036,-4.726805914560793,-4.2641252547427095,-0.013088783631583185,-0.003239577138021813,-0.030403791822695328
1765409879.464625,-8.858950800902603,-4.821716624173981,-4.304618735148658,-0.009399626738147397,-0.0017248180637052149,-0.032282899819549696
1765409879.464854,-8.900417489114638,-4.915880413560072,-4.339757037552405,-0.004909084258370651,-0.00021520570533011584,-0.0338148634760308
1765409879.465104,-8.941008668099416,-5.007623901749838,-4.368661249225707,0.0003692316720382649,0.0012140326448361464,-0.03493303496143271
1765409879.465354,-8.980873320716169,-5.0955376311433485,-4.390758467107328,0.006405455316297201,0.0024819381126269147,-0.03557735662964402
1765409879.465604,-9.020117368434134,-5.1785523432312175,-4.405797051670782,0.013156526049691863,0.0035045732965465416,-0.03569633632170526
1765409879.465841,-9.058784303662963,-5.2559874751938915,-4.413844210063326,0.020569922647325396,0.004198022265546695,-0.03524876152361876
1765409879.466091,-9.096844247632397,-5.3275665964592624,-4.415266157436261,0.028587771516893585,0.004481493207887104,-0.0342050975205408
1765409879.466341,-9.134192113340507,-5.393397656205179,-4.410692354794054,0.03715099357597712,0.004280370079977707,-0.03254852142422247
1765409879.466591,-9.17065417750121,-5.453919889008343,-4.400966401272165,0.04620314764186982,0.0035290515027989445,-0.030275557270025646
1765409879.466858,-9.206001367491476,-5.50982307325795,-4.387086917455975,0.05569365760293338,0.002173417183951837,-0.027396286910362944
1765409879.467108,-9.23996688553609,-5.56194765669341,-4.370142370134932,0.0655801765678483,0.0001727817423875539,-0.023934100316676532
1765409879.467358,-9.272265487714721,-5.611175748873225,-4.351244065530799,0.07582993314554237,-0.002498770684002472,-0.01992492943940206
1765409879.467608,-9.302612057586584,-5.658323262291312,-4.331461109922045,0.08642000723177931,-0.005851738443647625,-0.01541591832890303
1765409879.467868,-9.3307378998924,-5.704042784293016,-4.31176035916815,0.09733658040979393,-0.009881268234100528,-0.010463532238660186
1765409879.468068,-9.356403805368618,-5.748745358891436,-4.292954183638126,0.1085732887883696,-0.014567924829441706,-0.005131176634624961
1765409879.468268,-9.37940910915521,-5.792547569690058,-4.275659417290198,0.12012887013555834,-0.019879121965939727,0.0005135436280787053
1765409879.468468,-9.39959605549061,-5.835248224851323,-4.26027109635056,0.13200434532880848,-0.025771134735402986,0.006401753971161904
1765409879.468668,-9.416849137020925,-5.876336333126569,-4.246953675843391,0.14420000672489316,-0.032191562420277466,0.0124662370474502
1765409879.468878,-9.431089528290496,-5.915028892132483,-4.235650732261537,0.15671249408959864,-0.03908205664014967,0.018644167223451212
1765409879.469211,-9.442265096260792,-5.950333890310703,-4.226112452456641,0.1695322150027568,-0.046381102940435855,0.024879486206524564
1765409879.469545,-9.450336980807329,-5.981131774094863,-4.21793843768205,0.18264131987205698,-0.05402665622541128,0.031124791020334695
1765409879.469821,-9.455264568844118,-6.006267814095344,-4.210631287932713,0.196012387370264,-0.061958462027214285,0.03734264615917147
1765409879.470071,-9.456991459583962,-6.024647802095669,-4.203654689727716,0.2096079175960263,-0.07011992728685716,0.04350626805044412
1765409879.470321,-9.455435154112912,-6.035329689664668,-4.19648933402671,0.22338066326934652,-0.07845944030878409,0.04959956571206311
1765409879.470571,-9.450482514665728,-6.037604177070773,-4.188681162793978,0.23727475932216485,-0.0869310897154346,0.05561656570613533
1765409879.470898,-9.441991859877128,-6.0310582995092,-4.179878392833019,0.251227550429824,-0.095494791538437,0.06156029862022759
1765409879.471148,-9.42980141217002,-6.015617728347667,-4.169855547229457,0.2651719689432445,-0.1041158876385082,0.06744126109916991
1765409879.471398,-9.413742957587631,-5.991565278714732,-4.158524036542358,0.2790392812305406,-0.1127643183095494,0.07327558306619066
1765409879.471648,-9.393658938458028,-5.95953461565304,-4.14592995317336,0.2927620003085823,-0.1214134971432324,0.07908303404321727
1765409879.471895,-9.369420709605683,-5.9204795616195804,-4.132240817923628,0.30627676029446077,-0.1300390286400972,0.08488500670025949
1765409879.472145,-9.340945467859381,-5.875621070406102,-4.117723811347262,0.31952696390051,-0.13861740656045501,0.09070261652778004
1765409879.472395,-9.30820952117024,-5.826375731372207,-4.102718365860145,0.3324650420790237,-0.14712481237379546,0.09655504119372167
1765409879.472645,-9.27125612865662,-5.774271022110903,-4.087605950396897,0.34505419554486494,-0.1555361022802964,0.10245818730315433
1765409879.472904,-9.230197084615632,-5.720853056417754,-4.072779599473251,0.3572695167696679,-0.1638240364568207,0.10842372891869059
1765409879.473237,-9.185208313360373,-5.667592548168187,-4.058615484457835,0.3690984206438305,-0.171958775953947,0.11445852916060714
1765409879.473571,-9.13652059412839,-5.6157946021724054,-4.04544870276468,0.3805403457882987,-0.17990765417690888,0.12056443786478949
1765409879.473912,-9.084406879590802,-5.566517789124504,-4.033555105993247,0.39160572943297944,-0.18763521227362695,0.1267384482972835
1765409879.474162,-9.029167636556306,-5.520507506277337,-4.0231400109237985,0.40231430785116956,-0.19510346830032696,0.13297318956496817
1765409879.474412,-8.971115654437865,-5.47814783300807,-4.014333263924688,0.41269284532914297,-0.2022723822775544,0.13925772581921217
1765409879.474662,-8.91056202751749,-5.439435231434107,-4.007189142119094,0.42277243853733354,-0.2091004912894443,0.14557862563246154
1765409879.474982,-8.847805172510283,-5.403976746867481,-4.0016895704709015,0.43258557605697456,-0.2155457075550459,0.15192125250845986
1765409879.475232,-8.783124428726605,-5.371014667398585,-3.9977497858809286,0.44216315295429914,-0.2215662780023004,0.15827120519417678
1765409879.475482,-8.716779121400474,-5.339478336673665,-3.995226022644904,0.45153164493876047,-0.2271218897886913,0.16461580053592495
1765409879.475732,-8.649013273974345,-5.308061509205548,-3.99392479062863,0.46071063524674866,-0.23217488530981573,0.17094545319962237
1765409879.475979,-8.580065599526678,-5.275320602592984,-3.9936132562524813,0.4697108627560174,-0.23669154133522702,0.17725479206996336
1765409879.476312,-8.510183974291039,-5.239786568249424,-3.994030220790833,0.478532927155654,-0.24064337265508673,0.18354338300262946
1765409879.476646,-8.439643156062383,-5.200081906958796,-3.994897115804834,0.48716675041758023,-0.2440084257532633,0.18981599322514484
1765409879.476924,-8.368763986266854,-5.155034533310244,-3.995928466040003,0.49559185154054947,-0.24677252025420646,0.19608239740790284
1765409879.477174,-8.297931901287143,-5.103780751583735,-3.996841480548324,0.5037784395097701,-0.24893037802129495,0.20235675577356324
1765409879.477424,-8.227612479592285,-5.045849820301537,-3.997364562679583,0.5116892699707329,-0.25048656053020985,0.20865659268206932
1765409879.477674,-8.158361862565497,-4.981222700515061,-3.9972444542279524,0.5192821540432355,-0.2514561166379598,0.21500140475865834
1765409879.477931,-8.090829976034016,-4.910358397675423,-3.9962516978819043,0.5265129629787405,-0.2518648249149526,0.22141096230618323
1765409879.478181,-8.02575456462895,-4.834183441639841,-3.9941843768854963,0.5333389403041983,-0.25174890902748687,0.22790343239861627
1765409879.478431,-7.963944465864535,-4.754043552800842,-3.9908705631588512,0.5397221043880751,-0.2511541295886178,0.23449351123574583
1765409879.478681,-7.906251612782712,-4.671620791348837,-3.9861701758446797,0.5456324970516849,-0.2501342158636887,0.2411907757367338
1765409879.478919,-7.853532912429644,-4.588823477449683,-3.9799767553400986,0.5510510228917417,-0.24874868415234805,0.24799844699957752
1765409879.479252,-7.806605003660447,-4.507659053406081,-3.972219059287317,0.5559716441669066,-0.24706017833107288,0.25491271384299985
1765409879.479586,-7.766196448845362,-4.430101478380628,-3.962861652669775,0.5604027459415551,-0.24513153986677663,0.2619227013861197
1765409879.479986,-7.732902745450006,-4.357964797099405,-3.951903157415111,0.5643675542420294,-0.2430228543337702,0.26901109132209244
1765409879.480236,-7.707149535446157,-4.292793418796438,-3.939370826891365,0.567903564444642,-0.240788728786792,0.27615531383740216
1765409879.480486,-7.68916870961317,-4.235777425272049,-3.9253105755845428,0.5710610096991157,-0.23847603132586628,0.28332915001340264
1765409879.480736,-7.678990774861409,-4.187697975543309,-3.9097723545350305,0.5739004678109547,-0.23612227261383492,0.2905045303695031
1765409879.480983,-7.676454660266516,-4.14890414653623,-3.8927918060383035,0.5764897673780892,-0.23375474462138393,0.29765330771010945
1765409879.481316,-7.681233227587252,-4.119319231850809,-3.874370442720336,0.578900402023877,-0.23139047553287379,0.3047488179033426
1765409879.48165,-7.69286995635096,-4.098472111109113,-3.854457974584492,0.5812036900084562,-0.2290370159458732,0.3117671020791272
1765409879.481913,-7.710820617611487,-4.085547707512397,-3.832941381283989,0.5834669278695601,-0.22669402680095616,0.31868773032096875
1765409879.482163,-7.734493716047931,-4.079449686606318,-3.8096451209712785,0.5857497846221752,-0.22435557508128795,0.32549423127454913
1765409879.482413,-7.763284647676892,-4.0788686256584405,-3.7843450080205217,0.5881011669461331,-0.2220129527015587,0.3321741896177915
1765409879.482663,-7.7965999921298685,-4.082349943015506,-3.756795423030655,0.5905567501477008,-0.21965774024560278,0.3387191165030352
1765409879.482999,-7.833869634285071,-4.0883575790302,-3.726767073246802,0.5931373090789461,-0.21728478180608837,0.34512421739005616
1765409879.483249,-7.874545691929221,-4.095331464596172,-3.694091400952636,0.5958479051552187,-0.2148947436473012,0.3513881739690489
1765409879.483499,-7.918088944250661,-4.101739062648375,-3.6587075132767857,0.5986779139392872,-0.21249598665921274,0.3575130269684929
1765409879.483749,-7.963945689535325,-4.1061232422193195,-3.6207071306499494,0.6016018359533148,-0.2101055652592843,0.36350420089183294
1765409879.483968,-8.011520191138755,-4.107149521810855,-3.5803722565636398,0.6045808235254058,-0.2077492603524175,0.3693706563212657
1765409879.484301,-8.060149234024374,-4.103654731752851,-3.538199825552348,0.607564858517464,-0.20546065796740923,0.3751251024039907
1765409879.484635,-8.109085160902316,-4.094696921767674,-3.494908317779678,0.6104955099548487,-0.20327938626036673,0.3807841702765298
1765409879.48488,-8.157492066703202,-4.0796042213821515,-3.4514234085922664,0.6133091819548748,-0.20124870425297117,0.3863684482971384
1765409879.48513,-8.204457315623502,-4.058019356911626,-3.4088424849270327,0.6159407320566488,-0.1994126888929977,0.391902298840744
1765409879.48538,-8.249018243126274,-4.029936431059541,-3.36838019280689,0.6183273013673428,-0.1978132920486831,0.39741338934976383
1765409879.48563,-8.29020229397798,-3.9957263662132965,-3.331298708274444,0.6204121627313736,-0.1964875335291429,0.4029318725422862
1765409879.48594,-8.327077581549293,-3.956146618678676,-3.2988278216413236,0.6221483724366718,-0.19546506096107674,0.40848916330306895
1765409879.48619,-8.358809543929112,-3.9123301345633363,-3.2720814951629,0.6235020049723445,-0.19476624773121975,0.4141163068938959
1765409879.48644,-8.384718163030062,-3.8657492265877984,-3.2519785633913583,0.6244547593743999,-0.19440092851616642,0.4198420184374326
1765409879.48669,-8.404329561831851,-3.818152432248857,-3.2391749753704717,0.6250057536999573,-0.19436780908490847,0.42569056902288743
1765409879.486989,-8.417416071302137,-3.7714757283975855,-3.2340135237506322,0.6251723681279743,-0.19465454324313156,0.4316797547453815
1765409879.487322,-8.424020075361186,-3.7277328757422494,-3.236495039842085,0.6249900502581048,-0.19523843370595712,0.43781918865626496
1765409879.487656,-8.42445882667505,-3.6888927026717386,-3.24627306237516,0.6245110553252029,-0.196087675116646,0.44410911099394734
1765409879.487898,-8.419309758480313,-3.6567532848129525,-3.2626717988988982,0.6238021582322597,-0.1971630188126421,0.45053983848657814
1765409879.488148,-8.409378326730002,-3.6328235306493,-3.284724558910209,0.6229414436302999,-0.1984197063823913,0.45709188941510404
1765409879.488398,-8.395652487373079,-3.618221506982175,-3.3112275204162898,0.6220143502240955,-0.1998095054523548,0.46373675277485293
1765409879.488648,-8.379248993367884,-3.6135966184688857,-3.3408027366081225,0.621109201961443,-0.20128270195276804,0.4704382323738132
1765409879.488907,-8.361356791581052,-3.6190803438240935,-3.371964669577678,0.6203124930084715,-0.20278995248408313,0.4771542851095655
1765409879.48924,-8.343182236099798,-3.6342680631905417,-3.403185476131517,0.6197042117119149,-0.2042839504001085,0.4838392711821979
1765409879.489574,-8.325899855831315,-3.65823261569734,-3.4329552597791286,0.6193534949517784,-0.2057208893551065,0.49044652648005777
1765409879.489932,-8.31061114362494,-3.6895685366225273,-3.459834535555947,0.6193148882133588,-0.2070617230267379,0.49693114585409304
1765409879.490182,-8.29831239126333,-3.726464499779058,-3.4824974334661425,0.6196254397343874,-0.20827323457578173,0.503252835897319
1765409879.490432,-8.289871200198467,-3.7668003493421494,-3.499765663396784,0.6203027886185773,-0.2093289442810039,0.5093786673484422
1765409879.490682,-8.286010233141145,-3.8082639447411024,-3.5106345120718014,0.6213443367500456,-0.21020988458594952,0.5152855336023868
1765409879.490879,-8.287296230427632,-3.848481491850473,-3.5142926887962047,0.6227275318946045,-0.21090525419571227,0.5209621048591687
1765409879.491129,-8.294132358426069,-3.8851532459808706,-3.5101376783240275,0.6244112291875582,-0.21141293745450146,0.5264100714103306
1765409879.491379,-8.306752441840432,-3.916185247796652,-3.497787738959753,0.6263380390825715,-0.211739848877473,0.5316445150009865
1765409879.491629,-8.32521619022109,-3.939807878343954,-3.477091265005094,0.6284375218596987,-0.211902034630773,0.5366933342353107
1765409879.49186,-8.349405014028699,-3.9546734714990386,-3.44813408181724,0.630630056664988,-0.21192443740407765,0.5415957498697009
1765409879.492193,-8.379018761642845,-3.9599272645306423,-3.411244889458074,0.6328311889903921,-0.21184021888528304,0.5463999995388357
1765409879.492527,-8.413574767070868,-3.9552479646401735,-3.3669980863341684,0.6349562370452837,-0.21168954331193082,0.5511603939101267
1765409879.492891,-8.452411324463737,-3.9408559954638624,-3.316212009440198,0.6369249143230226,-0.2115177617441099,0.5559339541027096
1765409879.493141,-8.49469756715709,-3.917489147815813,-3.2599399567409812,0.6386657085933554,-0.21137300161467756,0.5607768838075529
1765409879.493391,-8.539451041371775,-3.886347084091874,-3.199451373211008,0.6401197583744174,-0.211303253762402,0.5657411451531968
1765409879.493641,-8.58556360820338,-3.8490081107831546,-3.136201085713252,0.6412439951524985,-0.21135314290780174,0.5708714016368859
1765409879.493907,-8.631835771671394,-3.8073238020318025,-3.0717854667565874,0.6420133681923926,-0.21156064417125703,0.576202561203823
1765409879.494157,-8.677018892852569,-3.7632992479190994,-3.0078859542169867,0.6424220279853491,-0.2119540520483019,0.5817580974210377
1765409879.494407,-8.719863963489745,-3.718968653357918,-2.946202105518852,0.642483409016761,-0.21254951626594282,0.5875492473574843
1765409879.494657,-8.759174766305417,-3.6762770724660685,-2.8883777592203446,0.6422292207148284,-0.21334942755884978,0.5935750813482314
1765409879.494907,-8.793862410239408,-3.6369782210753723,-2.835924804330814,0.6417074217067581,-0.21434186405451006,0.5998233235504887
1765409879.49524,-8.822997668939468,-3.602555147171157,-2.790149772652871,0.6409793082140386,-0.21550121239139033,0.6062717052899269
1765409879.495574,-8.8458576698385,-3.5741659684709526,-2.7520889225675886,0.6401158903112919,-0.21678997279675472,0.6128895963005219
1765409879.495904,-8.861964182922987,-3.5526126151646693,-2.7224572996635765,0.6391937665061769,-0.21816163480006784,0.6196397030300701
1765409879.496154,-8.87111149368847,-3.538327931970499,-2.7016160748146945,0.6382907368561955,-0.21956436872597115,0.6264797276524003
1765409879.496404,-8.87338235158072,-3.531376146679539,-2.6895601437082433,0.6374814034451178,-0.22094516130019223,0.6333639922764908
1765409879.496654,-8.869150817679298,-3.5314632960908448,-2.685925245712798,0.6368329883119977,-0.22225398565896567,0.6402450979245186
1765409879.496953,-8.859071019154232,-3.5379565369648955,-2.690012173038088,0.6364015666155155,-0.22344764283017735,0.647075686331494
1765409879.497286,-8.844051130844342,-3.549912755037193,-2.7008254726706395,0.6362288872146946,-0.2244929998053309,0.6538103228085248
1765409879.49762,-8.825212812479316,-3.5661167767921063,-2.7171243248444013,0.6363399435731742,-0.22536943123298064,0.6604074658055051
1765409879.497891,-8.803837724041133,-3.5851287645133363,-2.737483087152773,0.6367414519027477,-0.2260703309890567,0.6668314688768442
1765409879.498141,-8.781303967883845,-3.60534068309117,-2.7603584974230087,0.6374213630915523,-0.22660360914544647,0.673054562778456
1765409879.498391,-8.75901600948655,-3.6250433561499205,-2.7841602285778535,0.6383494709640342,-0.2269911500636894,0.6790587453182947
1765409879.498641,-8.738332005697357,-3.6425069049333567,-2.8073215886548692,0.6394791024739722,-0.22726728694271894,0.6848374373419762
1765409879.498928,-8.720492849330347,-3.6560761553938192,-2.8283674539906056,0.6407498071435987,-0.2274764318297304,0.6903966672465
1765409879.499178,-8.706557666503123,-3.664278317867215,-2.845976559410201,0.6420909055435416,-0.22767006018800218,0.6957554845077265
1765409879.499428,-8.697350590216223,-3.665934482244391,-2.859035056906633,0.6434257031589338,-0.22790327520465026,0.7009453330715464
1765409879.499678,-8.693422837368265,-3.6602619511651793,-2.8666784913376024,0.6446761262659656,-0.2282311845544024,0.7060082535348029
1765409879.499959,-8.695032232588654,-3.6469533218968104,-2.8683205667807488,0.6457674991688279,-0.22870532797703644,0.7109939893979758
1765409879.500292,-8.702139784174019,-3.6262209257835605,-2.8636689946422034,0.6466331656958642,-0.22937039412147425,0.7159562712800479
1765409879.500626,-8.714420750451211,-3.5988002424979073,-2.852730318294362,0.6472186623398065,-0.230261439981554,0.7209486734335195
1765409879.501015,-8.731286886289105,-3.565911005428724,-2.835805834634674,0.6474851736605076,-0.23140176410211483,0.726020459230704
1765409879.501265,-8.75191745746332,-3.5291786563352128,-2.813479324767205,0.6474120408370887,-0.23280150358578575,0.7312127884220614
1765409879.501515,-8.775298285139478,-3.4905218973886734,-2.7865951654749908,0.6469981448288697,-0.23445696095175989,0.7365555883478502
1765409879.501765,-8.800269076466781,-3.452015151677965,-2.756224092516755,0.6462620445287385,-0.23635063877198298,0.7420653089662634
1765409879.501938,-8.82557860942827,-3.415737730227139,-2.7236146300257356,0.6452408292940989,-0.23845195816777334,0.7477436854781652
1765409879.502188,-8.849945475598814,-3.38362323539062,-2.6901307256280726,0.6439877493717735,-0.24071864072441165,0.7535775261552491
1765409879.502438,-8.872120684605814,-3.3573220167389386,-2.6571789687702574,0.6425687996821476,-0.24309872176405906,0.7595394503732322
1765409879.502688,-8.89094838047895,-3.338086506199511,-2.626130901162916,0.6410585282692802,-0.2455331233776078,0.7655894540344934
1765409879.502914,-8.905421561585444,-3.326685639371337,-2.5982471711487767,0.6395354032254539,-0.2479586525191276,0.7716771820373753
1765409879.503247,-8.914730258827257,-3.323351938992348,-2.5746102007673075,0.6380770879845372,-0.2503112264777701,0.7777448084282341
1765409879.503581,-8.918300270446364,-3.3277632275313636,-2.5560701936815056,0.636755941720019,-0.25252909661485945,0.7837304249981037
1765409879.503901,-8.915821639307861,-3.33905915609826,-2.543206438323524,0.6356349972705935,-0.2545558569253863,0.789571809330536
1765409879.504151,-8.907267191794835,-3.355890406621082,-2.536303453435485,0.6347646026669806,-0.25634307218189045,0.7952104087456401
1765409879.504401,-8.892901690247378,-3.3764968558693016,-2.535340666618524,0.6341798575285843,-0.25785241484982335,0.8005953560030836
1765409879.504651,-8.873281115685629,-3.398811242848797,-2.539995101346567,0.6338989238718385,-0.2590572471429238,0.8056873048830354
1765409879.504926,-8.849240142872405,-3.4205856772073884,-2.549658045732184,0.633922239171308,-0.2599436247354017,0.8104618116746127
1765409879.505259,-8.821865308040703,-3.439537191355424,-2.5634674434638893,0.6342326221243467,-0.26051073573339495,0.8149119160968811
1765409879.505593,-8.792452311086091,-3.4535047810257486,-2.5803566983467534,0.6347962419594506,-0.2607708179590589,0.8190495559463684
1765409879.505914,-8.762447842844656,-3.4606059644536624,-2.599117971185586,0.6355644039133942,-0.26074860410452344,0.8229055262257732
1765409879.506164,-8.733378161974725,-3.459378493933361,-2.618475681408478,0.6364760772437666,-0.26048032731353093,0.8265278545543734
1765409879.506414,-8.70676779813255,-3.448893623385238,-2.637165192468319,0.6374610615808475,-0.260012302948857,0.8299786584828421
1765409879.506664,-8.684052848112612,-3.4288304681194814,-2.6540116035954306,0.6384436554927189,-0.2593990993353598,0.8333297240763745
1765409879.506925,-8.66649500463775,-3.3995050242285374,-2.6680026647614894,0.6393466602805937,-0.25870131372780925,0.8366571808205281
1765409879.507175,-8.655104153963059,-3.361851587224582,-2.678348553378377,0.6400955263817794,-0.25798298030420597,0.8400357524229878
1765409879.507425,-8.6505779653086,-3.3173586395737606,-2.6845212095454287,0.6406224340217463,-0.2573086650952447,0.8435331301457043
1765409879.507675,-8.653265790290018,-3.267965601337129,-2.686267867535803,0.6408701017160031,-0.25674034897624226,0.8472050188841327
1765409879.507946,-8.663161478693473,-3.215930236721198,-2.6835969464334846,0.6407951363498307,-0.2563342565926127,0.8510913260574846
1765409879.508279,-8.679925914949171,-3.1636779994849613,-2.676738543407489,0.6403707604633823,-0.2561378436570698,0.8552138069983799
1765409879.508613,-8.702936047174962,-3.113644298052313,-2.6660854083506402,0.6395887618306533,-0.25618718713590616,0.8595752881124125
1765409879.508928,-8.731353815682386,-3.068119722016129,-2.6521229811059506,0.6384605123084667,-0.25650501617637406,0.8641604126364081
1765409879.509178,-8.764206156111399,-3.0291075191715255,-2.6353585766690504,0.6370169122186905,-0.25709957420525076,0.8689377228111115
1765409879.509428,-8.800466149027553,-2.9982017706052986,-2.6162598257009284,0.6353071528056742,-0.25796442759102234,0.8738628079478755
1765409879.509678,-8.839125555217917,-2.9764932908168658,-2.5952108223384953,0.6333962719826332,-0.25907925720543734,0.8788822038938262
1765409879.509908,-8.879250964462086,-2.964508578073297,-2.572490893629065,0.6313616006851698,-0.260411595934418,0.883937714991486
1765409879.510158,-8.920019587173961,-2.9621856469108807,-2.5482758901943816,0.629288317341172,-0.2619193935425943,0.888970822354227
1765409879.510408,-8.960734999988457,-2.968888758265757,-2.5226573124552196,0.627264407615149,-0.2635542026098915,0.8939268255309648
1765409879.510658,-9.000826244426923,-2.9834608044003526,-2.4956725225285346,0.6253753599386503,-0.2652647211214053,0.8987583545716535
1765409879.510949,-9.039834901028545,-3.004307552769253,-2.467339818393811,0.6236989303504955,-0.2670004159833842,0.9034279315459326
1765409879.511282,-9.07739451002916,-3.0295040927953503,-2.4376936973352903,0.6223002964489531,-0.26871496487979896,0.9079093862025205
1765409879.511616,-9.11320593307405,-3.0569127476361784,-2.406816888760456,0.6212278922435053,-0.27036927448258175,0.9121881141409596
1765409879.511901,-9.147011926280927,-3.08430363656084,-2.374866317814184,0.6205101746575821,-0.2719338664343713,0.91626033733249
1765409879.512151,-9.178574536693386,-3.1094723130708255,-2.3420904400730294,0.6201535269658018,-0.2733904689601462,0.9201316290183533
1765409879.512401,-9.207659213473693,-3.130351475510475,-2.308835904144193,0.6201414585803995,-0.27473270263890903,0.9238149890778501
1765409879.512651,-9.234028891797072,-3.1451148631092547,-2.2755423686166645,0.6204352053200433,-0.2759658060535957,0.9273287262032108
1765409879.512881,-9.257449543207104,-3.1522713875499724,-2.242725470190758,0.6209757596783719,-0.27710542419049566,0.9306943450886666
1765409879.513214,-9.277706371309442,-3.1507465329654245,-2.2109494516386197,0.6216872653171203,-0.2781755789359273,0.9339345661161013
1765409879.513548,-9.294627922063096,-3.139946210049444,-2.180792527450614,0.6224816022430663,-0.2792060285215388,0.9370715434474586
1765409879.51388,-9.30811435397732,-3.1197965839913917,-2.152809157222007,0.62326388493614,-0.28022927132913994,0.9401253236604786
1765409879.51413,-9.318165724495502,-3.090753536397097,-2.1274937098012563,0.6239385093349976,-0.28127745622113626,0.9431126032917773
1765409879.51438,-9.324906067172462,-3.053777975265599,-2.105249537531097,0.6244153258506844,-0.2823794421359689,0.946045865339094
1765409879.51463,-9.328599311752631,-3.010277301117338,-2.0863664430352977,0.6246154952091629,-0.2835582189910021,0.9489329681912617
1765409879.514913,-9.329654012188719,-2.9620176900784005,-2.071007991534189,0.6244766045204753,-0.28482886729271967,0.9517772165113524
1765409879.515163,-9.328615483469047,-2.9110153862605554,-2.0592080915970707,0.6239566730677597,-0.28619719228001933,0.9545778685753799
1765409879.515413,-9.326145777077214,-2.859416908100146,-2.050874557305016,0.6230367572110306,-0.28765911691528556,0.9573309480431498
1765409879.515663,-9.32299312075125,-2.8093773902689905,-2.045797265296634,0.6217219748551256,-0.28920086362469044,0.9600301650131622
1765409879.515953,-9.319952922361441,-2.76294373573026,-2.0436597554731692,0.6200409025000675,-0.2907998981489247,0.9626677453360265
1765409879.516286,-9.317822911078093,-2.7219464782740794,-2.0440539086782894,0.6180434290000305,-0.29242653928211765,0.9652350295288613
1765409879.51662,-9.317355907823218,-2.6879029601896076,-2.0464968570496107,0.6157972616355861,-0.29404606294545366,0.9677228111967502
1765409879.516919,-9.319214794445397,-2.6619350718132186,-2.0504484020852405,0.613383366458187,-0.29562108171308277,0.970121492816527
1765409879.517169,-9.323934919663492,-2.644706280793798,-2.055326794518308,0.6108906853660311,-0.2971139847533035,0.9724211978646766
1765409879.517419,-9.331898852411488,-2.6363833625634,-2.060520861660465,0.6084105008219424,-0.2984892632235467,0.9746119711593477
1765409879.517669,-9.343326584567038,-2.6366271397228553,-2.0653972947968744,0.6060308102098666,-0.2997155889422475,0.9766841371708872
1765409879.517875,-9.358281171295856,-2.6446136759108714,-2.0693038454424366,0.6038310365119602,-0.30076755002872074,0.978628810450903
1765409879.518125,-9.376686587126159,-2.6590837084808157,-2.0715717746165767,0.601877360499023,-0.30162699568208606,0.9804385078891424
1765409879.518375,-9.398352702245269,-2.6784152983647953,-2.071522469946335,0.6002189199328913,-0.3022840052083741,0.9821078160888255
1765409879.518625,-9.423002117111926,-2.7007140408886974,-2.068482445151368,0.5988850781152759,-0.3027375376863092,0.9836340957562041
1765409879.51895,-9.450294419452556,-2.723916283800911,-2.0618085558587795,0.5978839123568843,-0.3029958114024487,0.9850182153924463
1765409879.519283,-9.479844516745734,-2.7459018687723176,-2.0509227779125005,0.5972020099624449,-0.30307642310924426,0.9862652760971593
1765409879.519617,-9.511232802213737,-2.764612984403245,-2.035354214368756,0.5968055819223468,-0.30300617789838624,0.9873852337165798
1765409879.519971,-9.544006059022372,-2.7781751485912096,-2.01478487107933,0.5966428146139379,-0.30282057436622756,0.9883932695916345
1765409879.520221,-9.57766941203411,-2.785015195625942,-1.9890945764930594,0.5966472910416164,-0.3025628802322782,0.9893097209029107
1765409879.520471,-9.611671550099734,-2.7839689029063943,-1.9583993856833168,0.596742243412255,-0.3022827510141136,0.9901593780738007
1765409879.520721,-9.645387648445027,-2.774368125777256,-1.9230776453479155,0.5968453559340104,-0.3020343902957514,0.9909700254871705
1765409879.52096,-9.67810597835184,-2.7560962063281633,-1.883778863115279,0.5968738164394563,-0.3018742993530017,0.9917702527979791
1765409879.521293,-9.70902405916914,-2.7296028217721955,-1.8414123149788735,0.5967493116860675,-0.30185869399579307,0.9925867494445172
1765409879.521627,-9.737258351543302,-2.6958748329760076,-1.797114665838899,0.5964026715432881,-0.30204069172718984,0.9934414328474575
1765409879.521967,-9.761868997342116,-2.6563656819683725,-1.7521984180500232,0.5957778917949756,-0.30246741600438753,0.9943487963916046
1765409879.522217,-9.781898990209145,-2.6128903660547125,-1.7080850691730003,0.5948353036989693,-0.30317721547588483,0.9953138029821401
1765409879.522467,-9.796425549948188,-2.5674954663264256,-1.6662279605309944,0.5935537085081457,-0.3041972217038885,0.9963305403832181
1765409879.522717,-9.804620127436962,-2.5223145911643936,-1.6280301650933595,0.591931357552843,-0.30554145440461306,0.9973817437538703
1765409879.522974,-9.805812341971018,-2.4794194398299996,-1.5947629924988613,0.5899857371003557,-0.3072096391626657,0.99843920865294
1765409879.523224,-9.799552367079526,-2.4406760588609773,-1.5674908723372514,0.587752204839337,-0.3091868422938005,0.9994650697902514
1765409879.523474,-9.785665954081852,-2.407615388011667,-1.5470080535206594,0.5852816013598732,-0.3114439595446306,1.0004138904290445
1765409879.523724,-9.76429652825886,-2.381327103056669,-1.5337915199428442,0.5826370128299958,-0.31393903560854153,1.0012354700818482
1765409879.524011,-9.735929658257382,-2.362385597864983,-1.5279730782733636,0.5798898922078057,-0.31661935348948517,1.0018782138798905
1765409879.524344,-9.701396538054912,-2.350815714832083,-1.5293321255574914,0.5771157619464152,-0.3194241997678995,1.0022928098231731
1765409879.524678,-9.661854611853173,-2.3461024198025293,-1.5373094538340208,0.5743897287619629,-0.3222881572930566,1.00243585540424
1765409879.525018,-9.618745060510511,-2.347242791690917,-1.5510415660236299,0.5717820461399593,-0.325144714547019,1.0022730203513206
1765409879.525268,-9.573728956615744,-2.3528322052683626,-1.5694137921685545,0.5693539601908151,-0.3279299490900286,1.001781381413648
1765409879.525518,-9.528606428170548,-2.3611725854048067,-1.591128728360385,0.5671540658007213,-0.330586047844424,1.0009507229723913
1765409879.525768,-9.485225076700782,-2.370391068132547,-1.6147848994092853,0.5652153837019531,-0.3330644485542116,0.999783802111043
1765409879.526037,-9.445384396705592,-2.3785610843735085,-1.6389597702742404,0.5635533438358563,-0.33532841136723224,0.9982957361024715
1765409879.526287,-9.410742599669156,-2.3838215559046287,-1.6622910921913276,0.5621648231726313,-0.3373548530466159,0.9965127309433152
1765409879.526537,-9.382731874018143,-2.3844913769411575,-1.683550759192623,0.5610283337906826,-0.3391353016208984,0.9944703476101293
1765409879.526787,-9.362487643179202,-2.3791757108576803,-1.701705970638804,0.5601053840325377,-0.3406758755062112,0.9922114461476793
1765409879.52691,-9.35079639295729,-2.366859012756779,-1.7159635663426938,0.5593429454493917,-0.3419962774482068,0.9897838993316971
1765409879.527243,-9.348065198798253,-2.3469782960164958,-1.725794811900091,0.5586768706354414,-0.34312790757617023,0.9872381568965936
1765409879.527577,-9.354314596977849,-2.3194699715402516,-1.7309396254443759,0.5580360398970643,-0.34411129521863787,0.9846247698898618
1765409879.5279,-9.369195015945962,-2.284784872414134,-1.7313911596549885,0.5573469723199056,-0.3449930845789577,0.9819920185714888
1765409879.52815,-9.392025364123588,-2.243868282400494,-1.7273635765689679,0.5565386184477668,-0.3458227924045132,0.9793837888913028
1765409879.5284,-9.42185045287312,-2.1981045813234283,-1.719247386712441,0.5555470517035196,-0.3466495324182529,0.9768378063875467
1765409879.52865,-9.457511928384763,-2.149229935203158,-1.70755740684214,0.5543197782450547,-0.3475188980475577,0.9743842810575464
1765409879.529035,-9.497725597754503,-2.099221015691821,-1.6928783252604143,0.552819382772011,-0.3484701994327343,0.9720449597879081
1765409879.529368,-9.541157006459935,-2.050170835349432,-1.6758126758253797,0.5510262392896523,-0.34953424493641433,0.9698325361122027
1765409879.529702,-9.586487687079966,-2.0041622474047394,-1.6569358279931035,0.5489400657138701,-0.35073183043310496,0.9677503442069917
1765409879.530032,-9.632466850489374,-1.9631462308060514,-1.6367618696395516,0.5465801889759855,-0.3520730371194459,0.965792276739061
1765409879.530282,-9.677946445257689,-1.9288289450529172,-1.6157227244870607,0.5439844885721502,-0.35355734129108596,0.9639429104406475
1765409879.530532,-9.721900367065075,-1.9025708791293108,-1.5941608142232457,0.5412070817098003,-0.35517444241518353,0.9621778771032892
1765409879.530782,-9.763430833214821,-1.885302644856244,-1.5723336710807188,0.5383149019175334,-0.3569056584006857,0.9604645543645095
1765409879.530983,-9.801766380664642,-1.877463142502045,-1.5504277407152562,0.5353834065133364,-0.35872572131592056,0.958763151695262
1765409879.531233,-9.836256156002861,-1.8789655604421442,-1.528578227961038,0.5324917142002741,-0.3606048037859384,0.9570282284799753
1765409879.531483,-9.866364143632303,-1.889194502690557,-1.5068917167712956,0.5297175098922888,-0.3625106015789544,0.9552106196002031
1765409879.531733,-9.891665553096463,-1.9070338512469702,-1.485468169779475,0.527132059790225,-0.3644103075879516,0.9532596926410213
1765409879.532023,-9.911846584992917,-1.9309212663850785,-1.4644190523127085,0.5247956588327521,-0.3662723452641509,0.9511258476487323
1765409879.532356,-9.926708173887041,-1.9589236138254844,-1.4438791121874834,0.5227537886413899,-0.36806776891874987,0.9487631920671001
1765409879.53269,-9.936173476458135,-1.988828927694364,-1.4240108361748736,0.5210342075271279,-0.3697712753853973,0.9461323393869696
1765409879.532976,-9.940297622942273,-2.018253256447832,-1.4050023476321012,0.5196451332560883,-0.3713618156231643,0.9432032416771434
1765409879.533226,-9.939276954094003,-2.044762319804581,-1.3870607686765435,0.5185746123220343,-0.37282284257812487,0.9399578646348895
1765409879.533476,-9.93345416489079,-2.0660067432148206,-1.3704032865080358,0.51779109641468,-0.37414226617802504,0.9363923955776425
1765409879.533726,-9.923315917100906,-2.079865892998287,-1.3552473290771383,0.5172451767304964,-0.37531220629610695,0.9325186094886293
1765409879.533982,-9.909480702100355,-2.084590597254573,-1.3418000656388922,0.5168723679846385,-0.37632864930808646,0.9283640542267588
1765409879.534232,-9.892676586937318,-2.078931590358073,-1.330246952728823,0.5165967858537823,-0.37719111671377703,0.9239708564566315
1765409879.534482,-9.873710211611856,-2.0622400495145965,-1.3207396731515841,0.5163355194889782,-0.37790242865948154,0.9193931526555731
1765409879.534732,-9.85342965662222,-2.0345290156968225,-1.3133847745103115,0.516003463035679,-0.37846859349874074,0.9146933509553147
1765409879.534944,-9.832684630275914,-1.99648842957026,-1.3082344744425567,0.51551833968742,-0.3788987997524407,0.9099375824724574
1765409879.535277,-9.812287772484892,-1.9494509993324514,-1.3052803468043097,0.5148056333437137,-0.37920544950306534,0.905190792359021
1765409879.535611,-9.792980526535853,-1.8953110853373463,-1.3044497070485666,0.5138031385835387,-0.37940415859626636,0.9005119507930542
1765409879.535931,-9.775406178987096,-1.8364037553751276,-1.3056039648333448,0.5124648494992615,-0.3795136552433568,0.895949825045963
1765409879.536181,-9.760091865661535,-1.7753546027716116,-1.3085379789421705,0.5107639358583486,-0.3795555256556809,0.8915396514432228
1765409879.536431,-9.747440832900889,-1.7149118090095712,-1.3129795471791745,0.5086946071730911,-0.3795537718279632,0.887300922562397
1765409879.536681,-9.737735718042552,-1.6577713042109368,-1.3185885549262464,0.5062727377293563,-0.37953415619116,0.8832364087491307
1765409879.53693,-9.731152671462967,-1.6064056241559435,-1.3249556115114942,0.5035352029294514,-0.3795233171156433,0.8793324667320715
1765409879.537263,-9.72778462046705,-1.5629075219640822,-1.3316002318193982,0.5005379495802589,-0.37954766445383503,0.87556061555711
1765409879.537597,-9.727669936037172,-1.5288593538012625,-1.337969593640285,0.49735289498541413,-0.3796321154925909,0.8718802629736061
1765409879.537922,-9.730820778855886,-1.5052379912771794,-1.343440700400276,0.4940638264537379,-0.3797987959415141,0.8682423603387104
1765409879.538172,-9.73724468896453,-1.4923627869345508,-1.3473296660718461,0.49076154541182143,-0.38006587381972906,0.8645936661766427
1765409879.538422,-9.746954395871457,-1.4898908908127066,-1.3489103956968596,0.4875385553383498,-0.38044668878463944,0.860881210574546
1765409879.538672,-9.759963716370908,-1.4968594273111064,-1.347442353234627,0.48448362336901013,-0.3809492897629106,0.8570564965510067
1765409879.538928,-9.776270230336918,-1.511768165852248,-1.3422057160768064,0.4816765505647289,-0.38157642560115207,0.8530789978720851
1765409879.539178,-9.79582735869509,-1.53269162121491,-1.332542467910485,0.4791834656805963,-0.38232596924185575,0.8489186417330312
1765409879.539428,-9.818509877051781,-1.5574083201290458,-1.3179022263244768,0.4770529135732037,-0.3831917062783077,0.844557159948617
1765409879.539678,-9.844078216126674,-1.583537234610433,-1.2978905277309802,0.47531295094650544,-0.3841643840180051,0.8399883708524809
1765409879.539943,-9.872147593623202,-1.608674758601309,-1.2723156032347895,0.47396940359702117,-0.3852328923975301,0.8352175573029242
1765409879.540276,-9.902167260406848,-1.6305278271068047,-1.2412289101309795,0.47300538610217213,-0.38638543366329653,0.8302601326308524
1765409879.54061,-9.933413213190885,-1.6470393518073403,-1.2049551739325848,0.47238212841129934,-0.3876105395397003,0.8251397679850293
1765409879.540916,-9.964995779594725,-1.6565017827115667,-1.1641087291036414,0.4720410882090699,-0.38889781470231893,0.8198861235340325
1765409879.541166,-9.995882117094496,-1.6576538415881377,-1.119594050554343,0.4719072576017548,-0.39023832214906173,0.8145323026862705
1765409879.541416,-10.024932770654816,-1.649754429864242,-1.0725892696330055,0.4718935022149569,-0.3916245748421303,0.8091121464128428
1765409879.541666,-10.050950914511956,-1.6326269682286856,-1.0245117355095181,0.4719057017361866,-0.3930501471607861,0.803657514355435
1765409879.541907,-10.072742596396669,-1.6066681517274437,-0.9769645693869093,0.47184839590977296,-0.39450895793526436,0.7981957524217372
1765409879.542157,-10.089185627864774,-1.5728178159635529,-0.9316639977914624,0.4716305856475695,-0.39599430450076945,0.79274758709559
1765409879.542407,-10.09930328539958,-1.5324905609695998,-0.8903499830531737,0.4711713083076645,-0.39749775484995165,0.7873256799755027
1765409879.542657,-10.102337151807506,-1.4874739955489793,-0.8546862733240952,0.4704046109098967,-0.39900803892545805,0.781934015864069
1765409879.54291,-10.097812252546966,-1.439802392626606,-0.8261582964484228,0.46928358342578663,-0.4005101080510969,0.7765681953492649
1765409879.543243,-10.085587614294953,-1.3916174626763407,-0.8059774944169482,0.4677831783566765,-0.4019845318539536,0.7712165748627068
1765409879.543577,-10.065886207576243,-1.3450288408581503,-0.7949998645468197,0.46590163051921346,-0.403407372919971,0.7658620730654134
1765409879.543932,-10.03929980319679,-1.301985339115052,-0.7936655666895768,0.46366039861973407,-0.4047506375275329,0.7604843779889218
1765409879.544182,-10.006766858912837,-1.2641648297408554,-0.8019649791554467,0.4611026627410218,-0.40598334800310265,0.7550622642923872
1765409879.544432,-9.969524889101065,-1.2328873335022108,-0.8194340183114446,0.45829051026974255,-0.4070732058257053,0.7495757595162592
1765409879.544682,-9.929041818221792,-1.2090536793559867,-0.8451784099271834,0.4553010167293322,-0.4079887231418738,0.744007961469838
1765409879.54491,-9.886932865488086,-1.1931109516328104,-0.8779237693124474,0.45222148049998817,-0.40870162537364163,0.7383463805937627
1765409879.54516,-9.844870619326393,-1.1850448133807139,-0.916086281665479,0.44914411090443424,-0.40918928954112227,0.7325837451522383
1765409879.54541,-9.804496281248873,-1.1843969943965664,-0.9578575795115941,0.44616049812728714,-0.40943697947496566,0.726718262999415
1765409879.54566,-9.767339485209448,-1.1903043119113232,-1.0012968604406447,0.4433561994896696,-0.4094396605721674,0.7207533872167332
1765409879.545977,-9.734752626265,-1.201554785742954,-1.0444231591228155,0.44080575308709685,-0.40920321728380676,0.7146971817630658
1765409879.54631,-9.707863496932442,-1.216657252200645,-1.0853012667216007,0.43856838608888243,-0.40874495328977106,0.7085614122452929
1765409879.546644,-9.687547576864965,-1.2339223869654916,-1.1221163552697064,0.4366846376205136,-0.40809332099897305,0.7023604805408926
1765409879.546968,-9.67441892064578,-1.2515534277275726,-1.1532344586682444,0.4351740736857868,-0.40728689381465794,0.6961102879105043
1765409879.547218,-9.668836541325676,-1.2677434201238955,-1.1772479259805988,0.4340342265106529,-0.40637265824702024,0.6898270832201436
1765409879.547468,-9.67092170443255,-1.2807738187719777,-1.1930067206955177,0.4332408276516583,-0.4054037658496296,0.6835263573368172
1765409879.547718,-9.680580852242757,-1.2891086928162632,-1.1996380820398362,0.4327493225217137,-0.4044369392409667,0.6772218684360686
1765409879.547961,-9.697529208065466,-1.2914798275381583,-1.1965580973155867,0.4324975745502543,-0.4035297514747205,0.6709248872016278
1765409879.548294,-9.721311442261559,-1.2869590532540525,-1.1834784753848198,0.4324096083507465,-0.40273798079927864,0.6646437184415451
1765409879.548628,-9.751317624348564,-1.2750140261671679,-1.1604103925181042,0.4324001961834778,-0.4021131965926566,0.658383509789463
1765409879.548981,-9.786794461990876,-1.2555432045994794,-1.1276655722822628,0.43238004078321773,-0.4017006868744102,0.6521463286030383
1765409879.549231,-9.826853359821794,-1.228886312985364,-1.0858534384603333,0.43226124873292476,-0.40153780813359785,0.6459314755109191
1765409879.549481,-9.870478033897784,-1.1958084768446071,-1.0358725768324775,0.4319627461385492,-0.4016528116782918,0.6397359894618578
1765409879.549731,-9.91653493909454,-1.1574586149194785,-0.9788949871315871,0.4314152840217504,-0.4020641627117868,0.6335552747437762
1765409879.549966,-9.963789486296271,-1.1153045330137958,-0.9163420868161887,0.43056571108135977,-0.40278032301626787,0.627383750226681
1765409879.550216,-10.010930315685613,-1.0710479993115678,-0.8498512255287338,0.42938024089555626,-0.40379992892628674,0.6212154053572793
1765409879.550466,-10.056602945375815,-1.0265234488724684,-0.7812309829289759,0.4278465028623943,-0.4051122747173506,0.615044173678332
1765409879.550716,-10.099452739448388,-0.9835850203353697,-0.7124041372931682,0.4259742428568736,-0.4066980132495801,0.6088641057927213
1765409879.550947,-10.138175495041242,-0.9439887447335579,-0.6453390356147444,0.42379463131844547,-0.4085300021317826,0.6026694009846704
1765409879.55128,-10.171572656801073,-0.9092787380097972,-0.5819718824531941,0.4213582372011597,-0.4105742383841266,0.596454393433737
1765409879.551614,-10.19860741773193,-0.8806866489673618,-0.524123631516571,0.41873181973813955,-0.4127908392328574,0.5902135753937799
1765409879.551922,-10.218457365325701,-0.8590520740581394,-0.47341629298815824,0.4159941599299587,-0.4151350621103713,0.5839417042980908
1765409879.552172,-10.23055896111682,-0.8447691807270725,-0.43119450104844936,0.41323119908599587,-0.41755841452550896,0.5776340135881693
1765409879.552422,-10.234639717441938,-0.8377624823172565,-0.3984581718285367,0.41053078204915533,-0.4200099455115906,0.5712865326764845
1765409879.552672,-10.23073545354984,-0.8374929685047073,-0.3758110841143441,0.40797732108434115,-0.42243779474594184,0.5648965061899602
1765409879.552907,-10.219191424888828,-0.8429943998133416,-0.36342950765608345,0.40564669732348213,-0.4247910097391311,0.5584628764160909
1765409879.553157,-10.200646939601217,-0.8529379967789967,-0.36105476653232127,0.4036016958108676,-0.4270215680149679,0.5519867586879612
1765409879.553407,-10.176004048200475,-0.8657215390748065,-0.3680123447279474,0.4018882313252233,-0.4290864883800342,0.5454718120356609
1765409879.553657,-10.146382452128213,-0.8795763175761866,-0.38325709766281824,0.4005325739897564,-0.4309498818196128,0.5389244069883216
1765409879.553943,-10.113064132326397,-0.8926836483960217,-0.4054407248659676,0.3995397314711727,-0.4325847720929802,0.5323535289326569
1765409879.554193,-10.077431547013857,-0.9032928292255916,-0.4329955442330244,0.39889308828016323,-0.4339745128767812,0.5257704128238929
1765409879.554443,-10.040902853506713,-0.9098340775366434,-0.46422799361018546,0.39855534181677454,-0.43511364664604857,0.5191879481133947
1765409879.554693,-10.004867234061267,-0.9110213556752932,-0.4974153787610026,0.39847070967496845,-0.4360080865875099,0.5126199005263219
1765409879.555024,-9.970623448395779,-0.9059397578175182,-0.530899390462657,0.3985683125580213,-0.436674551679469,0.5060799875258626
1765409879.555357,-9.939325099154313,-0.8941109891391421,-0.5631696058356808,0.39876656058684046,-0.4371392486799325,0.4995808517345356
1765409879.555691,-9.911936298061393,-0.8755303513395837,-0.5929302546769911,0.3989782896333362,-0.4374358746470512,0.4931330083357409
1765409879.555922,-9.889200804515156,-0.8506707106484123,-0.6191450019804579,0.39911631934834885,-0.43760309746271453,0.48674387205354797
1765409879.556172,-9.871626043723216,-0.8204525109907272,-0.6410574699284199,0.3990990547038577,-0.43768173977329267,0.48041697261991456
1765409879.556422,-9.859481271722721,-0.7861824149666278,-0.6581885809857436,0.39885574249058847,-0.43771193190389135,0.4741514443223346
1765409879.556672,-9.852807404582842,-0.7494655675042847,-0.6703144197887444,0.3983310225397411,-0.437730506323634,0.4679418371989625
1765409879.556912,-9.851435155969844,-0.7120978609730229,-0.6774298582885881,0.39748846831388424,-0.4377688743561243,0.4617782560149644
1765409879.557162,-9.85500826775127,-0.67594553769572,-0.6797036480876475,0.3963128807228978,-0.4378515554092479,0.4556467974901479
1765409879.557412,-9.863009603849502,-0.6428202832210539,-0.677430186535529,0.3948111793644818,-0.43799543563463567,0.4495302323545933
1765409879.557662,-9.874788940145425,-0.61435840335855,-0.6709825228930493,0.393011830198327,-0.43820974241799127,0.4434088671884015
1765409879.557873,-9.88959155909682,-0.5919123827998712,-0.6607711112408672,0.39096285468162134,-0.4384966521914268,0.4372615182575497
1765409879.558123,-9.906586444460615,-0.5764620442756558,-0.6472125526888564,0.3887285699815783,-0.43885240204277587,0.4310665327111322
1765409879.558373,-9.924893051406562,-0.5685508828826084,-0.6307107807259441,0.3863853007206991,-0.43926874180252373,0.4248027989002532
1765409879.558623,-9.943606681555604,-0.5682510625278308,-0.6116502861704751,0.38401636808380757,-0.43973454094127085,0.41845069195211676
1765409879.558914,-9.961823500136626,-0.5751580103198644,-0.5903989988595887,0.381706690084849,-0.4402373589582658,0.4119929019610754
1765409879.559247,-9.978666251614479,-0.5884127587567582,-0.5673181515270116,0.3795373196403232,-0.4407648033810297,0.405415102043227
1765409879.559581,-9.99331103376557,-0.6067478192610222,-0.5427765287209649,0.3775802247240795,-0.44130553545874257,0.39870644597380456
1765409879.559912,-10.005015000385061,-0.628551196495577,-0.5171656170990911,0.3758935922827355,-0.44184983228631863,0.3918599365859535
1765409879.560162,-10.01314471674718,-0.6519436041656399,-0.4909110875708942,0.3745179109957187,-0.44238966780107636,0.38487275248059166
1765409879.560412,-10.01720441219517,-0.6748656792205182,-0.46447646654090385,0.3734730481699501,-0.44291833774305667,0.377746631124196
1765409879.560662,-10.016862406221135,-0.6951737923721437,-0.43835685600553936,0.372756483245092,-0.4434297295412536,0.3704883643130858
1765409879.560957,-10.01197323518316,-0.7107435642606852,-0.4130627256123752,0.37234280076425386,-0.44391741223387776,0.363110380232288
1765409879.561207,-10.002592948514721,-0.7195790205657947,-0.3890954177422591,0.37218448155748457,-0.44437376642113136,0.3556313005324929
1765409879.561457,-9.988985422862054,-0.7199232063939254,-0.3669173772779596,0.3722139611267274,-0.4447893708357583,0.3480763044331723
1765409879.561707,-9.971618038846229,-0.7103641400069399,-0.3469212351107092,0.37234685189717315,-0.4451528114901158,0.34047711940107234
1765409879.561905,-9.951145705805642,-0.6899288747483241,-0.32940226524358013,0.3724861590253815,-0.44545100202762467,0.33287148391114013
1765409879.562155,-9.928383093990114,-0.6581581070008895,-0.3145382547638857,0.37252726377364237,-0.4456700224654383,0.32530197764716307
1765409879.562405,-9.90426591420567,-0.6151538588327232,-0.30237982912472383,0.3723634048003685,-0.4457964047701168,0.31781418469281075
1765409879.562655,-9.87980300672015,-0.5615933257607573,-0.29285304534728246,0.37189135411455365,-0.4458187176971548,0.31045425755885325
1765409879.562896,-9.856021940721282,-0.4987037425155306,-0.2857744149072086,0.3710169615179264,-0.44572924067548364,0.30326608329764826
1765409879.563229,-9.833911851952838,-0.42819688459389377,-0.2808763402679979,0.3696602355449883,-0.44552548407294484,0.2962883768754426
1765409879.563563,-9.814367976529859,-0.3521673757987235,-0.2778389811658931,0.36775964693383445,-0.4452113208381209,0.2895520778638015
1765409879.56392,-9.798142230919547,-0.272964594386841,-0.27632380909486765,0.36527538313789043,-0.44479754194084126,0.28307836755121596
1765409879.56417,-9.785803215168052,-0.1930514140319658,-0.27600458728244315,0.3621913478109581,-0.4443017270864494,0.2768774774555692
1765409879.56442,-9.777707683257917,-0.11486310556806228,-0.2765923609451503,0.3585157861785058,-0.44374741819007146,0.2709482926640522
1765409879.56467,-9.773984343498922,-0.04067696005723688,-0.27785162640065286,0.3542805169095246,-0.4431626752846227,0.26527862815934594
1765409879.564923,-9.774529958817082,0.027500766175741532,-0.2796053898039731,0.34953884741351654,-0.4425781647814303,0.25984600631346977
1765409879.565173,-9.779016891958843,0.08802722670465,-0.28172805751099866,0.3443623310232322,-0.4420249770821821,0.2546187865442339
1765409879.565423,-9.786910313322004,0.1396928485934886,-0.28412731806613023,0.3388365896142443,-0.4415324009697016,0.249557559979116
1765409879.565673,-9.797492442474626,0.18176719038061864,-0.28671866236033544,0.33305647491913104,-0.44112588511483625,0.2446167783449795
1765409879.565934,-9.809890812647218,0.21401965064824954,-0.289397745791571,0.3271208722758347,-0.440825374551811,0.23974661087416083
1765409879.566184,-9.823107973949407,0.2367148669312333,-0.292015680265439,0.321127454157105,-0.44064413098660093,0.23489501381322572
1765409879.566434,-9.83605134271405,0.2505841294923395,-0.29436075190402905,0.3151676669988022,-0.44058806150308377,0.23000996601733925
1765409879.566684,-9.847563472061173,0.2567756748980803,-0.29614811709461786,0.3093221951802264,-0.44065551297943384,0.22504179148919282
1765409879.566956,-9.856453844053187,0.25678774575772484,-0.29701799642145166,0.30365710177652283,-0.4408374447830721,0.219945473710075
1765409879.567206,-9.861532894388953,0.2523883811292337,-0.29654296715767453,0.2982207990648292,-0.44111786788890434,0.21468286619996804
1765409879.567456,-9.86164792783462,0.24552530555973778,-0.2942451323057599,0.29304195577657344,-0.441474429347221,0.2092247015455775
1765409879.567706,-9.855719723908175,0.2382288853257663,-0.2896231562943817,0.2881284099317238,-0.4418790229393273,0.20355228640747838
1765409879.567938,-9.842778264221574,0.23251142835000094,-0.28218742003274255,0.2834671234417541,-0.4422983211081351,0.1976587524452345
1765409879.568188,-9.821995956946445,0.2302667205150685,-0.27149976751952004,0.2790251761857833,-0.4426941547942326,0.19154973264422065
1765409879.568438,-9.792716934226544,0.23317398404863324,-0.25721322151866427,0.2747517514945106,-0.443023718725235,0.18524335953518084
1765409879.568688,-9.754481535044958,0.242610367352691,-0.2391067423343325,0.27058102069856843,-0.4432396410520327,0.1787695282662305
1765409879.568901,-9.707045685264433,0.2595759836085239,-0.2171105761092813,0.2664357918864566,-0.44329000646721173,0.17216841760406362
1765409879.569151,-9.650394967772414,0.2846355412968649,-0.19131908126635513,0.2622317417530941,-0.4431184420584608,0.1654883108532801
1765409879.569401,-9.584752600497715,0.31788060269053775,-0.1619898713785147,0.2578820068652473,-0.44266436800857384,0.15878281592273627
1765409879.569651,-9.510579978056084,0.35891626755646255,-0.12952991134527345,0.25330188607340565,-0.4418634995037545,0.15210765417371974
1765409879.56994,-9.428568621393508,0.40687530031979596,-0.09447028186477807,0.24841340157360778,-0.44064867090266685,0.14551725665982093
1765409879.57019,-9.33962315128995,0.46046099087647036,-0.057431948836560456,0.2431494770695753,-0.4389510332173274,0.1390614501993167
1765409879.57044,-9.244835443477172,0.5180174017154485,-0.019085718882864477,0.23745751581837657,-0.436701648041827,0.1327825185809102
1765409879.57069,-9.145450204722952,0.5776229227049186,0.01988938399354248,0.23130219729093407,-0.43383346640639653,0.1267128849163108
1765409879.570928,-9.042822477174777,0.6372010554358715,0.058844690271929595,0.22466735423728063,-0.43028363914229806,0.12087359421668666
1765409879.571178,-8.938368498132698,0.694641018183791,0.09719358069164459,0.2175568389449727,-0.4259960589897613,0.11527369978605838
1765409879.571428,-8.833512478385899,0.7479195962250047,0.13443393512699506,0.20999433800825912,-0.4209239901738921,0.10991057709865867
1765409879.571678,-8.7296324237794,0.7952148476781129,0.17016015157193645,0.2020221509959998,-0.41503260142506293,0.1047710970836319
1765409879.57193,-8.628007957977694,0.8350027432952837,0.20406439667036796,0.19369901104100468,-0.408301189212503,0.09983349339589685
1765409879.57213,-8.529772952542036,0.866130129241041,0.23592809965605135,0.185097087255684,-0.400724873386719,0.09506968187798874
1765409879.57233,-8.43587632475637,0.8878609002063415,0.26560696034762626,0.17629835648603925,-0.39231557676410655,0.09044776267101659
1765409879.57253,-8.347055139465775,0.8998954802719216,0.2930147550805435,0.1673905593328546,-0.38310215893697736,0.08593446502657019
1765409879.57273,-8.263823830465437,0.9023655095837354,0.3181113217136214,0.15846296993753464,-0.3731296514516092,0.08149736512192421
1765409879.572904,-8.18648126792972,0.8958060195558369,0.34089799298756096,0.1496022187579011,-0.36245762516082497,0.07710678453427981
1765409879.573154,-8.115134278031162,0.8811072250157156,0.36142070843297047,0.1408884073416605,-0.35115780233781274,0.07273733060328538
1765409879.573404,-8.049733637113816,0.859448367884547,0.3797787274542738,0.13239173289724238,-0.33931109909276036,0.06836905982024326
1765409879.573654,-7.990117692175659,0.832217286819507,0.39613625956080695,0.12416980026933722,-0.32700433807723017,0.0639882454303178
1765409879.573988,-7.936059394408082,0.8009212591161203,0.41073504388838783,0.11626575204814102,-0.31432689860315516,0.059587732086451566
1765409879.574238,-7.887313337231267,0.7670962983544181,0.4239064901930813,0.10870729505138149,-0.3013675715228101,0.05516687584123474
1765409879.574488,-7.843659425857118,0.7322225588732619,0.4360814007012846,0.10150663480181495,-0.28821186526650133,0.05073109909829632
1765409879.574738,-7.804939477752736,0.6976522926975488,0.4477939695371285,0.09466125446766395,-0.2749399688576196,0.046291131097616484
1765409879.574968,-7.771083289876237,0.6645542257156667,0.45967598371351553,0.0881554119891852,-0.2616255103587567,0.041862034594465976
1765409879.575218,-7.742121725778624,0.6338753889898687,0.4724377820539952,0.08196219354668553,-0.24833514422213115,0.03746211579996304
1765409879.575468,-7.718185705038643,0.6063196083411815,0.48683449977051285,0.07604595198428234,-0.23512886786633772,0.033111781512278345
1765409879.575718,-7.699491345158639,0.5823413579137163,0.5036188675922605,0.07036496355329361,-0.22206085156999913,0.028832376258516458
1765409879.575941,-7.686313001364984,0.5621536893381675,0.5234846448032927,0.0648741430874614,-0.20918051310905625,0.024645028093354802
1765409879.576141,-7.678947317397604,0.5457484315419857,0.5470066607104587,0.05952766539184255,-0.1965335835603381,0.02056954954357895
1765409879.576341,-7.677672025955307,0.5329257647119712,0.5745836781551967,0.054281358446962864,-0.18416296297843043,0.016623455313325236
1765409879.576541,-7.682703140972885,0.5233295050293213,0.6063894830620025,0.0490947662831251,-0.17210922702631617,0.012821154052479232
1765409879.576741,-7.694154173619595,0.5164846395221828,0.6423370558851278,0.043932818472419956,-0.16041071079212152,0.009173355220957146
1765409879.577002,-7.712001478268441,0.5118343998627858,0.6820604777335966,0.0387670780417113,-0.1491031663978276,0.005686720765355214
1765409879.577252,-7.736060159207563,0.5087746362541326,0.7249182227144559,0.0335765667603911,-0.1382190606045582,0.002363787894596379
1765409879.577502,-7.765974366046308,0.5066833232504959,0.7700191799646808,0.028348191969764295,-0.12778663090454948,-0.0007968171950737808
1765409879.577752,-7.801224288155869,0.5049432601461687,0.8162699306022555,0.02307682603138693,-0.11782884366805693,-0.0037998735977290573
1765409879.577948,-7.841150219958161,0.5029567848967856,0.8624393907002305,0.017765112000788386,-0.10836239952304721,-0.006652796597357798
1765409879.578198,-7.884991941014273,0.5001523530744802,0.9072350837479476,0.01242307973825369,-0.09939691565037487,-0.009364663883676981
1765409879.578448,-7.931939460797748,0.4959837437774367,0.9493840255443102,0.00706765262398794,-0.09093438724071054,-0.011945118463459636
1765409879.578698,-7.981189476354381,0.4899234395717004,0.9877108786264005,0.0017221053078425993,-0.08296899971050682,-0.014403246419702576
1765409879.578965,-8.032001304102296,0.48145262166730707,1.0212067442790476,-0.003584499265357569,-0.07548733710571127,-0.01674653849344829
1765409879.579165,-8.083746517782505,0.4700511313337409,1.0490830960705637,-0.008817897951846152,-0.06846900801856479,-0.01898003887361963
1765409879.579365,-8.13594755075654,0.4551911455982291,1.070806626704228,-0.013939264932893857,-0.06188767809396543,-0.02110575371519783
1765409879.579565,-8.188301882456928,0.4363377684730007,1.0861126363203852,-0.018905926911455376,-0.055712454774534674,-0.023122344652522966
1765409879.579765,-8.240690175704328,0.4129584316921533,1.0949970937644107,-0.023672179162480534,-0.04990952906645195,-0.02502509157234275
1765409879.579997,-8.293168697610742,0.38454160202118925,1.0976898256265313,-0.028190219125611784,-0.04444395623949937,-0.026806089078779474
1765409879.580247,-8.345948103753019,0.3506242966568425,1.0946127996884751,-0.032411206616630855,-0.039281449637390956,-0.028454636263529426
1765409879.580497,-8.399361820902826,0.310827216046144,1.0863283272999824,-0.036286449083707054,-0.03439005929933628,-0.029957775461055384
1765409879.580747,-8.453827725885155,0.2648955856246076,1.0734824298903447,-0.03976870217814417,-0.0297416151975488,-0.03130093123840477
1765409879.580942,-8.509806682780713,0.21274299616265094,1.056748396343198,-0.04281357654952397,-0.02531284356517222,-0.03246860270551013
1765409879.581192,-8.567760947330944,0.15449475486385356,1.0367746587518978,-0.04538104408067982,-0.021086105623384307,-0.03344506673627693
1765409879.581442,-8.628114757506836,0.09052648701707972,1.0141401295833754,-0.04743702711756228,-0.017049741740854957,-0.034215047797772145
1765409879.581692,-8.691218919807426,0.021492971315025793,0.9893196553835729,-0.04895503080392874,-0.013198025109527192,-0.034764306298409216
1765409879.581974,-8.75732094972931,-0.051658219513495286,0.9626619449264341,-0.049917749738255496,-0.00953074934973902,-0.03508010613420682
1765409879.582224,-8.826542095617311,-0.12769323726786067,0.9343814469973585,-0.050318550971833124,-0.006052503457653341,-0.03515154770177456
1765409879.582474,-8.898862140515826,-0.2051219577989214,0.9045641232574386,-0.050162708428392405,-0.0027717160220696374,-0.03496978434605487
1765409879.582724,-8.974112293291464,-0.2822521640024627,0.8731856482092119,-0.04946824626090358,0.0003004380865197188,-0.034528164826379174
1765409879.582932,-9.051975995461087,-0.35726560886772296,0.8401398259713738,-0.048266249558451775,0.00315118235187631,-0.03382235651706291
1765409879.583182,-9.13199726217406,-0.42831085287886383,0.8052747499147513,-0.046600525289413296,0.005767258997853164,-0.03285050554137944
1765409879.583432,-9.213596180460087,-0.49360548438369983,0.7684340137994327,-0.04452654348192711,0.00813595655610692,-0.03161348221394299
1765409879.583682,-9.296091096621586,-0.5515387434989298,0.7294999417344828,-0.04210965088780032,0.010245987372968283,-0.030115238612360637
1765409879.583971,-9.378726546719088,-0.600765060396049,0.6884353836199337,-0.039422615122313605,0.01208817818004527,-0.028363266848688368
1765409879.584221,-9.460705223365474,-0.6402800298305185,0.6453203118650456,-0.036542615961636334,0.01365595781190962,-0.0263691026741383
1765409879.584471,-9.541221680138058,-0.6694727396169488,0.6003795716924432,-0.03354784574520633,0.014945640097455743,-0.024148791648820597
1765409879.584721,-9.619495321762088,-0.6881511663597989,0.553998812155159,-0.03051391286298148,0.015956509926471553,-0.021723238571324372
1765409879.584952,-9.694800354792076,-0.6965394368202665,0.5067266088546737,-0.02751026854863542,0.016690731252936044,-0.01911838758511831
1765409879.585152,-9.76649056125352,-0.6952469779085019,0.45926180506893516,-0.024596903389945045,0.01715310591640961,-0.01636520677931169
1765409879.585352,-9.834017070440293,-0.6852108710242469,0.41242616404710486,-0.021821578027815158,0.017350719296397164,-0.01349945899120972
1765409879.585552,-9.89693793178623,-0.6676149839844631,0.3671236841823078,-0.019217843915685224,0.017292516332665465,-0.010561234163965776
1765409879.585752,-9.954919237181917,-0.6437925068395339,0.32428936775074196,-0.016804062538483676,0.016988863836271708,-0.007594218451946229
1765409879.585921,-10.0077285820885,-0.6151212481396182,0.284831632065187,-0.014583547780113318,0.016451167673199516,-0.004644694527502259
1765409879.586121,-10.055222527445997,-0.5829222893498578,0.2495735616284211,-0.012545847905032222,0.015691612979246313,-0.0017603000223012858
1765409879.586321,-10.097330288747147,-0.5483719015541768,0.21919853679332232,-0.010669066039320078,0.014723072860149608,0.0010113978537921486
1765409879.586521,-10.134036162677443,-0.5124343885181689,0.19420542182074957,-0.008923010025033127,0.01355919178279107,0.003624431855222768
1765409879.586721,-10.165363260055608,-0.47582050170763657,0.17487756896370665,-0.0072728835243240685,0.012214611639045457,0.006035977869833182
1765409879.586907,-10.191360847772298,-0.4389729738585363,0.1612683683368709,-0.005683190898061665,0.010705284963678683,0.00820782139058296
1765409879.587157,-10.212096901178901,-0.40207802292839195,0.15320403383304668,-0.004121525911311718,0.009048809833629518,0.010107666963519842
1765409879.587407,-10.227656501506054,-0.3650995898866098,0.15030235664380145,-0.0025619393004709173,0.007264717820318542,0.011710224780889062
1765409879.587657,-10.238145794111409,-0.3278315004128309,0.1520049017540681,-0.0009876271981093454,0.0053746514853353616,0.012998022633668123
1765409879.588014,-10.243700437531055,-0.2899615762540259,0.15761946142841066,0.000607248816303243,0.003402385113715796,0.013961905429456358
1765409879.588214,-10.244496760562194,-0.2511411335842279,0.16636898629736782,0.002216713305104201,0.0013736653613032768,0.014601201429628074
1765409879.588414,-10.240763361314515,-0.21105352489373574,0.17744265884744748,0.0038231148407009696,-0.0006841333157319481,0.014923553032048658
1765409879.588614,-10.232790920353057,-0.1694762356334702,0.19004475701096146,0.0053981883647718325,-0.002742531388488432,0.01494442416590944
1765409879.588814,-10.220938563918505,-0.1263319801214105,0.20343771265556632,0.006904919811372957,-0.004772625693088805,0.014686303767227871
1765409879.588988,-10.205635843186846,-0.08172491232477684,0.21697692796125223,0.00830004213685474,-0.006745895612866269,0.01417763295988536
1765409879.589188,-10.187379946312905,-0.03595876219337563,0.23013598655279194,0.009536953838674976,-0.00863508694671394,0.013451501599845522
1765409879.589388,-10.166728100619881,0.01046498332144323,0.24252177313720166,0.010568828537536839,-0.01041511628548215,0.012544185149510721
1765409879.589588,-10.144285423211716,0.05686860046842474,0.25387981209914795,0.011351682642553457,-0.012063930532570254,0.011493612480443968
1765409879.589788,-10.120688804692971,0.10243661103881471,0.26409080531815743,0.011847187603856411,-0.013563252450028374,0.01033785946180737
1765409879.589952,-10.096587629668122,0.14626647511631913,0.2731596591570634,0.012025049062339786,-0.014899149786943486,0.009113753110957338
1765409879.590152,-10.072622141835355,0.1874257260872334,0.2811981789328097,0.011864822168975487,-0.016062384803085233,0.007855653503427209
1765409879.590352,-10.049400187420675,0.22500973144646436,0.2884024035176224,0.011357086699165644,-0.017048527113885825,0.006594460399453369
1765409879.590552,-10.027473175135809,0.2581949258523334,0.2950256710351181,0.010503962669180678,-0.017857836161507813,0.005356870225213033
1765409879.590752,-10.007312435699536,0.28628353485957453,0.30134898454138764,0.00931899931278079,-0.018494934291385583,0.004164889352604377
1765409879.590944,-9.989287569731452,0.30873722031744805,0.3076507654909717,0.007826509301417303,-0.018968299589529683,0.003035596041928137
1765409879.591144,-9.973648670121166,0.3251983532557233,0.3141784261803548,0.006060442767952074,-0.01928961606579394,0.001981136223255913
1765409879.591344,-9.960514428744283,0.33549860629423617,0.3211243440790317,0.004062904883163692,-0.019473028969949468,0.00100893137746289
1765409879.591544,-9.949867949537952,0.3396555055088086,0.3286086211966798,0.0018824204978849617,-0.019534357994445962,0.00012206559751604644
1765409879.591744,-9.941561380686336,0.33785871107208987,0.3366701787981,-0.00042795763828577604,-0.019490315225850582,-0.0006801917790215969
1765409879.591958,-9.935329303924696,0.33044881221955186,0.3452663895316631,-0.002812611105670749,-0.019357762889790058,-0.0014017722734536871
1765409879.592158,-9.930809640247881,0.31789176289494697,0.35428021546911337,-0.00521531288132219,-0.019153037186570587,-0.0020491364660260186
1765409879.592358,-9.927570105399624,0.3007516158062918,0.36353320058513694,-0.007581112456466614,-0.018891359970308733,-0.0026305652946186715
1765409879.592558,-9.925137985221976,0.2796633766940982,0.3728025151181375,-0.009858090860675461,-0.01858635447589619,-0.0031554321386264243
1765409879.592758,-9.923030916966432,0.25530705319515234,0.3818401188818747,-0.011998936896976077,-0.018249673466314772,-0.003633477963626634
1765409879.593047,-9.920786365720325,0.22838339375025885,0.39039191736090567,-0.013962303627371352,-0.01789074195972497,-0.004074116694849442
1765409879.593297,-9.917987758668023,0.1995913731954044,0.39821487685952695,-0.015713906496203453,-0.017516613355770788,-0.004485801453069482
1765409879.593547,-9.91428586364271,0.16960736422862663,0.40509066223909856,-0.01722732329758396,-0.017131933754234954,-0.004875487180855766
1765409879.593797,-9.909414728213486,0.13906628745800653,0.4108351919560746,-0.01848445963215823,-0.01673900338046721,-0.005248227971051162
1765409879.593962,-9.903202027328305,0.1085455747129381,0.4153041499663473,-0.019475657918093116,-0.016337921480605425,-0.005606938580830439
1765409879.594162,-9.895573981987969,0.0785529688124017,0.4183949031170875,-0.02019945207104057,-0.01592680620689691,-0.005952327362730832
1765409879.594362,-9.886555314669156,0.04951880407434532,0.4200456983507994,-0.02066199734137932,-0.015502089524842493,-0.006282983804102118
1765409879.594562,-9.876265073163124,0.02179277395792005,0.42023348823934226,-0.02087622907971978,-0.015058889877036796,-0.006595590748219123
1765409879.594762,-9.864909383459489,-0.004355275681824454,0.4189719121458408,-0.02086082023022765,-0.014591458840155804,-0.006885229769014073
1765409879.594939,-9.85277207473153,-0.028731152188329223,0.4163105646154608,-0.02063901201901446,-0.014093687140189007,-0.007145749969293893
1765409879.595189,-9.840203712055445,-0.051209372449255455,0.41233586156099117,-0.020237386761207878,-0.013559646565381679,-0.007370170931767744
1765409879.595439,-9.82760912468512,-0.07172423093117082,0.40717295724305125,-0.01968464102231861,-0.012984140803638576,-0.007551091874800863
1765409879.595689,-9.815433216655633,-0.09025985659421282,0.4009875254332586,-0.019010406237373684,-0.012363239681797762,-0.007681084167040715
1765409879.595944,-9.80414472648412,-0.10684036260561688,0.39398586702790117,-0.018244153655463016,-0.011694773497513331,-0.007753052464401424
1765409879.596144,-9.794217656099834,-0.1215210145006483,0.38641182521749856,-0.017414210605552476,-0.01097876211538219,-0.007760558604514629
1765409879.596344,-9.786110361572465,-0.13438085249222687,0.3785394946279927,-0.01654690587664141,-0.010217747959716745,-0.007698110376062292
1765409879.596544,-9.78024281404211,-0.14551662395472945,0.37066162414228265,-0.0156658552819592,-0.0094169992753203,-0.007561421901278161
1765409879.596744,-9.776973156338745,-0.15503748860011038,0.36307454434469094,-0.014791395936219986,-0.008584553878868032,-0.0073476510572398745
1765409879.596919,-9.77657513217604,-0.163059889872236,0.3560609809714228,-0.013940178905204655,-0.007731082298614056,-0.007055612918704634
1765409879.597119,-9.7792181097988,-0.1697021698089763,0.3498721998587348,-0.013124932045299681,-0.006869561138019947,-0.006685960359044926
1765409879.597319,-9.784951352278377,-0.17507874700229042,0.34471085867521906,-0.012354404827230537,-0.006014763968180678,-0.006241316211946865
1765409879.597519,-9.793694009342174,-0.17929386326864596,0.34071590200591945,-0.01163350171909287,-0.0051825961532550695,-0.005726336034106388
1765409879.597719,-9.805231986377073,-0.1824351212315916,0.3379507473212504,-0.010963599107976854,-0.004389315230375123,-0.005147677390123846
1765409879.598011,-9.81922239964963,-0.18456741283384975,0.33639585168170466,-0.010343025545763707,-0.0036506874937314165,-0.004513854249895675
1765409879.598211,-9.835205940663819,-0.1857282656128235,0.335946687339903,-0.009767671044793428,-0.002981139032247931,-0.0038349679187380608
1765409879.598411,-9.852627207935448,-0.18592576953839465,0.3364181358466739,-0.009231680972940156,-0.002392967282704169,-0.0031223287351263194
1765409879.598611,-9.870862639027902,-0.18513989399327324,0.33755593430593683,-0.008728184634710048,-0.0018956805397249829,-0.0023880069666899497
1765409879.598811,-9.889254839476735,-0.18332734446713916,0.33905488666327654,-0.008250008210686331,-0.0014955226817794307,-0.0016443643546248249
1765409879.599013,-9.907151061445443,-0.18042949435377456,0.3405824667504152,-0.0077903256714355745,-0.001195222677137689,-0.0009036140994206167
1765409879.599213,-9.923942760186456,-0.17638252656239087,0.3418056493695861,-0.007343208634357514,-0.0009939888903898514,-0.0001774433852903555
1765409879.599413,-9.939102741986217,-0.1711286688111417,0.342418364265288,-0.006904047244560423,-0.0008877462750787325,0.0005232805380416301
1765409879.599613,-9.952216426720693,-0.1646272364144833,0.34216680253104087,-0.006469828975908675,-0.0008695897379170951,0.0011887088064904572
1765409879.599813,-9.963004299530873,-0.15686415695719677,0.3408700960104133,-0.006039277691664168,-0.0009304051277452508,0.0018101113787385853
1765409879.600004,-9.971333758381022,-0.14785881823958102,0.33843473014825765,-0.005612866786362696,-0.0010595955017665415,0.0023798895118198977
1765409879.600254,-9.977219894755578,-0.13766745678006354,0.33486200250629944,-0.005192725909143651,-0.0012458433196933132,0.0028915235016050023
1765409879.600504,-9.980815742872123,-0.12638283251161161,0.33024836303986055,-0.004782462575273789,-0.0014778385072250723,0.003339488153710549
1765409879.600754,-9.982393116184197,-0.11413052582929377,0.32477865542909173,-0.004386920178514204,-0.0017449117731346212,0.003719171002442903
1765409879.601021,-9.982315640824018,-0.10106270105345852,0.3187126269340172,-0.004011893151785018,-0.002037531708251471,0.0040268228212139556
1765409879.601188,-9.981006124208724,-0.0873504501593457,0.31236568917199986,-0.003663819139638644,-0.002347644728518398,0.004259557227275041
1765409879.601354,-9.978910761788056,-0.07317583053569625,0.3060854233694077,-0.0033494681407684095,-0.0026688528215655593,0.004415400958097202
1765409879.601521,-9.9764628142228,-0.058724561231364145,0.30022557863266924,-0.003075647781050721,-0.0029964372078962165,0.004493384772872479
1765409879.601688,-9.974048483247289,-0.04418015421679214,0.29511955213108687,-0.0028489382666814517,-0.0033272481094232162,0.004493658967495179
1765409879.601854,-9.971977812700544,-0.029720016651059552,0.2910556360054924,-0.0026754601186602454,-0.0036594881366514152,0.004417615137848925
1765409879.602045,-9.970463226663245,-0.015513727702146344,0.28825635883657563,-0.0025606678959923307,-0.003992417426603338,0.004267995069361986
1765409879.602245,-9.969607564297572,-0.0017233208541244747,0.2868638287656352,-0.002509158981940302,-0.004326007481924711,0.004048967917327382
1765409879.602445,-9.969402378069272,0.01149492406457893,0.28693225197216937,-0.0025244887936712026,-0.004660572032542287,0.003766157462874972
1765409879.602645,-9.96973618230847,0.02398793639275324,0.28842797213349186,-0.002608990099229259,-0.0049964036245654314,0.003426601311237549
1765409879.602845,-9.970411434531462,0.035603523783023505,0.2912365443050776,-0.00276360197181375,-0.005333439547658777,0.0030386247794383413
1765409879.603059,-9.971168348844373,0.046189320927910754,0.295175670207565,-0.002987720941413188,-0.00567097480890722,0.002611617771183978
1765409879.603259,-9.971713272606637,0.055593959622317085,0.3000125132475506,-0.003279090730867651,-0.00600744070235447,0.0021557156059574195
1765409879.603459,-9.971749278142731,0.06367099429473644,0.30548393675362184,-0.0036337468219785974,-0.006340272391605079,0.0016814019844733708
1765409879.603659,-9.971006572506141,0.07028549190202155,0.3113181723487956,-0.004046029997140659,-0.006665888180148768,0.0011990681105817017
1765409879.603859,-9.969270166349357,0.07532251983812074,0.3172561224510926,-0.0045086811267978965,-0.006979793837960468,0.0007185718313663899
1765409879.604005,-9.96640220669416,0.07869624960379173,0.32307024776774923,-0.005013026447132788,-0.007276811940884738,0.0002488430234858228
1765409879.604205,-9.962356753420464,0.08035820625971382,0.32857915372092206,-0.00554925444455206,-0.007551421232007461,-0.000202423751528988
1765409879.604405,-9.957185521276244,0.08030337033202625,0.3336565214786225,-0.006106771113473252,-0.007798174528303196,-0.0006289608776769885
1765409879.604605,-9.951034046787859,0.07857326334243084,0.3382337355248932,-0.006674604785940904,-0.008012149087141346,-0.0010259934961982054
1765409879.604805,-9.94412885707699,0.07525563963055074,0.34229642523456605,-0.007241822856710776,-0.008189376259705587,-0.0013901897676499122
1765409879.605024,-9.936757419038493,0.07048083179083665,0.34587605208987654,-0.007797924295558057,-0.00832719926884909,-0.0017195232258045607
1765409879.605224,-9.929243522598776,0.06441511444466237,0.34903822838020404,-0.0083331806299613,-0.008424516502062893,-0.0020130843588094683
1765409879.605424,-9.921920956390196,0.05725169300533869,0.3518694107577921,-0.008838908493507894,-0.0084818813745331,-0.002270877397569933
1765409879.605624,-9.915108010828853,0.04920013396229559,0.35446327569933656,-0.009307665645330318,-0.008501448634204403,-0.0024936278741560275
1765409879.605824,-9.909084870375908,0.040475220413198176,0.3569078527984445,-0.009733368642397228,-0.008486777280873608,-0.0026826124827490413
1765409879.605976,-9.904075477412606,0.03128627140065766,0.3592743532592348,-0.010111334059210157,-0.008442515304901572,-0.002839511804294988
1765409879.606176,-9.900234927720625,0.021827859845198198,0.3616084144068606,-0.010438247510335771,-0.008374000030454319,-0.0029662819665043877
1765409879.606376,-9.897642968979532,0.012272648733445525,0.36392427919003945,-0.010712068758536735,-0.008286815592337498,-0.0030650420286076484
1765409879.606576,-9.896303807056695,0.0027668154940642233,0.3662023692830753,-0.010931889123542912,-0.008186357203296687,-0.0031379759201230757
1765409879.606776,-9.896152043017645,-0.006571755444839964,0.36839059921908224,-0.011097766041715288,-0.008077453009357253,-0.003187248176366679
1765409879.607044,-9.897064015075033,-0.01565269934302272,0.37040940622950386,-0.011210561626916965,-0.007964083852145446,-0.003214931975262159
1765409879.607244,-9.89887324744031,-0.024410360010393976,0.37215999249855347,-0.011271804133690055,-0.007849223944621574,-0.003222948898400033
1765409879.607444,-9.901388343442271,-0.03279964050666949,0.3735349275445307,-0.011283577754467944,-0.007734807408846879,-0.0032130233762579477
1765409879.607644,-9.904411493230286,-0.040791120645282015,0.3744299967684421,-0.011248434509406133,-0.007621808745118429,-0.0031866579368783395
1765409879.607844,-9.907755720839022,-0.048365872582631336,0.3747559650090219,-0.01116931695430044,-0.007510412539296456,-0.003145134584261665
1765409879.608034,-9.911259197404801,-0.05551034156245025,0.3744489580564753,-0.011049482732818625,-0.007400243883277831,-0.003089543343074391
1765409879.608234,-9.914795484190506,-0.06221167786928033,0.37347853361836786,-0.010892428319398817,-0.007290635069530907,-0.00302083483211631
1765409879.608434,-9.918279184362042,-0.06845383490590297,0.3718528965613705,-0.010701814582852557,-0.007180908135772112,-0.002939891129058251
1765409879.608634,-9.921666852291628,-0.07421454415924354,0.3696208180607613,-0.010481398451275423,-0.007070651507462145,-0.002847605927675442
1765409879.608834,-9.92495319425259,-0.07946311960573335,0.3668698111548711,-0.010234974550134947,-0.00695996537568394,-0.0027449599828131646
1765409879.609035,-9.928162917774207,-0.08415909732862795,0.3637203463106784,-0.009966330752255385,-0.006849649683124862,-0.002633074467380382
1765409879.609285,-9.9313391480858,-0.08825190464517318,0.36031641752515786,-0.009679222031195428,-0.006741311770657079,-0.0025132272297556553
1765409879.609535,-9.934529910526162,-0.09168184950804158,0.356813398852241,-0.009377366163824235,-0.006637377529524517,-0.00238682497541685
1765409879.609785,-9.937774552608651,-0.0943826101938029,0.3533647004835579,-0.009064462501777339,-0.00654100048074024,-0.002255334463019884
1765409879.609963,-9.941092040818557,-0.096285177004078,0.3501090761477819,-0.008744232410775444,-0.006455875152607461,-0.0021201844922527453
1765409879.610163,-9.94447272276354,-0.09732300056982816,0.3471602987837194,-0.008420477343321338,-0.006385970426114902,-0.0019826566360975654
1765409879.610363,-9.947874426194485,-0.09743798059808434,0.34460028185823877,-0.008097147216277691,-0.006335204643788732,-0.0018437865059053814
1765409879.610563,-9.95122298647458,-0.09658682100538718,0.3424759796487572,-0.007778407871162204,-0.006307089831033335,-0.0017042982429514302
1765409879.610763,-9.954416779494311,-0.09474713132711356,0.340799931126115,-0.007468692869130112,-0.006304377613556351,-0.0015645911667344617
1765409879.610966,-9.957334551211318,-0.0919225317727094,0.3395540281831034,-0.0071727227426585695,-0.006328741120718029,-0.001424788050398181
1765409879.611166,-9.959845558352027,-0.08814604900639435,0.3386957548608913,-0.006895474884698036,-0.006380524085716629,-0.001284841172462347
1765409879.611366,-9.961820800391392,-0.08348132605861645,0.33816587766855677,-0.006642090091203942,-0.006458583749475149,-0.001144679850717169
1765409879.611566,-9.9631441358429,-0.07802153000292374,0.3378965986483508,-0.006417707822488818,-0.006560249878052878,-0.0010043759424071578
1765409879.611766,-9.963722300821347,-0.07188617288452155,0.33781937682573576,-0.0062272318943782465,-0.006681414320694605,-0.0008643023090626706
1765409879.612109,-9.963493045493156,-0.06521625219622668,0.3378717065256089,-0.006075041388186391,-0.006816750869796255,-0.0007252614163485968
1765409879.612309,-9.962430732016104,-0.05816816861945224,0.3380021983923613,-0.005964676114476053,-0.006960047718550525,-0.0005885658222428863
1765409879.612509,-9.9605489623087,-0.05090689122912623,0.33817357528742786,-0.005898537497478776,-0.007104620721308517,-0.00045605896011410195
1765409879.612709,-9.957900137761134,-0.04359889217354786,0.33836355642502336,-0.0058776487795562295,-0.007243766598635966,-0.00033007263568125296
1765409879.612909,-9.954572132149735,-0.036405417897706495,0.338563804260736,-0.005901510124842435,-0.007371211281035576,-0.00021332653165925342
1765409879.612983,-9.95068247478721,-0.029476593010394677,0.33877723451654285,-0.005968067093310278,-0.0074815119184659966,-0.00010878382455840846
1765409879.613183,-9.94637072843583,-0.022946650735493134,0.3390142383350686,-0.006073791673209713,-0.007570381076103034,-1.9482470729041552e-05
1765409879.613383,-9.941790028736134,-0.016930376078140956,0.3392885717161277,-0.006213859749561576,-0.0076349119185038,5.163961959528259e-05
1765409879.613583,-9.93709876165944,-0.011520765941624656,0.3396135518364176,-0.006382400253882485,-0.00767368945480744,0.0001019139642891345
1765409879.613783,-9.932453063572115,-0.0067879351914020645,0.3399988948469728,-0.006572789061062519,-0.007686779130884621,0.00012909977109449626
1765409879.614,-9.92800050642114,-0.002779286912594345,0.34044836744178725,-0.006777963370294633,-0.007675595265001412,0.0001315263234221749
1765409879.6142,-9.923875137117594,0.00047915916307243663,0.3409583810478343,-0.006990737525345422,-0.0076426658649981025,0.00010821268627421622
1765409879.6144,-9.920193893487856,0.002980540855519535,0.3415175052665592,-0.00720410663670753,-0.007591322377839623,5.895729644798022e-05
1765409879.6146,-9.917054305551222,0.004734346759619629,0.34210670760583506,-0.007411528601178963,-0.007525352559569448,-1.5608454501052103e-05
1765409879.6148,-9.914533408194846,0.0057632866803429715,0.3427001858355048,-0.007607178015618841,-0.007448662406941473,-0.00011400723852350617
1765409879.615063,-9.912687845429783,0.006100027954750494,0.3432668226242654,-0.007786167108371016,-0.007364994520801272,-0.00023394728078696023
1765409879.615263,-9.911555008216292,0.005783984522763499,0.34377224365992254,-0.007944728858067214,-0.0072777404806210555,-0.0003723993967110491
1765409879.615463,-9.911154769115777,0.00485838460042317,0.34418126089401735,-0.00808035599100624,-0.007189865356547988,-0.0005257150057381205
1765409879.615663,-9.911491270533968,0.003367854867452118,0.34446043079708194,-0.008191887320915964,-0.0071039391371890874,-0.0006897749093223386
1765409879.615863,-9.91255437993097,0.0013567178621282823,0.34458053962885965,-0.008279530745545532,-0.00702224740277902,-0.000860155556778291
1765409879.616004,-9.91432060970186,-0.001131884701907489,0.3445188260004439,-0.00834481152713645,-0.006946937014159041,-0.0010322993183115115
1765409879.616204,-9.91675335462368,-0.004056041179981927,0.3442607167295663,-0.008390437909393868,-0.006880148220180183,-0.001201677791434642
1765409879.616404,-9.91980231409837,-0.007374405054147207,0.3438009589772951,-0.008420085013497919,-0.006824094145714961,-0.0013639415566132963
1765409879.616604,-9.923402022611002,-0.011045016048264087,0.34314416860547625,-0.008438109724015362,-0.006781065736275146,-0.0015150531444390874
1765409879.616804,-9.92746948969142,-0.015023855612565229,0.3423047946522695,-0.008449219522685677,-0.006753357110265725,-0.0016514000536700269
1765409879.617056,-9.93190109600088,-0.019263400856616392,0.34130645316701935,-0.008458124178117324,-0.00674312016393158,-0.0017698832931588191
1765409879.617256,-9.9365691801921,-0.023711410758359808,0.3401807089983281,-0.008469200331374953,-0.00675216766730478,-0.0018679778633913617
1765409879.617456,-9.941319055315779,-0.028310080487966096,0.33896553631749826,-0.00848619607313195,-0.006781749037579826,-0.0019437659648438971
1765409879.617656,-9.945967291641828,-0.03299556435919619,0.3377036490836339,-0.008511996244432803,-0.006832321709455629,-0.001995948736094256
1765409879.617856,-9.950302026226145,-0.037697778390599464,0.33644081914183016,-0.008548459815032593,-0.006903336153755254,-0.002023843920122977
1765409879.617981,-9.954086009057281,-0.04234040980165692,0.33522443697685883,-0.008596330510960242,-0.006993047131794367,-0.002027373727081022
1765409879.618181,-9.957063023534976,-0.04684116128996448,0.33410273103372934,-0.008655215263108248,-0.007098358289202084,-0.002007042514104628
1765409879.618381,-9.95896797000969,-0.0511123565655724,0.33312489218575525,-0.0087236244497899,-0.007214702121467577,-0.0019639022787729427
1765409879.618581,-9.959540281428026,-0.05506204944931482,0.33234193121542266,-0.00879907035758461,-0.007335956048684431,-0.0018995063214661398
1765409879.618781,-9.958539785449938,-0.05859569714278385,0.3318078131964741,-0.008878220651954026,-0.007454401023636732,-0.001815854592645939
1765409879.618998,-9.95576386159614,-0.06161833742057639,0.331580378818383,-0.008957100372846081,-0.0075607395073169405,-0.001715334966686706
1765409879.619198,-9.951064684622398,-0.06403713441006366,0.33172161812799655,-0.009031331192985397,-0.0076441986738697764,-0.0016006630595981756
1765409879.619398,-9.944365386287966,-0.06576417617845247,0.3322969864173903,-0.009096392372495227,-0.007692747651816541,-0.001474821734310234
1765409879.619598,-9.935674098407292,-0.06671949472115081,0.33337372986232405,-0.009147885342680089,-0.0076934519959339425,-0.001341001487142429
1765409879.619798,-9.925094949589619,-0.06683435955258613,0.33501843625213024,-0.009181784895855664,-0.007632974092699408,-0.0012025431118557384
1765409879.620031,-9.912834982034456,-0.06605490160830714,0.33729393740012215,-0.009194664355490517,-0.007498209551048707,-0.0010628824696791398
1765409879.620231,-9.899205712091398,-0.06434603129630274,0.340255376529687,-0.009183886620609098,-0.007277034723042943,-0.000925494075230428
1765409879.620431,-9.884618053210405,-0.06169544417021864,0.3439451786843361,-0.00914775498435042,-0.006959131222721779,-0.0007938277538988983
1765409879.620631,-9.869569725774863,-0.05811731160923615,0.3483869560239272,-0.0090856175319926,-0.006536842652336405,-0.0006712329131662274
1765409879.620831,-9.854624847284345,-0.05365510856354317,0.35357868369800277,-0.008997918776598708,-0.006006001761554492,-0.0005608682931477994
1765409879.62106,-9.840385913989213,-0.04838301894325893,0.35948557864562514,-0.008886194103298689,-0.005366649304468101,-0.0004655998225843938
1765409879.62126,-9.827459026003648,-0.04240551125615269,0.36603322435537156,-0.008753007703655176,-0.004623559306311034,-0.000387892881319819
1765409879.62146,-9.816414195129031,-0.03585492178288006,0.37310175288128905,-0.008601841817114455,-0.0037864916376255065,-0.00032970565764121044
1765409879.62166,-9.807743780317935,-0.028887122480981,0.3805220994555876,-0.008436951032003245,-0.00287010798116689,-0.00029238688904665493
1765409879.62186,-9.801823220117921,-0.021675616449240164,0.3880753994505726,-0.008263197077911651,-0.0018935118191407004,-0.00027657631708299203
1765409879.622181,-9.798879007841485,-0.014404836671171204,0.39549675567133596,-0.00808587626308297,-0.0008794101635740402,-0.00028210498505006244
1765409879.622431,-9.79896880510782,-0.007263913973716899,0.4024847009470682,-0.007910545816474953,0.00014705938499327378,-0.00030790234675929346
1765409879.622681,-9.801977129846765,-0.00044210999218063354,0.4087168834050063,-0.007742849784459601,0.0011597483478917973,-0.0003519393297063217
1765409879.622931,-9.807627361972706,0.005874027076479225,0.4138706513464909,-0.0075883396030964915,0.0021330414853781,-0.0004112549389066179
1765409879.623095,-9.81550808924054,0.011503358488868787,0.41764572026618635,-0.007452278465170639,0.003043384756146983,-0.00048210403774461333
1765409879.623295,-9.825110146662777,0.016275015218677837,0.4197863269937119,-0.007339418005421189,0.0038706619837179986,-0.0005602230757433215
1765409879.623495,-9.835869982053538,0.020036763053599388,0.4201015188148077,-0.007253748742659767,0.004599311722476393,-0.0006411677354014985
1765409879.623695,-9.847214515158123,0.0226660305948072,0.4184825895876683,-0.007198248536619142,0.005219103968010652,-0.0007206619273792938
1765409879.623895,-9.858602446063172,0.024080767167788036,0.41491570579416626,-0.007174669489005503,0.005725512911403236,-0.0007949141966889494
1765409879.624047,-9.8695576922931,0.024246913396826872,0.4094870389577825,-0.0071834010199612105,0.0061196453400599,-0.0008608843504566777
1765409879.624247,-9.879692487262428,0.023180824417287926,0.4023786747983646,-0.007223430108470175,0.006407738511400907,-0.0009164951416534219
1765409879.624447,-9.8887199031453,0.020947158391897334,0.3938557932355408,-0.007292402686308876,0.006600310895854344,-0.0009607723080460025
1765409879.624647,-9.896457243200096,0.017653671058226638,0.3842475918587464,-0.007386779651194955,0.006711091169040274,-0.0009938787360958578
1765409879.624847,-9.902822490452035,0.013443725873457503,0.3739251640764888,-0.007502073134612796,0.006755848408501153,-0.0010170153400473109
1765409879.625098,-9.90782590376933,0.0084866734771158,0.3632790783101068,-0.007633139169956351,0.00675122214987982,-0.0010322006577920934
1765409879.625298,-9.911558274132886,0.0029667969566774736,0.3526983254664345,-0.007774494333015168,0.006713628415189123,-0.0010419831138780407
1765409879.625498,-9.914176781049976,-0.00292743819635149,0.34255129880761787,-0.007920621959554805,0.006658298711031397,-0.0010491475096524505
1765409879.625698,-9.91588917367899,-0.009012019088898865,0.33316903051745855,-0.008066239893491927,0.00659849076848143,-0.001056449377088176
1765409879.625898,-9.916937049795205,-0.015113266221237083,0.3248309705610909,-0.008206513402472408,0.006544897848302411,-0.0010663797191374487
1765409879.626046,-9.917578984939077,-0.021071673738282625,0.31775368324254094,-0.00833720975983875,0.006505276901562784,-0.001080955169473936
1765409879.626246,-9.918074137484709,-0.0267448911400696,0.31208276370145205,-0.008454801426172304,0.006484303958433156,-0.0011015421486722987
1765409879.626446,-9.918666966098016,-0.032010469611268064,0.30788828492239806,-0.008556530312719158,0.006483644915256008,-0.0011287373476888444
1765409879.626646,-9.919573851869949,-0.03676808883018444,0.30516422867469234,-0.008640446472073711,0.006502211202945403,-0.001162324643063342
1765409879.626846,-9.920972452838154,-0.04094057346856895,0.3038323125354501,-0.008705432812277872,0.006536559161931458,-0.001201310624521298
1765409879.627126,-9.922994460041856,-0.044473441349404425,0.30375028241393837,-0.008751223528195963,0.006581386426048648,-0.0012440213756079613
1765409879.627326,-9.925722219368119,-0.04733355326433017,0.3047243292983547,-0.00877841675110947,0.00663007717720842,-0.001288237231759388
1765409879.627526,-9.929189389241602,-0.04950783661070169,0.30652488866641997,-0.00878847272951164,0.00667525431755252,-0.0013313528313736885
1765409879.627726,-9.933385250038551,-0.05100260121154258,0.3089045500313844,-0.008783682081886512,0.0067093075140840465,-0.0013705647209102101
1765409879.627926,-9.938261642902324,-0.051843042561327136,0.311616267079039,-0.008767087804124215,0.0067248723172764905,-0.001403091350036176
1765409879.627994,-9.943741232176174,-0.052072012224916836,0.31442990166753615,-0.008742349749206077,0.006715235710887215,-0.0014264143163262957
1765409879.628194,-9.949725969634427,-0.05174754971300007,0.3171454829139399,-0.00871354869351247,0.006674646662254587,-0.0014385077103903456
1765409879.628394,-9.956104980076757,-0.050939596836467003,0.31960218710098365,-0.00868493566772266,0.006598521344364286,-0.001438016134045838
1765409879.628594,-9.962761332968082,-0.049726773914539814,0.3216827207596735,-0.008660639135838349,0.006483545126320264,-0.001424359465061726
1765409879.628794,-9.969577326201604,-0.048193611665004576,0.3233133919317897,-0.008644349152152276,0.006327680647860736,-0.0013977674884241462
1765409879.628989,-9.976438036751714,-0.04642778415867641,0.32446053836109334,-0.008639006024174624,0.006130096250840749,-0.0013592579728003494
1765409879.629189,-9.983233000991586,-0.044516637700266974,0.32512411581200956,-0.008646529230279441,0.005891036239531301,-0.0013105651260282136
1765409879.629389,-9.989856089037604,-0.0425428909146334,0.32532934260615065,-0.00866762395551115,0.005611659646191937,-0.0012540184013774458
1765409879.629589,-9.996204037838433,-0.04058012456510363,0.325117501898118,-0.008701693449812581,0.005293870537662656,-0.0011923770096485006
1765409879.629789,-10.002174533416946,-0.03868890552732189,0.32453714729140726,-0.008746868617417627,0.004940152915439261,-0.0011286378444741814
1765409879.630047,-10.007664859405224,-0.03691411077130142,0.32363680496322234,-0.008800149534984189,0.00455341567768272,-0.0010658410118749321
1765409879.630247,-10.01257188299342,-0.03528365266152431,0.32245987868758774,-0.008857642501469969,0.004136851000908577,-0.0010068935166489515
1765409879.630447,-10.01679373991621,-0.03380856670420224,0.32104204289616045,-0.008914870773046544,0.0036938093576559363,-0.0009544232227981267
1765409879.630647,-10.020233184714462,-0.03248426080106534,0.3194110046158147,-0.008967134312211527,0.003227694086893925,-0.0009106674282574297
1765409879.630847,-10.022802238020793,-0.03129264577439992,0.3175881661727372,-0.009009891632167881,0.0027418787882103174,-0.0008773946426268453
1765409879.631035,-10.024427545168379,-0.03020493873288461,0.315591585647253,-0.009039135374785357,0.0022396510100499106,-0.0008558547948672155
1765409879.631235,-10.025055791410038,-0.02918507766761467,0.3134396955260195,-0.009051733620739964,0.0017241836737134455,-0.000846752860524375
1765409879.631435,-10.024658489679997,-0.028193723443149393,0.311155201041595,-0.009045710870623806,0.0011985324145194218,-0.0008502424677086388
1765409879.631635,-10.023235403084387,-0.027192691990617114,0.3087683507411467,-0.009020445067707262,0.000665655397853651,-0.0008659362004471654
1765409879.631835,-10.020815967991656,-0.0261494634604874,0.30631874236050793,-0.008976760545808978,0.00012845202574489448,-0.0008929271725313883
1765409879.632046,-10.017458495843687,-0.02504129076637118,0.30385528449571086,-0.008916903433812729,-0.000410184370871663,-0.0009298151884348014
1765409879.632246,-10.013247438082542,-0.023858445548507606,0.30143457842458254,-0.008844395839239527,-0.0009473077689249396,-0.0009747338439265735
1765409879.632446,-10.00828927187184,-0.022606296428664224,0.29911836634573047,-0.008763776179359684,-0.0014798648317112658,-0.0010253818091796173
1765409879.632646,-10.002707584057395,-0.02130613713397878,0.29697075532909445,-0.008680245096548517,-0.002004654286400853,-0.0010790687865435001
1765409879.632846,-9.996637864453422,-0.01999482393773575,0.29505578482090783,-0.008599249682977761,-0.0025183071015542676,-0.0011327909358426185
1765409879.633003,-9.990222400960016,-0.018723229654940592,0.29343554948353434,-0.00852604960355567,-0.003017289018431936,-0.0011833498014946296
1765409879.633203,-9.983605480569315,-0.017553345138768668,0.2921686540172858,-0.008465311248350897,-0.0034979207027822203,-0.0012275212622828908
1765409879.633403,-9.9769289646821,-0.016553816144363603,0.2913086433516076,-0.008420768298971574,-0.003956406479082438,-0.0012622670856245863
1765409879.633603,-9.970328320887052,-0.015794009989265823,0.29090233146995964,-0.008394973249556223,-0.004388863998289007,-0.0012849666109020503
1765409879.633803,-9.963929236402425,-0.015337276951500802,0.2909882629002035,-0.008389151002188996,-0.00479135536678844,-0.001293637944459154
1765409879.634005,-9.957844865095018,-0.01523452357344347,0.2915955390852194,-0.008403156220447827,-0.005159931055903722,-0.001287120427131227
1765409879.634205,-9.952173616600898,-0.01551919022398718,0.29274302178537154,-0.00843552939207898,-0.005490702903664826,-0.00126519903422191
1765409879.634405,-9.946997301066085,-0.016204228796239537,0.29443874723130864,-0.008483639730865444,-0.0057799557530181025,-0.0012286597236760763
1765409879.634605,-9.942379436636795,-0.017281086961723695,0.29667934795742146,-0.008543896495608355,-0.006024292514393634,-0.00117926894660587
1765409879.634805,-9.938363629738546,-0.018720414576954142,0.29944937358292145,-0.008612007110835722,-0.006220795887929999,-0.0011196729172068107
1765409879.636041,-9.93497215342693,-0.020474253812838194,0.3027205942561649,-0.008683261599343059,-0.006367188442131581,-0.0010532181640811073
1765409879.638031,-9.932205049498995,-0.02247957471961392,0.3064515552186171,-0.008752825235560013,-0.006461977401126264,-0.000983706463092556
1765409879.641049,-9.930040098954581,-0.024662930840064944,0.3105876979005448,-0.00881602165322504,-0.006504574778851645,-0.0009151097605377411
1765409879.643065,-9.928433860833511,-0.026945762989243727,0.31506225561474305,-0.008868586965678629,-0.006495386436911572,-0.0008512765955935942
1765409879.645974,-9.92732381698493,-0.029249679603328662,0.3197979477542138,-0.008906874937599335,-0.006435865928926892,-0.0007956579928503439
1765409879.64801,-9.926631524219216,-0.03150107916385145,0.32470930861932373,-0.008927997458220961,-0.006328528016530109,-0.0007510722857357641
1765409879.650959,-9.926266547290098,-0.03363477466745626,0.32970538157057694,-0.008929894858347436,-0.006176911725298775,-0.0007195221116388571
1765409879.653015,-9.926130893314147,-0.03559662511167781,0.3346925593908695,-0.008911344502198944,-0.005985478822460172,-0.0007020760039331282
1765409879.656047,-9.92612372004784,-0.03734530509018793,0.3395774770416314,-0.008871927993421291,-0.005759435580924614,-0.0006988275960147013
1765409879.658004,-9.92614611844226,-0.038853212106690245,0.34426988859489377,-0.008811981946305602,-0.005504473783793524,-0.0007089405535769287
1765409879.661005,-9.926105696092607,-0.040106361198113914,0.3486853770451894,-0.008732553064420489,-0.005226439511688463,-0.0007307746958549587
1765409879.663053,-9.92592063372255,-0.04110317022835096,0.35274770553783724,-0.008635367838147856,-0.0049309531884030675,-0.0007620737878691064
1765409879.666083,-9.925522950128888,-0.04185226158881562,0.3563906625925168,-0.008522814576118287,-0.004623016468361066,-0.0008001864316574763
1765409879.668067,-9.924860818072473,-0.042369608611571796,0.35955930476502296,-0.00839792456445528,-0.0043066460013900035,-0.0008422917532115364
1765409879.671031,-9.923899879783162,-0.04267542743089847,0.3622105952830628,-0.00826433348296087,-0.003984572615592608,-0.0008856080911797514
1765409879.673094,-9.92262368374762,-0.04279117537056701,0.36431365167298185,-0.008126205729922394,-0.00365804182587912,-0.0009275712324151843
1765409879.676055,-9.92103353958934,-0.04273692448625216,0.36584997885241066,-0.007988111856844879,-0.0033267470518158386,-0.00096597676931835
1765409879.678016,-9.919148033038503,-0.04252929512015107,0.3668139103171106,-0.007854859842299614,-0.0029889157728101375,-0.0009990873595065012
1765409879.681082,-9.917002118474928,-0.04218011344153478,0.36721308223683796,-0.0077312909502676155,-0.002641551330031113,-0.0010257080380648585
1765409879.683049,-9.914645411977299,-0.04169597737897023,0.36706848949965093,-0.007622056781356515,-0.0022808147903371407,-0.0010452313606145046
1765409879.686047,-9.912139327502851,-0.04107886273553158,0.366413695431874,-0.007531393784806412,-0.0019025155740222516,-0.001057652357611552
1765409879.688043,-9.909552993310218,-0.04032770851672076,0.3652929483401395,-0.0074629067910058095,-0.001502666645332278,-0.0010635538784098937
1765409879.691024,-9.906958249249856,-0.03944067792557016,0.3637581808825623,-0.007419368656357554,-0.001078051843168649,-0.0010640648795563795
1765409879.693002,-9.904424343448241,-0.03841764766932302,0.36186516899607113,-0.007402542421212666,-0.000626751315422336,-0.0010607947493827745
1765409879.696011,-9.902013139256395,-0.0372624916034237,0.35966944283154156,-0.007413035767119025,-0.0001485738388413071,-0.0010557453544374638
1765409879.698105,-9.899775569683422,-0.03598485749825525,0.35722265134684417,-0.007450203000615189,0.0003546501131722405,-0.0010512014340068182
1765409879.701156,-9.897749729017788,-0.034601312630085035,0.35456991392350984,-0.007512114329592334,0.0008789502820720645,-0.001049601428300383
1765409879.703235,-9.895960601136709,-0.03313586682432305,0.35174841274075613,-0.007595612399094847,0.001418290782809711,-0.0010533946231310479
1765409879.706093,-9.894421179885247,-0.03161991197366733,0.3487871984703799,-0.007696469230091517,0.001964832198349692,-0.001064894526787981
1765409879.708035,-9.893134606098814,-0.030091574042424997,0.3457078950917108,-0.0078096428275511425,0.002509359841418558,-0.0010861406394306289
1765409879.711108,-9.892096881791904,-0.02859444952736597,0.3425258131958254,-0.007929614695583238,0.003041843719504221,-0.0011187808217777656
1765409879.71309,-9.891299764566527,-0.027175752449244993,0.33925106337946986,-0.008050772223659554,0.0035520850008496922,-0.001163985055637063
1765409879.71605,-9.890733552698,-0.025884003211648975,0.3358895038637072,-0.008167789336276692,0.004030396310636825,-0.0012223987102687583
1765409879.718058,-9.890389542689064,-0.024766471853451835,0.3324435610005267,-0.008275959767927462,0.004468262147350671,-0.001294138918570566
1765409879.72114,-9.890262004987267,-0.023866593458327992,0.3289131183895927,-0.008371450595707534,0.004858930296670781,-0.0013788313167982377
1765409879.724116,-9.890349644888621,-0.02322151156044692,0.32529680054867294,-0.00845146444971602,0.005197892412656635,-0.0014756771817501868
1765409879.726176,-9.890656594512558,-0.02285983763224432,0.32159392410205706,-0.008514318141044374,0.005483220976743432,-0.0015835344887585462
1765409879.729114,-9.891192916832225,-0.022799712332319325,0.3178071005640067,-0.008559454942981824,0.005715739755586257,-0.0017009929707952434
1765409879.731151,-9.891974545634305,-0.02304732949162109,0.31394523839488125,-0.008587405957880547,0.005899012704474077,-0.0018264254625680798
1765409879.734145,-9.893022735297324,-0.023596159800392414,0.31002675940852464,-0.008599709069806196,0.0060391414120085085,-0.0019580063364464293
1765409879.736146,-9.894363329275013,-0.024427092402538278,0.30608302472449983,-0.008598788532422925,0.006144368431996225,-0.002093700125703528
1765409879.738104,-9.896026167060306,-0.025509582444278395,0.30216189723519743,-0.008587795609905654,0.00622449676566467,-0.00223123508423374
1765409879.74113,-9.898044683242382,-0.026803714956866502,0.2983310162239372,-0.008570410224224768,0.0062901516110556496,-0.002368083412970722
1765409879.743241,-9.900455443695249,-0.02826294609448931,0.2946799734397635,-0.008550606959366425,0.006351926200889099,-0.0025014694145763738
1765409879.746147,-9.903297189651086,-0.029837206817407657,0.2913203449693042,-0.008532396902233081,0.006419469169701053,-0.002628418525275672
1765409879.748107,-9.906608948462072,-0.03147605509398469,0.28838257275511564,-0.00851956556508036,0.006500583807089003,-0.002745847767743322
1765409879.751084,-9.91042696749992,-0.03313160289227275,0.2860091762132926,-0.00851543061014025,0.006600414846888815,-0.002850687960033092
1765409879.753143,-9.914780628474064,-0.03476098392815123,0.2843446485269892,-0.008522639357375414,0.006720796508424399,-0.0029400237289552173
1765409879.756113,-9.91968787617575,-0.036328177352251724,0.28352318113563363,-0.008543017941720644,0.00685982994410684,-0.0030112380203646183
1765409879.758113,-9.925150813384846,-0.03780510018277231,0.28365566976638107,-0.008577475693919763,0.007011747634618954,-0.003062150595387596
1765409879.759141,-9.931152010821226,-0.03917201564714603,0.2848173983462891,-0.008625962738114454,0.007167102302407899,-0.0030911432278439154
1765409879.76312,-9.937651902224713,-0.04041739923163652,0.2870376289023209,-0.008687476782012706,0.007313289499126258,-0.0030972670941667316
1765409879.766105,-9.944587388664935,-0.04153740389585115,0.2902920422143151,-0.008760115427552619,0.007435381788031401,-0.0030803293005216355
1765409879.768142,-9.951871505659513,-0.042534995644625866,0.2944985853895951,-0.008841170741322991,0.007517222076089373,-0.003040955187323012
1765409879.771141,-9.959393942620983,-0.04341875280985914,0.2995170517667143,-0.008927261829664319,0.0075426956075535815,-0.0029806214717700125
1765409879.774163,-9.967022458879613,-0.04420129316881376,0.3051527621020961,-0.009014499158146545,0.007497078233540865,-0.0029016533111025688
1765409879.777538,-9.97460555380745,-0.04489737053198195,0.31116471733828693,-0.00909867272585452,0.007368347150227623,-0.0028071770579423945
1765409879.779099,-9.98197679505308,-0.04552187757271129,0.3172782367964654,-0.00917545598818792,0.007148338957277953,-0.002701021782483314
1765409879.781162,-9.988960964915604,-0.04608817614876726,0.3232014671326452,-0.009240618197602777,0.006833646574227136,-0.0025875685121522956
1765409879.783225,-9.995381787942529,-0.04660714736683083,0.32864445164728473,-0.00929023751747796,0.006426163766234036,-0.0024715557233708396
1765409879.786169,-10.001070507308082,-0.04708705156171469,0.33333873987115836,-0.009320904358446395,0.005933217381507395,-0.0023578585778228746
1765409879.786669,-10.00587410700509,-0.047533888300791055,0.33705500289223267,-0.009329900541831835,0.005367269589731486,-0.002251263167438278
1765409879.791151,-10.009661856476551,-0.04795170729699598,0.3396162729711446,-0.009315338784642297,0.0047452167686768965,-0.0021562541945651247
1765409879.793142,-10.012329274676397,-0.04834238690724409,0.34090539439615875,-0.009276251032810897,0.00408735245956453,-0.002076827185517228
1765409879.796119,-10.013799347738834,-0.04870472583681979,0.3408665676143494,-0.009212622753205968,0.0034160964789666268,-0.002016328692015046
1765409879.798125,-10.014021533528686,-0.04903310451004326,0.33950192754465786,-0.00912537959001433,0.002754615071072863,-0.0019773240954625627
1765409879.80113,-10.012969584503228,-0.04931624868453452,0.3368647527281602,-0.009016337382221436,0.002125460213119505,-0.0019614938822136415
1765409879.803195,-10.010639416909914,-0.049536632568900466,0.33305112960570343,-0.0088881240033662,0.0015493386167797516,-0.0019695628640069153
1765409879.80613,-10.007048000023902,-0.04967081730550726,0.3281916174277551,-0.008744075276149692,0.0010440894548609193,-0.002001268671168174
1765409879.808124,-10.002233592842924,-0.04969071234926852,0.32244381664790916,-0.00858810320307098,0.0006239134836575963,-0.00205537429229083
1765409879.811186,-9.996256982597563,-0.049565562733128954,0.3159861171444938,-0.008424535635838788,0.00029886313381700746,-0.0021297263466296484
1765409879.811686,-9.989202993768405,-0.049264432024965034,0.3090124854078235,-0.008257930859184191,7.45804022483071e-05,-0.0022213592491806904
1765409879.814179,-9.981181455261552,-0.048758934810997835,0.30172786130750323,-0.008092875940775936,-4.773997758949229e-05,-0.0023266458916766796
1765409879.817267,-9.972326950426028,-0.04802587315109547,0.29434358308963726,-0.007933782794424197,-7.118496243548019e-05,-0.002441494318230931
1765409879.821146,-9.9627969871227,-0.04704932861444405,0.2870723821444427,-0.0077846997358195025,-2.777226099126962e-06,-0.002561583348937218
1765409879.823194,-9.952768580390844,-0.04582183134823122,0.28012280734456335,-0.007649156684439483,0.00014702721408848965,-0.0026826194216802188
1765409879.824141,-9.942433441615172,-0.04434453437639635,0.27369316917606407,-0.007530057019359783,0.0003649689455996329,-0.0028005884740573447
1765409879.829241,-9.931992010641443,-0.04262672458587993,0.2679651557775418,-0.007429619618022246,0.0006357076405839307,-0.002911976536204303
1765409879.831189,-9.921646617150966,-0.04068525338172252,0.2630973296468791,-0.007349364859570968,0.000942598208881305,-0.003013941499177077
1765409879.834178,-9.911594156129354,-0.03854438776927606,0.2592188228830165,-0.007290131649687423,0.0012684856476163735,-0.003104431866167559
1765409879.836221,-9.9020187089851,-0.03623618021836979,0.2564236266876439,-0.007252110067180335,0.0015964951788660351,-0.00318225981383361
1765409879.839167,-9.893084553042602,-0.0338009549148361,0.25476595011333336,-0.007234876785659156,0.0019108052888833131,-0.0032471394442907947
1765409879.841212,-9.884930093275113,-0.031287216269181,0.25425727634204526,-0.007237428212500971,0.0021973934462015616,-0.0032996945022640486
1765409879.843249,-9.87766335263663,-0.028750402551462738,0.2548658154117704,-0.007258217141681936,0.0024447375727774355,-0.003341428619598111
1765409879.846479,-9.87135954627594,-0.026250377092871084,0.25651881770690077,-0.007295208026071401,0.002644445729625805,-0.0033746450629540572
1765409879.849469,-9.866060909910846,-0.02384807749647065,0.2591077472656096,-0.007345969278842532,0.002791775149254191,-0.0034023068782007065
1765409879.851166,-9.861778582832347,-0.021602021054170206,0.2624958830683256,-0.007407816102649646,0.0028859931021140563,-0.0034278387153024157
1765409879.853201,-9.858496135678699,-0.01956531451349573,0.26652762399141383,-0.007478004706162476,0.002930532476554281,-0.003454881771722368
1765409879.856246,-9.85617425216628,-0.0177835982066233,0.2710385982881529,-0.007553961807768893,0.00293290753022696,-0.0034870201715831452
1765409879.858216,-9.854756054609293,-0.016294144969423194,0.2758656901397406,-0.007633517859078626,0.002904375058424032,-0.003527502267748412
1765409879.859207,-9.85417259210858,-0.015126154842607228,0.2808563216777466,-0.007715104465750169,0.0028593463807532775,-0.003578984930224782
1765409879.863182,-9.854348039025634,-0.014302055824257821,0.2858765505859326,-0.007797879609416482,0.002814574705062184,-0.0036433300159571065
1765409879.864212,-9.855204119584855,-0.013839318520651364,0.2908175247064055,-0.007881757762720614,0.0027881616771866617,-0.0037214764459323037
1765409879.869224,-9.856663272437359,-0.013752024671950268,0.29559968393734,-0.007967340777298638,0.0027984441777382523,-0.0038133995737182147
1765409879.871164,-9.858650275139539,-0.014051360008243342,0.30017412993223447,-0.008055763096301202,0.002862834603199787,-0.003918155994272926
1765409879.873186,-9.861092428482985,-0.01474445482704965,0.30452085940039764,-0.00814847764151301,0.0029966943951631004,-0.004033999672286114
1765409879.87616,-9.863918691368319,-0.015831574179276484,0.3086438807231748,-0.008247015665458591,0.003212321055722789,-0.004158546469424857
1765409879.878209,-9.867058226414533,-0.01730237628162669,0.31256354279219556,-0.008352754021181791,0.0035181217866274775,-0.0042889623607865095
1765409879.881169,-9.870438777124354,-0.019132459583161683,0.3163067757576566,-0.00846671628752765,0.003918032974017808,-0.004422157444511259
1765409879.883213,-9.873985232095198,-0.021281396287804295,0.3198962738744823,-0.00858942254020985,0.004411227628023045,-0.004554978538133363
1765409879.886202,-9.87761863284529,-0.02369290597253404,0.32333978805873814,-0.008720791036817563,0.004992134760693583,-0.00468439965813475
1765409879.888199,-9.88125585945902,-0.02629709814616737,0.32662078022019336,-0.008860087786720103,0.005650774760628817,-0.004807707820385231
1765409879.88923,-9.88481041036329,-0.029014198630771926,0.3296919073152503,-0.009005918114775658,0.006373392753378958,-0.004922673967286307
1765409879.893194,-9.888194895553584,-0.03175903292963979,0.3324729062050638,-0.009156255714247136,0.007143348980494158,-0.005027691421527402
1765409879.896189,-9.891325704098742,-0.0344456865002879,0.33485400011735017,-0.009308506007395032,0.007942201746744466,-0.005121861919455188
1765409879.898229,-9.89412969581231,-0.0369920040375991,0.3367049170434527,-0.009459600424353834,0.008750895261093744,-0.00520501397023504
1765409879.901211,-9.896552013998146,-0.03932374019593897,0.33788839626587835,-0.009606117201674993,0.009550947392796104,-0.00527764890055625
1765409879.901711,-9.898563559091395,-0.041378158295232184,0.3382760444612362,-0.009744423594174451,0.010325529680110615,-0.005340822116800005
1765409879.906223,-9.900166460281755,-0.04310680511178543,0.3377638592640062,-0.00987083368383891,0.01106034765118687,-0.005395975662589597
1765409879.908217,-9.90139614025421,-0.044477276380663025,0.33628492930322534,-0.009981773801982678,0.011744258631239325,-0.005444741388608283
1765409879.911227,-9.902319323960178,-0.045474092317937566,0.3338177630250203,-0.010073943937184363,0.012369597744119656,-0.005488734728110533
1765409879.913216,-9.903028339126793,-0.0460991087232682,0.3303899080367524,-0.01014446128703874,0.012932214572499495,-0.0055293604451525
1765409879.917311,-9.903632815251441,-0.04637185371863231,0.32607734668756644,-0.010190974646816533,0.013431249971960374,-0.005567653863814521
1765409879.919377,-9.904250134234514,-0.04632968244427254,0.3210003915463327,-0.010211745244400671,0.013868702418704231,-0.005604180933706851
1765409879.921263,-9.904995835336054,-0.046026997295455604,0.3153167538484361,-0.010205696612584171,0.014248844724799668,-0.005639013996978471
1765409879.923322,-9.905974875655502,-0.04553254117023463,0.30921241671413807,-0.01017243989434027,0.014577555540658883,-0.005671785389668711
1765409879.926309,-9.907274339744635,-0.04492425481460363,0.3028909594493035,-0.010112282834772716,0.014861626651332114,-0.005701802091382485
1765409879.926809,-9.908957934469338,-0.04428220273637448,0.29656199242068365,-0.010026232508175465,0.015108098897477282,-0.005728191328673452
1765409879.931218,-9.91106238188545,-0.04368105638268365,0.2904293179331138,-0.009916001280647896,0.015323671467211789,-0.005750047393735693
1765409879.933318,-9.91359557828185,-0.04318402208059138,0.28467932873896235,-0.009784018536703288,0.015514224093845437,-0.005766562598145255
1765409879.936274,-9.916536184213596,-0.04283964578311143,0.2794701469680093,-0.009633438088062154,0.01568448533389002,-0.005777140251364772
1765409879.938311,-9.919834330502141,-0.042681791550108684,0.2749222577432444,-0.009468120251185102,0.01583786589857473,-0.005781493854410427
1765409879.942292,-9.923413394269577,-0.04273190071201799,0.27111173978171166,-0.009292565722101997,0.015976453151369956,-0.005779730192017402
1765409879.942792,-9.92717309011531,-0.04300209960279927,0.26806723712166963,-0.009111786190277317,0.016101138408790287,-0.005772401222936069
1765409879.946243,-9.930994237310623,-0.04349799164885707,0.26577141478312055,-0.008931108575467384,0.016211831623573113,-0.005760503826097421
1765409879.949333,-9.934745490427249,-0.04422050155461897,0.2641670205859178,-0.008755920054585914,0.01630771332547622,-0.0057454158278760275
1765409879.95132,-9.938292040808653,-0.045166364708434895,0.26316699264509563,-0.008591368237374906,0.016387480850889282,-0.005728775805911097
1765409879.954339,-9.941505745464216,-0.046326853254078364,0.2626672719605018,-0.008442037921186984,0.016449560799058266,-0.005712328407579192
1765409879.956317,-9.944275458503133,-0.04768463035936263,0.2625602291798867,-0.00831163527550782,0.0164922767595055,-0.0056977570753640495
1765409879.959415,-9.946515930125825,-0.04920944294555649,0.2627463046099511,-0.00820271883917992,0.016513976218443825,-0.005686517051153594
1765409879.961312,-9.948173824982607,-0.05085427600075546,0.26314191496883244,-0.008116517011030272,0.016513131945383876,-0.00567967686255539
1765409879.964269,-9.949230131193406,-0.052553939725065994,0.26368278782086624,-0.008052859450775643,0.016488441128015143,-0.0056777840154983
1765409879.967294,-9.949699110827027,-0.054227520589263056,0.26432316923419474,-0.008010227964999382,0.016438947282884336,-0.0056807841418833535
1765409879.967794,-9.94962460568714,-0.055784895677248654,0.2650322939240383,-0.00798590954546932,0.016364201874110883,-0.005688028113923412
1765409879.971231,-9.949074745305758,-0.05713612407667088,0.26578978873036496,-0.007976219381594249,0.01626446660879925,-0.00569838936761737
1765409879.973328,-9.948135892470196,-0.05820158031417199,0.26658130467115965,-0.007976759425807747,0.016140940120448817,-0.005710486716202829
1765409879.974261,-9.946906237647982,-0.058920534232193046,0.26739501823504214,-0.007982686048685801,0.015995977891281096,-0.005722978118887545
1765409879.97631,-9.94548917180579,-0.05925643530675989,0.26821919497801305,-0.007988972059712631,0.015833262723962956,-0.005734870767907074
1765409879.981283,-9.943986556757817,-0.05919805808655824,0.2690408823232629,-0.007990658799011029,0.015657878503079894,-0.005745788709014613
1765409879.981783,-9.942492094337116,-0.0587565906178412,0.26984570953717385,-0.007983101535036462,0.015476246302931164,-0.0057561492248912735
1765409879.986329,-9.941085042249172,-0.05795957481241442,0.2706185663756057,-0.007962215325113346,0.015295897831338607,-0.005767217465918783
1765409879.988312,-9.939824635373787,-0.05684326075342557,0.2713447973077109,-0.007924726034490133,0.015125083418246978,-0.005781029784874154
1765409879.991323,-9.938745767124269,-0.055445282253117824,0.2720115971783133,-0.007868419736080136,0.014972239036011904,-0.005800196058041387
1765409879.993311,-9.93785655549861,-0.053799465630261625,0.2726093591985609,-0.007792366430767996,0.014845365526385667,-0.0058276081217171075
1765409879.996302,-9.937138257042182,-0.0519339824623118,0.27313275598663056,-0.007697080748368057,0.014751394140200698,-0.005866095867507722
1765409879.99835,-9.936547766496394,-0.04987301023578995,0.2735815270614253,-0.007584582157856947,0.014695618569165684,-0.00591808428214573
1765409879.999297,-9.936022734543972,-0.04764085891412455,0.2739612547517159,-0.007458331572023832,0.014681265777003596,-0.005985308480052279
1765409880.004397,-9.935488964333373,-0.04526666065077053,0.2742843867733225,-0.007323044378191123,0.014709259679424094,-0.006068631964993299
