time,acc_x_g,acc_y_g,acc_z_g,gyro_x_rad_s,gyro_y_rad_s,gyro_z_rad_s
1765410050.901545,-5.363651203740285,7.534353879117415,-3.1028755451300913,-0.008325407378688926,-0.002760369619595592,-0.0013840344890182362
1765410050.901745,-5.375717764348432,7.536629300579759,-3.084991534471757,-0.008420883650666516,-0.0029821039495486075,-0.0012541450129212885
1765410050.901945,-5.388020458058432,7.539214043916224,-3.067094603916786,-0.008514372064966943,-0.003167794429890452,-0.00108366328482921
1765410050.902145,-5.4010063778933635,7.541790233810972,-3.048679939903718,-0.008572720554444123,-0.003337011349802956,-0.0008772769958439119
1765410050.902375,-5.415141208047932,7.5440189493982155,-3.0292419214269235,-0.008561057938205233,-0.0035162661733776986,-0.0006431138392625625
1765410050.902625,-5.430893270989907,7.545550331874082,-3.0082943998305973,-0.008443760153321806,-0.0037390262254142948,-0.00039322340912003375
1765410050.902875,-5.448714224703384,7.546033311076523,-2.9853923762407137,-0.008185454658991608,-0.0040453059760232665,-0.00014393076179212164
1765410050.903125,-5.469017201223895,7.545124744125397,-2.96015385394065,-0.0077520280367761795,-0.004480823097284101,8.397954319521922e-05
1765410050.903381,-5.492153754510839,7.54249790849447,-2.932280242706147,-0.007111595754336815,-0.005095744472041398,0.0002652829511660798
1765410050.903581,-5.518391385671005,7.53785042641658,-2.9015736152617686,-0.00623538674150592,-0.005943083183127713,0.000370559489460722
1765410050.903781,-5.5478936242903005,7.530911803465027,-2.867949332043515,-0.005098491315764622,-0.007076841490155425,0.00036666809938305767
1765410050.903981,-5.580704671590357,7.521450811025089,-2.8314429411224453,-0.003680423063944019,-0.008550021855892657,0.00021743769446870911
1765410050.904181,-5.6167404632380515,7.5092829257887095,-2.7922106832360596,-0.0019654541304007915,-0.010412641155101545,-0.00011545360873644982
1765410050.904433,-5.655787637713013,7.4942779873836205,-2.7505233764034465,5.7303353041261986e-05,-0.012709878773419532,-0.0006714511432596418
1765410050.904683,-5.69751118516264,7.476368148829047,-2.7067540469789546,0.002394079592738134,-0.015480470139439786,-0.0014899939748925397
1765410050.904933,-5.741470463734853,7.455556025662848,-2.6613604595636073,0.005046879405775789,-0.01875542977211893,-0.00260932773450805
1765410050.905183,-5.787142014101207,7.431922660069787,-2.6148644629511852,0.008014121245523878,-0.02255715658118488,-0.004065300323916746
1765410050.905457,-5.8339466119828405,7.405634558538275,-2.567830420322643,0.01129141214214889,-0.026898938430346193,-0.005890177466420476
1765410050.905707,-5.881277671103706,7.376948795257845,-2.52084464822801,0.014872371889557251,-0.03178483264159187,-0.008111516000121931
1765410050.905957,-5.928528508506023,7.346215136206041,-2.4744968872575064,0.018749419842727214,-0.03720986246169072,-0.010751137009764142
1765410050.906207,-5.975116778150303,7.313874275903659,-2.4293639383708814,0.022914448526692582,-0.04316045135267244,-0.013824245119362337
1765410050.906441,-6.020505094586717,7.2804514262067705,-2.3859952810328147,0.0273593233186068,-0.0496150245009557,-0.01733874237342002
1765410050.906691,-6.064217248418175,7.2465446601234484,-2.344900753188943,0.03207616664632689,-0.05654472981042817,-0.021294785296941624
1765410050.906941,-6.105849560286387,7.212807777143854,-2.306540682074769,0.037057410892966464,-0.06391424952807058,-0.02568463193471983
1765410050.907191,-6.145077112028751,7.179928069441749,-2.27131872209923,0.04229563301316102,-0.07168267927384332,-0.03049281979337277
1765410050.90745,-6.181654992183044,7.148600033450383,-2.2395771611685746,0.047783208028258216,-0.07980445214997683,-0.03569670383593868
1765410050.9077,-6.215415227465977,7.11949660166912,-2.2115940533676475,0.0535118339541546,-0.08823029562082103,-0.04126736597974041
1765410050.90795,-6.246260585009561,7.093239864211112,-2.1875814398227207,0.05947198772578897,-0.09690822938482856,-0.04717088300562823
1765410050.9082,-6.274156797167975,7.070373529978036,-2.1676839733257913,0.06565237066468363,-0.1057846302835682,-0.053369906752495345
1765410050.908429,-6.299124836335426,7.051339395362398,-2.1519774236347304,0.07203939333463923,-0.11480539236472827,-0.05982547136814269
1765410050.908679,-6.321234489972506,7.036459638844332,-2.140467083254696,0.07861673775681517,-0.12391719663523901,-0.06649890621326987
1765410050.908929,-6.340599689047603,7.025925888950912,-2.1330870651071994,0.08536502789480487,-0.13306888402392117,-0.07335371235932006
1765410050.909179,-6.35737516800694,7.019795115185388,-2.129702322625028,0.0922616413468882,-0.14221289903077136,-0.08035726402433208
1765410050.909419,-6.371753485587572,7.017991874501815,-2.1301152687854397,0.0992807009989988,-0.1513067382529197,-0.08748222036916006
1765410050.909669,-6.383961397022197,7.020316326345978,-2.1340779917934167,0.10639328302023897,-0.1603143050736845,-0.09470756485989482
1765410050.909919,-6.394255017388265,7.026457392533627,-2.1413095924769174,0.11356785896915886,-0.16920705561463306,-0.10201921853369178
1765410050.910169,-6.402913998759466,7.036010238725197,-2.151516574715226,0.12077095833957142,-0.17796482844238892,-0.10941019814666084
1765410050.910486,-6.410235710777492,7.048496902571361,-2.1644130663650096,0.12796800517792759,-0.18657627455236378,-0.11688031334560416
1765410050.910819,-6.416530690473895,7.063388545616091,-2.179737511333154,0.13512425967339878,-0.1950388374419383,-0.1244354244275956
1765410050.911153,-6.422120146813516,7.080127660699968,-2.1972635543624564,0.14220578828564479,-0.20335827317323135,-0.13208631935780468
1765410050.911452,-6.4273352790930645,7.098148816043487,-2.216804614988212,0.14918039301753688,-0.21154774228175252,-0.13984731121552715
1765410050.911702,-6.432517158168288,7.11689719618508,-2.238213151374491,0.15601844676443175,-0.2196265397290898,-0.14773468765758238
1765410050.911952,-6.438015436632773,7.135845011157076,-2.2613761920216304,0.16269360014161027,-0.22761855064809808,-0.1557651439089925
1765410050.912202,-6.444184352818022,7.15450623201351,-2.286208421511171,0.16918333883888173,-0.23555053383520766,-0.16395429835782094
1765410050.912428,-6.4513751580452,7.172449691034587,-2.312643482717904,0.17546937712463423,-0.24345035075008084,-0.17231534580467042
1765410050.912761,-6.459924851979747,7.189309633739009,-2.3406237742863345,0.1815378766718315,-0.2513452740425701,-0.18085787860044558
1765410050.913095,-6.470141679289867,7.204792195216866,-2.3700892100135236,0.18737948558725973,-0.25926051331624195,-0.18958691647351225
1765410050.913429,-6.482288193470939,7.218676711336193,-2.4009661171234975,0.19298920145594411,-0.267218076986095,-0.19850221655995565
1765410050.913679,-6.496563023927603,7.230812157326178,-2.4331582234899627,0.19836607169121917,-0.2752360511549558,-0.20759795046602064
1765410050.913929,-6.513082981578501,7.241110509943811,-2.466541911432157,0.2035127509344606,-0.28332832736616753,-0.21686281102726318
1765410050.914179,-6.531867752838814,7.24953956838583,-2.500967252308762,0.2084349359116154,-0.2915047523840893,-0.2262805550277997
1765410050.914482,-6.552829843793758,7.2561173519003415,-2.5362649510516455,0.213140693835195,-0.2997716039597431,-0.2358309273786764
1765410050.914815,-6.575772239429785,7.260908897011316,-2.5722579317924317,0.21763969780035408,-0.3081322269647577,-0.24549086952686588
1765410050.915149,-6.600395241368072,7.264024827810678,-2.6087755944426116,0.22194238925497795,-0.31658762179742583,-0.2552358955426187
1765410050.915413,-6.6263124876817745,7.265620241693995,-2.645668612400932,0.22605910419404415,-0.32513679095575176,-0.2650415214623909
1765410050.915663,-6.6530749956958015,7.265892673293967,-2.6828217270570023,0.22999921871596088,-0.3337767224964352,-0.27488465105692617
1765410050.915913,-6.680201616202296,7.265078874970135,-2.720161189211014,0.2337703796652049,-0.34250198921917363,-0.28474483456806754
1765410050.916163,-6.70721417970232,7.263450886932945,-2.757653216685715,0.2373778802151156,-0.35130403345333977,-0.2946053056293147
1765410050.916433,-6.73367526456518,7.261311491180338,-2.7952909600120326,0.24082422369694803,-0.36017027749707464,-0.30445367561697373
1765410050.916766,-6.759225849820162,7.258987772302902,-2.8330698368152674,0.2441089052062108,-0.36908325476679726,-0.31428216221997496
1765410050.9171,-6.783619517319586,7.25682024367681,-2.8709537262083105,0.24722843624410457,-0.378019992555423,-0.3240872804037487
1765410050.917517,-6.806749659814609,7.255145115964561,-2.9088365371436637,0.2501766365508199,-0.386951874233887,-0.33386902825699877
1765410050.917767,-6.8286663774664635,7.254269265472495,-2.9465048774657614,0.25294520821761807,-0.39584515120583486,-0.34362972159433663
1765410050.918017,-6.849580331544097,7.254440466766288,-2.9836081185703405,0.25552458418963775,-0.40466217217578526,-0.3533727100431319
1765410050.918267,-6.869851723317857,7.255817851443791,-3.0196420424533765,0.2579050085733885,-0.41336328348536844,-0.3631012008037704
1765410050.918431,-6.889963721820645,7.258448177472609,-3.053951183078505,0.26007776845555725,-0.4219092620781801,-0.37281733850036125
1765410050.918764,-6.9104809030867544,7.262252401368225,-3.085752831510214,0.2620364683233147,-0.4302640761035181,-0.3825215931762735
1765410050.919098,-6.93199437266918,7.267025046951718,-3.114182863564426,0.2637782281148509,-0.43839771554095613,-0.3922124293896583
1765410050.919433,-6.955056321095879,7.2724466543026285,-3.138360622670265,0.2653046951360445,-0.4462888060698945,-0.4018861746279639
1765410050.919683,-6.9801083539237085,7.278107597644681,-3.157467200981186,0.26662278199214473,-0.4539267412567393,-0.41153698365529656
1765410050.919933,-7.007410359119379,7.2835401612459965,-3.170828627994297,0.2677450712451893,-0.4613131421212541,-0.4211568184881078
1765410050.920183,-7.036979111523936,7.288255073318233,-3.1779934360691766,0.26868985973828424,-0.4684625429295358,-0.43073541766889667
1765410050.920489,-7.0685466591087645,7.291778362836913,-3.1787941135764357,0.2694808475963735,-0.4754022756791534,-0.440260282678158
1765410050.920739,-7.10154686184351,7.293684162422487,-3.173384533668733,0.27014650483021246,-0.48217158263661153,-0.44971675440452696
1765410050.920989,-7.13513473963905,7.29361938578113,-3.1622494934244165,0.2707191723349229,-0.4888200359007108,-0.4590882992063764
1765410050.921239,-7.1682386758457755,7.291317804326839,-3.146186342561102,0.27123397500649743,-0.49540538144522633,-0.468357163476751
1765410050.92141,-7.19964100464621,7.286604000859398,-3.126261289533524,0.27172763798603733,-0.5019909448460746,-0.47750555102231124
1765410050.921743,-7.2280788382848975,7.279391032909272,-3.1037443725500804,0.27223729276259484,-0.5086427418686237,-0.4865173994772956
1765410050.922077,-7.2523546829012275,7.269677849478472,-3.0800280314158917,0.2727993330397086,-0.5154264410945556,-0.49538068543015973
1765410050.922455,-7.271445509019847,7.2575522173079206,-3.0565354384297017,0.27344834106166643,-0.5224043338085053,-0.5040900096917408
1765410050.922705,-7.284599236093795,7.24320180245597,-3.0346261347810373,0.27421607318699864,-0.5296324789440698,-0.51264906306646
1765410050.922955,-7.291408964344103,7.226931324986424,-3.0155071902292296,0.275130479660532,-0.5371582033836444,-0.5210725161778255
1765410050.923205,-7.291857709993705,7.209179617744945,-3.000157526668321,0.2762147349702337,-0.5450181352104447,-0.5293869507728948
1765410050.92342,-7.2863294362647,7.190528821509208,-2.989271633334983,0.27748626880619204,-0.5532369142194347,-0.5376306218087139
1765410050.923753,-7.275585184209029,7.171699106357387,-2.9832270983719265,0.2789558151208805,-0.5618266621366018,-0.5458520286447505
1765410050.924087,-7.260705931801985,7.153525242097122,-2.9820780086670884,0.2806265349909217,-0.570787215347486,-0.5541074211484233
1765410050.924429,-7.243006766270777,7.136914972573277,-2.985573386801768,0.2824933066225906,-0.5801070273295615,-0.5624574696755773
1765410050.924679,-7.223930206477134,7.122792780236612,-2.9931972377762457,0.2845423002626951,-0.5897645454215699,-0.5709634031397982
1765410050.924929,-7.20492966738451,7.112035512219812,-3.004224887010926,0.28675095487759084,-0.5997297933317028,-0.5796829623565145
1765410050.925179,-7.187356122399437,7.1054074823861555,-3.0177887701266655,0.28908843698042863,-0.6099658831491104,-0.5886665114376363
1765410050.925429,-7.172360639707434,7.103501581141144,-3.032946088199896,0.29151659615469805,-0.6204302388189545,-0.5979536019427966
1765410050.925762,-7.160822056075534,7.106690464725402,-3.0487419277361756,0.2939913683913334,-0.6310754123937733,-0.6075702182962881
1765410050.926096,-7.153304112132833,7.115089733181651,-3.0642639971865258,0.29646454962087415,-0.6418494923294145,-0.6175268725097869
1765410050.926403,-7.150042667606401,7.128534128059283,-3.078686575871962,0.29888586590072036,-0.6526962183694045,-0.6278176639207829
1765410050.926653,-7.150962067483581,7.1465677146323054,-3.091300943273868,0.3012052727655627,-0.6635550004640982,-0.6384203614235309
1765410050.926903,-7.155718182199364,7.168448607764253,-3.101530217429421,0.30337540283946174,-0.6743610656973915,-0.6492974924445195
1765410050.927153,-7.163761987027002,7.193167566052465,-3.1089302786588617,0.3053540556281941,-0.6850459334237333,-0.6603983454672404
1765410050.927532,-7.174413175174169,7.219478416015683,-3.113182909357588,0.3071066073876306,-0.6955383715563913,-0.6716617359749227
1765410050.927865,-7.186931706729118,7.245938004165729,-3.114088343228473,0.3086082217540494,-0.7057659255381294,-0.6830193648020557
1765410050.928199,-7.200577614506383,7.2709547941057036,-3.111561601122905,0.3098457529389086,-0.7156570225901295,-0.6943996011203479
1765410050.928416,-7.214653692391246,7.292847619802539,-3.1056334506989076,0.31081923508040055,-0.7251435395363615,-0.7057315157362771
1765410050.928666,-7.228529521649709,7.309917795398254,-3.0964548322518124,0.31154283980126946,-0.7341636205903687,-0.7169489437761845
1765410050.928916,-7.241648437593849,7.320537111771064,-3.084302387500043,0.31204517171375595,-0.7426644858358439,-0.7279942736464691
1765410050.929166,-7.253522162963273,7.323250749738815,-3.069580929332946,0.3123687732257144,-0.7506049889334461,-0.7388215930464163
1765410050.929436,-7.263720216111441,7.316889069177841,-3.052817031522169,0.31256873601542506,-0.7579577284305573,-0.749398835166705
1765410050.929769,-7.271861029727772,7.300677767167484,-3.0346387169909494,0.31271037562486925,-0.7647105545026247,-0.7597086706701416
1765410050.930103,-7.277608414192604,7.274333574840794,-3.0157405217541355,0.3128660158216803,-0.7708673460771086,-0.7697480394552337
1765410050.930419,-7.280672496857144,7.238132713915672,-2.9968390154370317,0.3131110289329687,-0.7764479907073487,-0.7795263707959174
1765410050.930669,-7.280811540346739,7.192941261677472,-2.9786275345994744,0.3135193616353594,-0.781487580002504,-0.7890626950915015
1765410050.930919,-7.277831452390995,7.140199910098946,-2.961738324930486,0.3141588372338326,-0.7860348946276271,-0.7983819935368268
1765410050.931169,-7.271582154082342,7.081860122280146,-2.9467165435324243,0.3150865746133741,-0.7901502648502076,-0.8075112226016437
1765410050.931433,-7.261952157932885,7.020274099307843,-2.934006464479836,0.3163448975746334,-0.7939028779360698,-0.816475457676266
1765410050.931766,-7.248863731408147,6.958046518828666,-2.923947728605593,0.3179581034530638,-0.7973676089737759,-0.8252945397145116
1765410050.9321,-7.232271251152088,6.897860522296788,-2.9167785236212214,0.31993040033972303,-0.8006214938825463,-0.8339805164512226
1765410050.932456,-7.212165176562628,6.842292926090066,-2.912642291523144,0.32224521886270935,-0.8037400200050979,-0.8425360663529547
1765410050.932706,-7.1885830097799275,6.793633849224456,-2.9115949880738135,0.32486598299636216,-0.8067934527406598,-0.8509539875282988
1765410050.932956,-7.161626162639386,6.753724357693913,-2.9136117034114863,0.3277383035111215,-0.8098434392905931,-0.8592177383418956
1765410050.933206,-7.131478802326151,6.72382316946675,-2.918593874976851,0.33079344897273255,-0.8129401402274085,-0.8673029436516074
1765410050.933721,-7.098423756390999,6.7045107643260735,-2.9263791469510574,0.33395286243796174,-0.8161201323067663,-0.8751797353591143
1765410050.934054,-7.062852550063443,6.6956369775428595,-2.9367540736641184,0.33713342991521994,-0.8194052744856899,-0.8828157788573521
1765410050.934388,-7.025269782045696,6.696316661119492,-2.949467370849185,0.3402531619667227,-0.8228026096089929,-0.8901798380345265
1765410050.934483,-6.98629318105035,6.704977263580201,-2.9642412729016936,0.3432369131393774,-0.8263052096476998,-0.8972457216153329
1765410050.934733,-6.946649041163713,6.719461473540197,-2.980780716603581,0.3460217321756414,-0.829893732235248,-0.903996394808547
1765410050.934983,-6.907160751449972,6.7371857279797265,-2.9987814350931106,0.3485614138611635,-0.833538400045327,-0.9104279139758066
1765410050.935233,-6.868728318617623,6.7553496429568165,-3.0179367079481603,0.35082982354642794,-0.8372011445270472,-0.9165526801984607
1765410050.935452,-6.832298840282231,6.771182277873618,-3.037940260061329,0.35282261056765213,-0.8408377303627715,-0.9224013986584271
1765410050.935702,-6.7988297467991075,6.7822014234619745,-3.0584824719212853,0.3545570411382973,-0.8443997578432872,-0.9280231718166587
1765410050.935952,-6.76924726194405,6.786455998726768,-3.0792390385061035,0.35606986673480046,-0.8478365137407354,-0.9334833762141765
1765410050.936202,-6.744402730964087,6.782721719278224,-3.0998537007507636,0.35741336791067463,-0.8510967079890579,-0.9388593146151214
1765410050.936434,-6.725030267394134,6.7706259141385265,-3.119918294066895,0.3586499283520563,-0.8541301859157665,-0.944233992249488
1765410050.936767,-6.711710377226965,6.750686317360154,-3.1389541422425022,0.3598456668005318,-0.8568897191920399,-0.9496886518299339
1765410050.937101,-6.704844619383481,6.724258769608831,-3.156399150582527,0.36106376958548686,-0.8593329308831951,-0.9552948799775909
1765410050.937471,-6.704645108960097,6.693399084868932,-3.1716046496452157,0.36235820852838846,-0.8614243117297893,-0.961107172154021
1765410050.937721,-6.711140128653698,6.660654186393944,-3.1838448154270553,0.3637684834116588,-0.8631371819245142,-0.9671568224576469
1765410050.937971,-6.724194298384684,6.628805601641193,-3.192339647532422,0.3653159034343745,-0.864455392340688,-0.9734478732348537
1765410050.938221,-6.743539244087459,6.600592754194072,-3.196290673943525,0.3670017518831408,-0.8653745570666382,-0.9799556070514658
1765410050.938421,-6.768808548583822,6.578443475729279,-3.19492707277542,0.3688074926090147,-0.8659026518271935,-0.9866277399990444
1765410050.938754,-6.799569399696297,6.56423593405153,-3.1875587075048433,0.3706969837012825,-0.8660598841674341,-0.993388180065121
1765410050.939088,-6.835343924202845,6.559111842098025,-3.173631577901186,0.37262046652101055,-0.8658778314325695,-1.000143012957413
1765410050.939479,-6.875616405409798,6.563356764745594,-3.152780327135091,0.37451991571500204,-0.865397933135934,-1.006788252757636
1765410050.939729,-6.919827377994492,6.576359475377103,-3.124871874673884,0.37633519103211205,-0.8646694831182467,-1.0132187877385113
1765410050.939979,-6.967359554599239,6.596657447539249,-3.0900346498582905,0.37801033511758175,-0.8637472751587086,-1.0193378275093972
1765410050.940229,-7.017521924766911,6.622068358310598,-3.0486698623852857,0.37949932037817297,-0.8626890353664166,-1.025066025819366
1765410050.940493,-7.069537721124415,6.649897617566833,-3.0014440231285793,0.3807705840713981,-0.861552767973413,-1.030349362456236
1765410050.940826,-7.122540999216587,6.6772010897770375,-2.9492638957485746,0.3818098274344342,-0.8603941580697656,-1.0351648872020731
1765410050.94116,-7.175585670952869,6.70107351833559,-2.8932358630979933,0.38262078478141753,-0.8592641826792816,-1.0395236057192523
1765410050.94137,-7.227668669735596,6.718929309236597,-2.8346127607463165,0.3832239447359193,-0.8582070545035205,-1.043470102016368
1765410050.94162,-7.2777651398834875,6.728743651474247,-2.774733396785474,0.38365346891345825,-0.8572585815100999,-1.0470788649132727
1765410050.94187,-7.324870194172593,6.729227137461219,-2.7149617334447864,0.3839527648254909,-0.8564450114055077,-1.050447640219309
1765410050.94212,-7.368041377680511,6.719914965764325,-2.656631878354283,0.384169313184874,-0.8557824441000123,-1.0536884503446766
1765410050.942593,-7.40643855280176,6.7011621715676375,-2.601001744088976,0.3843494134206932,-0.8552768880561795,-1.0569172262283284
1765410050.942926,-7.4393609291666385,6.674048560631946,-2.5492151213836505,0.38453348554025535,-0.8549249693448776,-1.0602432448616983
1765410050.94326,-7.466281930327395,6.640209223057745,-2.5022711817348795,0.3847524581403598,-0.8547152026766248,-1.0637596480474962
1765410050.943401,-7.486881269086596,6.601616146161215,-2.461001572315707,0.3850256062199933,-0.8546296666083357,-1.0675361559396033
1765410050.943651,-7.501071500678469,6.560341938435562,-2.4260561885876295,0.38536000405583826,-0.8546459163267726,-1.0716147319898395
1765410050.943901,-7.509014901812476,6.518337790486694,-2.3978982681115713,0.385751541582176,-0.8547389772984586,-1.0760085301357574
1765410050.944151,-7.5111262407255,6.4772547037125525,-2.376808253301258,0.38618723084180784,-0.8548832423764592,-1.080704040657975
1765410050.944478,-7.508057713614603,6.4383297695893145,-2.36289501379884,0.38664833422939276,-0.8550540502620699,-1.085665961269542
1765410050.944728,-7.500664187424398,6.402348616903181,-2.356112612591151,0.3871137253737074,-0.85522871174637,-1.0908439754683874
1765410050.944978,-7.489950295010928,6.369682875038462,-2.35628008395338,0.38756288183671983,-0.8553868153413586,-1.096180376154849
1765410050.945228,-7.477005191872442,6.340389556845038,-2.363100579335092,0.38797801126762455,-0.8555097749187053,-1.1016173762409054
1765410050.945369,-7.462933837724687,6.314349064318876,-2.3761758442469345,0.3883450048303643,-0.8555797343959827,-1.1071030257362673
1765410050.945702,-7.448793880493637,6.291411667249372,-2.3950131575214826,0.38865315061361,-0.8555780786023951,-1.1125949256768295
1765410050.946036,-7.435544932730159,6.271520896479045,-2.419024135361618,0.3888937790475163,-0.8554838921363734,-1.1180613742014969
1765410050.946429,-7.424013822681766,6.254787664655602,-2.4475171102059647,0.38905821094973214,-0.8552727417681549,-1.1234801061989963
1765410050.946679,-7.414876565440101,6.241500185371396,-2.479686327343901,0.3891354992871551,-0.8549161145281432,-1.1288352623143032
1765410050.946929,-7.408655767787799,6.232068790967041,-2.5146017901107065,0.38911047459666287,-0.8543817214376479,-1.13411353261102
1765410050.947179,-7.405730718283109,6.226917699306641,-2.551203844616087,0.38896252995471203,-0.8536347114418518,-1.1393004996143834
1765410050.947439,-7.406356118001142,6.2263449724242905,-2.5883071564953157,0.38866544936495007,-0.8526396888139434,-1.1443780599926565
1765410050.947772,-7.410684468958647,6.230376878198888,-2.624618974680157,0.38818842467948333,-0.8513633238861115,-1.149323516517919
1765410050.948106,-7.418787463390963,6.238644512622722,-2.658774902961179,0.38749822925065786,-0.8497772823870928,-1.1541105993276206
1765410050.948417,-7.430673734755219,6.250309097035885,-2.6893912866907406,0.3865623229969583,-0.8478611541550983,-1.158712334114561
1765410050.948667,-7.446302879586248,6.264056622342268,-2.7151286129625154,0.3853524790869119,-0.8456050441138439,-1.1631053213582805
1765410050.948917,-7.465596737042733,6.278171385076942,-2.734757840528762,0.3838483975778338,-0.8430115156778443,-1.16727465925196
1765410050.949167,-7.488447646381323,6.290682484092147,-2.7472225665584302,0.38204074722320003,-0.8400966516085666,-1.1712185193431601
1765410050.949421,-7.51472106040908,6.299561169739397,-2.7516931288105226,0.37993316070378447,-0.8368901094143433,-1.174951356167603
1765410050.949754,-7.544248948624306,6.302935109432115,-2.7476115596231145,0.37754288139521125,-0.8334341812165158,-1.1785049457418233
1765410050.950088,-7.576812450872575,6.299282243691979,-2.7347269309101274,0.37489998841036404,-0.829781986370936,-1.1819268735869835
1765410050.950408,-7.612116462729932,6.287572972079959,-2.7131193647339273,0.37204536644118247,-0.8259949861148455,-1.1852766176253846
1765410050.950658,-7.649762865192728,6.267342547688146,-2.6832096480428147,0.36902778458023144,-0.8221400078722527,-1.1886198440038047
1765410050.950908,-7.68923112838668,6.2386911645445595,-2.645751175310882,0.3659005573690291,-0.8182859486365818,-1.1920218340766635
1765410050.951158,-7.7298747549141105,6.2022222848105,-2.601801550258969,0.36271826362651005,-0.8145003384917741,-1.1955410338922445
1765410050.951448,-7.770939895275353,6.158937246234915,-2.552672176586946,0.35953391179900923,-0.8108459811706576,-1.1992235913566773
1765410050.951781,-7.811608633027371,6.110106527936798,-2.4998559915616303,0.3563967997007894,-0.8073779034277614,-1.2030995130474194
1765410050.952115,-7.851064058442901,6.057137579830505,-2.444936710314148,0.3533511509031448,-0.8041408113310532,-1.2071808085853655
1765410050.952473,-7.8885682063054485,6.001457167238519,-2.3894873025138557,0.35043544550617645,-0.8011671885524019,-1.2114617005593205
1765410050.952723,-7.923539105049218,5.9444222386189285,-2.3349694826759477,0.3476822337449768,-0.7984761152196757,-1.2159206526822846
1765410050.952973,-7.9556117863692695,5.887266733194788,-2.282647496742268,0.3451181582335252,-0.7960728427402433,-1.2205236622986502
1765410050.953223,-7.98467114067625,5.83108322529014,-2.2335271511476398,0.3427639241892336,-0.793949109513616,-1.225228074012066
1765410050.953427,-8.010850572573151,5.776829915067152,-2.1883263173225904,0.3406340358462823,-0.7920841187869218,-1.2299861655905298
1765410050.953677,-8.034496652980259,5.725347918365419,-2.147478842183664,0.33873624113709494,-0.790446047112071,-1.2347479369591676
1765410050.953927,-8.056104715111234,5.677373433260857,-2.1111705273268178,0.3370707663155178,-0.7889939300803089,-1.2394628471774882
1765410050.954177,-8.07623419328426,5.633534513482401,-2.0794016505020196,0.3356295383528631,-0.787679774552946,-1.2440806000190778
1765410050.954437,-8.095416215753884,5.594330187027205,-2.0520646986988154,0.33439565002855925,-0.786450761988485,-1.2485513587694912
1765410050.95477,-8.114068398510438,5.560096476904562,-2.029021493358213,0.3333433073201756,-0.7852514384234689,-1.2528258903951697
1765410050.955104,-8.13243097084274,5.530967201348254,-2.010164229430817,0.33243842498987497,-0.7840258305305019,-1.2568560990303603
1765410050.955485,-8.150533838094665,5.506837788199237,-1.9954502781015724,0.3316399334884986,-0.782719460511053,-1.2605962655309662
1765410050.955735,-8.16819757259487,5.48733938638648,-1.9849081368615016,0.3309017548273969,-0.7812812370539144,-1.264005105717488
1765410050.955985,-8.185065252497306,5.471829207988776,-1.9786185381276786,0.33017531214257145,-0.7796651867525423,-1.267048522538474
1765410050.956235,-8.20065882816652,5.4594014268286815,-1.976678063222255,0.3294123675940924,-0.7778319820188323,-1.2697027140044772
1765410050.956388,-8.214453685746996,5.448921175765971,-1.979151800367383,0.32856794395520705,-0.7757502214167932,-1.271957174790637
1765410050.956721,-8.225965992384014,5.439082219500668,-1.9860188142145818,0.32760307457444254,-0.7733974187983255,-1.2738171128695732
1765410050.957055,-8.234846071674522,5.428486400164449,-1.9971135879903927,0.32648713490623166,-0.7707606582551031,-1.2753048689614046
1765410050.957408,-8.240966931172181,5.415739799840798,-2.0120698650167403,0.32519953629376275,-0.767836880827603,-1.2764600489972076
1765410050.957658,-8.24449335404341,5.399557369748952,-2.0302774032692623,0.3237306192201695,-0.7646327968169225,-1.2773382392384425
1765410050.957908,-8.245917676745911,5.378865670254315,-2.0508625277844543,0.32208166958149664,-0.7611644672768211,-1.2780083508521096
1765410050.958158,-8.246054391086327,5.352893024381478,-2.0726989742512023,0.32026408166473086,-0.757456646129502,-1.278548809722345
1765410050.958428,-8.245993938686079,5.3212375242988665,-2.0944495216273986,0.3182977869788059,-0.753541977994089,-1.2790429337628453
1765410050.958678,-8.247022447347574,5.28390529981222,-2.114634739481955,0.3162091462362821,-0.7494600954179912,-1.2795738993569787
1765410050.958928,-8.250517405343782,5.241314148652208,-2.1317230113937558,0.3140285514146814,-0.7452565993435208,-1.2802196951291478
1765410050.959178,-8.25783104551155,5.194261085976927,-2.144233836733605,0.3117879996437924,-0.740981894005053,-1.2810484082599582
1765410050.95942,-8.27017477334921,5.143855720709791,-2.150843694138382,0.30951888592926335,-0.7366898839027552,-1.2821140916763414
1765410050.959753,-8.288518209092953,5.0914234493686115,-2.150482246542253,0.30725022591769596,-0.7324365773057899,-1.2834533564726245
1765410050.960087,-8.313513765505354,5.0383838586138925,-2.1424079374328966,0.30500746486819874,-0.7282786401069054,-1.2850828056489068
1765410050.960439,-8.345452541952472,4.986112835781044,-2.126255615578836,0.30281195535858535,-0.7242719210029652,-1.2869975165357117
1765410050.960689,-8.384251776132396,4.9358030009963825,-2.102053104173453,0.3006810974783039,-0.7204699608150821,-1.289170905309848
1765410050.960939,-8.429470234412479,4.8883437543703145,-2.0702071727595834,0.29862903212220004,-0.7169225050873713,-1.29155629674683
1765410050.961189,-8.480346483467521,4.844244177466186,-2.0314616681443605,0.2966676666703342,-0.7136740315218192,-1.2940902753268246
1765410050.961396,-8.535855092746804,4.8036153293524295,-1.9868322881682081,0.2948077223318951,-0.710762289221933,-1.2966974949026218
1765410050.961729,-8.594775980975509,4.766214498458287,-1.9375246124500036,0.29305946904723235,-0.7082168675288942,-1.299296286676384
1765410050.962063,-8.655771684205122,4.73153867899261,-1.8848442881457401,0.2914328857196503,-0.7060578733906591,-1.3018042894472546
1765410050.96243,-8.717466790049233,4.698943831251462,-1.8301093150364922,0.2899371401776861,-0.7042948487085633,-1.3041434278904886
1765410050.96268,-8.778524011344055,4.667762834790967,-1.7745732520444382,0.2885794776531438,-0.7029260678611445,-1.3062437839890197
1765410050.96293,-8.837712642131981,4.637398091753069,-1.7193653058575311,0.28736377631872345,-0.7019383293469059,-1.3080461691446987
1765410050.96318,-8.89396661060827,4.607372869335801,-1.6654501344528974,0.28628912515403043,-0.7013073051052953,-1.3095034702008062
1765410050.963436,-8.946429611266636,4.577336241466553,-1.6136083636886887,0.28534878834050004,-0.700998435158769,-1.3105810552112596
1765410050.963686,-8.994483726284919,4.5470272295274174,-1.564438369157404,0.2845298535815103,-0.7009682730556482,-1.3112566312217784
1765410050.963936,-9.037757629102158,4.516212614125325,-1.5183788184783493,0.2838137374661017,-0.7011661377887958,-1.3115199442026315
1765410050.964186,-9.07611315640831,4.484618802256967,-1.4757479095538677,0.28317755908754416,-0.7015359241261366,-1.3113726248897202
1765410050.96438,-9.10961406212498,4.451879813356648,-1.4367902823659653,0.2825962223729646,-0.7020179409349858,-1.3108283248548782
1765410050.964713,-9.138484579891692,4.417519677481115,-1.4017198321413757,0.28204490033195023,-0.7025506595605747,-1.3099130749855725
1765410050.965047,-9.163065175676572,4.380978560497455,-1.3707487199073183,0.28150151796660056,-0.7030722687161531,-1.3086655903369875
1765410050.965436,-9.18376937513752,4.341680039054574,-1.34409887818161,0.28094881114994297,-0.7035219822382989,-1.307137106858455
1765410050.965686,-9.201042281436346,4.299125618500863,-1.3219985567788977,0.28037561718820775,-0.7038411424767806,-1.305390308937689
1765410050.965936,-9.215320971641379,4.252995125566024,-1.3046694345177476,0.279777220371037,-0.7039742521172252,-1.3034970101055847
1765410050.966186,-9.226998864231764,4.203229916556968,-1.292309014051368,0.27915478347665,-0.7038700713720527,-1.3015344751252251
1765410050.966589,-9.236397819779448,4.150079827575653,-1.2850708677635727,0.27851407830381275,-0.703482826310097,-1.299580575948464
1765410050.966839,-9.243751589580093,4.0941031042408405,-1.2830441075291725,0.27786383713162693,-0.7027734713270152,-1.2977082829032498
1765410050.967089,-9.249203263820046,4.036119438355835,-1.2862327879438318,0.27721406766562073,-0.7017109123945828,-1.2959802168748749
1765410050.967339,-9.252819131273748,3.977126984718103,-1.2945343542094698,0.276574618398172,-0.7002731200696501,-1.294444037644347
1765410050.967406,-9.254620932454731,3.9182010162793057,-1.3077147146738979,0.2759541757061107,-0.6984480915943099,-1.2931292783865296
1765410050.967739,-9.254635463410152,3.860392378250094,-1.3253788664876105,0.2753597510702424,-0.6962346388160588,-1.2920459289560198
1765410050.968073,-9.252954947522769,3.80463968981504,-1.3469404743681577,0.27479660968378905,-0.69364299150966,-1.2911847628054032
1765410050.968401,-9.249796908309301,3.751704025143614,-1.3715980438625106,0.27426852277591623,-0.6906952131561535,-1.2905191802039246
1765410050.968651,-9.245551317618261,3.7021305980824,-1.3983264212885633,0.27377819673380827,-0.6874254048171422,-1.2900081938043397
1765410050.968901,-9.240805078934219,3.6562381604883165,-1.4258906168864065,0.2733277310714354,-0.6838796017330028,-1.28960008499392
1765410050.969151,-9.236337274042345,3.614132493411585,-1.452886138699241,0.27291897876507054,-0.6801151765442562,-1.289236227181067
1765410050.969446,-9.23308225511184,3.5757363017973054,-1.477806628681571,0.27255372772692044,-0.6761995384195358,-1.288854639863626
1765410050.969779,-9.232062367252544,3.5408260127808884,-1.4991349771268931,0.27223368101958145,-0.6722080166305222,-1.2883930107313657
1765410050.970113,-9.234297843071262,3.5090675582734905,-1.515448641117356,0.27196026233935977,-0.6682209886354228,-1.287791149114921
1765410050.970426,-9.240706004456058,3.4800469506138487,-1.5255260417833882,0.27173430024738926,-0.6643204448995232,-1.2869930095164623
1765410050.970676,-9.252002714706405,3.453294702894439,-1.5284411540398768,0.27155565707245083,-0.6605862318354065,-1.2859484716388798
1765410050.970926,-9.268616476204091,3.4283045219454937,-1.5236371263844604,0.27142287218242617,-0.6570922345920412,-1.2846150052307312
1765410050.971176,-9.290623218421517,3.404546890476448,-1.510973512194674,0.2713328834489468,-0.6539028001926664,-1.2829592599365942
1765410050.971405,-9.317709704655327,3.381478046973808,-1.490743318008474,0.27128088345720536,-0.6510697190751281,-1.2809585372847343
1765410050.971655,-9.349173080029255,3.3585445181687694,-1.46365728618207,0.271260368957904,-0.6486300118981223,-1.2786020253094688
1765410050.971905,-9.383959831644916,3.335183116540184,-1.430796283779358,0.2712634445235839,-0.646604619011906,-1.2758916292774412
1765410050.972155,-9.420740044081471,3.3108171887930538,-1.3935376971920623,0.2712814242783011,-0.6449979548297353,-1.2728422390473737
1765410050.972465,-9.458006876341868,3.2848520404998873,-1.3534647226050798,0.27130573241081296,-0.6437982401354836,-1.2694813235985405
1765410050.972798,-9.494189681936213,3.256674661512676,-1.3122664249308282,0.27132904236182587,-0.64297853173835,-1.2658478168242224
1765410050.973132,-9.527770360054648,3.2256638209719775,-1.271633840046489,0.2713465262609673,-0.642498347096378,-1.2619903465910907
1765410050.973435,-9.557392647764896,3.191215625369958,-1.2331572742431864,0.2713570240071072,-0.6423057207842275,-1.2579649348450201
1765410050.973685,-9.581952751989427,3.152786568984075,-1.1982328102140896,0.27136390895146156,-0.6423395162391294,-1.2538323260479332
1765410050.973935,-9.60066053142213,3.1099514166500284,-1.167987835455636,0.2713754479583603,-0.6425318976396697,-1.2496550897865515
1765410050.974185,-9.613065608123758,3.0624682724637484,-1.1432328800902662,0.27140453397417047,-0.6428109582084844,-1.245494627767463
1765410050.974452,-9.619049503017003,3.0103396865662466,-1.1244422127375122,0.2714677894319793,-0.6431034986303101,-1.2414082121990344
1765410050.974702,-9.618789023017465,2.953857979265653,-1.1117625846354868,0.27158415716968354,-0.6433378767157903,-1.2374461785560185
1765410050.974952,-9.612697828051413,2.8936249997922916,-1.1050481100837004,0.2717731738978699,-0.6434468061805511,-1.2336493752787643
1765410050.975202,-9.601355311284284,2.8305395303359724,-1.1039161639394603,0.2720531553644872,-0.6433699923374122,-1.2300469395709566
1765410050.975436,-9.585434556486877,2.7657481212562285,-1.1078143740122368,0.27243953242794045,-0.6430564951250117,-1.2266544617045505
1765410050.975769,-9.565640887674942,2.7005586937859194,-1.1160866794466358,0.2729435683747799,-0.642466672969993,-1.2234726727867447
1765410050.976103,-9.542668522412328,2.6363234083238507,-1.1280292679529171,0.2735716428337774,-0.6415735294666276,-1.2204869204187105
1765410050.976445,-9.517178610659336,2.5743073066138384,-1.1429315246882576,0.27432519735632194,-0.6403633156581744,-1.2176677533999745
1765410050.976695,-9.489800348135105,2.5155667374424358,-1.1600988611852623,0.27520131462001735,-0.6388353272842995,-1.2149728083744866
1765410050.976945,-9.461155968103684,2.4608613170456617,-1.1788546108639808,0.2761937703127735,-0.6370009228296889,-1.2123499203363188
1765410050.977195,-9.431906734369218,2.4106149023889785,-1.198520965139185,0.2772942860831883,-0.6348818499472327,-1.2097411196069745
1765410050.977414,-9.402811074521665,2.364929130747841,-1.218384240821048,0.2784936646008201,-0.6325080369430133,-1.2070870421940982
1765410050.977664,-9.374781788433483,2.323642337750565,-1.2376537422935818,0.2797825288781011,-0.6299150993400899,-1.2043312704213964
1765410050.977914,-9.348929117074498,2.28641931281435,-1.2554242283356623,0.28115150252230287,-0.6271418798615013,-1.2014241798940644
1765410050.978164,-9.326578680482129,2.2528531346866454,-1.2706515924092323,0.2825908140329531,-0.6242283269949574,-1.1983259482543576
1765410050.978405,-9.309255861723605,2.2225587496756383,-1.2821512174496097,0.284089448192663,-0.6212139313558563,-1.195008471551043
1765410050.978738,-9.298631689053819,2.1952397004378716,-1.2886265396568928,0.2856340742246162,-0.61813682810266,-1.19145606094183
1765410050.979072,-9.296430754233329,2.170715351214841,-1.2887300422691041,0.2872080356208307,-0.6150335621005852,-1.1876649681251905
1765410050.979438,-9.30430805318796,2.148905190756297,-1.2811524515234252,0.28879068484987597,-0.6119394070891021,-1.1836419711567638
1765410050.979688,-9.32370663635015,2.1297765628418506,-1.2647313536099791,0.2903572951001664,-0.6088890507438137,-1.1794023783683145
1765410050.979938,-9.355710886788161,2.1132696032587757,-1.2385677138685443,0.29187969165523,-0.6059174194965041,-1.174967847357664
1765410050.980188,-9.400911418273823,2.099216765828617,-1.202136660500687,0.2933276256764737,-0.6030604105751876,-1.1703643847735699
1765410050.980388,-9.459296599160709,2.087274346153752,-1.1553784404586174,0.2946707752994984,-0.6003553147643169,-1.165620821690634
1765410050.980638,-9.530182082226693,2.076881290271089,-1.0987582202316062,0.2958811270393597,-0.5978407587879508,-1.1607679614870308
1765410050.980888,-9.612184528360793,2.0672574037714138,-1.0332882879399667,0.29693539549197356,-0.5955560694956097,-1.1558384526311467
1765410050.981138,-9.70324093279565,2.0574482026796015,-0.9605108222130215,0.29781710360044666,-0.5935400449957042,-1.150867225191177
1765410050.981391,-9.800671658159118,2.046415565361624,-0.8824430601475917,0.2985179747379491,-0.5918291966436524,-1.145892085727734
1765410050.981724,-9.901283334845239,2.0331624281777123,-0.8014898899223781,0.2990383793969854,-0.590455591546588,-1.1409539015955634
1765410050.982058,-10.001506696082576,2.0168693465662115,-0.7203311161242842,0.29938673207164057,-0.5894444626327747,-1.1360958266243115
1765410050.982403,-10.097563504700886,1.9970151538905152,-0.6417910350637476,0.29957793032618835,-0.5888117579729384,-1.1313612444936694
1765410050.982653,-10.185655396524508,1.9734558526205286,-0.5686969571479396,0.29963111488741256,-0.5885617958730308,-1.1267904681976473
1765410050.982903,-10.262165711136522,1.94644489253695,-0.5037322778548791,0.29956714384773164,-0.588685201905392,-1.122416620205794
1765410050.983153,-10.3238635687864,1.9165909500984257,-0.44928964314085246,0.2994061931175754,-0.5891573266048045,-1.1182614002456726
1765410050.983412,-10.368097624605468,1.8847619596413934,-0.40733105899163163,0.2991658425492679,-0.5899373589484341,-1.1143315389640485
1765410050.983662,-10.392965198301816,1.8519533759093132,-0.379263958339519,0.298859910248551,-0.5909683447606328,-1.1106166380514058
1765410050.983912,-10.397441845086467,1.819143520954319,-0.3658436606504886,0.2984981659778258,-0.5921782817341705,-1.1070888772003038
1765410050.984162,-10.381458262909865,1.7871599208392643,-0.36711186979471716,0.2980868988092847,-0.5934823886682331,-1.1037047912133036
1765410050.984416,-10.345916013542213,1.7565787019985748,-0.38237807103992993,0.2976301596268503,-0.594786532545576,-1.1004090227987968
1765410050.984749,-10.29263967469685,1.7276747487307191,-0.41024731474417786,0.2971313731077161,-0.5959916475959415,-1.0971396545450167
1765410050.985083,-10.22426899562481,1.7004327182578485,-0.4486948164796319,0.2965949369251892,-0.5969988233852732,-1.0938344342586233
1765410050.985463,-10.144099358545548,1.6746175075386727,-0.4951848029182085,0.2960274167003707,-0.5977146262120697,-1.0904369781917793
1765410050.985713,-10.0558825505762,1.6498889659999443,-0.5468271200331485,0.2954380163561853,-0.5980561902498448,-1.086901956315154
1765410050.985963,-9.963603154505684,1.6259339360498488,-0.6005598434388235,0.29483814637673683,-0.597955666089219,-1.0831984147975793
1765410050.986213,-9.871248349359584,1.6025837702853656,-0.6533411529270668,0.29424009702135234,-0.5973637085478053,-1.0793107663245742
1765410050.986416,-9.782589137170795,1.579889300258482,-0.7023321670888105,0.29365501576461345,-0.5962517992328505,-1.0752374688333453
1765410050.986666,-9.700988510481936,1.558136323293653,-0.7450553223399992,0.29309055406084195,-0.594613324006217,-1.070987871952864
1765410050.986916,-9.629248239524264,1.537799293882368,-0.7795178511347107,0.2925486457615458,-0.5924634401955947,-1.06657801975985
1765410050.987166,-9.569502240235437,1.5194446547707339,-0.8042944775976587,0.2920238738934747,-0.5898378441063964,-1.062026293565307
1765410050.987422,-9.523160849222187,1.5036045957451274,-0.8185674443692161,0.29150277638603755,-0.5867905791986727,-1.0573496690679536
1765410050.987755,-9.490906277188495,1.490645686919305,-0.8221256526358363,0.29096427145984427,-0.5833910264287241,-1.0525611293594364
1765410050.988089,-9.472735334486895,1.4806558159075531,-0.8153270643066395,0.2903811947682348,-0.5797202148528289,-1.0476685123502927
1765410050.98843,-9.468041721231222,1.4733691049218092,-0.7990292521911666,0.2897227669948388,-0.5758666068208049,-1.0426748274145614
1765410050.98868,-9.475726790505547,1.4681433691997,-0.7744936569678526,0.2889576693915592,-0.5719215598879386,-1.0375798584840135
1765410050.98893,-9.494325095795995,1.463998430882398,-0.7432709945564012,0.2880573045802974,-0.5679747306867198,-1.0323826736632096
1765410050.98918,-9.522130444843764,1.4597155983415824,-0.7070773403017792,0.2869987757022759,-0.5641097308627506,-1.0270844893376174
1765410050.98945,-9.557310446049737,1.4539885737279714,-0.667670961966803,0.28576714510864915,-0.5604003453533479,-1.021691226201467
1765410050.9897,-9.598001679753752,1.4456055538345172,-0.6267391334992198,0.28435663677941403,-0.5569075680894684,-1.0162151097243919
1765410050.98995,-9.64238157035306,1.4336347173712525,-0.5858033771923629,0.28277060904905543,-0.5536776076534399,-1.0106748463061475
1765410050.9902,-9.688715849923142,1.4175832974011429,-0.5461508171173357,0.28102031542462114,-0.5507408960025932,-1.005094208899972
1765410050.990416,-9.735383088329463,1.3975038852118886,-0.5087968824293756,0.2791226541592311,-0.5481120355083801,-0.999499194405498
1765410050.990666,-9.780880909302462,1.3740287797732371,-0.47447988723099827,0.27709725555616316,-0.5457905599806165,-0.9939141854107537
1765410050.990916,-9.823821328631158,1.3483233363834897,-0.44368280173079366,0.27496335642935044,-0.5437623485239353,-0.9883577273822401
1765410050.991166,-9.862923545801623,1.321962364592164,-0.41667401660869485,0.2727369469046692,-0.542001496488389,-0.9828386071881365
1765410050.991396,-9.897011044403996,1.2967474347693142,-0.393557693277432,0.27042862865513717,-0.5404724226140727,-0.9773528665872396
1765410050.991729,-9.925017027505245,1.2744924514781397,-0.37432461995923166,0.2680425014620002,-0.5391320008402605,-0.971882197536398
1765410050.992063,-9.945999332409093,1.2568065429595139,-0.35889574185397816,0.2655762297839545,-0.5379315533505095,-0.9663939029911354
1765410050.992449,-9.959163604069008,1.2448988729137447,-0.34715289098446334,0.2630222728402787,-0.5368186049939863,-0.9608423699492968
1765410050.992699,-9.963891748330244,1.2394239618662994,-0.3389546514627903,0.26037011590289405,-0.5357383606908196,-0.955171854324463
1765410050.992949,-9.959771902147788,1.2403812678064428,-0.33413841298280755,0.257609222264081,-0.5346349300081169,-0.9493203083351693
1765410050.993199,-9.946626662746112,1.2470788820963996,-0.33251103547976274,0.2547323325795914,-0.5334523859252491,-0.9432239462389617
1765410050.993392,-9.92453734468333,1.2581669724227338,-0.33383067546221806,0.25173867641171693,-0.5321357855479515,-0.936822210192004
1765410050.993642,-9.893862176539262,1.2717411744478107,-0.3377829954082924,0.24863664363908175,-0.5306322773417362,-0.9300627491047077
1765410050.993892,-9.855245359351024,1.2855090373619242,-0.3439565190895228,0.2454455044167188,-0.5288923783064976,-0.9229059637478538
1765410050.994142,-9.80961305031707,1.2970041299124087,-0.35182287902777637,0.24219587066714315,-0.5268714500982296,-0.915328638598811
1765410050.994417,-9.758152693552272,1.30382442596726,-0.36072738216103584,0.23892875010773515,-0.5245313478358543,-0.9073262347167863
1765410050.994667,-9.702273615287073,1.3038672429809572,-0.3698943463757845,0.23569322940150106,-0.5218421521644635,-0.8989135856076732
1765410050.994917,-9.643549002442205,1.2955342418755131,-0.3784502009481176,0.23254300143344747,-0.518783821756966,-0.8901239718822574
1765410050.995167,-9.58364196952555,1.2778858098509607,-0.38546474464280095,0.22953209233101113,-0.5153475404985921,-0.8810067609299704
1765410050.995482,-9.524220626469159,1.2507318371573397,-0.39000767858027613,0.2267102271375656,-0.5115365135083294,-0.871623931642653
1765410050.995815,-9.466868105451015,1.2146536191883774,-0.39121514756833475,0.2241182928688073,-0.5073660095082936,-0.8620458693272917
1765410050.996149,-9.412993799518214,1.1709589425038505,-0.3883598659131828,0.22178432301968148,-0.5028625515345764,-0.8523468321627239
1765410050.996468,-9.363752637760415,1.1215789209003892,-0.38091748223902155,0.21972035750631144,-0.4980622994207897,-0.8426004561489907
1765410050.996718,-9.319979739593494,1.0689196668386916,-0.36862134674898633,0.21792044235947836,-0.4930088051933036,-0.8328755837483008
1765410050.996968,-9.282146650851372,1.0156834868198348,-0.35149934369460467,0.2163599323681611,-0.48775041455613466,-0.8232326057535366
1765410050.997218,-9.250342155308651,0.9646734851873329,-0.3298899908166176,0.21499615714836517,-0.4823376120050495,-0.813720437666654
1765410050.997407,-9.224277201982416,0.9185939870970482,-0.3044381956189563,0.2137704197544801,-0.47682056732214956,-0.8043742240033599
1765410050.997657,-9.2033118095197,0.8798584968070843,-0.2760719367004718,0.21261122016024067,-0.4712470538293964,-0.7952138562858196
1765410050.997907,-9.186501911011392,0.8504169367823161,-0.24596048939812962,0.21143852330906152,-0.4656607964182223,-0.7862433761861719
1765410050.998157,-9.172664447618695,0.8316135877849582,-0.21545467759338488,0.21016881338812526,-0.4601002056002842,-0.777451307177871
1765410050.998422,-9.160458595573104,0.8240858628174251,-0.18601066957982657,0.20872059723977693,-0.45459740478591587,-0.7688119265293443
1765410050.998672,-9.148480008663356,0.8277120662870695,-0.15910028869229095,0.20701995745285862,-0.4491774780044913,-0.7602874539883699
1765410050.998922,-9.135363607467742,0.8416136901527825,-0.13611229031967018,0.20500572741979237,-0.443857927783662,-0.7518310712239358
1765410050.999172,-9.119888523099718,0.8642139991144453,-0.11825091009726466,0.20263387550028153,-0.4386483937693787,-0.7433905855751661
1765410050.999418,-9.101076650014976,0.8933494593759292,-0.10643997066743245,0.19988074278933377,-0.4335507111739691,-0.7349124436870916
1765410050.999751,-9.078275018995534,0.9264249119916445,-0.10124192743957855,0.1967448730975213,-0.4285593733558295,-0.7263457343683783
1765410051.000085,-9.051212493054726,0.9605987191399404,-0.10280114518526433,0.19324729553067352,-0.42366241070170824,-0.7176458189458166
1765410051.000436,-9.020022917000759,0.9929814226789838,-0.11081990641594947,0.1894302564988437,-0.41884263094407864,-0.708777280269978
1765410051.000686,-8.985230112412209,1.0208310179101099,-0.12457338465258164,0.18535453465188054,-0.4140791119089932,-0.6997159631527413
1765410051.000936,-8.947695671663391,1.0417294842584868,-0.14296436173744495,0.1810955940982266,-0.40934880494428605,-0.6904499717809416
1765410051.001186,-8.908537191980383,1.0537283046026695,-0.16461079167684026,0.17673891889652682,-0.4046280803938419,-0.6809795893856728
1765410051.001342,-8.869029146151073,1.0554549010509848,-0.187953673597302,0.17237490733999217,-0.39989402328461776,-0.6713161869224746
1765410051.001592,-8.830499003841092,1.0461764425141566,-0.21137182853843547,0.16809368866489352,-0.39512530490889836,-0.661480273723362
1765410051.001842,-8.794228934359284,1.025821262187212,-0.2332921921793356,0.16398017807115356,-0.39030254491082267,-0.651498899860459
1765410051.002092,-8.761370902572619,0.9949604573999691,-0.25228614144006234,0.16010962845824553,-0.3854082053508365,-0.6414026510707721
1765410051.002347,-8.732880598099356,0.954753312389311,-0.2671442652382648,0.1565438766877871,-0.38042615669250757,-0.6312224959948095
1765410051.002597,-8.709472654554688,0.9068608394191554,-0.2769254415116881,0.15332842239402283,-0.37534110363697093,-0.6209867593900823
1765410051.002847,-8.691596629171759,0.853332823654172,-0.28098039659910024,0.15049042702439422,-0.370138075068228,-0.6107184977232559
1765410051.003097,-8.679431495801827,0.7964755070882986,-0.2789530093249474,0.14803768634491032,-0.3648021634185738,-0.6004335287235206
1765410051.003426,-8.672895622655826,0.7387089238030373,-0.27076431959653213,0.1459586040371023,-0.3593186224544746,-0.5901393005205329
1765410051.003759,-8.671668212569474,0.6824240517750306,-0.25658565402393035,0.14422316055442952,-0.3536733208443114,-0.5798346824228767
1765410051.004093,-8.675217521506044,0.6298497540592533,-0.2368079423648164,0.14278482155194128,-0.3478534642885435,-0.5695106396359089
1765410051.004427,-8.682832476037069,0.5829377703896741,-0.21201258084398839,0.14158327212798422,-0.34184847334387736,-0.5591516464064427
1765410051.004677,-8.693657401010087,0.5432711434521668,-0.18294556361003278,0.1405478118656436,-0.33565091664205504,-0.5487376222836736
1765410051.004927,-8.706732142327057,0.5119983752606122,-0.15049346877269376,0.1396012114326078,-0.32925742044183515,-0.5382461611571961
1765410051.005177,-8.721040139328998,0.4897934849943658,-0.115658732311101,0.13866381659898766,-0.3226694916638844,-0.5276548575977835
1765410051.005424,-8.735565165314739,0.47684157480126366,-0.07953206644126279,0.13765768506686765,-0.315894194898316,-0.5169435902300857
1765410051.005674,-8.749354628639175,0.47285000587295234,-0.04326115589102383,0.1365105470808085,-0.3089446150807771,-0.5060966612892346
1765410051.005924,-8.761584397634735,0.4770855271885171,-0.008016596280987692,0.1351593887800682,-0.3018400343210158,-0.4951046967758148
1765410051.006174,-8.771617990967421,0.48843652185998937,0.025042415554424186,0.133553472879295,-0.2946057723139772,-0.48396619312070566
1765410051.006388,-8.779052833722014,0.5054968961280925,0.05480030057199775,0.13165664052404055,-0.2872726825021381,-0.4726885846731097
1765410051.006638,-8.783748486351369,0.5266651533928737,0.08021489792329098,0.12944877783034392,-0.27987633782746185,-0.4612887301437463
1765410051.006888,-8.785834925101852,0.5502503167268916,0.10034623141459026,0.12692637308898364,-0.27245595858623756,-0.44979277939155765
1765410051.007138,-8.78570113426536,0.5745764180347175,0.11438499635114915,0.12410213697505573,-0.265053133298753,-0.4382354574910888
1765410051.007411,-8.78396508994307,0.5980789755889677,0.12167940483729803,0.12100371567603738,-0.25771038651247463,-0.4266588524626023
1765410051.007661,-8.78142689466953,0.6193890899511115,0.121757952219997,0.1176715929832591,-0.2504696677015958,-0.4151107998945856
1765410051.007911,-8.779007969033511,0.6374023499263349,0.11434603940378754,0.11415633646956995,-0.24337085329628272,-0.40364293656954225
1765410051.008161,-8.77767998509835,0.6513302115843492,0.09937429276111452,0.11051538179657949,-0.23645034872772352,-0.39230847280569187
1765410051.008399,-8.778387380738709,0.6607313202993512,0.07697556546154248,0.10680956736264363,-0.2297398618403314,-0.3811597336268489
1765410051.008649,-8.781968208019006,0.6655203016166613,0.04746837549804538,0.10309963448248738,-0.22326541416930223,-0.3702455555781463
1765410051.008899,-8.789080357550736,0.6659524751708898,0.011327890513776527,0.09944289923830586,-0.21704665123903993,-0.3596086890839106
1765410051.009149,-8.800141944731726,0.6625846686913501,-0.030851084146442092,0.09589028132449981,-0.2110964836918829,-0.34928341662658297
1765410051.009473,-8.815293798377665,0.6562145283844871,-0.07839367120105327,0.09248384379501963,-0.2054210448811792,-0.33929362928698154
1765410051.009723,-8.834389089170648,0.6478032966270739,-0.13058206079830917,0.08925495899876466,-0.2000199136930813,-0.32965159201430044
1765410051.009973,-8.857011976280694,0.638389441987922,-0.18668552680161132,0.08622317250825443,-0.19488653171720124,-0.3203575581531697
1765410051.010223,-8.882524185273136,0.6290016873860509,-0.2459793207781192,0.08339578966750792,-0.19000873522523312,-0.311400271791911
1765410051.010392,-8.910135053668228,0.6205792950842804,-0.30775077100514914,0.08076816418107637,-0.18536932853244598,-0.30275826222447144
1765410051.010642,-8.938987120676959,0.6139056399078228,-0.3712940591357068,0.07832463239478349,-0.1809466551015961,-0.2944017363971169
1765410051.010892,-8.968247170985013,0.6095592029533008,-0.43589722928965907,0.07604000853295068,-0.17671517122163632,-0.28629482747366547
1765410051.011142,-8.997192492575287,0.6078842026247983,-0.5008256141795033,0.07388152724072271,-0.17264607589036926,-0.27839794349674635
1765410051.01142,-9.025283317792246,0.60898054267608,-0.5653061251401426,0.07181109415418224,-0.16870807889016756,-0.2706699716113423
1765410051.01167,-9.052214070904075,0.6127099654417588,-0.6285172406757812,0.06978769854645005,-0.16486837906342253,-0.2630701478665977
1765410051.01192,-9.077938111510072,0.6187138507208609,-0.6895892118105693,0.06776985865199739,-0.16109387115441265,-0.25555950652118303
1765410051.01217,-9.102663648342437,0.6264389165158528,-0.7476172069281272,0.06571799129235244,-0.15735252377373626,-0.2481019385949785
1765410051.01254,-9.126822309189276,0.6351690231609702,-0.8016873744132326,0.06359660326519032,-0.15361481220950146,-0.24066496296480644
1765410051.01279,-9.151015421458078,0.6440624810258427,-0.8509133574489363,0.0613761989366752,-0.1498550703438085,-0.23322032607724863
1765410051.01304,-9.175945226635019,0.6521942402815346,-0.894479196670682,0.05903480925987894,-0.146052636380252,-0.22574452200145742
1765410051.01329,-9.20233883427062,0.6586020599893775,-0.9316835046899805,0.056559078261773865,-0.14219269005283525,-0.21821928990629105
1765410051.013446,-9.230872378910082,0.6623358644386789,-0.9619793007907732,0.053944877942228374,-0.13826671101218183,-0.2106321059488704
1765410051.013696,-9.262102089630993,0.6625094254255001,-0.9850045757713917,0.05119744809962109,-0.13427253054181645,-0.20297663690082243
1765410051.013946,-9.296407830740081,0.658352405477874,-1.0006005820002322,0.048331074872808764,-0.13021399383626484,-0.1952530738861532
1765410051.014196,-9.333953143529707,0.6492589241388222,-1.0088170013260667,0.04536833534456748,-0.12610028643309817,-0.18746824299964995
1765410051.014472,-9.374664169799566,0.6348276237122052,-1.0099046550634438,0.04233894768822344,-0.12194500331040913,-0.17963541314112896
1765410051.014722,-9.41822827514896,0.6148889098763546,-1.0042974279072245,0.03927828113717383,-0.1177650576769995,-0.1717737760498147
1765410051.014972,-9.46411173534816,0.5895172907472299,-0.9925858787680841,0.036225600482402316,-0.11357953751558302,-0.16390762525383953
1765410051.015222,-9.511594438896969,0.559029068551051,-0.9754852993355085,0.03322214054027419,-0.1094086082972202,-0.15606528592139463
1765410051.015502,-9.559818090851321,0.5239668950538074,-0.953800654579475,0.03030911739411642,-0.10527252399770766,-0.14827784575862046
1765410051.015752,-9.607842896967224,0.4850728348010282,-0.9283905683540242,0.0275257831315429,-0.10119076489007867,-0.14057772554211972
1765410051.016002,-9.654706590178124,0.44325127127302444,-0.9001326993700769,0.02490762685122668,-0.0971812944934559,-0.13299713104280217
1765410051.016252,-9.699479613733258,0.3995229246668721,-0.8698928584492356,0.022484821514445585,-0.09325992221842892,-0.12556645904016012
1765410051.016436,-9.741311598463803,0.35497176639174066,-0.8384993411902024,0.02028100648584079,-0.08943976211387056,-0.11831277739221019
1765410051.016686,-9.77946656782746,0.3106876962534728,-0.8067224070642388,0.018312470318244296,-0.08573078817406093,-0.11125853450628416
1765410051.016936,-9.813346779042805,0.267709092271517,-0.7752574110633305,0.01658776169209444,-0.08213950229554817,-0.10442065139703269
1765410051.017186,-9.842506989071028,0.22697004231205067,-0.744709421432359,0.015107721695056068,-0.07866874633657699,-0.0978101032356312
1765410051.017462,-9.866661750396968,0.18925670617639628,-0.7155774790332667,0.013865904593044539,-0.0753176980608174,-0.0914320251860815
1765410051.017712,-9.885688129835188,0.15517600087733383,-0.6882377063822257,0.012849335013238459,-0.0720820869461153,-0.08528630719032326
1765410051.017962,-9.899625414064817,0.12513824210102065,-0.6629256972797553,0.012039534200133536,-0.06895464771056842,-0.07936858836868489
1765410051.018212,-9.908672278078487,0.09935391746436499,-0.6397197972431276,0.011413733884465241,-0.06592580235020366,-0.07367152493597476
1765410051.018436,-9.913180771137654,0.07784350716632285,-0.6185281175112479,0.01094618208820428,-0.06298453467624737,-0.06818618746887534
1765410051.018686,-9.913645668896747,0.06045825071727792,-0.5990830306299836,0.01060943876145185,-0.06011939855731129,-0.06290344336394901
1765410051.018936,-9.91068767777388,0.046909105487181954,-0.580946617159873,0.010375571811762808,-0.05731958250235685,-0.05781519267369611
1765410051.019186,-9.905029752664925,0.036800945741942565,-0.5635287715533044,0.010217193036899337,-0.05457594248263346,-0.05291534919001926
1765410051.019456,-9.897466961302126,0.029669206093381265,-0.5461172928813859,0.010108302958643435,-0.05188191866939299,-0.04820049543064477
1765410051.019656,-9.888831254457461,0.025016401809143187,-0.5279176353183255,0.010024933950248366,-0.0492342730712725,-0.043670182838006874
1765410051.019856,-9.87995291242448,0.02234610615476429,-0.5080996206549664,0.009945594468781856,-0.04663361395651936,-0.03932688694563469
1765410051.020056,-9.871620603928678,0.02119217796778761,-0.48584859634617616,0.00985152729549967,-0.04408468854352115,-0.03517565982986602
1765410051.020256,-9.864542247075631,0.021141497809869396,-0.46041826900227567,0.00972680155857791,-0.041596418488647854,-0.031223549166584836
1765410051.020418,-9.85930914860278,0.021849147374676504,-0.4311816998391407,0.009558261606801833,-0.03918163974783399,-0.027478870348042514
1765410051.020668,-9.856365914359959,0.02304567741026432,-0.39767651002083343,0.009335357176663152,-0.03685651331822316,-0.023950422139733835
1765410051.020918,-9.85598824394594,0.024536730578494752,-0.35964082468280145,0.009049882430595554,-0.03463960372607754,-0.020646728786156587
1765410051.021168,-9.858270136287937,0.026195826590991393,-0.3170376408256154,0.00869566002875408,-0.03255066686783378,-0.01757537607619733
1765410051.021464,-9.863121472845608,0.02795168361351678,-0.27006637897567487,0.008268219752745646,-0.030609228891679368,-0.014742488324174732
1765410051.021714,-9.87027637416488,0.02977203480447716,-0.21916101610326985,0.007764531549297579,-0.028833061140437887,-0.01215236741784526
1765410051.021964,-9.879311954935556,0.03164625700805884,-0.16497475172549245,0.0071828497689886564,-0.027236667129999437,-0.00980728558695964
1765410051.022214,-9.8896761675453,0.03356903564384205,-0.10835202231434168,0.006522705167279217,-0.025829904834808688,-0.007707398263316867
1765410051.022532,-9.900722628009412,0.03552682163818368,-0.05028969113950683,0.005785050428250713,-0.024616867172160134,-0.005850730954440487
1765410051.022732,-9.911749911096544,0.03748824181690913,0.008110034563232662,0.004972532736458531,-0.023595126241434946,-0.004233195864432528
1765410051.022932,-9.922042756279104,0.03939904791421343,0.06569208712384829,0.0040898380747284606,-0.022755414745458544,-0.0028486063546044665
1765410051.023132,-9.930912737511074,0.04118165840542172,0.12130335913647328,0.0031440298343186203,-0.022081780943330246,-0.0016886770501048207
1765410051.023332,-9.937736106033885,0.042738923601960147,0.17384657936414857,0.002144794374189623,-0.021552215368377117,-0.0007430206532622758
1765410051.023451,-9.94198682079342,0.043961498829388185,0.2223300032298667,0.0011045120203594782,-0.021139706456453248,8.291856103598413e-07
1765410051.023651,-9.943263335115459,0.04473804048005202,0.2659102316956069,3.8093115907612944e-05,-0.020813640741221155,0.0005573360953388222
1765410051.023851,-9.941308347597506,0.04496710107931431,0.30392623658840967,-0.0010374469677094176,-0.02054143170722491,0.0009427997961368867
1765410051.024051,-9.936021172514417,0.04456905041597835,0.33592319849196484,-0.0021036564629744485,-0.02029024796291989,0.0011751118769446091
1765410051.024251,-9.927462600053783,0.04349596236040478,0.36166513877896556,-0.003141499152688476,-0.02002871226834174,0.0012734330712800127
1765410051.024482,-9.915852292851111,0.04173767407882123,0.3811359377982745,-0.004132300413765259,-0.019728448938024452,0.0012577938420253072
1765410051.024682,-9.90155902770854,0.03932323416472649,0.3945292277725349,-0.005058691669000422,-0.019365368790344516,0.0011486173141009714
1765410051.024882,-9.885084396666263,0.03631821501113312,0.40222854842986816,-0.005905470865099085,-0.018920607307487104,0.0009661734431801209
1765410051.025082,-9.867040862293512,0.03281916978798781,0.4047798350493174,-0.006660319615387188,-0.018381074611032246,0.0007299969805255351
1765410051.025282,-9.848125273277262,0.028946516529986848,0.40285866300205525,-0.00731434105121785,-0.01773962347585268,0.00045832637592494845
1765410051.025431,-9.829089031510089,0.02483656609816987,0.3972345939433267,-0.007862401878795597,-0.016994880597413147,0.00016762958371959838
1765410051.025631,-9.810706087628509,0.020632837806233123,0.3887345302759483,-0.008303276240965744,-0.016150811771283226,-0.00012773169229768173
1765410051.025831,-9.793739960207908,0.016476653584691962,0.37820652598088866,-0.008639596731157157,-0.015216102696198,-0.000415678893971072
1765410051.026031,-9.778911047993715,0.012497281716559429,0.3664852627604615,-0.008877620677386759,-0.014203431896025222,-0.0006864469026751109
1765410051.026231,-9.76686549314595,0.008802293616316608,0.35436026416461847,-0.009026822585835583,-0.013128694035223105,-0.0009325013767000352
1765410051.030013,-9.75814671810981,0.005468987184804227,0.3425477017266185,-0.009099329611906218,-0.012010212887440884,-0.0011483831036204397
1765410051.030213,-9.75317066182287,0.0025376783975021334,0.33166639686231514,-0.009109223712053659,-0.010867972733426025,-0.001330514537688208
1765410051.030413,-9.752205781821566,7.549113323547691e-06,0.3222185149672368,-0.009071739602797915,-0.009722890358918674,-0.0014769942998443504
1765410051.030613,-9.755358952156339,-0.002164309797829094,0.3145755308226332,-0.009002395473007026,-0.00859613774238856,-0.0015873959108593937
1765410051.030813,-9.762568317961573,-0.004060098552575486,0.30897015309444265,-0.008916106968378367,-0.007508510165469693,-0.0016625776520249813
1765410051.030148,-9.77360393264205,-0.005794502318598989,0.3054947997030866,-0.00882634941596897,-0.00647982709580394,-0.0017045005495527408
1765410051.030348,-9.78807664711376,-0.007504237838766815,0.30410687812737913,-0.00874443871208281,-0.005528357997171913,-0.0017160444137118763
1765410051.030548,-9.805455278499123,-0.009334996866847245,0.30464072091774225,-0.00867899226939028,-0.004670275586170197,-0.0017008126610809512
1765410051.030748,-9.825091565506742,-0.011427248221295802,0.30682565131813017,-0.008635610381728285,-0.003919148643272999,-0.0016629248235622987
1765410051.030948,-9.846251822091997,-0.013902376717537761,0.31030922599706745,-0.008616792606976046,-0.0032854952186455216,-0.0016068043522173088
1765410051.030468,-9.868153594688403,-0.01685043585018826,0.3146842381161382,-0.008622080463212676,-0.002776425235566574,-0.0015369722980692435
1765410051.030668,-9.890005157904826,-0.020320589820837235,0.3195177606880901,-0.00864840029357972,-0.0023954049656230137,-0.0014578546453488449
1765410051.030868,-9.911045445504408,-0.0243151078089889,0.3243804398774076,-0.008690567980774876,-0.0021421703658581204,-0.0013736074943339984
1765410051.031068,-9.9305819480345,-0.02878742612633274,0.328874243712534,-0.008741908343337875,-0.002012803235355162,-0.0012879643923623804
1765410051.031268,-9.948024136847605,-0.03364431197790175,0.33265683967615645,-0.008794935435951905,-0.0019999694825234174,-0.0012041132578626407
1765410051.031469,-9.96291016621731,-0.03875167054005161,0.33546088233359966,-0.008842036200499224,-0.0020933073823725516,-0.0011246122642575194
1765410051.031669,-9.974925073975513,-0.043943177595333345,0.3371069075477868,-0.008876101683064443,-0.0022799467021265333,-0.00105135206851036
1765410051.031869,-9.983909407763198,-0.049030801837881076,0.33750915938825243,-0.008891059982417108,-0.0025451355957936154,-0.0009855663850837798
1765410051.032069,-9.989857998030248,-0.05381639881490164,0.3366743049130681,-0.008882280984407449,-0.00287294858688278,-0.0009278857008855084
1765410051.032269,-9.992909379157576,-0.058103750623609146,0.33469355767581493,-0.008846837813925758,-0.0032470427289974188,-0.0008784221158654272
1765410051.032448,-9.993327082713632,-0.061710514554203316,0.3317292991720853,-0.008783619962953779,-0.0036514192470042707,-0.0008368699351013984
1765410051.032648,-9.991474608458429,-0.06447949544860596,0.3279978030693013,-0.008693301617809086,-0.004071138008056917,-0.0008026085653319152
1765410051.032848,-9.987786201164678,-0.0662885651202018,0.3237499065380668,-0.008578179902199272,-0.0044929277911587295,-0.000774800404198932
1765410051.033048,-9.982735598133116,-0.0670585364257219,0.31925132952810553,-0.00844190982852437,-0.004905640748124005,-0.000752483736073982
1765410051.033248,-9.976804786034107,-0.06675841038392358,0.31476399394518456,-0.008289170627541729,-0.005300515340015637,-0.0007346658770639294
1765410051.033416,-9.970454651701726,-0.065407598074873,0.3105293669231776,-0.008125299179146573,-0.005671234921274958,-0.0007204222200192102
1765410051.033666,-9.96409922652929,-0.06307489568595792,0.3067545954516627,-0.007955922148611778,-0.006013792501114489,-0.0007090012617829687
1765410051.033916,-9.958084918494547,-0.05987416636586038,0.30360196947393214,-0.007786612867366556,-0.0063261904482335846,-0.0006999261426207577
1765410051.034166,-9.952675672717385,-0.05595691739355578,0.30118201917949855,-0.007622594306585169,-0.006608016268295815,-0.0006930750496101975
1765410051.034436,-9.948044490896736,-0.05150226548408866,0.29955032531550874,-0.007468505212747538,-0.006859944939158179,-0.000688721993631817
1765410051.034636,-9.944271327938615,-0.046705095944085374,0.298707965936638,-0.00732824140823291,-0.007083225794965789,-0.0006875279005562563
1765410051.034836,-9.941347156769208,-0.04176345720140565,0.29860547670006227,-0.007204878624435767,-0.007279214031678217,-0.0006904848812250004
1765410051.035036,-9.939183838145237,-0.036866321776237145,0.29915014660977673,-0.007100677737332067,-0.007448998661083658,-0.0006988257001709284
1765410051.035236,-9.93762914948051,-0.03218277522890805,0.30021627230288017,-0.00701716701053255,-0.007593160783658146,-0.0007139114823735889
1765410051.035374,-9.936485895392114,-0.02785350635739363,0.3016576907965772,-0.006955286809812365,-0.0077116753246092695,-0.0007371068008063008
1765410051.035574,-9.935533625352763,-0.023985203093604364,0.3033216205953246,-0.006915570107681232,-0.007803950995364587,-0.0007696489520551813
1765410051.035774,-9.934551244659232,-0.020648134889444888,0.30506261865551704,-0.006898321138653965,-0.007868986572375282,-0.0008125198819832751
1765410051.035974,-9.933338689438257,-0.017876863897968172,0.3067553391263191,-0.006903751441516095,-0.007905607483518932,-0.0008663316966628806
1765410051.036174,-9.931735824055936,-0.015673708521072367,0.30830480351198597,-0.00693204144921476,-0.007912740880084328,-0.0009312365063188996
1765410051.036396,-9.929636902133113,-0.014014310553382847,0.30965309686820947,-0.006983314851804807,-0.007889692428740654,-0.0010068683998434118
1765410051.036596,-9.926999393823342,-0.012854490724346246,0.3107818316028123,-0.007057534614120086,-0.007836398576506358,-0.0010923208528179893
1765410051.036796,-9.923846659943418,-0.012137561384421725,0.31171033102870555,-0.007154345353486624,-0.007753636245334456,-0.001186157715798779
1765410051.036996,-9.920264651194877,-0.011801348253425152,0.31249006762239206,-0.007272893083353906,-0.00764317424571559,-0.0012864518014492892
1765410051.037196,-9.916393334858071,-0.011784287152346754,0.31319623617144954,-0.007411652701686903,-0.00750784948114265,-0.0013908437047673652
1765410051.037351,-9.912413858236873,-0.012030126585282715,0.3139174571647114,-0.007568291205211868,-0.007351552227766393,-0.0014966149609762596
1765410051.037551,-9.908532660187896,-0.012491012115978814,0.3147446230800741,-0.007739592786757375,-0.007179112755446781,-0.001600773476129694
1765410051.037751,-9.904963955208675,-0.013128995467246904,0.315759898338082,-0.00792146808141713,-0.006996094739835229,-0.0017001542040848625
1765410051.037951,-9.90191221635557,-0.013916211406154844,0.3170268694411718,-0.008109059566941088,-0.0068085137079858474,-0.0017915408625103306
1765410051.038151,-9.89955632979992,-0.014834045048449712,0.3185827660414734,-0.0082969386490234,-0.006622506604468757,-0.0018718118700307245
1765410051.038349,-9.89803686585263,-0.015871565565007278,0.3204334734529851,-0.00847937392919562,-0.006443980509076872,-0.0019381063830814272
1765410051.038549,-9.89744745002927,-0.017023400866198458,0.3225517660116426,-0.00865064188696069,-0.00627826745576909,-0.0019879974114793996
1765410051.038749,-9.89783069817272,-0.01828718183333601,0.3248789098830436,-0.008805351482410191,-0.006129812925667461,-0.0020196515649140365
1765410051.038949,-9.899178719667148,-0.01966073503574321,0.3273295204821419,-0.00893875813819101,-0.006001928928644453,-0.0020319528978910094
1765410051.039149,-9.901437750326172,-0.021139308340256572,0.32979923694333085,-0.00904704599405078,-0.005896642787695603,-0.0020245742792440805
1765410051.039384,-9.904516003970382,-0.022713206724560977,0.3321743928986486,-0.009127558922294507,-0.0058146635261559654,-0.0019979908869857464
1765410051.039584,-9.908293444055714,-0.02436622022799836,0.33434253170171974,-0.009178961154267256,-0.005755470694827844,-0.001953440358722538
1765410051.039784,-9.912632062724601,-0.02607510600907494,0.33620248490362475,-0.009201310200299732,-0.005717512297180019,-0.0018928389079610826
1765410051.039984,-9.917385472098355,-0.027810203958550397,0.3376728997083144,-0.009196030709080887,-0.005698483067969416,-0.0018186625728737404
1765410051.040184,-9.92240702564411,-0.02953711056493265,0.3386984869122978,-0.009165787222911427,-0.005695642892378026,-0.0017337998270921526
1765410051.040416,-9.927556074317758,-0.031219214062452146,0.33925363013723636,-0.009114264001186612,-0.005706131012435534,-0.0016413791562819757
1765410051.040616,-9.93270219930573,-0.03282075984223253,0.33934321386343874,-0.009045870230301664,-0.005727238906756058,-0.0015445761722324616
1765410051.040816,-9.937727422356621,-0.03430998053578309,0.33900071340988297,-0.008965397844146572,-0.005756621345308962,-0.0014464106137383416
1765410051.041016,-9.942526609345457,-0.03566176458313578,0.3382838967820058,-0.00887766443713474,-0.005792441695408985,-0.0013495520072952399
1765410051.041216,-9.947006548801063,-0.03685941124013403,0.337268841003874,-0.008787174563460648,-0.00583345491008222,-0.001256159244402538
1765410051.041437,-9.951084387481785,-0.0378952138520561,0.3360431595037393,-0.008697830116247113,-0.0058790294205521175,-0.0011677791543973084
1765410051.041637,-9.954686165960068,-0.03876982984268607,0.3346992708301241,-0.008612714584775808,-0.005929105192617845,-0.0010853201017165504
1765410051.041837,-9.957746114003033,-0.039490546601376054,0.33332827507405516,-0.008533966687680748,-0.005984086616354514,-0.001009101035222083
1765410051.042037,-9.960207154109298,-0.040068660091281155,0.3320147158457221,-0.008462748016036512,-0.006044676346907956,-0.0009389608228469251
1765410051.042237,-9.962022768272966,-0.040516315007380926,0.3308323610692538,-0.0083992991974208,-0.006111666107312012,-0.0008744039578477625
1765410051.0424,-9.963160063519801,-0.040843278604765484,0.32984113488216893,-0.008343070621838878,-0.006185708673614179,-0.0008147590472651066
1765410051.0426,-9.96360354531573,-0.041054141689807554,0.3290853177158737,-0.008292907631955821,-0.006267098728822849,-0.0007593326157189868
1765410051.0428,-9.963358833164444,-0.04114635221029122,0.328593021176903,-0.008247267473484348,-0.006355588998012562,-0.000707547146339654
1765410051.043,-9.96245548355622,-0.04110935738443677,0.3283768291596297,-0.008204446578526965,-0.006450264926280353,-0.0006590552672133106
1765410051.0432,-9.960948298126084,-0.0409249990884065,0.3284354602471898,-0.008162800498495623,-0.006549496725998026,-0.0006138221831912011
1765410051.043435,-9.958916830409288,-0.040569170235206606,0.3287562922970922,-0.00812094260081828,-0.006650978292784994,-0.0005721689152238103
1765410051.043635,-9.956463028672951,-0.04001457976986873,0.3293184817606883,-0.008077910106106114,-0.006751847121130131,-0.0005347710264605363
1765410051.043835,-9.953707011562281,-0.03923428836272376,0.3300961857372853,-0.008033288158236956,-0.0068488644184843735,-0.0005026105714383387
1765410051.044035,-9.950781014946264,-0.038205529599016214,0.33106121639781333,-0.007987286023218548,-0.006938628820406533,-0.0004768831880356413
1765410051.044235,-9.947821744202145,-0.03691332233304186,0.33218456305604044,-0.007940763685454131,-0.007017801980522202,-0.00045886885158158343
1765410051.044425,-9.944961724172053,-0.035353510295672255,0.33343662358056025,-0.007895209778356225,-0.007083332636753279,-0.00044978295584133536
1765410051.044625,-9.942320556620999,-0.03353502212130496,0.3347864091769122,-0.007852672219147247,-0.007132669413747292,-0.00045062984846066487
1765410051.044825,-9.939997056265113,-0.03148125236524542,0.33620017875675073,-0.00781564354225659,-0.0071639502163536525,-0.00046207960318990303
1765410051.045025,-9.938063052296743,-0.0292305371084747,0.33763996869821966,-0.007786906315427673,-0.007176152049593046,-0.0004843809527135678
1765410051.045225,-9.936559398841215,-0.026835748042027256,0.33906245446040095,-0.007769349243613031,-0.007169183613863695,-0.0005173136495883788
1765410051.045419,-9.935494544078153,-0.024363040635640192,0.3404185251027823,-0.007765768430043155,-0.007143905571667574,-0.0005601767732810333
1765410051.045619,-9.934845823180929,-0.021889778798291536,0.3416538367807099,-0.007778668478346512,-0.007102070978995747,-0.0006118068882672501
1765410051.045819,-9.934563402967258,-0.019501647071072138,0.3427104478252674,-0.0078100738184123785,-0.0070461908026447,-0.0006706202845494003
1765410051.046019,-9.934576500960448,-0.017288958158038676,0.34352940932466847,-0.007861353511683787,-0.006979341824274395,-0.0007346754598615414
1765410051.046219,-9.934801157126206,-0.01534219242349969,0.34405389023945737,-0.007933058466141021,-0.00690494002892122,-0.0008017539018925212
1765410051.046411,-9.935148569603069,-0.01374690828777359,0.3442322063622909,-0.008024773252433863,-0.006826501715628304,-0.0008694569676000627
1765410051.046611,-9.935532974436335,-0.012578328320064634,0.3440201762935059,-0.008134993273134694,-0.0067474134273721245,-0.0009353136528365283
1765410051.046811,-9.935878270729756,-0.011896075210801733,0.34338251237666034,-0.00826104586981421,-0.006670733585963673,-0.0009968904141316763
1765410051.047011,-9.936122928394981,-0.011739649653507095,0.3422933134684797,-0.00839907876553891,-0.006599048954100084,-0.001051892879981035
1765410051.047211,-9.936223066274302,-0.012125248262944486,0.34073608868918404,-0.008544140963873055,-0.006534402703080758,-0.001098251430829814
1765410051.047426,-9.936153921879784,-0.013044355493307402,0.3387040319055738,-0.008690376289453879,-0.006478299554065852,-0.0011341867264996165
1765410051.047626,-9.935910139142884,-0.014464248906658539,0.3362012845256629,-0.008831333934897198,-0.006431782702171214,-0.0011582549780910878
1765410051.047826,-9.93550524410039,-0.01633027818360754,0.33324555662639466,-0.008960376045771622,-0.00639556962613832,-0.001169375630830026
1765410051.048026,-9.934970415832987,-0.01856961562957978,0.3298719072395306,-0.00907113847384386,-0.006370227344288587,-0.001166846931356509
1765410051.048226,-9.934352392996757,-0.021096104071408495,0.32613699649050026,-0.009157986741293436,-0.006356359149193673,-0.0011503566244697257
1765410051.048461,-9.93371019436169,-0.023815787973010615,0.32212281099810247,-0.009216410098999055,-0.006354765672297594,-0.0011199932883453718
1765410051.048661,-9.933110280873212,-0.02663268482340595,0.31793872884058344,-0.009243311518818922,-0.006366540118032647,-0.0010762583809165985
1765410051.048861,-9.932619908217942,-0.029454322361644667,0.3137209455094874,-0.009237173872305052,-0.006393065954868786,-0.001020073330927459
1765410051.049061,-9.932298752020744,-0.03219652875493791,0.309628778751548,-0.009198102729826636,-0.006435902286010699,-0.0009527736524061041
1765410051.049261,-9.932189279242591,-0.034786976113862736,0.3058379439434623,-0.009127757602802555,-0.006496560357061369,-0.0008760837959313871
1765410051.049432,-9.932306617518835,-0.0371671281154721,0.3025312529583741,-0.00902918712856252,-0.006576191310798334,-0.0007920702562352633
1765410051.049632,-9.932628925893146,-0.039292524683094125,0.2998874370109918,-0.008906585687277894,-0.006675221436462388,-0.0007030739684424269
1765410051.049832,-9.93308965378986,-0.04113162529847234,0.29806915829754904,-0.008764993637706543,-0.006792983856954881,-0.0006116253150623111
1765410051.050032,-9.933573412627192,-0.04266360377071035,0.2972116135668958,-0.00860997027783754,-0.006927397127827211,-0.0005203463482191827
1765410051.050232,-9.933917080437253,-0.04387553945653534,0.29741311326668496,-0.008447273541611846,-0.007074729760031689,-0.000431845255168693
1765410051.050425,-9.9339171266632,-0.04475946390668765,0.2987286622524949,-0.008282578478753232,-0.00722947423706118,-0.00034860788903383523
1765410051.050625,-9.933343270796378,-0.045309730401412285,0.30116714394539823,-0.008121256043703005,-0.0073843430492720125,-0.00027289127321954084
1765410051.050825,-9.931957685523251,-0.04552113090377241,0.30469224737641676,-0.0079682183606626,-0.0075303910809191455,-0.000206625159105731
1765410051.051025,-9.929538036912646,-0.045388057597149235,0.30922665986191283,-0.007827823284775427,-0.007657260270413135,-0.00015132949733080532
1765410051.051225,-9.925901911533053,-0.04490483428111846,0.31465850852532845,-0.0077038240267923675,-0.007753537586338663,-0.0001080565615693707
1765410051.051413,-9.920930001675611,-0.04406718799039531,0.32084900169947467,-0.007599347906659183,-0.007807218141466624,-7.736528158053225e-05
1765410051.051613,-9.914585845848443,-0.04287470534129829,0.32764065108712703,-0.007516889139315256,-0.007806263317343745,-5.9332198361985095e-05
1765410051.051813,-9.906930460831383,-0.04133399961559232,0.33486578784630994,-0.007458303001755426,-0.007739230375507278,-5.3598979892863266e-05
1765410051.052013,-9.898130457202146,-0.03946220702376249,0.34235501121828793,-0.007424793274317184,-0.0075959312752744736,-5.945112144611593e-05
1765410051.052213,-9.888458402520087,-0.03729035239667973,0.349945017266946,-0.007416891294405432,-0.007368069744165694,-7.591764228479974e-05
1765410051.052444,-9.878284667708517,-0.034866060309782294,0.35748526176179096,-0.007434431836848911,-0.0070498114998632285,-0.00010187985264216632
1765410051.052644,-9.868060721701292,-0.032255022836785656,0.364843026736488,-0.007476536190229893,-0.006638251758530279,-0.00013617981012860748
1765410051.052844,-9.858294518110933,-0.029540629493735995,0.3719065408689636,-0.007541614194672845,-0.006133747441884148,-0.00017772303766342023
1765410051.053044,-9.849519159790145,-0.026821304701394936,0.37858592266222074,-0.007627393979738502,-0.005540081937008966,-0.00022557058945305426
1765410051.053244,-9.84225656216975,-0.024205372870227268,0.38481188272890093,-0.007730982590504436,-0.004864434816782892,-0.0002790112625083683
1765410051.053494,-9.836978431581718,-0.021803590352290427,0.39053217728035206,-0.007848955920132674,-0.004117140684095695,-0.0003375989912309446
1765410051.053694,-9.834067529550477,-0.019719839596108638,0.3957058127067049,-0.007977473784032246,-0.0033112410118123904,-0.0004011372270104242
1765410051.053894,-9.833782837603692,-0.018041008309353658,0.4002953544233908,-0.008112414209332963,-0.0024618579954580285,-0.0004695943547945548
1765410051.054094,-9.836232526768354,-0.016827806434227596,0.40425849284215004,-0.00824951921490645,-0.0015854433119629004,-0.0005429462403748322
1765410051.054294,-9.841358154990496,-0.016108764929538073,0.4075406770069192,-0.008384543806307319,-0.0006989725996442761,-0.0006209675964804737
1765410051.054399,-9.848932359338066,-0.01587915237926755,0.4100705301439445,-0.008513400556548058,0.0001808338546743063,-0.000703025618361684
1765410051.054649,-9.858570980312235,-0.016104874005108755,0.4117590787008823,-0.008632291438324067,0.0010381915355163495,-0.0007879439558405884
1765410051.054899,-9.869759228812196,-0.01672957609582643,0.4125032577279997,-0.008737817819267262,0.0018587958189642277,-0.0008739832588303434
1765410051.055149,-9.88188999621147,-0.017682494813409156,0.41219400835365627,-0.008827065666248905,0.002630241300082229,-0.0009589369538872904
1765410051.055446,-9.894310779952118,-0.018885434159370072,0.4107289744957061,-0.008897675962347631,0.003342351937215975,-0.0010403008053406766
1765410051.055646,-9.906374369611077,-0.020258764048999876,0.40802854031116087,-0.008947915633939721,0.003987435607032784,-0.001115466157272428
1765410051.055846,-9.917487826986642,-0.021727153009548136,0.4040521216343295,-0.008976750901028539,0.004560437844314326,-0.001181908075329418
1765410051.056046,-9.927154665360774,-0.023225193560345383,0.39881090269818104,-0.008983904224927461,0.005058964041882981,-0.0012373679292950036
1765410051.056246,-9.935006501454144,-0.024701840772380124,0.392374548758451,-0.008969868801908138,0.005483174697744836,-0.0012800354965723263
1765410051.056428,-9.940822353106327,-0.026122234049913946,0.38487168421202717,-0.00893586543655876,0.005835589853664721,-0.0013087103226610425
1765410051.056628,-9.944535423212638,-0.027466680560209577,0.3764852642530293,-0.008883742455569749,0.006120830527104441,-0.0013228967038505974
1765410051.056828,-9.946228230797761,-0.02872811471376877,0.36744397485372154,-0.008815828199216348,0.006345293363458676,-0.0013228000649566397
1765410051.057028,-9.94611750814138,-0.02990948132534142,0.35801041927557514,-0.008734748421580766,0.006516740765242799,-0.0013092400467715718
1765410051.057228,-9.944530711942539,-0.031021182435635536,0.3484668282902284,-0.00864322541137784,0.006643805017300076,-0.0012835298722668259
1765410051.057407,-9.941876384096615,-0.03207762739606369,0.339099294644934,-0.008543883899135024,0.006735430539103992,-0.0012473600208672206
1765410051.057607,-9.938610858832963,-0.03309228531203416,0.33018176886272355,-0.008439092913492883,0.0068002942041789785,-0.0012026863563112898
1765410051.057807,-9.935203855821959,-0.03407201827515737,0.32196109683385976,-0.008330864472509828,0.0068462497904061715,-0.0011516016006756407
1765410051.058007,-9.932105313357878,-0.0350124924864361,0.3146441858429043,-0.008220812681608647,0.006879843632074847,-0.0010961821212868016
1765410051.058207,-9.929715542067083,-0.03589622327921914,0.30838807078602504,-0.008110163175342733,0.006905943339297799,-0.001038330177112384
1765410051.058378,-9.928360571953956,-0.036693558673233824,0.3032934230473829,-0.007999801456737806,0.006927510448684268,-0.0009796449371627792
1765410051.058578,-9.928274342481917,-0.03736570864284653,0.2994019255173193,-0.007890355911693021,0.006945534966976379,-0.0009213421131365791
1765410051.058778,-9.929588913153676,-0.03786868320653823,0.2966977434034568,-0.00778231633590494,0.006959135620700016,-0.0008642168406444822
1765410051.058978,-9.932333098476155,-0.038157622143740175,0.2951129456418585,-0.007676184475281818,0.006965812310494248,-0.0008086327731951431
1765410051.059178,-9.936439051069005,-0.038191587537322255,0.2945362917242994,-0.007572641112816904,0.006961818667405091,-0.0007545328264173167
1765410051.059407,-9.941755553152886,-0.03793875058237482,0.2948244549868372,-0.007472702312473446,0.006942607611260781,-0.0007014890399335209
1765410051.059607,-9.948066254412371,-0.03738122373381513,0.29581453290301213,-0.007377832738030725,0.006903294601774076,-0.0006488155379978001
1765410051.059807,-9.955110869955504,-0.036518351531483785,0.2973365729970795,-0.007289989545963333,0.0068390841521243275,-0.0005957488343494139
1765410051.060007,-9.962607425614157,-0.03536763472267825,0.2992248971994875,-0.007211584120051179,0.006745617532035219,-0.0005416671931054934
1765410051.060207,-9.97027391145569,-0.033963422485758815,0.3013273167469974,-0.007145364165890216,0.006619220747818502,-0.00048629982229524675
1765410051.060405,-9.977847987477496,-0.03235431033941829,0.30351177395858836,-0.00709422872727645,0.006457052336021197,-0.00042988138071692664
1765410051.060605,-9.985103515258993,-0.030600211807439458,0.3056702965162811,-0.007060993047424354,0.006257161714589785,-0.0003732313894760358
1765410051.060805,-9.99186270290524,-0.028769387880963653,0.30772032102139885,-0.007048123420876783,0.006018470700958888,-0.00031776204972179707
1765410051.061005,-9.998002789233261,-0.026934976908202492,0.30960352653201834,-0.007057466292449855,0.005740690766892014,-0.0002654250256526858
1765410051.061205,-10.003456668692973,-0.02517046395474083,0.3112824415356398,-0.007089998382857753,0.005424194268126535,-0.0002185983350229674
1765410051.061455,-10.0082076496939,-0.023544187442167495,0.31273534853687746,-0.00714562384562313,0.005069868253289083,-0.00017990572870300864
1765410051.061655,-10.012279411308588,-0.022113825209873702,0.3139503856417198,-0.007223041272757476,0.004678984285914523,-0.00015196957134566773
1765410051.061855,-10.01572286027063,-0.020922112112439207,0.3149199698063681,-0.007319697868530987,0.004253109206807656,-0.00013712290557642994
1765410051.062055,-10.018601769438922,-0.01999463592951857,0.3156364625372032,-0.007431839499165032,0.003794064047586609,-0.00013712896634703818
1765410051.062255,-10.020978858801593,-0.019339838102292957,0.316089487531477,-0.007554655176506867,0.0033039224403494695,-0.00015295987144993463
1765410051.062409,-10.022903654683914,-0.018950792229175156,0.3162649315156438,-0.007682506368043707,0.0027850333381518513,-0.0001846686000371378
1765410051.062609,-10.024403244019153,-0.018808147890724016,0.3161456215363312,-0.0078092270728788524,0.002240055339671725,-0.0002313611756539433
1765410051.062809,-10.025476861463407,-0.01888373697135998,0.3157137196076638,-0.007928478417532372,0.001671995358877614,-0.0002912535558051264
1765410051.063009,-10.026094912484103,-0.01914453257245348,0.3149546728209343,-0.008034138871047121,0.001084246616298003,-0.00036178894108235434
1765410051.063209,-10.026202474133648,-0.019556719149909668,0.31386212062665614,-0.008120706435433325,0.0004806190201666157,-0.00043979616627807714
1765410051.063435,-10.025726658523963,-0.020089505733695924,0.31244281188508927,-0.008183683165290702,-0.0001346472421315594,-0.0005216802664047436
1765410051.063635,-10.024586695733754,-0.020718109524906256,0.31072055596764986,-0.008219908127738786,-0.0007568931083565753,-0.0006036404245496207
1765410051.063835,-10.0227053458268,-0.02142529776272602,0.30873849160811306,-0.008227805653748768,-0.0013810801637341508,-0.000681902436886367
1765410051.064035,-10.020020287414944,-0.02220118317760991,0.3065593634197124,-0.008207522473177261,-0.0020018537832861396,-0.0007529396534274975
1765410051.064235,-10.016494344796081,-0.023041509846664116,0.3042638981040681,-0.008160938269557948,-0.0026136194739675212,-0.0008136530006531726
1765410051.064414,-10.01212366476475,-0.023945069380349012,0.3019475876130693,-0.008091546557192759,-0.00321062270592827,-0.000861494785580607
1765410051.064614,-10.006943139178432,-0.02491090474183769,0.2997161533345655,-0.00800421473857145,-0.0037870308087915106,-0.0008945439738485332
1765410051.064814,-10.001028512764268,-0.025935703112007876,0.29767986805514135,-0.007904842559814195,-0.00433702627403355,-0.000911555947781731
1765410051.065014,-9.994494834706876,-0.027011524866487283,0.2959469470851851,-0.007799945983762666,-0.004854925934574668,-0.0009120080847445277
1765410051.065214,-9.98749127256544,-0.028123948704683606,0.29461638289478254,-0.007696199510490579,-0.005335335024307179,-0.0008961477530592148
1765410051.065482,-9.980192763153752,-0.029250862356670456,0.2937708331955608,-0.007599975776966812,-0.00577333243971284,-0.0008650321755657306
1765410051.065815,-9.972789435032572,-0.030362341833596304,0.2934704487138368,-0.007516924731327452,-0.0061646726220844494,-0.0008205389515764476
1765410051.066149,-9.96547505268236,-0.03142207022742154,0.2937486483260589,-0.007451630438819758,-0.00650598516007698,-0.0007653260139625935
1765410051.066456,-9.95843571853989,-0.03239039451414158,0.29461054025696237,-0.007407370194930934,-0.006794952661546708,-0.0007027296430372817
1765410051.068473,-9.951839717552996,-0.033228534264197966,0.29603400750291275,-0.007385983363449624,-0.007030447149409835,-0.0006366023573991747
1765410051.070419,-9.945828943638903,-0.0339029812048013,0.2979728412521432,-0.007387843100214148,-0.007212605940009335,-0.0005711006028975358
1765410051.073411,-9.940512039108416,-0.034389079169452066,0.3003610203951764,-0.007411916502515861,-0.007342832453571915,-0.0005104337978384622
1765410051.076398,-9.935959257617977,-0.03467317409159273,0.3031172844627044,-0.007455897046191288,-0.007423717470986623,-0.00045858867766631896
1765410051.078393,-9.932199126858494,-0.034753254287572526,0.30614944725566845,-0.007516393568903737,-0.0074588904702973,-0.00041905104594957984
1765410051.081352,-9.929217207754027,-0.0346383045217423,0.3093583590131161,-0.0075891598218273204,-0.0074528227380791625,-0.0003945563962757429
1765410051.083358,-9.92695744221331,-0.03434660857023255,0.31264180219490856,-0.007669349916712484,-0.007410607469565787,-0.0003869028642829165
1765410051.08639,-9.925326527160848,-0.03390315923482066,0.31589864998456113,-0.007751790554582658,-0.007337736631952461,-0.0003968507891003486
1765410051.08836,-9.924201417166053,-0.0333363873697212,0.31903336234456636,-0.00783126729393148,-0.0072398853903191795,-0.00042411622312598334
1765410051.091419,-9.923439610365484,-0.03267464153838795,0.321960612834614,-0.007902822652147526,-0.007122708121826415,-0.00046744905304525774
1765410051.093369,-9.92289149756839,-0.03194307192199167,0.3246097421241547,-0.007962056732340971,-0.006991647831137923,-0.0005247773164248738
1765410051.096453,-9.922413811122803,-0.03116155251263471,0.32692878099707917,-0.008005410321397647,-0.006851761612913232,-0.0005933990275941906
1765410051.098446,-9.921883025448587,-0.03034393121704747,0.3288877646721739,-0.008030401517534482,-0.006707565523957927,-0.0006702060405201338
1765410051.101413,-9.92120738151866,-0.029498435633476025,0.33048090604830255,-0.008035784968562606,-0.006562901982326719,-0.0007519251639710276
1765410051.103445,-9.920336145846896,-0.02862881201975417,0.3317271355813471,-0.008021610762331946,-0.006420833568969326,-0.0008353589016294467
1765410051.106434,-9.91926493295007,-0.027735864989465883,0.33266872441675077,-0.00798917546846309,-0.006283569346062212,-0.0009176056414593519
1765410051.10839,-9.918036386644841,-0.02681929647219963,0.3333679954095339,-0.007940873532135097,-0.0061524305240572945,-0.0009962412022044337
1765410051.111394,-9.9167360389035,-0.02587980463043756,0.3339022427689678,-0.007879967758366174,-0.0060278588831884266,-0.0010694510939121518
1765410051.11341,-9.915483646865976,-0.02492120802002931,0.3343570098843576,-0.007810303440742752,-0.005909465065303008,-0.001136111591637756
1765410051.114414,-9.9144207816103,-0.023952117154374616,0.33481803680757766,-0.007735994312282485,-0.005796107975930739,-0.0011958220945665872
1765410051.118398,-9.913695888664892,-0.022986655851474205,0.33536246498107625,-0.007661109964998909,-0.005685993105754994,-0.0012488891877614847
1765410051.120478,-9.91344835493954,-0.02204401381816772,0.33605012027628933,-0.007589392469803009,-0.005576777713095766,-0.0012962580731639337
1765410051.123426,-9.91379323605966,-0.02114702473932579,0.33691585123067086,-0.007524025289085496,-0.005465674883514161,-0.0013393864821883608
1765410051.126441,-9.914808211206932,-0.020320244355307715,0.33796396312629945,-0.007467472183542121,-0.0053495535223494215,-0.0013800639113485693
1765410051.129879,-9.916524017807077,-0.01958799074984699,0.3391656188104623,-0.007421398127119501,-0.0052250329677731655,-0.0014201918830697021
1765410051.130492,-9.918919137700229,-0.018972577525207188,0.340459624737347,-0.007386676540402293,-0.005088570524524051,-0.0014615514019030267
1765410051.13347,-9.921919071507444,-0.01849274050612058,0.3417565137275038,-0.00736347624958477,-0.004936543638178373,-0.001505587321493883
1765410051.134462,-9.925400279700455,-0.01816219820948148,0.3429455203526184,-0.007351409524065044,-0.004765335305207227,-0.0015532371601227283
1765410051.138441,-9.929198647920135,-0.017988408960429896,0.3439039072935145,-0.007349713558051139,-0.004571434518144995,-0.0016048271502181533
1765410051.139447,-9.93312196621276,-0.017971762068717142,0.34450799257363024,-0.0073574346229811705,-0.004351560826367711,-0.0016600518707120557
1765410051.143491,-9.93696543595142,-0.01810546933493884,0.3446450734295842,-0.007373586681325505,-0.004102818178802484,-0.001718044176302026
1765410051.146452,-9.940528789826079,-0.018376229067411883,0.34422524313830005,-0.007397263673287204,-0.0038228799007348985,-0.0017775286449057295
1765410051.148494,-9.943633325426145,-0.018765481337658936,0.34319191239201763,-0.007427696693633112,-0.0035102013664513286,-0.0018370372766148362
1765410051.151428,-9.946137099965606,-0.01925097737102547,0.3415298298320865,-0.007464261273322355,-0.0031642499761834948,-0.0018951556205969596
1765410051.153453,-9.94794680300651,-0.019808456361030877,0.33926967880649944,-0.007506450205255705,-0.0027857364206789964,-0.0019507638707319805
1765410051.156455,-9.949025357173301,-0.020413310848002738,0.33648884748736774,-0.00755382988824031,-0.0023768282415464652,-0.0020032400040782415
1765410051.158454,-9.949394883295184,-0.02104214791969878,0.3333085035040314,-0.007605994241044988,-0.0019413272656781339,-0.002052598091027187
1765410051.161418,-9.949135116746227,-0.02167415579327106,0.3298874206986859,-0.007662523745840108,-0.001484796999521861,-0.0020995430075111936
1765410051.163521,-9.9483775884392,-0.022292210496516873,0.3264129728680301,-0.007722951632102404,-0.0010146305536760027,-0.0021454336675875243
1765410051.166401,-9.94729592085408,-0.02288370348520073,0.32308943845427757,-0.007786736440943474,-0.000540049025724558,-0.00219216093646732
1765410051.168441,-9.94609264131456,-0.023441106891998808,0.3201236603479944,-0.007853239772165808,-7.20159125298837e-05,-0.0022419601990916254
1765410051.171466,-9.944983205960193,-0.023962293930900633,0.3177085159543942,-0.007921708573009067,0.00037694920332373595,-0.002297186305499833
1765410051.173434,-9.944178389655482,-0.024450606402086943,0.31600537775326254,-0.007991262654071447,0.000793072942991502,-0.0023600779300421196
1765410051.176409,-9.943866506817157,-0.02491464192955363,0.3151272482225389,-0.0080608903183681,0.0011617579078682192,-0.002432533320484155
1765410051.178412,-9.944196931835599,-0.025367736621648207,0.3151243200479103,-0.008129456874367768,0.00146814429196493,-0.0025159158430481075
1765410051.181422,-9.945266237465026,-0.025827126560584227,0.31597355923366266,-0.00819573116408395,0.0016977947481494932,-0.0026109070884972516
1765410051.183446,-9.947108089600201,-0.026312763715757505,0.3175736818665263,-0.00825843460433482,0.001837478282312484,-0.0027174237363043266
1765410051.186392,-9.949687761498232,-0.02684575814375112,0.31974652225193806,-0.00831631654222862,0.0018760164262301622,-0.002834607158349071
1765410051.187405,-9.952901767273056,-0.027446478058294727,0.3222453259652443,-0.008368258148577805,0.0018051444839095828,-0.0029608820941399556
1765410051.191364,-9.956582826240865,-0.028132499761013712,0.3247700879183949,-0.008413402562781652,0.001620325719492557,-0.003094069310091296
1765410051.193385,-9.960510139621395,-0.028916793486322378,0.32698948542147954,-0.008451300766165513,0.0013214380331679585,-0.003231533930899842
1765410051.196397,-9.964424522257119,-0.029806588181029416,0.3285678764935933,-0.008482053114153142,0.0009132426943090516,-0.003370356117832539
1765410051.196897,-9.968047232244242,-0.03080314369716355,0.32919451125876953,-0.008506420889286936,0.0004055531304794562,-0.003507517443106692
1765410051.201416,-9.971100759776071,-0.03190223956785283,0.32861140280448053,-0.008525885614879146,-0.00018695093056193967,-0.003640097793590574
1765410051.203426,-9.97332971899081,-0.03309483651535655,0.3266367091929399,-0.00854264625184438,-0.0008452775412158337,-0.0037654720452390575
1765410051.204477,-9.974520237895852,-0.03436735561358885,0.3231816094003216,-0.008559559202035695,-0.001547011192937135,-0.0038814873786269964
1765410051.208441,-9.97451655990541,-0.035701385797338434,0.31825984110950756,-0.008580034439525841,-0.002267461042078349,-0.0039865977887197195
1765410051.210613,-9.973233818023777,-0.03707311475898517,0.3119899382959025,-0.008607899254375495,-0.0029809695864447525,-0.004079936363042436
1765410051.213468,-9.970666122725863,-0.03845304820568513,0.30459064898540494,-0.008647232879259828,-0.00366227821040092,-0.00416131754131519
1765410051.215498,-9.966889244489359,-0.0398065036559457,0.29637005480218287,-0.00870216805601268,-0.004287854831615756,-0.0042311756181038435
1765410051.218437,-9.962057386955792,-0.041095055251346824,0.28770883856514806,-0.00877665430844853,-0.004837103465313083,-0.004290456202456987
1765410051.221455,-9.956393998740465,-0.04227878306329822,0.2790383564104343,-0.00887418262892147,-0.005293391153130284,-0.004340482006838273
1765410051.223401,-9.950177225907241,-0.043319002705943126,0.27081472841683524,-0.008997480090835163,-0.005644841845981351,-0.004382814511054848
1765410051.226374,-9.943721190912276,-0.04418113934973047,0.2634907032232352,-0.009148193260017794,-0.005884859044033912,-0.004419129740591026
1765410051.228509,-9.937354585443716,-0.04483745359876641,0.25748724887318486,-0.009326589542670493,-0.00601235099339098,-0.00445112016474552
1765410051.231386,-9.931398142078315,-0.045269299697409233,0.2531667040163921,-0.009531313227544016,-0.006031646242049109,-0.004480427975817537
1765410051.231886,-9.926142589468517,-0.04546850417010154,0.2508091095690967,-0.009759234268871098,-0.005952104369339719,-0.004508610163282463
1765410051.234484,-9.921828766682182,-0.04543744187890119,0.2505931552737782,-0.010005420614176369,-0.005787445707018872,-0.004537131566347912
1765410051.238421,-9.918631560386652,-0.04518760587041762,0.2525829833166967,-0.010263250968790237,-0.005554841904189652,-0.00456737605278218
1765410051.241419,-9.916649073510479,-0.0447369075328825,0.25672180424781244,-0.010524670047371076,-0.0052738230845077415,-0.004600660510739742
1765410051.242434,-9.915897920000933,-0.04410638569045511,0.26283289279538163,-0.01078057827032032,-0.004965065897152472,-0.004638237132154516
1765410051.245912,-9.916314930044022,-0.04331716558184976,0.2706281330188873,-0.011021342835681153,-0.004649130974425484,-0.004681277458854535
1765410051.248411,-9.917765017170929,-0.04238829412769177,0.27972391396383234,-0.011237411870828221,-0.004345220482392141,-0.004730840957070143
1765410051.250443,-9.920054546505828,-0.04133565697543875,0.28966376027258395,-0.011420002684236928,-0.004070028684360934,-0.004787835489443638
1765410051.251416,-9.922949193230014,-0.04017182648130395,0.29994656262000385,-0.011561818094600856,-0.003836759683227626,-0.004852976300440589
1765410051.256444,-9.926194913480584,-0.03890656400150943,0.310058700952038,-0.011657725089268952,-0.0036543820417894754,-0.004926747225073986
1765410051.258413,-9.929540242770845,-0.03754778393449593,0.31950779356264464,-0.01170531446472432,-0.00352717688148379,-0.005009366171125574
1765410051.259373,-9.932757805345597,-0.036102901013336866,0.327855350572514,-0.011705256377864374,-0.0034546176514481603,-0.005100757941240175
1765410051.263513,-9.935662869816923,-0.03458043136556731,0.334745458891664,-0.011661380929785555,-0.0034316007656322216,-0.005200539543452319
1765410051.266401,-9.938127102542705,-0.032991512253445966,0.3399269045431933,-0.011580446512528165,-0.003449025785206899,-0.005308022597946405
1765410051.268402,-9.940086233041624,-0.03135090019574571,0.34326674150148645,-0.011471605495582737,-0.003494697511235246,-0.005422232329984831
1765410051.271417,-9.941541043744454,-0.029677215216482235,0.344754107195843,-0.011345623481563538,-0.0035544898759117625,-0.005541935830988319
1765410051.273462,-9.942551900273564,-0.027992602368866217,0.3444940670657844,-0.011213942002698056,-0.003613677480311339,-0.0056656698878327204
1765410051.276404,-9.94322781633243,-0.026322229115554645,0.34269238453248335,-0.011087691337514085,-0.0036583121458683247,-0.0057917646466096
1765410051.278399,-9.943711556242258,-0.02469391403759235,0.3396330966601542,-0.010976763483582,-0.0036765085922522435,-0.005918370789299203
1765410051.281437,-9.944162436063706,-0.023137818652895818,0.3356513913552316,-0.010889047520034197,-0.0036595139741769727,-0.006043506094778482
1765410051.283417,-9.944738460216238,-0.02168585364549499,0.3311045048451485,-0.010829909539144773,-0.0036024683792541,-0.006165135118536258
1765410051.28645,-9.94557939106461,-0.020370478028669148,0.3263432659424442,-0.01080196724761678,-0.0035048031357411717,-0.006281284290315409
1765410051.288381,-9.94679225764647,-0.019222887026705295,0.3216865621894709,-0.010805169837377573,-0.003370258597391021,-0.006390181928214434
1765410051.291398,-9.948440549544973,-0.018270974274726737,0.3174004779789837,-0.010837154376644835,-0.0032065332879457997,-0.006490406249719862
1765410051.293448,-9.95053790975102,-0.01753763137945066,0.3136832835010902,-0.010893818079523518,-0.0030246057189451197,-0.006581026010557626
1765410051.296427,-9.95304662970103,-0.017039758469128165,0.31065690884595315,-0.01097002491584946,-0.002837795667079433,-0.006661722635442318
1765410051.298452,-9.955880762344504,-0.016787933573936216,0.3083650468332027,-0.011060354317738025,-0.0026606495824040327,-0.006732882759635496
1765410051.300444,-9.958913319220835,-0.016786353417875863,0.3067776422931818,-0.011159798321107818,-0.0025077473328156876,-0.0067956450303875955
1765410051.303515,-9.961986868172733,-0.01703265125899174,0.3058012275167467,-0.01126432323969264,-0.0023925347574791705,-0.006851881480757889
1765410051.306378,-9.964926793398822,-0.017517482419271677,0.3052942089698371,-0.011371234298806076,-0.0023262831828146256,-0.006904099275572724
1765410051.30842,-9.967556359737433,-0.018224103285670586,0.30508575675890137,-0.011479313708973418,-0.0023172622382838506,-0.006955263890159789
1765410051.309434,-9.969712551329186,-0.019128314770419073,0.3049965957565946,-0.01158873795880602,-0.0023701915745279233,-0.007008563145122446
1765410051.313627,-9.971261540200741,-0.020199030733964615,0.30485990028186866,-0.011700810874533486,-0.002486012896320221,-0.00706714390249877
1765410051.314479,-9.9721125722095,-0.02139950128977618,0.3045405363619046,-0.01181756912043282,-0.002661994166888316,-0.007133853987138009
1765410051.318613,-9.97222899126291,-0.02268907661604609,0.3039509408929405,-0.011941325082608431,-0.00289214483359795,-0.007211012707488875
1765410051.321446,-9.971635160910663,-0.024025440737546467,0.3030620538650577,-0.012074211298079422,-0.0031678905050247486,-0.007300222246760094
1765410051.321946,-9.970418313646821,-0.02536738545862765,0.3019080527127177,-0.012217782781320574,-0.00347893088315709,-0.007402227207882194
1765410051.326449,-9.968724833505465,-0.026678215343113307,0.3005842028207141,-0.012372718544712145,-0.003814185989010692,-0.007516832385478611
1765410051.328518,-9.96675103231409,-0.02792963999143856,0.2992379178325466,-0.01253864319962645,-0.004162725363837417,-0.007642893617319895
1765410051.331452,-9.964728984291982,-0.029105622685778668,0.2980539554368393,-0.01271407025114819,-0.004514578876911848,-0.007778394963388231
1765410051.333939,-9.962908323798164,-0.030205368637927627,0.2972352089141012,-0.012896456564333306,-0.004861349401271176,-0.007920613897429126
1765410051.333962,-9.961535105940694,-0.031244646344386805,0.2969806610852268,-0.013082351951251266,-0.005196582577699548,-0.00806635856686083
1765410051.338435,-9.960829069758276,-0.0322549735409107,0.2974620879628671,-0.013267623930966076,-0.00551588649263763,-0.008212244827722466
1765410051.341425,-9.960961047282307,-0.03328072773818867,0.2988013823694119,-0.01344773312332311,-0.005816823555602294,-0.008354972830822562
1765410051.34338,-9.962032668041191,-0.03437470129663633,0.30105078105269106,-0.013618031825279635,-0.006098613358577959,-0.00849156827536816
1765410051.344471,-9.964060638777822,-0.03559279365983225,0.30417844806209066,-0.013774059348024083,-0.006361692838469449,-0.008619569750670573
1765410051.348441,-9.966967622387712,-0.03698841689759027,0.3080616296459241,-0.013911810989687691,-0.0066071876447116,-0.008737160019188329
1765410051.349453,-9.9705811523204,-0.03860697999130305,0.31248894152425927,-0.014027960156174522,-0.006836360243700747,-0.008843245384689079
1765410051.353451,-9.974641136036558,-0.040480712009006596,0.31717219528211577,-0.0141200156083214,-0.007050109828555706,-0.008937483554561993
1765410051.356373,-9.978815410756773,-0.04262412561142592,0.3217666309791388,-0.014186401669106216,-0.007248597137853635,-0.009020255557021935
1765410051.358413,-9.982721843425105,-0.04503048671080531,0.3258971097042965,-0.014226460597086875,-0.007431049852907579,-0.009092579372888073
1765410051.360434,-9.985954975853302,-0.047669616600143495,0.3291873389574984,-0.014240390753311984,-0.007595774063246487,-0.009155972482324148
1765410051.361401,-9.988115170073947,-0.050487238596519504,0.3312894384818227,-0.01422914570837448,-0.007740362315538798,-0.009212281594164247
1765410051.365482,-9.98883822532596,-0.053406010027888376,0.33191149680751897,-0.01419432312391994,-0.007862059360758218,-0.00926350394891264
1765410051.368405,-9.98782328791499,-0.05632836584798189,0.3308409172149717,-0.014138067474886735,-0.00795822825284478,-0.009311623231922474
1765410051.371401,-9.984856720279765,-0.05914124404806202,0.32796150275003816,-0.014062999633431853,-0.008026848896332662,-0.009358476069672366
1765410051.373435,-9.979829765380675,-0.061722606624897515,0.32326270852953204,-0.01397217201081153,-0.008066974452961192,-0.00940565639031902
1765410051.376382,-9.972748534265664,-0.06394942889419149,0.3168404712230269,-0.013869035588218398,-0.00807907015928256,-0.009454458754533612
1765410051.378439,-9.963735932475942,-0.06570652052562276,0.30889034739850185,-0.013757401154425834,-0.008065169697487185,-0.009505859723455483
1765410051.38144,-9.953026157082855,-0.0668952048414945,0.29969477059011546,-0.01364138276317657,-0.008028809699205705,-0.009560535556455675
1765410051.383403,-9.940952868354916,-0.06744066955510256,0.28960649612977357,-0.013525320838990286,-0.007974741233730273,-0.009618910366567826
1765410051.384442,-9.927932059408079,-0.06729691428863743,0.27902977937888374,-0.013413688266996323,-0.007908460847733001,-0.009681221461737522
1765410051.388467,-9.914440448115892,-0.06644872243464531,0.26840007527604115,-0.013310983418061577,-0.007835641858154782,-0.009747584230383887
1765410051.391409,-9.900990281682956,-0.06491079463364866,0.2581625230973256,-0.013221612681699671,-0.007761566723254111,-0.009818042773407993
1765410051.393443,-9.888101823716122,-0.06272475897292597,0.24874941449016974,-0.013149764759462976,-0.00769065437227964,-0.009892602418099127
1765410051.394453,-9.876275300279781,-0.059954972004472376,0.2405573515801159,-0.013099279687020442,-0.00762614385104374,-0.00997124871131976
1765410051.396432,-9.86596441297134,-0.056683894357418114,0.23392567167353687,-0.01307351616872066,-0.0075699514305183424,-0.01005395844794852
1765410051.399416,-9.857553396492994,-0.053007609482036463,0.22911824947405196,-0.013075221030944007,-0.0075226806309127755,-0.010140702742253318
1765410051.403402,-9.851338995554555,-0.04903188941517974,0.22631040654894102,-0.013106404166736117,-0.007483744429235705,-0.010231436732219277
1765410051.406496,-9.847518006408011,-0.04486903940626653,0.22558162135434362,-0.013168220867738755,-0.007451554923591598,-0.010326070490928372
1765410051.408418,-9.846180564392267,-0.0406355120028871,0.2269139105899006,-0.013260862475846066,-0.007423739671253136,-0.0104244210123765
1765410051.409409,-9.847309239550246,-0.0364500361340258,0.23019563027732506,-0.013383459012421871,-0.007397351337505464,-0.010526152481600902
1765410051.413483,-9.850783979694727,-0.03243188715091569,0.23523064109384728,-0.013534004236624934,-0.0073690517545772286,-0.010630718172246369
1765410051.416419,-9.856392728999532,-0.02869898419960803,0.24175262517666907,-0.013709320057868483,-0.007335276076929378,-0.01073732067764173
1765410051.418442,-9.863847066374205,-0.025365658829287745,0.24944365140840946,-0.01390507874018395,-0.007292408718257464,-0.010844907875110088
1765410051.421483,-9.872801615882421,-0.022540070787321276,0.25795527882230074,-0.014115897541882985,-0.0072370123124858455,-0.01095221920899103
1765410051.424466,-9.882875607896317,-0.02032131441044468,0.2669301270904021,-0.014335513692248609,-0.00716613363353747,-0.011057888250704452
1765410051.426423,-9.893675027345532,-0.01879627581575701,0.27602213409028586,-0.01455703957275318,-0.007077674161588684,-0.011160593575770612
1765410051.428462,-9.904814097488808,-0.01803625831180038,0.2849143242267905,-0.014773289397997741,-0.006970777296793583,-0.011259235933362912
1765410051.431463,-9.915935062039981,-0.018093305770065765,0.29333335743308026,-0.014977159732361526,-0.006846165164266909,-0.011353110861663141
1765410051.433569,-9.926725322889403,-0.01899613284781328,0.3010603864393137,-0.01516203671925867,-0.006706359155651347,-0.011442044100084202
1765410051.436509,-9.936931217620963,-0.020745761587052363,0.3079380823529014,-0.01532219566064138,-0.006555733030216043,-0.011526461521767287
1765410051.438503,-9.946368037564627,-0.02331137568067645,0.31387402567939426,-0.01545315884081225,-0.006400367910911577,-0.01160737515851178
1765410051.441278,-9.95492592915123,-0.026627318204772658,0.31884062375931904,-0.015551985661837697,-0.00624770351946855,-0.01168628239596119
1765410051.443549,-9.962571095428379,-0.030592243673794095,0.32287135556915425,-0.015617478613629065,-0.006106010231914018,-0.011764995294388276
1765410051.444637,-9.969341777668312,-0.03507103518605009,0.3260531009580835,-0.015650294272700496,-0.005983734789071928,-0.01184543523680883
1765410051.448485,-9.975339136362988,-0.039899443102056106,0.3285149367060247,-0.015652951972214096,-0.005888785656397155,-0.011929435289274974
1765410051.45054,-9.980713891243447,-0.044890937498883066,0.3304145744950117,-0.015629737023170668,-0.005827819763747238,-0.012018583921267175
1765410051.453495,-9.985649886988398,-0.04984521813262376,0.3319239280372253,-0.015586500040681548,-0.00580558568072187,-0.012114124735014182
1765410051.456448,-9.990345735098895,-0.054558015825547444,0.33321513166617117,-0.0155303568280279,-0.005824382936434466,-0.012216909006732165
1765410051.458419,-9.99499569379253,-0.058831910616696056,0.3344480059803494,-0.015469294871231134,-0.005883706789800338,-0.012327389069503933
1765410051.461513,-9.99977094830039,-0.06248771878890197,0.335759489992259,-0.01541169795325649,-0.005980144027686711,-0.012445641044486522
1765410051.463431,-10.00480225005889,-0.06537567185811824,0.3372548904822751,-0.015365813540127915,-0.006107559403715242,-0.01257140892453531
1765410051.46441,-10.01016463960859,-0.06738536243928035,0.3390003277438479,-0.015339203095834444,-0.006257569877938163,-0.012704161791770224
1765410051.469435,-10.015865082703089,-0.06845341759763329,0.3410160096274813,-0.015338222755460052,-0.006420255759457264,-0.012843151655169607
1765410051.469935,-10.021834279102581,-0.06856807787721766,0.3432709011138082,-0.015367577110534828,-0.006585015812423259,-0.01298745690070524
1765410051.473446,-10.027924209303595,-0.06777021209788274,0.3456802779562437,-0.015429979162460042,-0.006741451003070601,-0.013136001496797995
1765410051.476457,-10.033912785311369,-0.06615064721940132,0.3481078599622953,-0.0155259435435815,-0.006880167362736916,-0.013287553912800362
1765410051.478428,-10.039516276311229,-0.06384393368696659,0.3503736031647244,-0.01565373827519914,-0.006993416232396506,-0.013440725887277781
1765410051.481407,-10.044409211067594,-0.061018838110959574,0.3522672089739292,-0.01580951444917881,-0.00707552469358246,-0.013593997658535384
1765410051.483458,-10.048250387632443,-0.05786612893336215,0.3535664177633485,-0.015987616699869228,-0.007123100291240795,-0.013745785235024486
1765410051.48644,-10.050712564503131,-0.05458468760627955,0.35405833135573156,-0.016181053511239097,-0.007135020879262098,-0.013894543039311737
1765410051.488447,-10.051512573174533,-0.05136745712245941,0.35356134981379667,-0.0163820845133566,-0.00711224274343271,-0.014038877991299568
1765410051.489406,-10.050438284088115,-0.048388884023243484,0.35194494292976036,-0.016582867340138415,-0.007057475144214855,-0.014177649779600685
1765410051.493433,-10.047369248313021,-0.045795135577904496,0.349144628739589,-0.01677609973794886,-0.006974773706298476,-0.014310043310597856
1765410051.496488,-10.042288766464727,-0.043697665999481196,0.3451702289131826,-0.016955594722889492,-0.006869101118000412,-0.014435611516004596
1765410051.498393,-10.03528626366599,-0.04217005756874628,0.34010645224618435,-0.017116739145434483,-0.006745900381425257,-0.014554292340662708
1765410051.501441,-10.026549982468365,-0.04124770750922377,0.33410583226033536,-0.017256804855171552,-0.006610727738929221,-0.014666402857176826
1765410051.503434,-10.016351122783615,-0.04092980846912216,0.327374934796514,-0.017375099178028864,-0.006468989398879395,-0.014772608802166078
1765410051.506445,-10.005021540210217,-0.04118306182030008,0.3201555709006959,-0.01747295411652096,-0.006325804955680118,-0.01487386257375132
1765410051.508448,-9.992927724647458,-0.04194667475212117,0.3127033887326378,-0.017553562845648404,-0.006185985208491401,-0.014971301432379524
1765410051.511433,-9.98044395440503,-0.04313840626457595,0.30526649268085454,-0.017621679526153892,-0.006054084449237082,-0.015066104714578704
1765410051.513523,-9.967927410869867,-0.04466156973133565,0.2980665786175864,-0.01768320480804682,-0.0059344815616902994,-0.015159324676708445
1765410051.514577,-9.95569773508088,-0.04641280522145511,0.29128459070170354,-0.01774468452315618,-0.005831452239311996,-0.015251723727074076
1765410051.518488,-9.944022958294536,-0.04829015506631138,0.2850523440740429,-0.017812753162544315,-0.0057492000047923274,-0.015343660271169368
1765410051.519451,-9.933112938442827,-0.05020073404617396,0.2794510991526255,-0.017893558456530782,-0.00569181457497096,-0.015435058954690557
1765410051.523457,-9.923120432672436,-0.052067251600421735,0.27451750157094645,-0.017992210252572725,-0.005663134800695955,-0.015525481753368759
1765410051.524499,-9.914148746572476,-0.05383280447382389,0.27025614348347243,-0.018112303744514866,-0.0056665185276836465,-0.01561429347309957
1765410051.526577,-9.906263689663227,-0.05546359196465498,0.26665630183276423,-0.01825556790041166,-0.005704556995909909,-0.0157008961419283
1765410051.53147,-9.89950679522882,-0.05694943135587062,0.2637090358220189,-0.018421679338916523,-0.005778799428453836,-0.015784994381738457
1765410051.533479,-9.893906828695927,-0.058302153477453475,0.26142063442838126,-0.01860826004790382,-0.005889557341149219,-0.015866848720369132
1765410051.536485,-9.88948745515159,-0.05955209922482319,0.25981943769624494,-0.018811050460144623,-0.006035833508739791,-0.015947475262533123
1765410051.538463,-9.886270214202938,-0.06074297203624684,0.25895484822449427,-0.019024226385770542,-0.0062153797989962425,-0.01602875665228416
1765410051.541469,-9.884273327921926,-0.06192531418630549,0.25888946486416625,-0.019240816323952466,-0.006424850816587205,-0.01611343996845645
1765410051.543476,-9.883507919623618,-0.06314904518986006,0.2596870483244054,-0.019453177338577907,-0.006659999620456817,-0.01620501197284056
1765410051.546446,-9.883973403194794,-0.0644558463645629,0.2613994954120776,-0.01965349945468396,-0.006915861564617195,-0.0163074596320851
1765410051.548466,-9.885653072577421,-0.06587244993305182,0.26405492534495156,-0.019834320955876825,-0.007186892039938793,-0.016424941208950283
1765410051.550563,-9.88851009152905,-0.06740580866072043,0.2676475551095942,-0.019989039521145138,-0.007467055798783263,-0.016561407542798043
1765410051.553426,-9.892483950650865,-0.06904065013335296,0.2721296003916909,-0.020112393881583517,-0.007749890182143511,-0.01672022119281336
1765410051.556428,-9.897487833583762,-0.07073933616260333,0.27740593137077574,-0.020200875774222363,-0.008028565194906067,-0.01690381924990365
1765410051.558459,-9.903407506549094,-0.07244362137723154,0.2833326334572281,-0.02025302498035651,-0.008295947636793404,-0.017113453470903994
1765410051.5614,-9.910102144297186,-0.07407798244094356,0.28972045929854173,-0.020269568693597487,-0.00854466949768798,-0.01734902552450045
1765410051.563452,-9.917407250686798,-0.07555445921489978,0.2963435757446639,-0.02025338895045407,-0.008767212700483213,-0.017609024730020528
1765410051.566492,-9.92513957890295,-0.0767790230574626,0.30295310843,-0.020209329299585067,-0.00895603719360205,-0.0178905724650083
1765410051.568481,-9.93310355636721,-0.0776591661828283,0.30929388048948403,-0.020143873239151282,-0.009103780399079052,-0.018189573666743557
1765410051.571498,-9.941098416624797,-0.07811190128962531,0.3151220633683371,-0.020064737132114985,-0.009203543958309784,-0.018500964896834966
1765410051.573455,-9.948925423558011,-0.0780711155809624,0.3202217552874535,-0.019980421902731537,-0.009249266623480083,-0.018819033474583108
1765410051.57641,-9.956395025185643,-0.07749347509503245,0.3244192887400075,-0.01989976431994008,-0.009236163151813246,-0.019137771829802846
