time,acc_x_g,acc_y_g,acc_z_g,gyro_x_rad_s,gyro_y_rad_s,gyro_z_rad_s
1765408459.222463,3.358441,3.212577,0.026303,-0.009621,0.002749,-2.202169
1765408459.222713,-8.803203,3.369799,3.291487,-0.008247,-0.007483,-0.002596
1765408459.222963,-8.787063,3.384744,3.254423,-0.006872,-0.004887,-0.001374
1765408459.223213,-8.755380,3.424796,3.290292,-0.007178,-0.003818,-0.000153
1765408459.222591,-8.745216,3.388928,3.277140,-0.010537,-0.005498,0.001374
1765408459.222791,-8.797225,3.369201,3.293878,-0.006261,-0.007789,0.000153
1765408459.222991,-8.813365,3.438546,3.321377,-0.009163,-0.007941,0.000153
1765408459.223191,-8.903633,3.415829,3.428981,-0.012217,-0.006720,0.002291
1765408459.223391,-9.044117,2.880201,3.450502,-0.010843,-0.003360,0.012065
1765408459.223148,-8.814561,2.210067,3.272955,-0.002443,-0.014661,0.016188
1765408459.223398,-8.830702,2.136537,3.289096,0.003818,-0.014661,-0.005498
1765408459.223648,-8.717119,2.910090,3.085844,0.003512,-0.010996,-0.031307
1765408459.223898,-8.725489,3.397297,3.026662,-0.002902,-0.015882,-0.032681
1765408459.224180,-8.638210,3.715925,2.828790,0.001222,-0.013592,-0.016646
1765408459.224380,-8.732662,3.577235,3.084648,0.000458,-0.005956,-0.007789
1765408459.224580,-8.681849,3.521042,2.825203,-0.001833,-0.005956,-0.010232
1765408459.224780,-8.621472,3.362027,2.669775,-0.007025,-0.011606,-0.007789
1765408459.224980,-8.389525,3.588593,2.284792,-0.013897,-0.007789,-0.014661
1765408459.225115,-8.463653,3.841463,2.390004,-0.021380,-0.006261,-0.013592
1765408459.225365,-8.228718,3.757771,2.109039,-0.037415,0.007789,-0.000153
1765408459.225615,-8.132471,3.505499,1.984696,-0.043371,0.004123,0.003360
1765408459.225865,-8.294475,3.580822,2.245337,-0.055741,0.012065,-0.004887
1765408459.226152,-8.472022,3.818746,2.299139,-0.065363,0.022297,-0.001374
1765408459.226352,-8.379961,3.800215,2.251913,-0.081551,0.031765,0.006720
1765408459.226552,-8.218554,3.556910,2.007412,-0.084147,0.025809,0.011148
1765408459.226752,-8.359635,3.351267,1.922525,-0.098960,0.027031,0.009774
1765408459.226952,-8.556910,3.349473,2.130559,-0.104916,0.035583,0.002443
1765408459.227175,-8.451697,3.637613,2.005021,-0.105069,0.055283,-0.000305
1765408459.227425,-8.604733,3.825920,2.344572,-0.116828,0.055283,0.007178
1765408459.227675,-8.604733,3.825920,2.344572,-0.116828,0.062919,0.007178
1765408459.227925,-8.746412,3.648373,2.416307,-0.131641,0.054214,0.018479
1765408459.228122,-8.778095,3.611908,2.400765,-0.141568,0.053603,0.012828
1765408459.228372,-8.787661,3.802008,2.130559,-0.151342,0.062614,0.011606
1765408459.228622,-8.841462,3.982544,2.047465,-0.155007,0.062614,0.014203
1765408459.228872,-8.919176,3.906025,2.214251,-0.165392,0.071471,0.022297
1765408459.229155,-9.047106,3.855810,2.404352,-0.181580,0.079871,0.023366
1765408459.229405,-9.150524,3.962816,2.482066,-0.188605,0.077580,0.018173
1765408459.229655,-9.021997,4.184002,2.245337,-0.202044,0.078954,0.020311
1765408459.229905,-8.945479,4.120038,2.043280,-0.214566,0.078954,0.026420
1765408459.230125,-9.545671,4.203730,2.724174,-0.221897,0.080787,0.025809
1765408459.230375,-9.866092,4.244380,3.083452,-0.225104,0.085979,0.026878
1765408459.230625,-9.585723,4.262314,2.474892,-0.230449,0.085979,0.039248
1765408459.230875,-9.554040,4.240196,2.546628,-0.230449,0.080787,0.039248
1765408459.231344,-10.169774,4.391439,3.243663,-0.258396,0.078649,0.029627
1765408459.231544,-10.434001,4.426111,3.584409,-0.269086,0.083994,0.041997
1765408459.231744,-10.072930,4.420134,2.862267,-0.275195,0.074831,0.043677
1765408459.231944,-9.964130,4.445241,2.659014,-0.288939,0.064294,0.039401
1765408459.232144,-9.964130,4.445241,2.659014,-0.288939,0.067653,0.039401
1765408459.232156,-9.953967,4.728598,3.023672,-0.302989,0.067806,0.050396
1765408459.232406,-9.827832,4.782400,2.699665,-0.325591,0.072846,0.052840
1765408459.232656,-9.973696,4.601266,2.852104,-0.340863,0.060628,0.048564
1765408459.232906,-9.997607,4.540889,2.975848,-0.346819,0.063377,0.052382
1765408459.233140,-9.997607,4.540889,2.975848,-0.346819,0.056658,0.052382
1765408459.233390,-9.564202,4.763868,2.829985,-0.376904,0.062461,0.053603
1765408459.233640,-9.636537,4.634146,2.621353,-0.386372,0.048717,0.062919
1765408459.233890,-9.551649,4.626972,2.591463,-0.382860,0.056352,0.065668
1765408459.234100,-8.852222,4.442850,1.987685,-0.397062,0.065821,0.067042
1765408459.234350,-8.736250,4.629364,2.338594,-0.406684,0.061392,0.062919
1765408459.234600,-8.745814,4.420134,2.171210,-0.421497,0.059559,0.059559
1765408459.234850,-9.276661,4.527738,2.775585,-0.420275,0.047342,0.070555
1765408459.235132,-8.648971,4.412960,2.168818,-0.428675,0.073915,0.054978
1765408459.235382,-8.450501,4.838593,2.251315,-0.436158,0.076053,0.061087
1765408459.235632,-8.039214,4.301769,2.040292,-0.456622,0.079718,0.063072
1765408459.235882,-8.321377,4.564801,2.040292,-0.448222,0.054214,0.064446
1765408459.236173,-8.689621,4.264706,2.508967,-0.461203,0.084605,0.047342
1765408459.236423,-8.258009,4.756097,2.560378,-0.456469,0.098349,0.048411
1765408459.236673,-7.528096,4.583333,1.887852,-0.476780,0.093157,0.059101
1765408459.236923,-7.447991,4.219273,1.802965,-0.482736,0.083689,0.042608
1765408459.237161,-8.104973,4.558823,2.460545,-0.467159,0.100945,0.038637
1765408459.237411,-8.332136,4.729794,3.003347,-0.465785,0.108123,0.051924
1765408459.237661,-8.208392,4.502630,2.708034,-0.487470,0.116675,0.036805
1765408459.237911,-8.224533,4.906743,2.662601,-0.488081,0.122937,0.033292
1765408459.238102,-7.760641,4.794954,2.364897,-0.484416,0.119271,0.040470
1765408459.238352,-7.942370,5.169775,2.178383,-0.492663,0.116828,0.034667
1765408459.238602,-8.475011,4.791965,2.948350,-0.516334,0.113774,0.024893
1765408459.238852,-9.036345,4.833811,3.548541,-0.524733,0.127671,0.026878
1765408459.239120,-8.046389,4.838593,2.470110,-0.521373,0.143248,0.031307
1765408459.239370,-7.430654,5.221185,1.400048,-0.536798,0.151953,0.023976
1765408459.239620,-8.345886,4.947393,2.417503,-0.549168,0.139583,0.018173
1765408459.239870,-8.755977,4.813486,2.998565,-0.555277,0.141263,0.017562
1765408459.240164,-8.683642,4.549258,2.640483,-0.562301,0.161727,0.024435
1765408459.240414,-8.544953,5.017933,2.525107,-0.564745,0.184481,0.015730
1765408459.240664,-8.787661,4.752510,2.617169,-0.580475,0.181580,0.017562
1765408459.240914,-9.377091,4.714251,3.476805,-0.584140,0.173333,0.017104
1765408459.241217,-9.053083,4.497848,2.794715,-0.593761,0.190285,0.008247
1765408459.241467,-9.149927,4.766858,3.069105,-0.595899,0.199142,0.015424
1765408459.241717,-8.867765,4.418340,2.450382,-0.611782,0.210596,0.010385
1765408459.241967,-8.718315,4.219273,2.711621,-0.611782,0.201586,0.010385
1765408459.242149,-8.583213,3.892874,2.150884,-0.623541,0.222813,-0.000611
1765408459.242399,-8.762552,4.075801,2.338594,-0.620792,0.226478,-0.000153
1765408459.242649,-8.767933,3.946676,2.844930,-0.634231,0.242055,-0.017868
1765408459.242899,-8.613701,4.339430,2.937589,-0.633467,0.260839,-0.021228
1765408459.243133,-7.650047,4.051888,1.999043,-0.636063,0.267254,-0.011759
1765408459.243383,-7.876015,4.030368,1.606886,-0.649350,0.248011,-0.020464
1765408459.243633,-8.829507,3.816355,2.942970,-0.652709,0.258549,-0.030543
1765408459.243883,-9.815279,4.035150,4.145145,-0.653473,0.279929,-0.023366
1765408459.244164,-9.158894,3.914992,3.015303,-0.651182,0.285579,-0.027031
1765408459.244414,-8.684838,3.812171,2.348756,-0.663400,0.286954,-0.037415
1765408459.244664,-9.356767,4.053084,3.348876,-0.659429,0.298713,-0.047495
1765408459.244914,-8.775704,4.178622,3.400884,-0.658207,0.297033,-0.038637
1765408459.245108,-8.414633,4.224055,2.449187,-0.672104,0.297033,-0.040775
1765408459.245358,-8.895862,4.177427,3.158775,-0.670425,0.293826,-0.048869
1765408459.245608,-9.310138,4.411764,3.436154,-0.671188,0.293826,-0.047647
1765408459.245858,-8.697392,4.661644,2.742707,-0.682184,0.305891,-0.054825
1765408459.246218,-8.542562,4.786585,2.505978,-0.699441,0.305738,-0.057879
1765408459.246468,-9.421328,4.791965,3.024868,-0.713491,0.299171,-0.051465
1765408459.246718,-9.753107,4.476326,3.537183,-0.718683,0.297033,-0.049480
1765408459.246968,-9.633547,4.702295,3.732065,-0.726624,0.323453,-0.057727
1765408459.247194,-8.811572,4.531324,3.010521,-0.726624,0.330020,-0.057727
1765408459.247527,-8.731467,4.291606,2.459349,-0.747394,0.317650,-0.039401
1765408459.247861,-9.171448,3.858799,2.580105,-0.747241,0.308334,-0.051771
1765408459.248188,-9.252748,4.055475,2.943568,-0.751059,0.339641,-0.061392
1765408459.248438,-8.848636,3.864179,2.660210,-0.753502,0.359494,-0.054825
1765408459.248688,-9.020205,3.702774,2.895743,-0.759458,0.357967,-0.061850
1765408459.248938,-8.974174,3.308225,2.809660,-0.773966,0.380416,-0.058490
1765408459.249789,-8.902437,3.434959,2.440817,-0.774272,0.380416,-0.069639
1765408459.250039,-8.901242,3.263390,2.132951,-0.774424,0.396910,-0.080940
1765408459.250289,-8.647776,3.413438,2.584289,-0.775646,0.399964,-0.079412
1765408459.250539,-8.849832,3.253228,2.895743,-0.785878,0.403018,-0.088575
1765408459.250101,-8.686632,3.305236,2.563964,-0.782366,0.414930,-0.090561
1765408459.250351,-8.544953,3.463653,2.892157,-0.781602,0.424399,-0.093004
1765408459.250601,-8.836680,3.454088,2.625538,-0.781602,0.415083,-0.093004
1765408459.250851,-7.861668,3.540172,1.805356,-0.791834,0.394924,-0.105832
1765408459.251125,-7.961501,3.744619,1.837637,-0.803288,0.394924,-0.105680
1765408459.251375,-8.437349,3.923959,2.691296,-0.799775,0.395383,-0.113316
1765408459.251625,-8.509085,4.409373,2.190339,-0.808786,0.417221,-0.123700
1765408459.251875,-7.854494,4.381874,1.506456,-0.830166,0.419664,-0.110872
1765408459.252144,-7.798900,3.920970,1.117886,-0.842841,0.417679,-0.111636
1765408459.252394,-8.991510,3.949665,2.195122,-0.837191,0.437990,-0.120646
1765408459.252644,-9.879243,4.304160,3.686035,-0.844063,0.487318,-0.113926
1765408459.252894,-9.340028,3.946078,2.804878,-0.855822,0.486860,-0.097128
1765408459.253118,-9.109875,2.919655,1.905189,-0.874301,0.463189,-0.106138
1765408459.253451,-9.299377,2.990794,2.861669,-0.851852,0.470824,-0.120799
1765408459.253785,-9.216881,3.314203,3.889287,-0.834289,0.505491,-0.112246
1765408459.254137,-8.628048,3.347680,3.368005,-0.847117,0.494801,-0.110719
1765408459.254387,-7.957913,2.864658,2.419894,-0.861015,0.485485,-0.126907
1765408459.254637,-8.119320,3.021281,2.335605,-0.839176,0.485485,-0.120493
1765408459.254887,-7.183165,2.755858,1.422764,-0.837649,0.476475,-0.114385
1765408459.255210,-7.915470,2.932807,2.719990,-0.848797,0.459982,-0.135612
1765408459.255460,-7.489239,2.754663,1.983500,-0.852462,0.470366,-0.133474
1765408459.255710,-7.378047,2.690100,1.327116,-0.849561,0.450360,-0.127824
1765408459.255960,-7.344571,2.676351,1.072453,-0.850019,0.447001,-0.163865
1765408459.256152,-8.340506,3.941893,1.678622,-0.856586,0.469908,-0.188146
1765408459.256402,-7.833571,3.834289,1.802965,-0.874301,0.492663,-0.179136
1765408459.256652,-6.793399,3.855212,1.049139,-0.867276,0.498008,-0.167377
1765408459.256902,-7.485651,3.779292,1.316356,-0.872621,0.505644,-0.172264
1765408459.257183,-8.530606,3.382951,1.959589,-0.889725,0.523512,-0.165086
1765408459.257433,-9.298182,3.033835,3.000956,-0.884075,0.549473,-0.166155
1765408459.257683,-8.794834,3.301052,2.504782,-0.881326,0.563523,-0.167988
1765408459.257933,-8.788857,3.052367,3.371592,-0.887893,0.560163,-0.164628
1765408459.258130,-8.402678,2.721186,3.065519,-0.890336,0.560927,-0.163254
1765408459.258463,-8.883308,2.553802,2.256097,-0.898736,0.560927,-0.158978
1765408459.258797,-8.731467,2.347561,2.116212,-0.898736,0.556956,-0.158978
1765408459.259152,-8.131275,2.133548,0.921808,-0.897361,0.565050,-0.174555
1765408459.259402,-9.077594,2.140722,2.483261,-0.895834,0.571159,-0.183565
1765408459.259652,-9.570778,1.777857,3.336920,-0.900110,0.613920,-0.192117
1765408459.259902,-9.992825,2.336202,3.228120,-0.884533,0.604146,-0.188910
1765408459.260080,-9.686751,1.645146,2.981229,-0.911411,0.607047,-0.217468
1765408459.260330,-9.054279,2.788139,2.807269,-0.891252,0.626900,-0.232282
1765408459.260580,-8.885700,3.291487,2.675753,-0.896445,0.639881,-0.226478
1765408459.260830,-8.926350,3.385939,3.544356,-0.910495,0.621861,-0.222050
1765408459.262438,-9.344213,3.332137,3.119321,-0.906677,0.613003,-0.213650
1765408459.262771,-9.588115,2.976446,3.174916,-0.916909,0.602771,-0.193339
1765408459.263105,-9.332854,2.635103,2.773792,-0.906982,0.598037,-0.188757
1765408459.262543,-8.555714,2.276423,2.149689,-0.911258,0.598648,-0.195019
1765408459.262793,-8.451697,1.557867,1.400645,-0.904997,0.587500,-0.192117
1765408459.263043,-8.393710,1.653515,1.517814,-0.890947,0.611171,-0.205403
1765408459.263293,-7.676948,1.751554,1.490913,-0.892016,0.631482,-0.213803
1765408459.263093,-8.513269,1.712099,1.831061,-0.901484,0.656680,-0.215635
1765408459.263343,-9.360353,1.722860,2.158656,-0.883617,0.668134,-0.214719
1765408459.263593,-9.508607,1.461023,2.556193,-0.884686,0.689972,-0.209985
1765408459.263843,-9.035150,1.460425,2.943568,-0.882700,0.707535,-0.225867
1765408459.264162,-8.520443,1.801769,2.578909,-0.876439,0.685391,-0.232434
1765408459.264412,-8.486369,1.399450,1.829268,-0.890794,0.647059,-0.234420
1765408459.264662,-8.615494,2.086322,0.845289,-0.882089,0.647059,-0.265268
1765408459.264912,-9.534910,2.796509,2.342180,-0.894154,0.696845,-0.285274
1765408459.265192,-8.849234,3.366810,3.174318,-0.887893,0.737925,-0.265879
1765408459.265525,-8.849234,3.366810,3.174318,-0.887893,0.706771,-0.265879
1765408459.265859,-9.118841,2.521520,2.120397,-0.921796,0.713643,-0.239917
1765408459.266167,-8.651361,2.489239,1.869918,-0.896139,0.713643,-0.234420
1765408459.266417,-8.284312,2.126972,3.017097,-0.902401,0.739758,-0.223271
1765408459.266667,-9.031563,1.764706,3.724294,-0.906219,0.706160,-0.230602
1765408459.266917,-9.031563,1.764706,3.724294,-0.906219,0.689667,-0.230602
1765408459.267246,-8.700979,0.978001,2.246532,-0.907746,0.665385,-0.222508
1765408459.267496,-9.242586,1.548900,1.950024,-0.886824,0.665385,-0.234420
1765408459.267746,-8.577235,1.282879,2.063008,-0.891863,0.681420,-0.251218
1765408459.267996,-9.375896,1.397656,2.250119,-0.895987,0.698066,-0.249844
1765408459.268226,-8.394308,1.097561,1.230273,-0.884533,0.710894,-0.252745
1765408459.268476,-9.280247,1.247011,1.189622,-0.883922,0.751670,-0.275653
1765408459.268726,-8.938306,1.564443,2.244739,-0.885602,0.751670,-0.300546
1765408459.268976,-8.714728,2.945959,2.679340,-0.868345,0.777937,-0.299782
1765408459.269132,-9.268291,3.145026,2.630320,-0.895528,0.755182,-0.284358
1765408459.269465,-9.270683,2.560975,2.172405,-0.904081,0.719141,-0.278555
1765408459.269799,-8.637014,2.382831,0.304878,-0.900721,0.733191,-0.281914
1765408459.270150,-9.451219,2.882592,2.036705,-0.898736,0.757626,-0.274584
1765408459.270400,-8.839071,2.160449,2.814442,-0.902706,0.786489,-0.264657
1765408459.270650,-9.414154,1.957197,2.181970,-0.905608,0.773203,-0.252745
1765408459.270900,-9.006455,0.737087,1.489718,-0.902553,0.773203,-0.264963
1765408459.271127,-9.006455,0.737087,1.489718,-0.902553,0.781602,-0.264963
1765408459.271377,-9.282639,1.837637,3.562290,-0.868956,0.807869,-0.273515
1765408459.271627,-9.852941,1.749163,4.047106,-0.872163,0.759611,-0.273515
1765408459.271877,-9.658057,1.225490,2.401961,-0.871552,0.724639,-0.272293
1765408459.272291,-9.044714,1.105332,1.269727,-0.850172,0.724639,-0.257327
1765408459.272541,-9.044714,1.105332,1.269727,-0.850172,0.745561,-0.257327
1765408459.272791,-8.665112,1.299020,1.268532,-0.854448,0.762207,-0.315817
1765408459.273041,-8.109755,1.276901,0.596604,-0.861473,0.773661,-0.311083
1765408459.273151,-8.666904,2.112027,0.197872,-0.856891,0.786336,-0.335976
1765408459.273484,-9.519367,2.494620,2.784552,-0.867123,0.824057,-0.350789
1765408459.273818,-9.764465,3.250837,4.073409,-0.865443,0.863000,-0.325133
1765408459.274099,-9.525346,3.021281,2.453371,-0.874759,0.775646,-0.293826
1765408459.274349,-8.920372,2.018173,0.870397,-0.887129,0.775646,-0.290008
1765408459.274599,-9.980869,1.780846,2.162840,-0.878730,0.787863,-0.313221
1765408459.274849,-9.796746,1.919536,2.861071,-0.860098,0.861015,-0.306960
1765408459.275129,-10.059779,1.732424,3.360234,-0.874301,0.830471,-0.284205
1765408459.275379,-9.859515,1.296030,1.895026,-0.889114,0.819476,-0.311541
1765408459.275629,-10.381395,1.397656,2.183166,-0.871857,0.807717,-0.301462
1765408459.275879,-10.546388,1.496293,4.136776,-0.859946,0.845437,-0.298102
1765408459.276113,-10.726923,1.493304,4.380678,-0.861778,0.828791,-0.306960
1765408459.276446,-10.401721,1.339072,3.039813,-0.876439,0.792750,-0.299935
1765408459.276780,-9.624580,0.407700,1.431133,-0.871094,0.754724,-0.302378
1765408459.277120,-9.434480,0.883548,1.768292,-0.850019,0.760833,-0.329867
1765408459.277370,-9.434480,0.883548,1.768292,-0.850019,0.817032,-0.329867
1765408459.277620,-9.087756,2.161047,1.266140,-0.862542,0.809855,-0.355676
1765408459.277870,-9.302366,2.008608,1.270923,-0.884533,0.821614,-0.357967
1765408459.278070,-10.331181,2.711621,2.488044,-0.863000,0.877813,-0.356593
1765408459.278320,-11.350430,2.975848,4.545671,-0.862694,0.877813,-0.344681
1765408459.278570,-10.181729,2.332018,2.582496,-0.884991,0.847117,-0.319024
1765408459.278820,-8.557508,1.285868,-0.350311,-0.895376,0.799470,-0.316581
1765408459.279114,-8.756575,1.255978,1.040770,-0.868956,0.802372,-0.331700
1765408459.279364,-9.161882,1.422764,2.550215,-0.844063,0.843758,-0.327424
1765408459.279614,-9.139765,1.371353,2.622549,-0.864069,0.843758,-0.318108
1765408459.279864,-9.160089,0.777140,0.952893,-0.878577,0.815963,-0.337350
1765408459.280522,-10.255259,0.944524,3.090626,-0.853684,0.814131,-0.335060
1765408459.280855,-9.567789,1.040172,2.437828,-0.833831,0.848339,-0.328187
1765408459.281189,-9.567789,1.040172,2.437828,-0.833831,0.806189,-0.328187
1765408459.281141,-9.753705,0.551172,2.106647,-0.871705,0.796568,-0.342390
1765408459.281391,-10.180533,0.728718,0.761597,-0.841009,0.761749,-0.341168
1765408459.281641,-9.086560,0.173362,0.973816,-0.840398,0.797179,-0.373239
1765408459.281891,-9.628765,2.229794,1.449665,-0.828180,0.805731,-0.403782
1765408459.282193,-10.462696,2.303921,1.040172,-0.868039,0.830471,-0.388816
1765408459.282443,-9.673599,2.234576,1.627809,-0.850324,0.833526,-0.377515
1765408459.282693,-9.499043,2.488044,3.006934,-0.838107,0.861320,-0.362549
1765408459.282943,-9.612624,2.472501,2.769010,-0.854448,0.858266,-0.344681
1765408459.283160,-9.577952,1.497489,1.531564,-0.885602,0.822836,-0.345750
1765408459.283410,-9.300572,0.857245,0.451937,-0.875064,0.798401,-0.347430
1765408459.283660,-9.470347,0.889526,1.507652,-0.855517,0.833526,-0.355524
1765408459.283910,-9.843375,1.547106,2.776183,-0.847270,0.849561,-0.350484
1765408459.284134,-9.159492,0.713773,1.948230,-0.882395,0.797790,-0.349110
1765408459.284467,-9.780606,0.781325,0.717958,-0.856128,0.797790,-0.355829
1765408459.284801,-9.892395,0.590626,2.905906,-0.843147,0.821308,-0.362701
1765408459.285109,-10.766378,1.036585,4.055475,-0.836275,0.809855,-0.350942
1765408459.285359,-10.173959,0.662362,3.043998,-0.860404,0.798859,-0.362243
1765408459.285609,-10.182925,0.589431,0.738881,-0.845743,0.754877,-0.374002
1765408459.285859,-9.585723,0.272597,0.645624,-0.836580,0.754877,-0.391106
1765408459.286113,-9.632352,1.867527,0.951698,-0.819934,0.780991,-0.414319
1765408459.286363,-9.625775,2.381635,0.946915,-0.865291,0.797790,-0.410196
1765408459.286613,-9.901959,2.110234,0.869201,-0.861167,0.781755,-0.389121
1765408459.286863,-9.481109,1.622429,1.329507,-0.852768,0.813520,-0.382402
1765408459.287074,-9.342419,2.148493,2.294356,-0.844979,0.834595,-0.367741
1765408459.287324,-9.846365,1.576399,1.972142,-0.870178,0.817949,-0.361480
1765408459.287574,-9.343615,0.608560,0.925992,-0.869414,0.769843,-0.355676
1765408459.287824,-9.989837,0.056193,1.239837,-0.852157,0.765261,-0.366061
1765408459.288160,-10.792682,0.836920,2.280607,-0.821766,0.820545,-0.373391
1765408459.288493,-10.510519,0.937350,2.745098,-0.828180,0.819781,-0.371559
1765408459.288827,-9.999999,0.523673,1.792204,-0.842536,0.782671,-0.373544
1765408459.289156,-9.502031,0.401124,0.781922,-0.819934,0.781602,-0.374002
1765408459.289406,-9.646101,0.410689,1.966164,-0.796721,0.781602,-0.369573
1765408459.289656,-9.646101,0.410689,1.966164,-0.796721,0.766025,-0.369573
1765408459.289906,-9.830223,0.653993,2.654232,-0.823752,0.741590,-0.405767
1765408459.290132,-9.255140,0.911047,0.882353,-0.804662,0.704175,-0.407600
1765408459.290382,-9.554040,1.414395,0.033477,-0.804510,0.715476,-0.419664
1765408459.290632,-8.892275,1.937470,1.016858,-0.814742,0.715476,-0.432798
1765408459.290882,-8.892275,1.937470,1.016858,-0.814742,0.730442,-0.432798
1765408459.291081,-8.738043,1.251195,0.261836,-0.834595,0.719905,-0.382554
1765408459.291331,-9.764465,1.507652,0.585844,-0.814742,0.742965,-0.397062
1765408459.291581,-10.992347,1.728240,3.349473,-0.809244,0.766178,-0.400422
1765408459.291831,-10.532639,1.006695,3.225729,-0.825279,0.766178,-0.362701
1765408459.292125,-9.901959,0.554758,1.598517,-0.818865,0.718378,-0.379958
1765408459.292458,-9.114058,0.570301,-0.681492,-0.810313,0.708145,-0.391106
1765408459.292792,-9.519367,0.455524,1.459230,-0.814283,0.708145,-0.386372
1765408459.293088,-10.290529,0.665949,2.280009,-0.809244,0.761902,-0.405920
1765408459.293338,-10.866809,0.838116,2.425873,-0.812603,0.745714,-0.381485
1765408459.293588,-9.662242,-0.139885,0.569106,-0.818101,0.725708,-0.386830
1765408459.293838,-9.684958,0.179938,1.241033,-0.800539,0.739452,-0.409280
1765408459.294176,-10.881754,0.754424,3.264586,-0.799928,0.739452,-0.413403
1765408459.294426,-10.881754,0.754424,3.264586,-0.799928,0.716545,-0.413403
1765408459.294676,-10.084289,1.716882,2.056432,-0.808327,0.681878,-0.435700
1765408459.294926,-9.438066,1.525586,0.260641,-0.815963,0.644921,-0.420581
1765408459.295184,-8.543160,1.758130,0.314443,-0.810313,0.641256,-0.414319
1765408459.295434,-8.412839,1.500478,0.043042,-0.814894,0.657291,-0.414625
1765408459.295684,-8.412839,1.500478,0.043042,-0.814894,0.659276,-0.414625
1765408459.295934,-8.460066,0.699426,-0.510521,-0.815963,0.653015,-0.388052
1765408459.296088,-8.584408,0.356289,-0.329986,-0.806953,0.653015,-0.397368
1765408459.296338,-8.764345,0.559541,0.449546,-0.799623,0.693943,-0.405156
1765408459.296588,-9.307747,0.849474,2.299139,-0.781907,0.685696,-0.397062
1765408459.296838,-9.209707,0.420253,1.365375,-0.781907,0.661414,-0.397062
1765408459.297153,-8.951457,-0.028694,0.095648,-0.797179,0.627359,-0.400575
1765408459.297403,-8.888090,0.000598,-0.315638,-0.777479,0.629191,-0.406225
1765408459.297653,-9.340625,-0.078312,0.860832,-0.775952,0.628275,-0.408058
1765408459.297903,-10.308464,0.591822,1.995456,-0.777479,0.669050,-0.434631
1765408459.298153,-11.035985,0.799856,2.330224,-0.782060,0.674853,-0.426384
1765408459.298486,-9.817072,0.297704,0.571497,-0.795499,0.649961,-0.428064
1765408459.298820,-9.873264,1.366571,0.032879,-0.777173,0.624610,-0.456774
1765408459.299068,-10.335365,1.637972,2.703252,-0.787405,0.631635,-0.439670
1765408459.299318,-10.441175,1.700741,3.048780,-0.792445,0.636216,-0.423330
1765408459.299568,-9.908535,1.351028,1.267934,-0.802219,0.595899,-0.416152
1765408459.299818,-10.598994,1.027618,1.459230,-0.807411,0.569326,-0.423788
1765408459.300060,-10.999520,1.156743,1.954806,-0.782824,0.565050,-0.406378
1765408459.300310,-10.731706,0.586442,1.569823,-0.782824,0.552375,-0.406378
1765408459.300560,-10.031085,-0.121951,0.628886,-0.802372,0.540616,-0.408822
1765408459.300810,-10.063366,0.015543,0.644428,-0.788322,0.549473,-0.414167
1765408459.301124,-10.512313,-0.078312,0.808226,-0.785725,0.552222,-0.405156
1765408459.301374,-10.615732,0.235533,0.930177,-0.785878,0.562454,-0.426689
1765408459.301624,-10.548779,-0.049020,1.288259,-0.784351,0.571770,-0.422413
1765408459.301874,-11.066474,-0.124940,2.177188,-0.768774,0.582918,-0.416305
1765408459.302151,-11.951218,0.013152,3.638211,-0.753655,0.584751,-0.422108
1765408459.302484,-11.543519,0.129723,2.502391,-0.773203,0.576199,-0.435089
1765408459.302818,-10.918220,0.307269,1.971545,-0.776104,0.538172,-0.453262
1765408459.303090,-10.402916,1.021640,1.422166,-0.765414,0.523817,-0.452804
1765408459.303340,-10.245097,1.035987,1.160928,-0.772745,0.507476,-0.432034
1765408459.303590,-9.740554,0.915830,0.054998,-0.786336,0.510378,-0.435700
1765408459.303840,-10.562529,0.845887,1.335485,-0.784504,0.535423,-0.439518
1765408459.304073,-11.074843,0.719751,1.938068,-0.762818,0.538478,-0.401644
1765408459.304323,-10.764585,0.271401,1.531564,-0.781755,0.519846,-0.397215
1765408459.304573,-10.320420,-0.169775,0.789096,-0.781907,0.503658,-0.413250
1765408459.304823,-9.493064,-0.420851,0.735294,-0.760527,0.499840,-0.404087
1765408459.305141,-8.889884,-0.453132,1.030607,-0.738536,0.504117,-0.399506
1765408459.305391,-9.513390,-0.215806,1.582974,-0.735176,0.474031,-0.408974
1765408459.305641,-9.802725,-0.316834,1.192013,-0.741285,0.451888,-0.406836
1765408459.305891,-10.229554,-0.489000,1.040172,-0.716545,0.430965,-0.400269
1765408459.306111,-10.112385,-0.631277,1.243424,-0.701426,0.437685,-0.398742
1765408459.306361,-10.062768,-0.539216,1.042563,-0.707993,0.422413,-0.406684
1765408459.306611,-10.854854,-0.789096,1.217719,-0.712574,0.398131,-0.422108
1765408459.306861,-10.976804,-0.126136,1.042563,-0.705702,0.394161,-0.432645
1765408459.308131,-11.407219,0.609756,1.865734,-0.704786,0.408058,-0.437685
1765408459.308464,-11.291245,0.856647,1.800573,-0.708756,0.441961,-0.416610
1765408459.308798,-10.813604,0.682688,0.942731,-0.709215,0.417832,-0.394466
1765408459.308163,-10.683882,-0.131516,1.178264,-0.713491,0.402102,-0.387289
1765408459.308413,-10.826756,-0.451339,0.866810,-0.702495,0.426842,-0.389732
1765408459.308663,-10.722141,-0.283955,1.277499,-0.693027,0.437074,-0.389427
1765408459.308913,-11.476564,-0.411286,2.008010,-0.694554,0.437074,-0.377515
1765408459.309073,-11.761716,-0.402917,2.777379,-0.685391,0.419512,-0.372170
1765408459.309323,-11.264944,-0.781922,1.717479,-0.681115,0.411418,-0.357967
1765408459.309573,-10.341940,-1.187231,1.303204,-0.666454,0.392328,-0.352469
1765408459.309823,-10.083690,-1.199785,1.132233,-0.671799,0.384845,-0.374460
1765408459.310117,-9.988043,-0.952893,1.015064,-0.655611,0.379500,-0.371712
1765408459.310450,-9.477522,-1.056313,0.359876,-0.654237,0.380722,-0.369879
1765408459.310784,-8.671687,-0.775347,-0.943328,-0.643394,0.360410,-0.367894
1765408459.311098,-9.081779,-1.046150,-0.614538,-0.654848,0.355065,-0.367435
1765408459.311348,-10.064561,-0.836920,0.622310,-0.634689,0.382249,-0.371864
1765408459.311598,-9.754303,-0.560139,1.428742,-0.621250,0.376904,-0.359189
1765408459.311848,-9.754303,-0.560139,1.428742,-0.621250,0.360410,-0.359189
1765408459.312078,-10.114178,-0.065160,0.736490,-0.632551,0.338267,-0.379805
1765408459.312328,-10.192491,0.163797,1.038976,-0.629344,0.338267,-0.356440
1765408459.312578,-10.582256,0.062171,1.684003,-0.618807,0.348957,-0.347430
1765408459.312828,-11.166904,-0.112386,2.434839,-0.621708,0.332005,-0.335670
1765408459.313140,-11.280487,-0.885940,2.445600,-0.628580,0.323300,-0.335823
1765408459.313390,-11.048539,-0.487805,1.427546,-0.606589,0.302531,-0.335976
1765408459.313640,-11.233858,-0.541607,2.409732,-0.605520,0.302531,-0.332311
1765408459.313890,-10.286942,-0.373625,1.227881,-0.592845,0.297950,-0.322384
1765408459.314101,-10.169774,-0.801650,0.939742,-0.596052,0.271071,-0.308792
1765408459.314434,-10.056191,-1.292444,0.742468,-0.581238,0.247248,-0.310167
1765408459.314768,-10.641438,-0.919416,1.685796,-0.564592,0.249997,-0.313374
1765408459.315133,-10.272595,-0.987566,1.390483,-0.561232,0.261450,-0.309709
1765408459.315383,-9.634743,-1.187231,0.784314,-0.573297,0.241292,-0.307571
1765408459.315633,-10.218794,-0.971425,0.355093,-0.560469,0.225104,-0.308334
1765408459.315883,-10.622906,-1.125060,1.250000,-0.548404,0.225104,-0.304516
1765408459.316113,-9.519965,-1.061693,0.172166,-0.538325,0.245873,-0.292299
1765408459.316363,-9.222260,-0.968436,-0.052606,-0.541227,0.234114,-0.299782
1765408459.316613,-9.284431,-0.980990,0.730512,-0.540768,0.224493,-0.296422
1765408459.316863,-9.380080,-0.798661,0.206839,-0.521526,0.220370,-0.283900
1765408459.317178,-9.768052,-0.743663,0.494978,-0.519694,0.231060,-0.286801
1765408459.317511,-9.368124,-0.838116,0.264228,-0.524886,0.238085,-0.280998
1765408459.317845,-10.090864,-0.829746,0.917025,-0.524275,0.222508,-0.278096
1765408459.318173,-9.515780,-0.983979,0.215208,-0.523512,0.212428,-0.280693
1765408459.318423,-9.725011,-0.235533,0.420851,-0.518166,0.218079,-0.282831
1765408459.318673,-10.559540,-0.212817,1.706121,-0.520457,0.213650,-0.272140
1765408459.318923,-10.327594,-0.416667,1.199187,-0.518319,0.218537,-0.257022
1765408459.319110,-10.113581,-0.646820,0.988761,-0.510836,0.194102,-0.252135
1765408459.319360,-9.671208,-0.919416,0.353300,-0.509920,0.191048,-0.254425
1765408459.319610,-10.126732,-0.614538,0.840507,-0.504727,0.164017,-0.249233
1765408459.319860,-9.878646,-0.698828,1.001913,-0.501673,0.170584,-0.254578
1765408459.320119,-9.644905,-0.522477,0.273792,-0.492205,0.176845,-0.236710
1765408459.320452,-9.423719,-0.978599,-0.242707,-0.487470,0.149204,-0.221133
1765408459.320786,-10.448348,-1.222501,1.055117,-0.485332,0.140652,-0.229074
1765408459.321068,-10.448348,-1.222501,1.055117,-0.485332,0.154091,-0.229074
1765408459.321318,-10.307267,-1.249402,0.986370,-0.472657,0.154091,-0.220522
1765408459.321568,-10.231348,-0.847680,0.962458,-0.466396,0.139735,-0.227242
1765408459.321818,-10.194881,-1.034194,0.587040,-0.458454,0.130572,-0.214872
1765408459.322115,-10.296508,-1.149569,1.096365,-0.452498,0.120340,-0.207694
1765408459.322365,-9.887612,-1.164515,0.179340,-0.446390,0.130114,-0.214566
1765408459.322615,-10.014346,-1.000119,0.296509,-0.433256,0.106291,-0.202349
1765408459.322865,-10.050812,-1.188426,0.356887,-0.426842,0.109650,-0.205556
1765408459.323115,-9.855929,-0.750239,0.059182,-0.405767,0.109192,-0.193339
1765408459.323365,-9.757292,-0.976805,0.563128,-0.414472,0.109192,-0.192117
1765408459.323615,-9.601266,-0.736490,0.071138,-0.406225,0.098807,-0.188452
1765408459.323865,-9.562408,-0.905667,0.199665,-0.407447,0.096059,-0.173180
1765408459.324062,-9.079387,-1.049139,0.031086,-0.402255,0.099724,-0.179136
1765408459.324312,-9.489478,-0.833333,0.420851,-0.395841,0.086132,-0.164323
1765408459.324562,-9.966521,-0.976805,1.337876,-0.386983,0.069791,-0.164628
1765408459.324812,-9.785987,-1.028216,0.763391,-0.384692,0.064904,-0.156534
1765408459.325147,-9.410568,-1.248804,-0.337159,-0.383776,0.063988,-0.149967
1765408459.325480,-9.774031,-0.964849,0.312649,-0.372017,0.053603,-0.161116
1765408459.325814,-10.528454,-0.899689,1.730033,-0.361480,0.049938,-0.145844
1765408459.326051,-10.101027,-1.087996,1.059302,-0.361174,0.047189,-0.143248
1765408459.326301,-9.549257,-0.883548,-0.180536,-0.363159,0.052534,-0.146913
1765408459.326551,-10.222381,-0.841105,0.610952,-0.351095,0.031460,-0.130572
1765408459.326801,-11.000716,-1.015064,1.956002,-0.343001,0.029474,-0.135307
1765408459.327118,-10.502151,-0.774151,1.453252,-0.340863,0.046120,-0.131947
1765408459.327368,-9.546865,-0.891320,0.099235,-0.347277,0.049327,-0.125227
1765408459.327618,-9.819464,-0.854256,0.646820,-0.334907,0.019090,-0.121715
1765408459.327868,-10.752031,-0.976805,1.791009,-0.326813,0.015424,-0.125533
1765408459.328156,-10.268411,-0.463295,1.333692,-0.313832,0.031307,-0.120035
1765408459.328406,-9.483500,-0.700024,0.376614,-0.323606,0.030391,-0.119577
1765408459.328656,-9.583930,-0.524868,0.626494,-0.309709,0.005803,-0.117286
1765408459.328906,-10.400524,-0.750239,1.512434,-0.306196,0.015577,-0.114843
1765408459.329093,-10.369438,-0.269608,1.676829,-0.284510,0.036041,-0.107512
1765408459.329343,-10.032280,-0.628288,1.548302,-0.293979,0.036041,-0.106443
1765408459.329593,-9.696316,-0.620516,1.352224,-0.285579,0.018937,-0.101251
1765408459.329843,-9.432089,-0.671927,0.692252,-0.273820,0.016188,-0.097433
1765408459.330143,-9.432089,-0.671927,0.692252,-0.273820,0.017715,-0.097433
1765408459.330393,-9.134384,-0.404113,0.959469,-0.252745,0.016341,-0.095600
1765408459.330643,-9.245575,-0.545791,1.169297,-0.240528,0.016341,-0.083841
1765408459.330893,-9.236010,-0.493185,0.961262,-0.232587,0.023671,-0.081551
1765408459.331065,-9.101506,-0.618125,0.609756,-0.225715,0.022144,-0.080023
1765408459.331315,-9.446436,-0.656384,1.521999,-0.217773,0.031154,-0.082467
1765408459.331565,-9.440458,-0.691057,1.258967,-0.204029,0.024282,-0.078802
1765408459.331815,-9.534313,-0.680296,1.470588,-0.198684,0.024282,-0.075442
1765408459.332162,-9.640123,-0.652200,1.349832,-0.197004,0.036041,-0.084147
1765408459.332412,-9.618603,-0.518890,1.261358,-0.180511,0.037874,-0.072388
1765408459.332662,-9.362743,-0.757413,1.099952,-0.171959,0.042761,-0.069639
1765408459.332912,-9.534910,-0.381396,1.096365,-0.162490,0.038637,-0.075595
1765408459.333166,-9.617407,-0.572692,1.341463,-0.163865,0.049022,-0.060018
1765408459.333416,-9.623384,-0.594213,1.041965,-0.148440,0.044440,-0.053603
1765408459.333666,-9.733380,-0.858441,1.125060,-0.147371,0.049175,-0.054978
1765408459.333916,-10.090864,-0.651602,1.449067,-0.142026,0.049175,-0.059559
1765408459.334201,-10.149448,-0.582257,1.361789,-0.127824,0.052534,-0.052076
1765408459.334451,-10.060975,-0.758010,1.248206,-0.120646,0.043524,-0.045357
1765408459.334701,-10.371830,-0.700622,1.414395,-0.111330,0.046578,-0.045357
1765408459.334951,-10.505738,-0.818986,1.625418,-0.101556,0.040623,-0.043524
1765408459.335135,-10.310855,-0.820182,1.209947,-0.091324,0.040623,-0.042455
1765408459.335385,-10.310855,-0.820182,1.209947,-0.091324,0.041233,-0.042455
1765408459.335635,-10.502748,-0.603180,1.226686,-0.069486,0.043830,-0.034972
1765408459.335885,-10.486010,-0.690459,1.185437,-0.059712,0.042608,-0.031765
1765408459.336134,-10.450740,-0.779531,1.040172,-0.056810,0.038332,-0.033292
1765408459.336384,-10.576279,-0.648015,1.211143,-0.052229,0.038332,-0.040012
1765408459.336634,-10.474652,-0.532640,1.152558,-0.040775,0.036805,-0.031154
1765408459.336884,-10.424437,-0.618723,0.958871,-0.035583,0.026878,-0.023366
1765408459.337114,-10.431609,-0.564921,0.795074,-0.032223,0.026878,-0.026114
1765408459.337364,-10.612146,-0.500956,1.049139,-0.026878,0.023824,-0.023060
1765408459.337614,-10.589430,-0.600191,1.000717,-0.020617,0.028558,-0.021075
1765408459.337864,-10.393352,-0.613343,0.762195,-0.011454,0.024740,-0.016188
1765408459.338163,-10.333572,-0.581062,0.718556,-0.005498,0.019700,-0.021075
1765408459.338413,-10.378406,-0.411884,0.692252,0.003054,0.019395,-0.018784
1765408459.338663,-10.378406,-0.411884,0.692252,0.003054,0.018479,-0.018784
1765408459.338913,-10.384982,-0.350311,0.701817,0.004887,0.020311,-0.014966
1765408459.339146,-10.408894,-0.257054,0.656384,0.007636,0.013744,-0.013286
1765408459.339346,-10.555953,-0.205643,0.839311,0.010843,0.008399,-0.014508
1765408459.339546,-10.358679,-0.195481,0.613343,0.011912,0.010537,-0.012370
1765408459.339746,-10.212815,-0.001196,0.391559,0.017868,0.007636,-0.012828
1765408459.339946,-10.020324,0.306074,0.286346,0.022144,0.002749,-0.010843
1765408459.340169,-10.116570,0.846485,0.441774,0.018173,-0.003971,-0.011912
1765408459.340369,-10.011955,1.175275,0.209828,0.014355,0.001222,-0.007789
1765408459.340569,-9.719033,1.031803,0.127331,0.001374,0.001222,0.007941
1765408459.340769,-9.665230,0.707197,0.116571,0.001374,-0.001527,0.007941
1765408459.340969,-9.890003,0.308465,0.052606,-0.006872,-0.001680,0.019395
1765408459.341114,-9.695121,-0.176351,-0.254663,-0.004734,-0.003054,0.024129
1765408459.341314,-9.990434,0.044237,0.231946,-0.003971,0.010996,0.005192
1765408459.341514,-10.138689,0.108800,0.359876,-0.011454,0.010996,0.002902
1765408459.341714,-9.968315,0.012554,0.117767,-0.005956,0.002138,0.010996
1765408459.341914,-10.102820,-0.129125,0.253467,-0.001833,-0.009621,0.009010
1765408459.342085,-10.114776,-0.096844,0.552367,-0.001222,0.001374,0.001833
1765408459.342285,-10.114776,-0.096844,0.208034,-0.001222,0.002596,0.001833
1765408459.342485,-9.876852,0.154232,0.083692,0.001680,-0.005040,-0.001222
1765408459.342685,-10.025107,0.303085,0.206839,0.000611,-0.009163,-0.001527
1765408459.342885,-10.113581,0.255858,0.388570,0.000764,-0.002291,0.005498
1765408459.343130,-10.009563,0.052606,0.342539,0.001222,-0.003054,0.004429
1765408459.343330,-10.044834,0.081301,0.387374,-0.001222,-0.006720,-0.001985
1765408459.343530,-10.167382,0.227164,0.387374,-0.001069,-0.011912,-0.005803
1765408459.343730,-10.175154,0.325203,0.410689,-0.004734,-0.008858,-0.004276
1765408459.343930,-10.084887,0.239120,0.431612,-0.007789,-0.007789,-0.005192
1765408459.344126,-10.075920,0.315638,0.468077,-0.010079,-0.009621,-0.005498
1765408459.344326,-10.049019,0.252272,0.376614,-0.011454,-0.012065,-0.006414
1765408459.344526,-9.953967,0.065160,0.282759,-0.011606,-0.012981,-0.005040
1765408459.344726,-9.941415,-0.012554,0.324008,-0.010690,-0.016799,-0.006872
1765408459.344926,-9.888808,0.111191,0.327594,-0.011454,-0.010232,-0.008094
1765408459.345229,-9.797942,0.190100,0.237924,-0.012217,-0.013592,-0.007178
1765408459.345429,-9.772835,0.242707,0.168580,-0.013744,-0.015119,-0.006414
1765408459.345629,-9.844571,0.179938,0.365854,-0.017104,-0.012981,-0.003360
1765408459.345829,-9.863700,-0.043639,0.324008,-0.017104,-0.008399,-0.003360
1765408459.346029,-9.811094,-0.224773,0.267814,-0.018021,-0.009163,-0.000153
1765408459.346232,-9.815877,-0.162602,0.259445,-0.018173,-0.009163,-0.007483
1765408459.346482,-9.825441,-0.029292,0.290531,-0.017715,-0.007483,-0.008858
1765408459.346732,-9.837397,0.093257,0.292922,-0.014203,-0.009163,-0.007025
1765408459.346982,-9.861309,-0.007174,0.394548,-0.017562,-0.007483,-0.002902
1765408459.347178,-9.936632,-0.119560,0.408895,-0.016799,-0.010537,-0.005651
1765408459.347378,-9.933045,-0.099235,0.336561,-0.014966,-0.009010,-0.007636
1765408459.347578,-9.933045,-0.056193,0.340746,-0.014355,-0.005498,-0.004429
1765408459.347778,-9.931850,-0.115973,0.386777,-0.016035,-0.006567,-0.004429
1765408459.347978,-9.970109,-0.127929,0.406504,-0.013286,-0.008705,-0.004429
1765408459.348151,-10.025107,-0.179340,0.461502,-0.011606,-0.007483,-0.003971
1765408459.348351,-10.035867,-0.192492,0.475849,-0.011148,-0.009774,-0.003512
1765408459.348551,-10.040051,-0.125538,0.401124,-0.013134,-0.011759,-0.003818
1765408459.348751,-9.955761,-0.096844,0.319225,-0.013744,-0.008858,-0.001833
1765408459.348951,-9.877449,-0.173362,0.380201,-0.011759,-0.008858,-0.003818
1765408459.349220,-9.897178,-0.154232,0.384983,-0.011606,-0.010232,-0.002596
1765408459.349420,-9.861309,-0.124342,0.359876,-0.009468,-0.010079,-0.002291
1765408459.349620,-9.813485,-0.210426,0.197274,-0.007636,-0.009774,0.001222
1765408459.349820,-9.812290,-0.256456,0.350311,-0.007025,-0.006567,-0.000153
1765408459.350020,-9.885818,-0.185916,0.324008,-0.006567,-0.006567,-0.003818
1765408459.350221,-9.885818,-0.185916,0.324008,-0.006567,-0.005956,-0.003818
1765408459.350421,-9.856527,-0.053204,0.292922,-0.007330,-0.007025,-0.002443
1765408459.350621,-9.922883,-0.088474,0.375418,-0.006414,-0.007025,0.000305
1765408459.350821,-9.945600,-0.136298,0.356887,-0.006872,-0.000153,0.001069
1765408459.351021,-9.935436,-0.149450,0.334768,-0.003207,-0.000153,0.003512
1765408459.351236,-9.935436,-0.149450,0.334768,-0.003207,-0.000916,0.003512
1765408459.351436,-9.980869,-0.014347,0.382592,-0.005803,-0.004734,0.001069
1765408459.351636,-9.967718,-0.029890,0.354495,-0.003360,-0.004734,0.003360
1765408459.351836,-9.959349,-0.093257,0.372429,-0.005345,-0.004887,0.002902
1765408459.352036,-9.919893,-0.058584,0.272597,-0.006109,-0.006720,0.001069
1765408459.352182,-9.874461,0.001196,0.181731,-0.004429,-0.004123,-0.001069
1765408459.352382,-9.925871,0.021521,0.322214,-0.003207,-0.008094,0.001833
1765408459.352582,-10.050214,-0.011956,0.503348,-0.004887,-0.008094,0.002291
1765408459.352782,-10.087276,0.023314,0.493783,-0.006567,-0.006109,0.003360
1765408459.352982,-9.980272,0.005978,0.254663,-0.005803,-0.003054,0.003512
1765408459.353366,-9.904350,-0.010760,0.266619,-0.003512,-0.006261,0.002749
1765408459.353566,-9.976685,-0.023912,0.371234,-0.005345,-0.006567,0.002596
1765408459.353766,-10.033475,0.025108,0.374821,-0.007178,-0.007789,0.001527
1765408459.353966,-10.033475,0.025108,0.374821,-0.007178,-0.003512,0.001527
1765408459.354166,-9.915112,0.021521,0.257054,-0.007178,-0.005040,0.000458
1765408459.354191,-10.005977,-0.026901,0.389168,-0.003971,-0.005040,0.002291
1765408459.354391,-10.006575,0.001196,0.352702,-0.003971,-0.005651,0.001527
1765408459.354591,-9.891200,-0.010163,0.269608,-0.005192,-0.006567,-0.000916
1765408459.354791,-9.863102,-0.016738,0.222382,-0.005192,-0.006414,-0.000916
1765408459.354991,-9.935436,0.043042,0.263630,-0.006720,-0.009621,0.000764
1765408459.355161,-9.929459,0.074127,0.246294,-0.006720,-0.006261,0.000611
1765408459.355361,-9.914514,0.073529,0.377810,-0.007025,-0.005803,-0.000458
1765408459.355561,-9.931850,0.028097,0.356289,-0.005956,-0.007178,-0.000611
1765408459.355761,-9.956359,0.078910,0.295313,-0.007789,-0.009010,-0.001222
1765408459.355961,-9.923481,0.049020,0.320421,-0.008247,-0.008247,-0.001069
1765408459.356250,-9.909132,0.053802,0.359876,-0.008552,-0.007025,-0.004123
1765408459.356450,-9.912720,0.117767,0.307269,-0.010690,-0.009774,-0.002138
1765408459.356650,-9.909132,0.081301,0.254663,-0.012217,-0.005803,0.000305
1765408459.356850,-9.905546,0.001196,0.392157,-0.011759,-0.005803,0.001985
1765408459.357050,-9.960544,-0.004185,0.380201,-0.011912,-0.008094,-0.000458
1765408459.357206,-9.940218,0.031086,0.344333,-0.010385,-0.007789,-0.002291
1765408459.357406,-9.860114,-0.016141,0.285151,-0.009621,-0.008705,-0.001527
1765408459.357606,-9.894786,-0.009565,0.300096,-0.007636,-0.007941,-0.003054
1765408459.357806,-9.923481,0.004782,0.332377,-0.010537,-0.009316,-0.001527
1765408459.358006,-9.910329,-0.069345,0.337159,-0.007789,-0.006261,-0.003054
1765408459.358185,-9.878048,-0.092061,0.324605,-0.010690,-0.007330,0.000305
1765408459.358385,-9.904350,-0.033477,0.335366,-0.012370,-0.007330,-0.001222
1765408459.358585,-9.924676,-0.031086,0.325801,-0.010079,-0.006567,-0.001527
1765408459.358785,-9.945002,-0.084888,0.328790,-0.009621,-0.008705,-0.002291
1765408459.358985,-9.996411,-0.084888,0.405308,-0.010537,-0.005498,-0.002902
1765408459.359121,-9.965326,-0.033477,0.350311,-0.008858,-0.006567,-0.005498
1765408459.359321,-9.882831,-0.095050,0.269010,-0.007789,-0.006567,-0.003665
1765408459.359521,-9.897178,-0.069345,0.349115,-0.007941,-0.007330,-0.002749
1765408459.359721,-9.973696,-0.031086,0.321019,-0.008705,-0.006872,-0.004276
1765408459.359921,-9.936632,-0.031086,0.282162,-0.008705,-0.005040,-0.004276
1765408459.360163,-9.962337,-0.107604,0.343137,-0.008247,-0.002749,-0.003971
1765408459.360363,-9.988043,-0.048422,0.432807,-0.009316,-0.008247,-0.003054
1765408459.360563,-9.956957,-0.027499,0.278575,-0.008858,-0.006261,-0.000611
1765408459.360763,-9.907937,-0.107604,0.290531,-0.008705,-0.008552,0.000458
1765408459.360963,-9.934240,-0.075323,0.349115,-0.006872,-0.007483,-0.001374
1765408459.361192,-9.925871,-0.007771,0.287542,-0.008399,-0.005651,0.000000
1765408459.361392,-9.892395,-0.101626,0.253467,-0.009010,-0.006109,0.001222
1765408459.361592,-9.927068,-0.057389,0.376614,-0.008247,-0.008247,-0.000458
1765408459.361792,-9.985652,-0.000598,0.374223,-0.004734,-0.002138,-0.001374
1765408459.361992,-9.954566,-0.086083,0.310856,-0.007636,-0.004887,0.000458
1765408459.362154,-9.927666,-0.082496,0.270206,-0.008247,-0.007789,0.001374
1765408459.362354,-9.924676,-0.013152,0.263032,-0.008247,-0.003207,0.000305
1765408459.362554,-9.902557,-0.040650,0.315638,-0.007178,-0.007178,0.000916
1765408459.362754,-9.979673,-0.105811,0.406504,-0.006872,-0.009010,0.000458
1765408459.362954,-10.007771,-0.016738,0.395744,-0.003971,-0.006109,-0.000305
1765408459.363107,-9.936632,0.033477,0.307867,-0.005345,-0.003665,-0.000611
1765408459.363307,-9.864896,-0.037064,0.276184,-0.009316,-0.010843,-0.002138
1765408459.363507,-9.962337,-0.054998,0.381396,-0.007941,-0.006872,-0.001374
1765408459.363707,-10.054996,0.002391,0.384983,-0.007330,-0.006872,0.001833
1765408459.363907,-9.952174,0.004782,0.235533,-0.004887,-0.006109,-0.000458
1765408459.364139,-9.894188,-0.016738,0.322812,-0.007025,-0.009774,0.000000
1765408459.364339,-9.878646,-0.021521,0.374223,-0.007789,-0.009774,-0.000916
1765408459.364539,-9.962935,0.011956,0.398135,-0.008552,-0.007178,-0.001374
1765408459.364739,-9.868484,-0.044835,0.205643,-0.007789,-0.007483,-0.000153
1765408459.364939,-9.835604,-0.010760,0.258250,-0.007330,-0.008247,-0.000305
1765408459.365107,-9.952772,0.050215,0.420851,-0.009621,-0.008247,-0.000305
1765408459.365307,-9.918698,0.034672,0.314443,-0.009010,-0.009163,-0.000916
1765408459.365507,-9.844571,-0.019130,0.258847,-0.007330,-0.006720,0.001222
1765408459.365707,-9.916306,-0.031086,0.391559,-0.007330,-0.006109,-0.000153
1765408459.365907,-10.040649,0.017934,0.477044,-0.008094,-0.008094,-0.000916
1765408459.366120,-9.952174,0.065758,0.301889,-0.007941,-0.006261,-0.001680
1765408459.366320,-9.888210,0.022716,0.258250,-0.009468,-0.006261,0.000458
1765408459.366520,-9.927068,-0.080703,0.337757,-0.012065,-0.007789,-0.002596
1765408459.366720,-9.992227,0.028097,0.462697,-0.010385,-0.004581,-0.000916
1765408459.366920,-9.994021,0.052009,0.370636,-0.009010,-0.003512,-0.002138
1765408459.367187,-9.864299,-0.050813,0.268412,-0.009621,-0.007178,-0.001527
1765408459.367387,-9.904350,-0.026303,0.289335,-0.007789,-0.007178,-0.000305
1765408459.367587,-9.959349,0.010760,0.359876,-0.008705,-0.004276,-0.004887
1765408459.367787,-10.008368,-0.053802,0.439981,-0.006872,-0.007636,-0.002749
1765408459.367987,-9.994021,-0.077714,0.386179,-0.010996,-0.005345,-0.000764
1765408459.368157,-9.979673,-0.026901,0.265423,-0.007178,-0.007483,-0.001833
1765408459.368357,-9.904350,-0.029890,0.291726,-0.009316,-0.003971,-0.003054
1765408459.368557,-9.904350,-0.029890,0.291726,-0.009316,-0.005803,-0.003054
1765408459.368757,-9.898373,-0.004782,0.231946,-0.008399,-0.007330,-0.001833
1765408459.368957,-9.919893,-0.031086,0.329388,-0.006872,-0.007330,-0.001985
1765408459.369106,-9.919893,-0.031086,0.329388,-0.006872,-0.005040,-0.001985
1765408459.369306,-9.927068,-0.057987,0.326399,-0.007025,-0.007789,-0.002749
1765408459.369506,-9.892395,-0.008369,0.225968,-0.007483,-0.007636,-0.003054
1765408459.369706,-9.873863,-0.030488,0.302487,-0.008858,-0.003818,-0.001985
1765408459.369906,-9.998802,-0.063367,0.382592,-0.009163,-0.007330,0.001985
1765408459.370074,-10.009563,-0.086681,0.338355,-0.010232,-0.005956,0.002138
1765408459.370274,-9.942610,-0.033477,0.300096,-0.008094,-0.006872,-0.002138
1765408459.370474,-9.927666,-0.053802,0.340148,-0.006872,-0.008858,-0.002596
1765408459.370674,-9.952174,-0.046628,0.407700,-0.009163,-0.004123,0.001680
1765408459.370874,-9.672404,-0.167384,0.105213,-0.006720,-0.004123,-0.000153
1765408459.371081,-9.319702,-0.151841,0.265423,-0.008552,-0.006720,-0.003818
1765408459.371331,-9.392634,0.072334,0.009565,-0.009927,0.003054,-0.014050
1765408459.371581,-9.499043,0.259445,0.372429,-0.001222,0.003054,0.003512
1765408459.371831,-9.016020,-0.057389,0.013152,-0.000764,0.022755,0.014355
1765408459.372123,-9.760879,-0.034672,0.885342,-0.014508,0.005192,-0.002443
1765408459.372323,-10.437589,0.001196,0.861430,-0.014050,-0.004276,-0.000305
1765408459.372523,-10.032280,-0.489000,-0.098039,-0.006872,-0.001985,0.013592
1765408459.372723,-9.497249,-0.420851,-0.167384,0.003207,0.002902,-0.005345
1765408459.372923,-9.497249,-0.420851,-0.167384,0.003207,0.021991,-0.005345
1765408459.373140,-10.494978,0.740076,1.448470,-0.013134,0.015882,-0.002902
1765408459.373340,-10.166186,-0.132114,0.289933,-0.008552,-0.004887,0.022144
1765408459.373540,-9.583930,-0.740674,-0.392157,-0.007789,-0.007789,0.012523
1765408459.373740,-9.850550,-0.329986,0.383190,-0.008094,0.004581,-0.016799
1765408459.373940,-9.850550,-0.329986,0.383190,-0.008094,0.015119,-0.016799
1765408459.374136,-9.991630,0.424438,0.251076,-0.008094,0.010843,0.002749
1765408459.374336,-9.805714,0.031086,0.116571,-0.007178,0.006109,0.010537
1765408459.374536,-9.922284,-0.258847,0.569106,-0.009927,0.007789,0.006109
1765408459.374736,-10.101624,-0.294715,0.622908,-0.012217,0.007789,-0.002902
1765408459.374936,-9.907937,-0.142276,0.126734,-0.007483,0.001069,-0.007789
1765408459.375051,-9.765063,0.133907,-0.022716,-0.005956,0.003665,-0.009316
1765408459.375251,-9.962935,0.314443,0.413678,-0.007789,0.006109,-0.004734
1765408459.375451,-10.098038,0.173362,0.621114,-0.008247,0.010232,0.004276
1765408459.375651,-9.824244,-0.209230,0.253467,-0.009927,0.006567,0.005345
1765408459.375851,-9.806910,-0.302487,0.105213,-0.010079,-0.000764,-0.002749
1765408459.376120,-9.866092,-0.194883,0.280368,-0.007025,0.006567,-0.006872
1765408459.376320,-9.995814,0.102822,0.477642,-0.005345,0.003971,-0.008552
1765408459.376520,-9.960544,0.319225,0.300693,-0.008705,0.005040,-0.002749
1765408459.376720,-9.878048,0.181731,0.105213,-0.008094,0.008094,0.008094
1765408459.376920,-9.854136,-0.230153,0.224773,-0.005192,0.005803,0.007789
1765408459.377118,-10.079505,-0.313247,0.582257,-0.009621,0.004581,-0.001680
1765408459.377318,-10.032280,-0.084888,0.423242,-0.009010,0.009316,-0.009163
1765408459.377518,-9.817670,0.134505,0.101028,-0.008705,0.007483,-0.007178
1765408459.377718,-9.836799,0.174558,0.265423,-0.007483,0.003818,-0.002749
1765408459.377918,-10.007172,0.114180,0.438785,-0.006872,0.007483,0.003512
1765408459.378160,-9.878048,-0.136298,0.205643,-0.009468,0.007330,0.006567
1765408459.378410,-9.817072,-0.340746,0.077714,-0.009927,0.002596,0.000458
1765408459.378660,-9.996411,-0.128527,0.352104,-0.008399,0.006261,-0.007789
1765408459.378910,-10.145862,0.076518,0.475251,-0.006872,0.010690,-0.005040
1765408459.379135,-10.033475,0.074127,0.377212,-0.011148,0.006720,0.000305
1765408459.379335,-9.950979,0.039455,0.138690,-0.009163,0.003512,-0.001069
1765408459.379535,-9.998802,0.020325,0.179340,-0.009621,0.003512,0.001680
1765408459.379735,-10.029889,-0.173362,0.445959,-0.009316,0.004734,0.002902
1765408459.379935,-9.989837,-0.215806,0.384983,-0.008094,0.001374,0.000916
1765408459.380129,-9.968913,-0.028694,0.102822,-0.008094,0.000153,-0.003360
1765408459.380329,-9.948587,0.104615,0.181731,-0.007636,0.002749,-0.004123
1765408459.380529,-10.026302,0.107604,0.423242,-0.005345,0.002443,0.000611
1765408459.380729,-10.038258,0.021521,0.385581,-0.010385,0.003665,0.005192
1765408459.380929,-10.057388,-0.077714,0.352702,-0.008094,-0.002749,0.000000
1765408459.381171,-10.057388,-0.077714,0.405308,-0.008094,-0.001833,0.000000
1765408459.381371,-10.074127,-0.061573,0.371832,-0.004887,-0.003818,-0.000916
1765408459.381571,-10.069344,0.035868,0.254663,-0.006109,-0.003818,-0.003360
1765408459.381771,-9.950979,0.050813,0.246891,-0.007789,-0.001680,0.000458
1765408459.381971,-10.026302,0.028694,0.273195,-0.008399,-0.003207,0.001833
1765408459.382130,-10.037063,0.033477,0.355691,-0.007025,-0.002902,0.001222
1765408459.382330,-10.068746,-0.076518,0.468675,-0.007330,0.000611,-0.000153
1765408459.382530,-9.946198,-0.161406,0.309660,-0.007941,0.000458,0.001527
1765408459.382730,-10.006575,-0.019130,0.263032,-0.006567,-0.007178,-0.003512
1765408459.382930,-9.997009,0.062171,0.292922,-0.008247,-0.003360,-0.003971
1765408459.383139,-9.946198,0.019727,0.294118,-0.007941,-0.000916,-0.001222
1765408459.383639,-9.946198,0.019727,0.294118,-0.007941,-0.001985,-0.001222
1765408459.384100,-9.924078,-0.034672,0.251076,-0.008552,-0.005345,0.002596
1765408459.386169,-9.983260,-0.157819,0.420851,-0.008858,-0.005651,-0.000153
1765408459.388092,-10.027497,-0.115973,0.374821,-0.004734,-0.006261,-0.000153
1765408459.391105,-9.991630,0.034672,0.272597,-0.006567,-0.006261,-0.004734
1765408459.394101,-9.894786,0.031086,0.209828,-0.009621,-0.004276,-0.002596
1765408459.394601,-9.886416,0.040650,0.279173,-0.006414,-0.009468,0.001680
1765408459.398130,-9.933045,0.054998,0.295313,-0.007178,-0.006567,0.000153
1765408459.401086,-9.871471,-0.071138,0.322214,-0.009010,-0.007025,-0.000305
1765408459.402089,-9.880439,-0.157819,0.271401,-0.008094,-0.007025,-0.001222
1765408459.406110,-9.927068,-0.035270,0.270206,-0.005651,-0.008552,-0.004734
1765408459.409142,-9.948587,0.047824,0.282162,-0.008399,-0.004581,-0.002443
1765408459.411108,-9.909132,0.011956,0.319225,-0.007025,-0.004429,-0.003512
1765408459.412171,-9.999401,0.018532,0.384983,-0.007178,-0.007025,-0.000764
1765408459.416146,-9.992825,-0.003587,0.358082,-0.008552,-0.008094,-0.000916
1765408459.419146,-9.973696,-0.106408,0.345528,-0.007178,-0.004429,0.000305
1765408459.421188,-9.934240,-0.147657,0.368245,-0.008247,-0.006414,-0.000305
1765408459.424167,-9.948587,0.001196,0.356887,-0.010232,-0.006414,-0.003818
1765408459.426113,-9.948587,0.001196,0.356887,-0.010232,-0.003971,-0.003818
1765408459.428135,-9.819464,-0.003587,0.249283,-0.008858,-0.007178,0.000153
1765408459.429095,-9.922883,-0.034672,0.356289,-0.007636,-0.008705,0.000764
1765408459.433238,-9.959349,-0.041248,0.405308,-0.005040,-0.004581,-0.000916
1765408459.434192,-9.891200,-0.139885,0.346724,-0.008552,-0.003512,0.000305
1765408459.437165,-9.861309,-0.102822,0.279770,-0.008705,-0.005192,0.000458
1765408459.441183,-9.942610,0.037064,0.274988,-0.007178,-0.007178,-0.002596
1765408459.444153,-9.913916,0.040650,0.346724,-0.007178,-0.004887,-0.000305
1765408459.446162,-9.895982,-0.025108,0.351506,-0.007636,-0.005345,0.000153
1765408459.449134,-9.848158,-0.053802,0.296509,-0.009316,-0.005651,0.001680
1765408459.451087,-9.845766,-0.067551,0.276781,-0.008858,-0.001527,-0.001680
1765408459.453237,-9.881634,-0.099235,0.369440,-0.007789,-0.005956,-0.001680
1765408459.456094,-9.983858,-0.040053,0.451937,-0.008247,-0.004887,-0.002138
1765408459.459126,-9.907937,0.071736,0.318627,-0.008247,-0.005040,-0.002443
1765408459.461123,-9.843375,0.013749,0.190100,-0.005956,-0.005040,-0.000458
1765408459.463122,-9.869678,-0.093855,0.329986,-0.007483,-0.006567,-0.000153
1765408459.466129,-10.020324,-0.059780,0.468675,-0.005803,-0.006414,-0.000764
1765408459.468218,-9.936033,-0.028097,0.330583,-0.009010,-0.000305,-0.002138
1765408459.471147,-9.806910,-0.011956,0.206839,-0.009316,-0.000458,-0.002138
1765408459.476485,-9.885221,0.023912,0.357484,-0.008247,-0.003360,-0.001069
1765408459.476818,-9.997607,0.010760,0.445361,-0.008247,-0.006261,-0.000611
1765408459.477152,-9.953370,0.004782,0.326399,-0.010385,-0.004734,-0.001069
1765408459.481097,-9.912122,-0.033477,0.278575,-0.008858,-0.004123,-0.001833
1765408459.483152,-9.912122,-0.033477,0.278575,-0.008858,-0.002138,-0.001833
1765408459.484132,-10.052606,-0.050215,0.471066,-0.009774,-0.002443,-0.000305
1765408459.488094,-9.942610,-0.043042,0.333572,-0.010232,-0.001680,-0.003360
1765408459.491062,-9.895982,0.006576,0.318030,-0.009774,-0.002443,-0.003207
1765408459.494088,-9.898971,0.001196,0.331181,-0.007025,-0.003207,-0.002596
1765408459.496080,-9.943806,0.020325,0.304878,-0.008094,-0.000764,-0.001374
1765408459.499062,-9.956957,-0.001196,0.330583,-0.009774,-0.000305,-0.001680
1765408459.501072,-9.943806,-0.025108,0.348517,-0.007636,-0.001985,-0.001527
1765408459.503079,-9.940218,-0.069943,0.343137,-0.010232,-0.003360,0.002749
1765408459.506111,-9.918698,-0.037064,0.265423,-0.007330,-0.003360,-0.001222
1765408459.509119,-9.942610,-0.020325,0.310856,-0.010232,-0.003971,-0.003512
1765408459.512134,-9.948587,0.009565,0.291726,-0.008094,0.000764,-0.001680
1765408459.513118,-9.897178,0.057389,0.245098,-0.008858,-0.001527,0.000611
1765408459.516102,-9.905546,-0.016738,0.241511,-0.009774,-0.001069,0.000305
1765408459.519141,-9.970109,-0.065160,0.352702,-0.006261,-0.001069,-0.001680
1765408459.519641,-9.977283,-0.078910,0.316834,-0.007483,-0.003360,-0.000916
1765408459.524087,-9.964728,-0.032281,0.284553,-0.007941,-0.004734,-0.003207
1765408459.526117,-9.964728,-0.032281,0.284553,-0.007941,-0.003665,-0.003207
1765408459.528123,-9.979673,0.025108,0.345528,-0.006720,-0.002902,-0.000916
1765408459.531127,-10.049019,-0.009565,0.329388,-0.007941,-0.005345,0.001527
1765408459.534144,-10.092059,-0.072932,0.387972,-0.008705,-0.003512,-0.000153
1765408459.534644,-10.124939,-0.074127,0.444763,-0.010079,-0.004123,-0.002443
1765408459.537168,-10.016738,-0.028694,0.309660,-0.009316,-0.004276,-0.004734
1765408459.539119,-10.016139,0.023912,0.283357,-0.009163,-0.007789,-0.004581
1765408459.543170,-10.023911,0.074127,0.335366,-0.010385,-0.005956,-0.001833
1765408459.546169,-10.034670,0.064562,0.345528,-0.008399,-0.009163,-0.000305
1765408459.549109,-9.964130,-0.022716,0.275586,-0.007789,-0.005498,0.000305
1765408459.551175,-9.998206,-0.155428,0.378407,-0.009468,-0.004123,-0.001069
1765408459.553233,-10.011356,-0.151243,0.401124,-0.007941,-0.006109,-0.003665
1765408459.556085,-9.970109,-0.063367,0.251076,-0.007025,-0.006414,-0.005040
1765408459.558922,-9.967119,0.037064,0.224773,-0.008094,-0.008552,-0.004581
1765408459.561130,-10.025107,0.040053,0.334768,-0.008858,-0.009468,-0.001527
1765408459.564141,-10.034670,-0.005978,0.416069,-0.007178,-0.009468,-0.001680
1765408459.566107,-10.010161,-0.005978,0.345528,-0.007178,-0.008399,-0.001680
1765408459.569093,-9.907339,-0.123147,0.274988,-0.010232,-0.007178,-0.001680
1765408459.571110,-9.887015,-0.043639,0.209828,-0.007789,-0.010385,-0.002291
1765408459.574134,-9.916306,0.026303,0.267814,-0.007025,-0.009774,-0.003512
1765408459.576114,-9.936632,0.034672,0.245098,-0.010537,-0.009774,-0.003360
1765408459.579111,-9.936632,0.034672,0.245098,-0.010537,-0.007025,-0.003360
1765408459.581059,-9.914514,-0.077116,0.271401,-0.006720,-0.007025,-0.000305
1765408459.583164,-9.906742,-0.087279,0.304878,-0.008094,-0.008094,-0.001833
1765408459.586085,-9.907339,-0.096246,0.301889,-0.010079,-0.012370,-0.003971
1765408459.589072,-9.968913,-0.005978,0.334768,-0.006414,-0.013592,-0.005651
1765408459.591131,-9.988043,0.125538,0.327594,-0.006261,-0.010843,-0.005345
1765408459.594100,-9.936632,0.068747,0.361071,-0.009774,-0.017104,0.000000
1765408459.596176,-9.875058,-0.020325,0.270206,-0.011759,-0.017104,0.001374
1765408459.598143,-9.907937,-0.115973,0.310258,-0.010232,-0.015577,0.002443
1765408459.599187,-9.975489,-0.123147,0.375418,-0.010232,-0.012675,0.001069
1765408459.604121,-10.015541,-0.072334,0.417264,-0.010079,-0.016341,-0.002443
1765408459.604621,-9.990434,0.060976,0.286346,-0.007941,-0.014661,-0.003512
1765408459.609161,-9.855330,0.070540,0.138690,-0.008858,-0.014661,-0.001833
1765408459.611190,-9.809898,-0.040053,0.150646,-0.012065,-0.017715,0.001069
1765408459.614139,-9.989238,-0.035868,0.386179,-0.007483,-0.011454,-0.001222
1765408459.616130,-9.986848,-0.067551,0.424438,-0.012065,-0.005803,-0.002443
1765408459.618141,-9.881634,-0.075921,0.295313,-0.011148,-0.007025,-0.002443
1765408459.621129,-9.916306,-0.017934,0.357484,-0.007483,-0.007025,-0.003360
1765408459.623116,-9.916306,-0.017934,0.357484,-0.007483,-0.008858,-0.003360
1765408459.626092,-9.867287,-0.013749,0.344333,-0.012981,-0.008858,-0.001527
1765408459.628201,-9.844571,-0.077714,0.327594,-0.010690,-0.008858,-0.002443
1765408459.631191,-9.844571,-0.077714,0.327594,-0.010690,-0.008858,-0.002443
1765408459.633175,-9.965326,-0.083094,0.420851,-0.008247,-0.010843,-0.002138
1765408459.636108,-9.953370,-0.036466,0.312052,-0.008247,-0.009927,-0.002138
1765408459.639081,-9.980869,-0.008967,0.356289,-0.011301,-0.010385,-0.003818
1765408459.639581,-10.026900,0.009565,0.425634,-0.010843,-0.012981,-0.003971
1765408459.644134,-10.034670,-0.050215,0.361071,-0.007636,-0.011301,-0.000611
1765408459.646124,-9.892395,-0.102822,0.244500,-0.006414,-0.010232,-0.002291
1765408459.648114,-9.965326,-0.068747,0.334768,-0.009774,-0.010232,-0.002443
1765408459.651144,-9.980869,-0.038259,0.355093,-0.009163,-0.011759,-0.004734
1765408459.653259,-9.872069,0.002391,0.253467,-0.009010,-0.009468,-0.004123
1765408459.656120,-9.820659,0.034672,0.247489,-0.007025,-0.010537,-0.006261
1765408459.658135,-9.939023,0.018532,0.423242,-0.006567,-0.005345,-0.005345
1765408459.659179,-9.891200,-0.005380,0.381396,-0.008094,-0.009468,-0.005040
1765408459.666995,-9.827832,0.023912,0.234338,-0.010232,-0.009163,-0.004581
1765408459.667328,-9.814680,0.033477,0.310856,-0.010537,-0.007789,-0.002138
1765408459.667662,-9.890003,-0.038259,0.395744,-0.007483,-0.010232,0.000153
1765408459.671062,-9.924078,-0.038857,0.358680,-0.010690,-0.015730,-0.004123
1765408459.674137,-9.952174,-0.027499,0.285748,-0.008705,-0.010996,-0.006261
1765408459.676089,-9.932447,-0.009565,0.293520,-0.008858,-0.012065,-0.002291
1765408459.679131,-9.918099,0.008967,0.252272,-0.009010,-0.012523,-0.003665
1765408459.681216,-9.956957,0.028694,0.304878,-0.010385,-0.011912,-0.001985
1765408459.683098,-9.915112,-0.005978,0.282162,-0.008247,-0.012981,-0.001527
1765408459.686111,-9.952174,-0.053204,0.312052,-0.010385,-0.012981,-0.002902
1765408459.689084,-9.952174,-0.053204,0.312052,-0.010385,-0.006109,-0.002902
1765408459.691144,-9.881634,0.031086,0.251674,-0.011301,-0.001985,-0.003512
1765408459.692141,-9.940218,0.034075,0.364060,-0.011454,-0.005803,-0.003360
1765408459.696086,-9.988043,-0.031086,0.376016,-0.014966,-0.007178,-0.000916
1765408459.699106,-9.923481,-0.102224,0.320421,-0.016035,-0.005192,-0.002749
1765408459.701148,-9.962935,-0.154232,0.333572,-0.013286,-0.007789,-0.003360
1765408459.704168,-10.086082,-0.174558,0.538020,-0.015119,-0.010996,-0.005345
1765408459.704668,-10.071735,-0.043639,0.509326,-0.011912,-0.010996,-0.010843
1765408459.708183,-9.940218,0.034672,0.215806,-0.012065,-0.010385,-0.009163
1765408459.711150,-9.929459,0.069345,0.263032,-0.010537,-0.009316,-0.003665
1765408459.713212,-9.985652,0.027499,0.371832,-0.008705,-0.009927,-0.002596
1765408459.716122,-10.028693,-0.030488,0.444165,-0.007025,-0.014508,-0.001374
1765408459.718133,-9.947392,-0.063367,0.285748,-0.009774,-0.011606,-0.005956
1765408459.721111,-9.967718,-0.052606,0.284553,-0.008399,-0.017715,-0.003971
1765408459.724119,-10.057985,-0.005978,0.435198,-0.010079,-0.017715,-0.007025
1765408459.726107,-10.011955,0.005380,0.374223,-0.008858,-0.011912,-0.002443
1765408459.729146,-9.857722,-0.098039,0.213415,-0.008399,-0.013134,0.000000
1765408459.731184,-9.955164,-0.121353,0.325801,-0.006109,-0.011912,-0.005345
1765408459.733105,-10.011356,-0.121353,0.338953,-0.008247,-0.013286,-0.006567
1765408459.736120,-10.037063,-0.105811,0.314443,-0.008858,-0.013286,-0.006872
1765408459.737124,-9.864896,0.059780,0.178144,-0.011148,-0.012217,-0.010537
1765408459.741237,-9.973696,0.163797,0.416069,-0.010232,-0.013134,-0.005803
1765408459.743215,-10.003586,0.120756,0.380799,-0.012370,-0.013897,-0.001985
1765408459.746181,-10.031682,0.060976,0.414873,-0.014355,-0.012217,-0.000611
1765408459.748103,-10.002987,-0.015543,0.359876,-0.012370,-0.011148,-0.000611
1765408459.751106,-10.002987,-0.015543,0.359876,-0.012370,-0.016188,-0.000611
1765408459.752156,-10.202055,-0.142276,0.596007,-0.010232,-0.017715,-0.005040
1765408459.755166,-10.063366,-0.104017,0.300096,-0.009010,-0.012981,-0.004887
1765408459.760510,-9.959349,-0.053802,0.306074,-0.011912,-0.017868,-0.008094
1765408459.760580,-9.922284,-0.033477,0.289335,-0.010537,-0.017257,-0.005803
1765408459.764106,-9.950979,-0.037064,0.326399,-0.010232,-0.020769,0.000764
1765408459.766138,-9.821855,-0.016738,0.185318,-0.011606,-0.018326,-0.003665
1765408459.768126,-9.985053,0.082496,0.347920,-0.009927,-0.018326,-0.005803
1765408459.771136,-9.982663,0.032879,0.370636,-0.010843,-0.022449,-0.001527
1765408459.773075,-9.964130,0.076518,0.294118,-0.009316,-0.020464,-0.005345
1765408459.776113,-9.900167,0.008967,0.230751,-0.014813,-0.023366,-0.003512
1765408459.778127,-9.895385,-0.058584,0.168580,-0.014203,-0.022602,-0.000458
1765408459.781146,-9.939023,-0.162602,0.289335,-0.009927,-0.022602,-0.001527
1765408459.783105,-9.881634,-0.246294,0.311454,-0.012370,-0.015272,-0.007025
1765408459.786085,-9.916306,-0.176949,0.280368,-0.011912,-0.021380,-0.004734
1765408459.787077,-9.998802,-0.071736,0.379603,-0.011606,-0.022602,-0.011759
1765408459.791067,-10.029889,0.102224,0.376614,-0.005498,-0.019700,-0.009621
1765408459.793091,-10.002390,0.010760,0.406504,-0.008094,-0.019700,-0.001222
1765408459.796088,-9.909132,-0.043639,0.319225,-0.008094,-0.020159,-0.001222
1765408459.799079,-10.008368,0.110593,0.429220,-0.007178,-0.025504,-0.007025
1765408459.801139,-9.940218,0.124342,0.259445,-0.007025,-0.025504,-0.004123
1765408459.803130,-9.940218,0.124342,0.259445,-0.007025,-0.021686,-0.004123
1765408459.804120,-10.040649,-0.092061,0.472262,-0.013134,-0.021380,-0.001222
1765408459.809119,-9.986848,-0.212817,0.334768,-0.013134,-0.026420,-0.001222
1765408459.811048,-9.937828,-0.101626,0.288737,-0.013134,-0.020006,-0.010690
1765408459.813124,-9.863700,-0.045433,0.242707,-0.014661,-0.020006,-0.006414
1765408459.816086,-9.863700,-0.045433,0.242707,-0.014661,-0.023366,-0.006414
1765408459.819101,-9.795551,-0.114180,0.204448,-0.010079,-0.018937,-0.008858
1765408459.821082,-9.666426,-0.115375,0.086083,-0.011912,-0.016952,-0.006261
1765408459.823109,-9.813485,-0.014347,0.341942,-0.010232,-0.022907,-0.009468
1765408459.826059,-9.943208,0.139885,0.447154,-0.008399,-0.015272,-0.010079
1765408459.829044,-9.843375,0.039455,0.250478,-0.010385,-0.017868,-0.001222
1765408459.831098,-9.818267,-0.072932,0.258250,-0.010690,-0.023213,-0.003665
1765408459.834123,-9.998802,-0.069943,0.454328,-0.006261,-0.023213,-0.003971
1765408459.836071,-10.040649,-0.148852,0.565519,-0.005956,-0.022449,-0.004581
1765408459.839122,-9.936632,-0.086681,0.371832,-0.006720,-0.022449,-0.011454
1765408459.841120,-9.957555,0.080105,0.383788,-0.008247,-0.023518,-0.010385
1765408459.844055,-9.970706,0.110593,0.409493,-0.009163,-0.029474,-0.008552
1765408459.846118,-9.921089,0.093257,0.304878,-0.010232,-0.026114,-0.006261
1765408459.848111,-9.921089,0.093257,0.304878,-0.010232,-0.020769,-0.006261
1765408459.851155,-9.768650,-0.186514,0.086083,-0.010690,-0.022144,-0.004429
1765408459.852146,-10.070539,-0.096246,0.428025,-0.012675,-0.026267,-0.010079
1765408459.856137,-10.138689,0.056193,0.550574,-0.012981,-0.016493,-0.014203
1765408459.858110,-9.999401,0.141081,0.453132,-0.013897,-0.016035,-0.006720
1765408459.861063,-9.999401,0.141081,0.453132,-0.013897,-0.023671,-0.006720
1765408459.864077,-10.041844,-0.077714,0.450741,-0.014355,-0.024587,-0.002596
1765408459.866106,-9.962935,-0.142276,0.329986,-0.010537,-0.022449,-0.005956
1765408459.867170,-9.994021,-0.005978,0.461502,-0.012370,-0.018784,-0.008552
1765408459.871096,-10.109993,0.078910,0.661765,-0.014508,-0.018784,-0.004887
1765408459.874097,-10.050214,-0.075323,0.496772,-0.014508,-0.027031,-0.004887
1765408459.876094,-9.939023,-0.138690,0.209230,-0.014203,-0.029016,-0.006720
1765408459.877172,-9.909731,-0.109397,0.242707,-0.009774,-0.024435,-0.008247
1765408459.881069,-9.898373,0.007174,0.449546,-0.009927,-0.025198,-0.009316
1765408459.883107,-9.812290,0.078910,0.147059,-0.010232,-0.026573,-0.005956
1765408459.886202,-9.780606,-0.005978,0.054400,-0.010843,-0.024893,-0.006109
1765408459.887180,-9.913317,-0.084888,0.325203,-0.011301,-0.020464,-0.005956
1765408459.891107,-10.034670,-0.100430,0.525466,-0.011148,-0.017868,-0.004887
1765408459.893061,-9.936632,-0.028694,0.548780,-0.012675,-0.021533,-0.010690
1765408459.896064,-9.945002,0.044237,0.326399,-0.012981,-0.021533,-0.008552
1765408459.898158,-9.954566,-0.081301,0.382592,-0.009927,-0.027642,-0.004734
1765408459.901103,-9.976088,-0.141081,0.316834,-0.009163,-0.029932,-0.007178
1765408459.902145,-10.003586,-0.065160,0.413080,-0.014508,-0.024129,-0.009621
1765408459.906143,-9.843973,-0.039455,0.258847,-0.014508,-0.024129,-0.009621
1765408459.907178,-9.911524,-0.031086,0.373027,-0.010079,-0.032681,-0.005498
1765408459.911094,-10.020324,0.009565,0.418460,-0.010537,-0.028558,-0.006872
1765408459.914138,-9.802725,-0.063367,0.102822,-0.010690,-0.021686,-0.001527
1765408459.916059,-9.674795,-0.120756,0.000000,-0.010843,-0.029780,-0.005345
1765408459.917060,-9.906742,-0.098039,0.324605,-0.011148,-0.029627,-0.009927
1765408459.921109,-9.911524,-0.030488,0.257652,-0.010843,-0.023366,-0.007636
1765408459.922043,-9.877449,-0.039455,0.269608,-0.008705,-0.021991,-0.005040
1765408459.926141,-9.989837,-0.017934,0.529651,-0.012217,-0.023976,-0.007483
1765408459.928121,-10.080104,0.012554,0.609756,-0.012065,-0.025198,-0.005651
1765408459.931096,-9.978478,-0.037064,0.406504,-0.008399,-0.026267,-0.003512
1765408459.933099,-9.931850,-0.056193,0.254663,-0.009468,-0.028711,-0.009010
1765408459.936081,-10.060975,-0.010163,0.359876,-0.012217,-0.031918,-0.009468
1765408459.938194,-10.048421,-0.021521,0.382592,-0.014050,-0.028405,-0.007330
1765408459.941174,-9.900764,0.046031,0.184122,-0.015272,-0.028405,-0.008094
1765408459.943127,-9.817670,0.034075,0.227164,-0.013592,-0.026725,-0.007178
1765408459.946129,-9.990434,0.017336,0.453132,-0.014355,-0.030849,-0.006261
1765408459.949117,-10.051410,-0.005978,0.478838,-0.014966,-0.029780,-0.006261
1765408459.951104,-9.949782,-0.173960,0.272597,-0.015119,-0.029627,-0.002291
1765408459.954042,-9.910329,-0.087279,0.264228,-0.013744,-0.029627,-0.008399
1765408459.956084,-10.022716,-0.011956,0.380201,-0.013592,-0.030391,-0.009927
1765408459.959060,-10.010161,0.065758,0.304878,-0.012675,-0.027184,-0.006414
1765408459.961106,-9.881036,-0.047226,0.190698,-0.015424,-0.029780,-0.006261
1765408459.964132,-9.961740,0.011956,0.513510,-0.010843,-0.025351,-0.007789
1765408459.966154,-10.157818,-0.023912,0.703013,-0.009468,-0.027947,-0.005345
1765408459.968168,-10.095646,-0.177547,0.590626,-0.014050,-0.034056,-0.005345
1765408459.971092,-9.763269,-0.096844,0.059780,-0.011912,-0.036957,-0.011148
1765408459.973162,-9.874461,0.032879,0.190100,-0.013897,-0.040164,-0.011301
1765408459.976203,-10.055594,0.008967,0.566714,-0.014508,-0.036957,-0.006872
1765408459.978158,-9.978478,0.035270,0.442372,-0.013134,-0.036346,-0.005956
1765408459.981162,-9.970109,-0.108800,0.326399,-0.014203,-0.035736,-0.004581
1765408459.983149,-9.797344,-0.117767,0.023912,-0.016035,-0.037874,-0.005345
1765408459.986140,-10.019128,-0.155428,0.367647,-0.011454,-0.037874,-0.007025
1765408459.987173,-9.881634,-0.057389,0.190100,-0.012217,-0.028711,-0.009774
1765408459.991109,-10.083092,-0.099235,0.543998,-0.012523,-0.030696,-0.009927
1765408459.994139,-10.062170,0.044237,0.603778,-0.011912,-0.028405,-0.009316
1765408459.996125,-10.160210,-0.053802,0.650406,-0.011606,-0.029932,-0.007330
1765408459.997156,-9.895982,-0.025108,0.339550,-0.014203,-0.029932,-0.004734
1765408460.001152,-9.997607,-0.101626,0.405308,-0.010996,-0.037110,-0.005345
1765408460.004140,-9.918099,-0.202654,0.518890,-0.016188,-0.036652,-0.006567
1765408460.006110,-10.017335,-0.101028,0.381396,-0.011606,-0.044593,-0.013286
1765408460.009069,-9.852941,0.080703,0.261836,-0.012523,-0.046426,-0.009927
1765408460.011122,-9.834408,-0.002989,0.189503,-0.009316,-0.046426,-0.008247
1765408460.012093,-9.864299,0.052606,0.234338,-0.014355,-0.042608,-0.006109
1765408460.016075,-9.913916,-0.168580,0.392157,-0.016493,-0.037415,-0.006109
1765408460.018149,-9.676588,-0.105213,0.057987,-0.013897,-0.037415,-0.007941
1765408460.021082,-9.676588,-0.105213,0.057987,-0.013897,-0.042608,-0.007941
1765408460.024078,-9.949782,0.083692,0.523673,-0.011301,-0.031612,-0.008094
1765408460.026133,-9.829626,-0.035868,0.401722,-0.013897,-0.037415,-0.002443
1765408460.029091,-9.913916,-0.089670,0.456719,-0.017562,-0.039401,-0.006414
1765408460.031118,-9.999999,0.037064,0.393352,-0.014050,-0.036805,-0.010537
1765408460.034130,-9.999999,0.037064,0.393352,-0.014050,-0.038943,-0.010537
1765408460.036090,-9.803323,-0.178144,0.270803,-0.015577,-0.035430,-0.008247
1765408460.038124,-9.858320,-0.062171,0.389766,-0.009927,-0.037263,-0.012981
1765408460.041155,-9.893590,0.005380,0.344333,-0.014050,-0.037415,-0.008399
1765408460.042203,-9.923481,0.115375,0.192492,-0.010690,-0.041692,-0.009774
1765408460.046099,-10.044236,0.016738,0.541607,-0.011454,-0.035736,-0.006567
1765408460.048104,-9.953370,-0.167384,0.638450,-0.014508,-0.031918,-0.007025
1765408460.051125,-9.799137,-0.109995,0.345528,-0.014508,-0.036805,-0.008705
1765408460.054096,-10.064561,-0.026303,0.445959,-0.014203,-0.038332,-0.013134
1765408460.056131,-10.114178,0.021521,0.569106,-0.014203,-0.038332,-0.007483
1765408460.058204,-9.980869,-0.114778,0.532042,-0.013134,-0.034514,-0.005192
1765408460.061104,-9.815877,-0.148254,0.395744,-0.016493,-0.038332,-0.009927
1765408460.063067,-9.989238,-0.021521,0.534433,-0.012675,-0.047342,-0.011912
1765408460.066094,-9.954566,-0.043639,0.242707,-0.014661,-0.047189,-0.010537
1765408460.069106,-9.813485,-0.026303,0.040650,-0.014661,-0.044593,-0.008858
1765408460.071131,-9.821855,-0.043639,0.274988,-0.014661,-0.038332,-0.012981
1765408460.074071,-9.917501,-0.070540,0.504543,-0.014050,-0.036346,-0.007636
1765408460.076045,-9.921686,-0.047824,0.536824,-0.012828,-0.040164,-0.011912
1765408460.078056,-9.824244,0.002989,0.402917,-0.012828,-0.036957,-0.011912
1765408460.081033,-9.893590,-0.021521,0.386179,-0.015424,-0.042150,-0.009468
1765408460.084100,-9.928263,-0.072932,0.373027,-0.016035,-0.049022,-0.008247
1765408460.086065,-10.001792,-0.058584,0.395744,-0.016341,-0.042761,-0.012523
1765408460.087136,-9.918698,-0.029890,0.338355,-0.012523,-0.034056,-0.010537
1765408460.091089,-9.869080,-0.055595,0.345528,-0.013592,-0.039095,-0.009621
1765408460.093100,-9.948587,0.008369,0.499163,-0.014966,-0.042608,-0.014813
1765408460.096077,-9.997607,0.002391,0.534433,-0.017104,-0.039859,-0.010385
1765408460.099071,-9.981467,-0.108202,0.450741,-0.014203,-0.043830,-0.007941
1765408460.101064,-10.010758,-0.126136,0.381994,-0.015272,-0.049175,-0.013134
1765408460.104108,-10.005379,-0.002391,0.517695,-0.017868,-0.041692,-0.013744
1765408460.106100,-9.861309,0.053802,0.254065,-0.016799,-0.043524,-0.011148
1765408460.109064,-9.958152,-0.023912,0.307269,-0.016035,-0.048106,-0.008705
1765408460.111166,-10.068149,-0.053802,0.489000,-0.013744,-0.037568,-0.012828
1765408460.112153,-10.031085,-0.156624,0.643831,-0.012523,-0.037568,-0.007178
1765408460.116120,-9.839788,-0.228360,0.332377,-0.017104,-0.044593,-0.011301
1765408460.119128,-10.049617,-0.028694,0.370636,-0.015577,-0.047037,-0.019700
1765408460.121119,-10.007172,0.004782,0.368843,-0.015577,-0.044593,-0.019700
1765408460.122137,-9.900167,-0.076518,0.287542,-0.013897,-0.043677,-0.010079
1765408460.126106,-9.753705,-0.044835,0.307269,-0.018173,-0.039554,-0.012981
1765408460.127150,-9.867287,-0.054400,0.500956,-0.014355,-0.043982,-0.011148
1765408460.131134,-10.057388,-0.015543,0.551172,-0.014966,-0.048717,-0.009010
1765408460.134081,-10.017933,-0.037064,0.399330,-0.015730,-0.050855,-0.012523
1765408460.136090,-9.974891,-0.071736,0.218795,-0.017715,-0.049633,-0.013592
1765408460.139079,-9.962337,-0.054998,0.332975,-0.014508,-0.043830,-0.016188
1765408460.141766,-10.057388,-0.102822,0.740674,-0.010996,-0.041997,-0.013439
1765408460.144068,-9.973696,-0.039455,0.582855,-0.016035,-0.042455,-0.012370
1765408460.144568,-9.835006,-0.101028,0.104017,-0.017562,-0.055436,-0.012523
1765408460.147110,-9.923481,0.032879,0.162602,-0.021991,-0.050702,-0.015882
1765408460.151120,-9.854136,-0.039455,0.260641,-0.012828,-0.043524,-0.010843
1765408460.154052,-9.747727,-0.193687,0.478838,-0.020311,-0.039401,-0.009316
1765408460.156111,-9.945002,-0.025108,0.680296,-0.018326,-0.049786,-0.020922
1765408460.157145,-10.059181,0.008967,0.664754,-0.015730,-0.049786,-0.010537
1765408460.159078,-9.980869,-0.136298,0.261836,-0.013744,-0.056810,-0.009316
1765408460.163114,-10.013150,-0.121951,0.184122,-0.016188,-0.050244,-0.016799
1765408460.166110,-10.023911,-0.115973,0.566714,-0.015424,-0.041844,-0.012065
1765408460.168224,-10.031085,-0.124342,0.620516,-0.013286,-0.047953,-0.009774
1765408460.172470,-10.041844,-0.027499,0.757413,-0.019395,-0.047953,-0.015577
1765408460.174102,-10.041844,-0.027499,0.757413,-0.019395,-0.045662,-0.015577
1765408460.174602,-9.741750,-0.092659,0.109995,-0.017104,-0.057269,-0.009468
1765408460.179155,-10.075920,-0.057389,0.779531,-0.014966,-0.055283,-0.015577
1765408460.181160,-10.190099,-0.047824,0.839311,-0.017410,-0.046884,-0.011606
1765408460.182105,-9.767454,-0.174558,0.045433,-0.020311,-0.051924,-0.012217
1765408460.184128,-9.767454,-0.174558,0.045433,-0.020311,-0.058643,-0.012217
1765408460.189057,-10.057388,0.106408,0.826757,-0.015577,-0.045509,-0.014355
1765408460.191096,-9.895385,-0.096246,0.621712,-0.015577,-0.045509,-0.007483
1765408460.194146,-9.704088,-0.065758,0.218795,-0.018479,-0.054520,-0.014966
1765408460.196075,-9.726207,-0.010760,-0.033477,-0.021533,-0.059865,-0.014203
1765408460.199101,-9.950979,-0.062171,0.315638,-0.015730,-0.057574,-0.011148
1765408460.201088,-9.986848,-0.103419,0.638450,-0.016188,-0.042761,-0.016341
1765408460.202065,-9.991630,-0.069345,0.747250,-0.021991,-0.042761,-0.015424
1765408460.206133,-9.855330,-0.077714,0.355691,-0.021991,-0.051007,-0.015424
1765408460.208145,-10.013150,-0.050813,0.465686,-0.014661,-0.057269,-0.014203
1765408460.211105,-10.043041,-0.120158,0.595409,-0.016341,-0.054825,-0.011912
1765408460.212211,-9.962935,-0.169775,0.543998,-0.017257,-0.051924,-0.015730
1765408460.216137,-9.882233,-0.017934,0.429818,-0.018021,-0.055741,-0.018784
1765408460.218149,-9.821855,-0.004782,0.234338,-0.021228,-0.056810,-0.016188
1765408460.221126,-9.986250,0.032879,0.441176,-0.018631,-0.051160,-0.015424
1765408460.224068,-10.078907,-0.041846,0.591822,-0.017257,-0.051160,-0.014355
1765408460.226076,-9.976088,-0.115973,0.559541,-0.017257,-0.052229,-0.014355
1765408460.229164,-9.967119,-0.118364,0.383788,-0.015119,-0.053298,-0.016493
1765408460.231146,-10.080702,-0.069345,0.542205,-0.015119,-0.050702,-0.016493
1765408460.233072,-10.107005,-0.046628,0.764586,-0.017104,-0.052382,-0.015424
1765408460.236112,-9.982065,-0.053204,0.672525,-0.020006,-0.052687,-0.017715
1765408460.238143,-9.942610,0.028694,0.380201,-0.025809,-0.055589,-0.016188
1765408460.241127,-9.915709,-0.049020,0.320421,-0.018479,-0.060170,-0.010843
1765408460.243161,-9.956957,-0.160808,0.575084,-0.019853,-0.059865,-0.010079
1765408460.246096,-10.068149,-0.205045,0.730512,-0.022144,-0.056200,-0.015119
1765408460.249076,-9.875656,-0.162004,0.368245,-0.020464,-0.056505,-0.014508
1765408460.251107,-9.799736,-0.151841,0.269010,-0.019700,-0.066584,-0.014203
1765408460.254089,-9.930654,-0.086083,0.459110,-0.019090,-0.057727,-0.018326
1765408460.256124,-9.935436,-0.047824,0.410689,-0.017410,-0.057727,-0.018631
1765408460.259151,-9.803921,-0.060976,0.280966,-0.017104,-0.055283,-0.013286
1765408460.259651,-9.912720,-0.032281,0.364658,-0.019853,-0.056810,-0.016035
1765408460.262209,-10.083092,-0.045433,0.734098,-0.020311,-0.049327,-0.015424
1765408460.267187,-9.863700,-0.114778,0.596604,-0.017257,-0.046578,-0.013286
1765408460.269098,-9.821257,-0.184122,0.371832,-0.023213,-0.057269,-0.016646
1765408460.271093,-9.996411,-0.044237,0.479436,-0.020922,-0.058032,-0.022144
1765408460.274120,-9.980869,-0.060976,0.405906,-0.018173,-0.058032,-0.015119
1765408460.276032,-9.855330,-0.056791,0.340746,-0.018173,-0.049786,-0.014355
1765408460.277095,-9.948587,-0.056193,0.560736,-0.022297,-0.056200,-0.018021
1765408460.281079,-10.137493,-0.051411,0.743663,-0.020159,-0.058948,-0.014508
1765408460.283082,-10.137493,-0.051411,0.561932,-0.020159,-0.059254,-0.014508
1765408460.287074,-9.866092,-0.202654,0.431612,-0.014050,-0.059712,-0.015424
1765408460.289057,-9.888808,-0.096246,0.340746,-0.016341,-0.059712,-0.019853
1765408460.291132,-10.011955,0.015543,0.381396,-0.016188,-0.065363,-0.019853
1765408460.293123,-10.080104,-0.021521,0.559541,-0.019548,-0.056810,-0.017562
1765408460.296134,-10.102820,-0.005380,0.607365,-0.019548,-0.056963,-0.017562
1765408460.298125,-10.039454,-0.014347,0.610952,-0.021380,-0.054978,-0.015119
1765408460.301099,-9.932447,-0.064562,0.428025,-0.021838,-0.063072,-0.015882
1765408460.303132,-9.840386,-0.141081,0.334768,-0.021686,-0.064599,-0.015272
1765408460.306149,-9.922284,-0.044835,0.517097,-0.020159,-0.065363,-0.019548
1765408460.308123,-9.917501,0.011956,0.526064,-0.025351,-0.060781,-0.017104
1765408460.311128,-9.824244,0.042444,0.314443,-0.024435,-0.062308,-0.018173
1765408460.313091,-9.896580,-0.044237,0.285748,-0.024740,-0.062156,-0.012981
1765408460.316096,-10.107603,-0.131516,0.769966,-0.024435,-0.058490,-0.009163
1765408460.318165,-10.178144,-0.201459,0.855452,-0.021228,-0.060628,-0.013897
1765408460.321132,-9.939023,-0.163199,0.523673,-0.025198,-0.060323,-0.019853
1765408460.324124,-9.813485,-0.052606,0.266021,-0.024435,-0.062614,-0.021838
1765408460.326091,-9.945600,0.025108,0.573888,-0.021533,-0.065363,-0.014508
1765408460.329146,-9.970109,-0.098039,0.610952,-0.025198,-0.066432,-0.015882
1765408460.331120,-10.069942,-0.033477,0.639646,-0.024587,-0.066432,-0.020464
1765408460.332130,-9.858918,-0.090866,0.242707,-0.017868,-0.064446,-0.017257
1765408460.336064,-9.930654,-0.078910,0.391559,-0.020769,-0.067348,-0.015272
1765408460.338137,-10.022716,-0.086083,0.610952,-0.020311,-0.069944,-0.021686
1765408460.341094,-10.087276,-0.002391,0.675514,-0.020159,-0.062156,-0.018631
1765408460.344203,-9.830223,-0.028694,0.294118,-0.019395,-0.063530,-0.018479
1765408460.346081,-9.845766,-0.034672,0.367049,-0.020311,-0.062308,-0.016952
1765408460.348191,-10.089071,-0.058584,0.756815,-0.022602,-0.067959,-0.016035
1765408460.351099,-10.074127,-0.168580,0.591822,-0.025198,-0.067959,-0.014355
1765408460.353111,-9.953370,-0.230751,0.454328,-0.026725,-0.067195,-0.021075
1765408460.356087,-10.089668,-0.084888,0.753826,-0.021991,-0.068264,-0.021838
1765408460.359091,-10.089668,-0.084888,0.753826,-0.021991,-0.065210,-0.021838
1765408460.359591,-9.972500,-0.132114,0.566714,-0.022449,-0.075900,-0.020311
1765408460.362093,-9.895982,-0.090866,0.264228,-0.022907,-0.072846,-0.021533
1765408460.366137,-9.814083,-0.098637,0.230153,-0.018479,-0.068417,-0.017715
1765408460.367156,-10.016738,-0.133907,0.691057,-0.020769,-0.070097,-0.016341
1765408460.372459,-10.075322,-0.054998,0.780727,-0.022144,-0.064599,-0.023366
1765408460.374073,-10.023911,-0.007174,0.555954,-0.024740,-0.069639,-0.020159
1765408460.376079,-9.897178,-0.005978,0.398135,-0.024129,-0.069639,-0.017104
1765408460.378093,-10.098038,-0.135103,0.712578,-0.021075,-0.071624,-0.014966
1765408460.381057,-10.164991,-0.092061,0.900287,-0.022907,-0.061545,-0.018021
1765408460.384069,-10.075920,-0.141081,0.782520,-0.017410,-0.064446,-0.016952
1765408460.384569,-9.971903,-0.156624,0.607365,-0.022144,-0.084299,-0.018173
1765408460.388110,-10.125537,-0.167384,0.593018,-0.021686,-0.084299,-0.021838
1765408460.391129,-10.100429,-0.107604,0.588235,-0.025045,-0.075747,-0.020311
1765408460.393068,-9.854733,0.044237,0.329986,-0.018326,-0.070555,-0.018326
1765408460.396078,-9.820659,-0.037064,0.439981,-0.022907,-0.068722,-0.015424
1765408460.399072,-9.820659,-0.037064,0.439981,-0.022907,-0.077274,-0.015424
1765408460.401036,-10.138091,-0.164993,0.669536,-0.022602,-0.077122,-0.019242
1765408460.404056,-9.914514,-0.139885,0.630081,-0.022602,-0.063377,-0.019242
1765408460.406161,-9.769846,-0.009565,0.568508,-0.020311,-0.078343,-0.021228
1765408460.408113,-9.793160,-0.062769,0.536824,-0.023213,-0.078343,-0.018326
1765408460.411076,-9.793160,-0.062769,0.536824,-0.023213,-0.081551,-0.018326
1765408460.413142,-9.939023,-0.106408,0.579866,-0.022297,-0.072388,-0.015882
1765408460.414078,-9.720228,-0.251076,0.413678,-0.020006,-0.067348,-0.014661
1765408460.419067,-9.815877,-0.272597,0.441176,-0.022449,-0.079107,-0.018326
1765408460.421032,-10.151243,-0.180536,0.736490,-0.023213,-0.079107,-0.026573
1765408460.424052,-10.331779,-0.010760,1.044357,-0.018937,-0.072540,-0.021686
1765408460.426077,-9.831419,-0.041846,0.453132,-0.022297,-0.069333,-0.017715
1765408460.427061,-9.635341,-0.147059,0.112386,-0.028253,-0.075136,-0.019090
1765408460.429058,-10.045432,-0.092061,0.683883,-0.024740,-0.076511,-0.020006
1765408460.433139,-10.186513,-0.125538,0.845289,-0.016035,-0.073609,-0.018479
1765408460.436114,-10.093853,-0.142276,0.864419,-0.022907,-0.071166,-0.019242
1765408460.439067,-9.819464,-0.058584,0.449546,-0.029322,-0.076664,-0.023366
1765408460.439567,-9.914514,-0.100430,0.526064,-0.025656,-0.076664,-0.017410
1765408460.444023,-10.056191,-0.218795,0.682688,-0.019700,-0.082314,-0.017410
1765408460.446184,-10.176947,-0.200861,0.870397,-0.020922,-0.075136,-0.021228
1765408460.449115,-9.965326,-0.166188,0.632472,-0.020159,-0.066279,-0.020311
1765408460.451111,-9.839788,-0.120756,0.494381,-0.022297,-0.078649,-0.020159
1765408460.452113,-10.041844,-0.044237,0.741272,-0.023824,-0.082772,-0.024435
1765408460.454172,-10.041844,-0.044237,0.741272,-0.023824,-0.077733,-0.024435
1765408460.458169,-9.898373,-0.120158,0.485414,-0.021991,-0.078038,-0.015882
1765408460.461137,-9.840983,-0.021521,0.437590,-0.024740,-0.078038,-0.022297
1765408460.463180,-10.119559,-0.080105,0.790292,-0.025504,-0.082314,-0.019395
1765408460.466183,-10.068746,-0.107006,0.681492,-0.025504,-0.077274,-0.020769
1765408460.468155,-10.068746,-0.107006,0.681492,-0.025504,-0.070402,-0.020769
1765408460.471083,-9.966521,-0.126734,0.753826,-0.026114,-0.069180,-0.016493
1765408460.472087,-10.126732,-0.187709,0.929579,-0.027794,-0.078038,-0.019700
1765408460.476112,-10.030487,-0.137494,0.683285,-0.023976,-0.078343,-0.020769
1765408460.478086,-9.842180,-0.124342,0.392755,-0.023824,-0.078343,-0.019090
1765408460.481075,-10.024508,0.010163,0.545194,-0.026725,-0.079718,-0.020311
1765408460.482087,-10.229554,-0.020325,0.948111,-0.027489,-0.084605,-0.018784
1765408460.486093,-10.038258,-0.105213,0.607365,-0.027794,-0.076664,-0.019090
1765408460.487096,-9.805714,-0.118364,0.349115,-0.029016,-0.074373,-0.022755
1765408460.491053,-9.854733,-0.065758,0.512315,-0.022449,-0.078954,-0.021380
1765408460.493071,-10.134504,-0.076518,0.967240,-0.027336,-0.077122,-0.019242
1765408460.496094,-9.991630,-0.052009,0.765782,-0.028711,-0.076816,-0.023213
1765408460.499075,-9.907339,-0.102822,0.686274,-0.024435,-0.077733,-0.016035
1765408460.501075,-9.746531,-0.270206,0.411884,-0.025656,-0.086132,-0.018937
1765408460.503076,-10.089668,-0.172166,0.743663,-0.025656,-0.097891,-0.025045
1765408460.506078,-10.038258,-0.086083,0.492587,-0.030085,-0.087965,-0.027031
1765408460.507113,-9.952772,0.065758,0.441774,-0.024893,-0.081856,-0.021991
1765408460.511052,-9.947392,-0.074725,0.694644,-0.025504,-0.073915,-0.019090
1765408460.513144,-10.310855,-0.132712,1.142994,-0.029780,-0.081092,-0.021075
1765408460.514078,-10.350906,-0.218795,1.035390,-0.028711,-0.085368,-0.024282
1765408460.519052,-10.202055,-0.163797,0.738283,-0.027336,-0.082925,-0.026267
1765408460.521139,-10.057388,-0.123147,0.813008,-0.028558,-0.077733,-0.025504
1765408460.524030,-9.918698,-0.124342,0.657580,-0.023213,-0.079107,-0.023976
1765408460.526018,-9.619798,-0.192492,0.087279,-0.025504,-0.093768,-0.023518
1765408460.529037,-9.763269,-0.098039,0.381396,-0.026878,-0.089797,-0.027642
1765408460.531029,-10.039454,0.049020,0.837518,-0.020311,-0.079718,-0.021686
1765408460.534100,-10.010758,-0.093257,0.976207,-0.024893,-0.087048,-0.018326
1765408460.536092,-9.974294,-0.173362,0.801052,-0.030849,-0.087048,-0.024740
1765408460.538080,-9.664036,-0.166188,0.222979,-0.028100,-0.088728,-0.025504
1765408460.541122,-9.764465,-0.130320,0.321616,-0.023671,-0.093462,-0.024893
1765408460.543095,-10.062170,-0.002989,0.860832,-0.027489,-0.093157,-0.029627
1765408460.544092,-10.181729,0.038259,0.830942,-0.028863,-0.079260,-0.027031
1765408460.548208,-9.805116,-0.178144,0.456719,-0.031307,-0.079260,-0.020464
1765408460.551175,-9.840983,-0.262434,0.575084,-0.028405,-0.086743,-0.023671
1765408460.552310,-10.178144,-0.120756,1.089192,-0.025962,-0.088423,-0.025045
1765408460.556108,-10.245695,-0.143472,0.911645,-0.025962,-0.089797,-0.025045
1765408460.558120,-10.092658,0.007174,0.521282,-0.032223,-0.091477,-0.029780
1765408460.561184,-9.766259,-0.078312,0.327594,-0.029322,-0.084605,-0.024893
1765408460.564154,-9.821855,-0.139885,0.663558,-0.027336,-0.084758,-0.021228
1765408460.566164,-9.835604,-0.179340,0.469871,-0.033292,-0.087965,-0.021533
1765408460.569245,-10.188903,-0.095648,0.944524,-0.033445,-0.089644,-0.027489
1765408460.571233,-9.976685,-0.225968,0.829746,-0.025045,-0.077427,-0.023824
1765408460.573193,-9.670013,-0.335964,0.552367,-0.027184,-0.083078,-0.018021
1765408460.577202,-9.588115,-0.201459,0.371832,-0.030085,-0.089492,-0.028253
1765408460.578242,-9.832017,-0.029292,0.503348,-0.030238,-0.088117,-0.029932
1765408460.581191,-9.863700,-0.064562,0.322812,-0.028100,-0.088117,-0.021686
1765408460.584166,-9.863700,-0.064562,0.322812,-0.028100,-0.087354,-0.021686
1765408460.586143,-10.062170,-0.240316,0.993544,-0.025656,-0.078649,-0.023671
1765408460.589173,-9.956957,-0.160210,0.742468,-0.027947,-0.089950,-0.025198
1765408460.591140,-10.017933,-0.158417,0.752630,-0.030238,-0.089797,-0.027184
1765408460.593166,-10.096842,-0.061573,0.733501,-0.023671,-0.089797,-0.023366
1765408460.596404,-10.211619,-0.291129,1.015064,-0.023671,-0.086590,-0.023060
1765408460.598132,-10.228358,-0.160210,1.073649,-0.023518,-0.088117,-0.028863
1765408460.601123,-9.983858,-0.028694,0.467480,-0.024893,-0.087965,-0.028253
1765408460.602141,-9.763269,-0.096844,0.295313,-0.029169,-0.084299,-0.026573
1765408460.606061,-10.009563,0.057389,0.884744,-0.025351,-0.084299,-0.029322
1765408460.608083,-10.014943,-0.090268,1.220708,-0.024435,-0.082314,-0.019853
1765408460.611084,-9.690338,-0.271999,0.470469,-0.033750,-0.102167,-0.025656
1765408460.614086,-9.819464,-0.041846,0.429220,-0.030238,-0.102167,-0.035736
1765408460.616053,-9.748923,-0.106408,0.612147,-0.030238,-0.087048,-0.035736
1765408460.619056,-9.750119,-0.254663,0.640842,-0.026878,-0.099724,-0.016493
1765408460.621141,-9.976088,-0.168580,0.753228,-0.041844,-0.102014,-0.036652
1765408460.622029,-10.065159,0.008369,0.517695,-0.033292,-0.094379,-0.036041
1765408460.626071,-10.058583,-0.021521,0.773553,-0.028711,-0.094379,-0.021533
1765408460.629114,-10.058583,-0.021521,0.773553,-0.028711,-0.087201,-0.021533
1765408460.629614,-10.131515,-0.175753,0.906265,-0.036346,-0.094684,-0.022755
1765408460.633103,-10.000596,-0.302487,0.557747,-0.032376,-0.105832,-0.028711
1765408460.636038,-10.239119,-0.168580,0.761597,-0.024282,-0.099724,-0.028711
1765408460.639075,-10.046627,-0.224175,0.946915,-0.026420,-0.085979,-0.027489
1765408460.641114,-10.046627,-0.224175,0.946915,-0.026420,-0.083536,-0.027489
1765408460.642107,-9.809898,0.011956,0.653993,-0.027489,-0.103084,-0.028253
1765408460.646229,-9.911524,-0.026901,0.648613,-0.031001,-0.103084,-0.028711
1765408460.648126,-10.069344,-0.051411,0.721545,-0.031918,-0.103236,-0.030543
1765408460.651023,-9.988043,-0.154232,0.745457,-0.033292,-0.096669,-0.028253
1765408460.653083,-9.849353,-0.174558,0.700024,-0.032834,-0.091783,-0.030696
1765408460.654146,-9.777020,-0.136298,0.369440,-0.034056,-0.098655,-0.034056
1765408460.658156,-10.051410,-0.102822,0.749641,-0.030696,-0.100640,-0.034208
1765408460.661124,-10.269009,-0.043042,1.298422,-0.026267,-0.087659,-0.029474
1765408460.663088,-10.006575,-0.130918,1.092778,-0.026725,-0.085827,-0.027184
1765408460.666122,-9.748325,-0.155428,0.509923,-0.038179,-0.094837,-0.033445
1765408460.668118,-9.907339,-0.080105,0.443568,-0.037568,-0.101709,-0.034361
1765408460.671068,-10.006575,-0.078910,0.662960,-0.031918,-0.098655,-0.027947
1765408460.674140,-10.029889,-0.081899,0.952893,-0.032223,-0.092699,-0.036805
1765408460.676107,-9.890601,-0.053802,0.956480,-0.034667,-0.083994,-0.034667
1765408460.678152,-9.867287,-0.222382,0.781922,-0.033139,-0.095448,-0.026573
1765408460.681155,-10.309062,-0.239718,1.083812,-0.031612,-0.109039,-0.030085
1765408460.683116,-10.381992,-0.230751,1.309182,-0.033750,-0.102625,-0.033750
1765408460.686126,-10.052007,-0.167384,0.878168,-0.035430,-0.096059,-0.032987
1765408460.688220,-9.417742,-0.217599,-0.104017,-0.035430,-0.100029,-0.034514
1765408460.689087,-9.775226,-0.052606,0.487805,-0.034667,-0.107512,-0.033750
1765408460.692091,-10.312051,-0.130320,1.455045,-0.029932,-0.092241,-0.028863
1765408460.694008,-10.222381,-0.271401,1.296030,-0.028100,-0.091935,-0.025351
1765408460.698066,-9.996411,-0.324008,0.792683,-0.034819,-0.098960,-0.030696
1765408460.699059,-9.953370,-0.282162,0.665949,-0.032070,-0.104763,-0.034819
1765408460.703075,-10.022716,-0.265423,0.820182,-0.029169,-0.108276,-0.030696
1765408460.706055,-10.164991,-0.041248,1.151961,-0.033139,-0.107512,-0.038485
1765408460.708086,-10.034670,0.071736,0.769369,-0.035736,-0.093004,-0.034514
1765408460.711042,-9.876254,-0.164993,0.743663,-0.034056,-0.101251,-0.022755
1765408460.714080,-9.811692,-0.279173,0.820182,-0.035125,-0.100029,-0.021686
1765408460.716075,-9.796148,-0.391559,0.677905,-0.040012,-0.104458,-0.028711
1765408460.718140,-9.968913,-0.343137,0.857245,-0.037110,-0.108429,-0.035277
1765408460.721055,-9.826636,-0.164993,0.584648,-0.029322,-0.101404,-0.033903
1765408460.724025,-9.788976,-0.173362,0.653993,-0.032834,-0.104611,-0.029627
1765408460.726017,-9.850550,-0.056193,0.931372,-0.035888,-0.101862,-0.038026
1765408460.729077,-10.087874,0.043042,1.041965,-0.035888,-0.098044,-0.038026
1765408460.731042,-10.104015,-0.214012,0.923601,-0.035583,-0.107512,-0.023213
1765408460.734050,-10.119559,-0.332377,1.006695,-0.037415,-0.104000,-0.030085
1765408460.736124,-10.003586,-0.369440,0.833333,-0.035277,-0.097586,-0.031154
1765408460.739101,-9.815279,-0.412482,0.621712,-0.029474,-0.105680,-0.031154
1765408460.741117,-10.191295,-0.069943,1.244620,-0.026878,-0.099876,-0.038637
1765408460.742124,-10.102820,0.041248,1.153156,-0.025504,-0.095295,-0.026267
1765408460.746117,-9.833811,-0.282162,0.775347,-0.032987,-0.107818,-0.024740
1765408460.749164,-10.037063,-0.231349,0.694644,-0.033139,-0.112705,-0.035125
1765408460.751120,-10.208033,-0.332377,0.911047,-0.030085,-0.099113,-0.030696
1765408460.754178,-9.935436,-0.428623,0.786705,-0.027794,-0.099113,-0.034514
1765408460.756139,-9.932447,-0.100430,0.911047,-0.028253,-0.099418,-0.041997
1765408460.759092,-9.925274,-0.092061,1.066475,-0.034056,-0.098655,-0.034514
1765408460.761092,-9.958152,-0.124940,0.832138,-0.031460,-0.114690,-0.031154
1765408460.762196,-10.031682,-0.121951,0.948709,-0.032987,-0.103542,-0.032681
1765408460.766129,-9.727402,-0.141081,0.489000,-0.034056,-0.103542,-0.032834
1765408460.768131,-9.840983,-0.199067,0.729316,-0.036346,-0.111636,-0.033139
1765408460.771157,-10.145264,-0.202056,1.266738,-0.036041,-0.107207,-0.039401
1765408460.774086,-10.154830,-0.115375,1.104735,-0.034361,-0.104305,-0.031918
1765408460.776146,-9.784791,-0.280966,0.737087,-0.038332,-0.110872,-0.031460
1765408460.778106,-10.001792,-0.217599,0.899091,-0.035277,-0.109345,-0.038637
1765408460.781032,-10.001792,-0.217599,0.899091,-0.035277,-0.114843,-0.038637
1765408460.784113,-10.123744,-0.321616,0.985174,-0.035277,-0.120799,-0.033903
1765408460.786126,-10.102222,-0.090268,0.962458,-0.032681,-0.112246,-0.039095
1765408460.788064,-9.903154,-0.162004,0.878766,-0.029932,-0.107512,-0.033445
1765408460.791101,-9.936632,-0.228360,0.854854,-0.030391,-0.121409,-0.029016
1765408460.793098,-10.184121,-0.298900,0.993544,-0.036041,-0.127213,-0.034972
1765408460.796117,-10.130320,-0.325203,0.997728,-0.032681,-0.108429,-0.037721
1765408460.798147,-9.920491,-0.286346,0.895504,-0.030391,-0.108429,-0.032681
1765408460.799040,-9.994021,-0.187111,1.140005,-0.033750,-0.115454,-0.038026
1765408460.804104,-10.264824,-0.132712,1.294835,-0.034819,-0.122784,-0.038790
1765408460.806155,-10.087276,-0.290531,0.820779,-0.034819,-0.121409,-0.027794
1765408460.809073,-9.824244,-0.322812,0.538020,-0.027489,-0.116523,-0.028711
1765408460.811105,-9.583930,-0.371832,0.344333,-0.035277,-0.116523,-0.034208
1765408460.814121,-9.797942,-0.275586,0.930177,-0.033598,-0.111941,-0.035736
1765408460.816023,-9.828429,-0.163199,1.159134,-0.027489,-0.109192,-0.036194
1765408460.818062,-9.875656,-0.104017,1.060497,-0.031765,-0.124617,-0.032223
1765408460.821073,-9.745336,-0.129125,0.646820,-0.040928,-0.122784,-0.040317
1765408460.824044,-9.693327,-0.118962,0.425634,-0.030543,-0.128434,-0.032529
1765408460.826110,-9.649090,-0.377810,0.645624,-0.032223,-0.120951,-0.028253
1765408460.828045,-10.109993,-0.225968,1.260760,-0.033445,-0.109803,-0.040470
1765408460.831034,-10.425632,-0.267217,1.516619,-0.033903,-0.109803,-0.034819
1765408460.833177,-10.260041,-0.214610,1.145385,-0.033903,-0.122631,-0.034819
1765408460.836016,-10.156623,-0.175753,0.927786,-0.033903,-0.125686,-0.036499
1765408460.837046,-9.868484,-0.174558,0.538020,-0.034514,-0.125380,-0.035430
1765408460.841065,-9.968913,-0.153635,0.896700,-0.031154,-0.116523,-0.034514
1765408460.842069,-9.888808,-0.241511,0.958871,-0.030238,-0.114690,-0.028863
1765408460.846083,-10.202055,-0.352702,1.415590,-0.036041,-0.120035,-0.031460
1765408460.848071,-10.089668,-0.217599,1.209947,-0.033139,-0.116981,-0.039248
1765408460.851090,-9.854136,-0.286944,0.893113,-0.031612,-0.125380,-0.029932
1765408460.854090,-9.843375,-0.219990,0.915830,-0.029780,-0.128282,-0.035888
1765408460.856074,-10.085484,-0.112386,1.162123,-0.031001,-0.131183,-0.038179
1765408460.858153,-10.063366,-0.234935,1.266140,-0.030696,-0.123853,-0.031765
1765408460.861147,-9.725011,-0.257054,0.594213,-0.026725,-0.129809,-0.032987
1765408460.862165,-9.937828,-0.363462,0.969632,-0.034361,-0.134696,-0.036957
1765408460.866144,-9.900764,-0.337159,0.838116,-0.031460,-0.124617,-0.036652
1765408460.867204,-9.981467,-0.344333,1.028814,-0.025962,-0.129962,-0.034667
1765408460.872414,-10.018531,-0.197274,1.171688,-0.029932,-0.124464,-0.043982
1765408460.874129,-9.983260,0.054998,0.995935,-0.031001,-0.126449,-0.043677
1765408460.876079,-9.653275,-0.193687,0.720947,-0.036805,-0.124769,-0.029169
1765408460.878070,-9.610233,-0.268412,0.448350,-0.033292,-0.131947,-0.034361
1765408460.881106,-9.873264,-0.384983,0.936155,-0.033903,-0.124311,-0.035583
1765408460.883103,-10.099831,-0.454328,1.396461,-0.028100,-0.115759,-0.039859
1765408460.886139,-9.988043,-0.165591,1.280488,-0.023824,-0.121257,-0.036957
1765408460.888082,-9.624580,-0.152439,0.755619,-0.034819,-0.121257,-0.036194
1765408460.889037,-9.624580,-0.152439,0.755619,-0.034819,-0.133627,-0.036194
1765408460.893046,-9.915112,-0.255261,0.780727,-0.029780,-0.128740,-0.028100
1765408460.896055,-10.141678,-0.365854,1.323529,-0.031460,-0.121104,-0.034208
1765408460.899057,-9.846962,-0.317432,1.044954,-0.031918,-0.107207,-0.038485
1765408460.901057,-9.788378,-0.329986,0.972023,-0.036652,-0.118661,-0.042608
1765408460.904063,-9.960544,-0.099235,1.144189,-0.032376,-0.122173,-0.043677
1765408460.906033,-9.970109,-0.147059,0.919416,-0.036194,-0.129198,-0.035583
1765408460.907033,-9.864299,-0.228360,0.884744,-0.037110,-0.122326,-0.035125
1765408460.911107,-9.704088,-0.249880,0.778336,-0.033750,-0.116370,-0.037263
1765408460.914092,-10.107603,-0.340746,1.511238,-0.035430,-0.116828,-0.033292
1765408460.916049,-10.258247,-0.273195,1.485533,-0.030238,-0.119271,-0.038790
1765408460.919079,-10.233141,-0.191296,1.393472,-0.034208,-0.125380,-0.036805
1765408460.921097,-9.795551,-0.291726,0.705404,-0.039401,-0.127518,-0.037721
1765408460.924075,-9.846962,-0.160808,0.789096,-0.033903,-0.132100,-0.037415
1765408460.926039,-9.901959,-0.277379,1.174677,-0.036805,-0.123395,-0.034056
1765408460.929093,-9.912720,-0.352702,1.249402,-0.035125,-0.126907,-0.033139
1765408460.929593,-9.941415,-0.393950,1.098756,-0.034514,-0.123395,-0.038485
1765408460.933020,-9.863700,-0.352702,0.912243,-0.032987,-0.125686,-0.038943
1765408460.936056,-9.775824,-0.242707,0.942731,-0.031154,-0.122478,-0.042608
1765408460.939035,-9.856527,-0.153635,1.224294,-0.031612,-0.129198,-0.041386
1765408460.941116,-9.909132,-0.119560,1.104735,-0.033750,-0.128740,-0.040775
1765408460.944098,-9.790769,-0.274988,1.037781,-0.029016,-0.138361,-0.032681
1765408460.946095,-9.415350,-0.435198,0.159015,-0.031765,-0.129809,-0.037110
1765408460.949085,-9.664633,-0.284553,0.773553,-0.034361,-0.134696,-0.043524
1765408460.951135,-10.054996,-0.129723,1.537542,-0.035277,-0.120035,-0.046120
1765408460.954204,-10.054996,-0.129723,1.537542,-0.035277,-0.130572,-0.046120
1765408460.954704,-9.878048,-0.264228,0.991152,-0.041692,-0.134849,-0.036957
1765408460.959807,-9.750119,-0.213415,0.461502,-0.036346,-0.134849,-0.036346
1765408460.961124,-9.818267,-0.450741,0.940937,-0.034514,-0.130725,-0.033292
1765408460.963082,-10.164392,-0.318030,1.555476,-0.033445,-0.124464,-0.041844
1765408460.964108,-10.164392,-0.318030,1.555476,-0.033445,-0.123700,-0.041844
1765408460.969115,-9.983260,-0.117767,1.227881,-0.039401,-0.134696,-0.041233
1765408460.971096,-9.714849,-0.199665,0.465088,-0.037874,-0.134696,-0.036041
1765408460.973128,-9.725608,-0.358680,0.696437,-0.037721,-0.137750,-0.035736
1765408460.976394,-9.862504,-0.435198,0.959469,-0.036041,-0.121715,-0.038790
1765408460.978161,-10.203848,-0.254065,1.571616,-0.037110,-0.120493,-0.042761
1765408460.981071,-10.185316,-0.127929,1.654711,-0.038790,-0.124922,-0.044288
1765408460.984023,-9.984456,-0.046628,1.163319,-0.039706,-0.124922,-0.038179
1765408460.984523,-9.821855,-0.296509,0.832138,-0.035277,-0.136987,-0.033445
1765408460.989103,-10.115973,-0.284553,1.329507,-0.036041,-0.132252,-0.037874
1765408460.991044,-10.200262,-0.369440,1.408417,-0.036346,-0.128434,-0.036652
1765408460.994100,-9.993423,-0.358680,1.249402,-0.035430,-0.129351,-0.043830
1765408460.996053,-9.433285,-0.117767,0.468675,-0.043066,-0.128587,-0.045509
1765408460.999062,-9.606647,0.029890,0.827355,-0.041386,-0.132710,-0.039554
1765408461.001044,-9.950979,-0.181133,1.305595,-0.041539,-0.136070,-0.031307
1765408461.003040,-10.094451,-0.468675,1.377331,-0.043677,-0.136070,-0.030696
1765408461.006031,-10.094451,-0.468675,1.377331,-0.043677,-0.129962,-0.030696
1765408461.008038,-9.381873,-0.362267,0.258847,-0.040775,-0.132710,-0.043371
1765408461.009085,-9.611428,-0.170373,0.914634,-0.039554,-0.140346,-0.040317
1765408461.014062,-9.950979,-0.004782,1.713295,-0.035888,-0.130572,-0.043219
1765408461.016054,-10.160210,-0.246294,1.704926,-0.041692,-0.130572,-0.024740
1765408461.018112,-10.160210,-0.246294,1.704926,-0.041692,-0.145844,-0.024740
1765408461.021066,-9.602462,-0.489598,0.275586,-0.041997,-0.150731,-0.049175
1765408461.024034,-9.655666,-0.277977,0.932568,-0.035277,-0.132252,-0.046884
1765408461.026026,-9.817072,0.016738,1.446676,-0.032529,-0.122020,-0.047037
1765408461.029078,-9.974294,0.104017,1.526781,-0.041386,-0.123242,-0.039859
1765408461.031084,-10.054996,-0.346724,1.087996,-0.043524,-0.137750,-0.033598
1765408461.032034,-9.933045,-0.627690,0.673123,-0.038485,-0.132405,-0.034208
1765408461.036036,-9.905546,-0.551172,1.154950,-0.034819,-0.132405,-0.043524
1765408461.038113,-9.905546,-0.551172,1.154950,-0.034819,-0.116217,-0.043524
1765408461.041072,-10.044236,-0.066356,1.435916,-0.033750,-0.136223,-0.044746
1765408461.043028,-9.936632,-0.019130,1.034194,-0.039554,-0.139430,-0.040775
1765408461.044027,-9.587517,-0.242109,0.569106,-0.035277,-0.138056,-0.032070
1765408461.048050,-9.730392,-0.577475,1.113104,-0.039095,-0.127213,-0.033750
1765408461.050962,-9.863700,-0.610952,1.233261,-0.039095,-0.135612,-0.033750
1765408461.054125,-10.329985,-0.369440,1.631994,-0.042302,-0.140804,-0.053909
1765408461.056075,-10.004781,-0.030488,1.110713,-0.038790,-0.133779,-0.048106
1765408461.058050,-10.071137,0.145863,1.305595,-0.041233,-0.130878,-0.040012
1765408461.061099,-9.970109,-0.324008,1.380918,-0.039859,-0.129198,-0.029932
1765408461.063146,-9.970109,-0.324008,1.380918,-0.039859,-0.141568,-0.029932
1765408461.064123,-9.980869,-0.685079,1.005500,-0.040623,-0.141721,-0.046578
1765408461.068111,-9.979075,-0.316834,0.969034,-0.038943,-0.148135,-0.052076
1765408461.071126,-9.842777,0.072932,1.242229,-0.037415,-0.135612,-0.056505
1765408461.076508,-9.857722,0.120756,1.412004,-0.036346,-0.135612,-0.031918
1765408461.077008,-9.946198,-0.505739,1.484935,-0.036346,-0.142179,-0.031918
1765408461.079083,-9.783595,-0.522477,0.664156,-0.038943,-0.153022,-0.042608
1765408461.081063,-9.962935,-0.477044,1.076040,-0.038485,-0.141415,-0.047037
1765408461.084114,-9.985652,-0.035868,1.524390,-0.035125,-0.135918,-0.049022
1765408461.086119,-9.469750,-0.161406,1.191415,-0.046273,-0.135918,-0.038485
1765408461.089069,-9.333451,-0.340746,0.796867,-0.049633,-0.144011,-0.041997
1765408461.091115,-9.481109,-0.445959,0.257054,-0.037721,-0.150273,-0.038332
1765408461.093057,-9.753705,-0.559541,1.017456,-0.039095,-0.145539,-0.038179
1765408461.096054,-10.246890,-0.343735,1.816117,-0.038943,-0.129503,-0.054978
1765408461.098092,-9.858918,-0.163797,1.480751,-0.039859,-0.113774,-0.040164
1765408461.099065,-9.671208,-0.326997,1.137613,-0.037415,-0.145691,-0.037874
1765408461.104067,-9.961740,-0.316834,1.209947,-0.037263,-0.149204,-0.044593
1765408461.106125,-10.086679,-0.363462,1.351028,-0.034972,-0.143553,-0.040012
1765408461.108125,-9.672404,-0.457915,0.938546,-0.034972,-0.133321,-0.040012
1765408461.111092,-9.579147,-0.205643,1.132831,-0.040317,-0.129503,-0.049786
1765408461.113097,-9.918698,-0.037064,1.292444,-0.038637,-0.145233,-0.047189
1765408461.116071,-10.236728,-0.148852,1.669058,-0.045968,-0.141721,-0.041692
1765408461.119029,-10.052606,-0.402917,1.401243,-0.039095,-0.131489,-0.035277
1765408461.121049,-9.855929,-0.671927,1.442492,-0.043371,-0.131031,-0.041692
1765408461.124115,-9.726207,-0.497370,1.031205,-0.044746,-0.147677,-0.055283
1765408461.124615,-10.199663,-0.017934,1.592539,-0.041386,-0.148593,-0.059407
1765408461.129049,-10.026302,-0.004185,1.367169,-0.037263,-0.141110,-0.040317
1765408461.131142,-9.974891,-0.278575,1.438307,-0.037721,-0.141110,-0.033750
1765408461.133065,-9.780008,-0.684481,1.251195,-0.043066,-0.147219,-0.042302
1765408461.136022,-10.004781,-0.541009,1.120875,-0.040928,-0.156534,-0.050549
1765408461.138107,-10.082495,-0.222382,1.407221,-0.037263,-0.149509,-0.057116
1765408461.141062,-10.037063,0.081301,1.518412,-0.040317,-0.140804,-0.052840
1765408461.144046,-9.833811,-0.081301,1.367766,-0.041233,-0.140804,-0.038026
1765408461.146003,-9.784193,-0.445959,1.225490,-0.044135,-0.149967,-0.038943
1765408461.148055,-9.885221,-0.520086,0.995935,-0.042761,-0.149051,-0.043219
1765408461.151060,-10.034670,-0.424438,1.495098,-0.043677,-0.142484,-0.055131
1765408461.154439,-10.154231,-0.054998,1.851985,-0.040928,-0.135765,-0.058643
1765408461.156085,-9.910329,0.031086,1.352224,-0.044593,-0.144928,-0.044593
1765408461.159051,-9.616212,-0.359278,0.753228,-0.048869,-0.156687,-0.042608
1765408461.161052,-9.858918,-0.401722,1.018651,-0.045509,-0.152411,-0.047189
1765408461.164062,-10.132710,-0.477044,1.795791,-0.045357,-0.140194,-0.047495
1765408461.166054,-10.021520,-0.185318,1.690578,-0.046884,-0.136987,-0.057727
1765408461.168061,-9.790769,0.014347,1.225490,-0.052382,-0.152716,-0.053909
1765408461.171116,-9.628167,-0.261836,0.945122,-0.051160,-0.154091,-0.042455
1765408461.172163,-9.852941,-0.438785,1.425155,-0.046578,-0.151953,-0.042455
1765408461.176054,-10.071735,-0.493783,1.720468,-0.043371,-0.151953,-0.049480
1765408461.180395,-10.046029,-0.321019,1.412004,-0.050396,-0.153022,-0.058948
1765408461.180895,-9.895982,-0.035868,1.083214,-0.049938,-0.150578,-0.060628
1765408461.184023,-9.831419,-0.095648,1.352224,-0.045509,-0.150578,-0.045357
1765408461.186076,-10.090864,-0.417264,1.945241,-0.050244,-0.155465,-0.044135
1765408461.188025,-10.032280,-0.612745,1.576996,-0.052534,-0.155465,-0.055436
1765408461.191027,-10.032280,-0.612745,1.576996,-0.052534,-0.159283,-0.055436
1765408461.193041,-9.754900,-0.147059,1.266738,-0.046426,-0.158825,-0.058338
1765408461.196084,-9.906742,-0.029890,1.536944,-0.046578,-0.154549,-0.049022
1765408461.197113,-9.905546,-0.533238,1.379722,-0.053909,-0.166155,-0.039401
1765408461.201073,-9.616212,-0.784911,0.601387,-0.051160,-0.169821,-0.053909
1765408461.203179,-9.757890,-0.439981,1.175275,-0.043830,-0.160810,-0.060781
1765408461.206078,-9.930654,-0.166786,1.897417,-0.041844,-0.153480,-0.059101
1765408461.209049,-10.233141,0.037064,1.953610,-0.053756,-0.153480,-0.052229
1765408461.211023,-10.100429,-0.429220,1.302009,-0.059254,-0.165544,-0.045357
1765408461.214046,-10.049617,-0.625897,1.145385,-0.054062,-0.169362,-0.051924
1765408461.216014,-10.046627,-0.439981,1.713295,-0.050396,-0.151036,-0.055131
1765408461.219110,-9.946198,-0.239120,1.767097,-0.055283,-0.156687,-0.058338
1765408461.221080,-9.721423,-0.202056,1.117288,-0.059407,-0.156687,-0.053298
1765408461.223040,-9.706479,-0.454328,1.093376,-0.059407,-0.167530,-0.053298
1765408461.226053,-9.793160,-0.600789,1.434720,-0.049938,-0.153633,-0.046731
1765408461.228034,-9.741750,-0.717958,1.621831,-0.051924,-0.157145,-0.049938
1765408461.231071,-9.774031,-0.381396,1.441296,-0.055741,-0.154091,-0.059407
1765408461.233072,-9.915709,-0.204448,1.396461,-0.047800,-0.166155,-0.049938
1765408461.236033,-9.915709,-0.204448,1.396461,-0.047800,-0.164170,-0.049938
1765408461.238104,-9.796746,-0.712578,1.376136,-0.052840,-0.172722,-0.051007
1765408461.241030,-9.648493,-0.547585,0.945720,-0.058185,-0.172722,-0.061392
1765408461.242048,-9.531323,-0.267814,0.999522,-0.047189,-0.165697,-0.061087
1765408461.246077,-9.752509,-0.206839,1.492109,-0.040470,-0.160505,-0.047342
1765408461.249058,-9.803921,-0.612147,1.787422,-0.040470,-0.162643,-0.047342
1765408461.251075,-9.598277,-0.774749,0.900287,-0.053756,-0.170126,-0.054825
1765408461.253082,-9.811692,-0.514108,1.202774,-0.045357,-0.164934,-0.059559
1765408461.256051,-9.730392,-0.301291,1.576399,-0.042302,-0.147982,-0.054367
1765408461.258035,-9.548061,-0.340148,1.533357,-0.043677,-0.160658,-0.044288
1765408461.259017,-9.239597,-0.627690,0.856050,-0.058032,-0.166461,-0.049786
1765408461.263054,-9.704088,-0.444763,0.919416,-0.048564,-0.171348,-0.053909
1765408461.266127,-9.897178,-0.555954,1.700143,-0.046578,-0.153938,-0.050549
1765408461.268338,-9.878048,-0.426829,1.837637,-0.045204,-0.144928,-0.052840
1765408461.271060,-9.622189,-0.407700,1.325920,-0.055436,-0.165850,-0.054062
1765408461.274067,-9.593494,-0.602582,1.058704,-0.049175,-0.165850,-0.052229
1765408461.276222,-9.898373,-0.477044,1.388092,-0.036805,-0.162185,-0.050244
1765408461.278092,-9.870873,-0.459708,1.816117,-0.044440,-0.154091,-0.052534
1765408461.281118,-9.756096,-0.312052,1.518412,-0.053451,-0.154396,-0.061545
1765408461.283157,-9.732782,-0.289933,1.246413,-0.049633,-0.166155,-0.055131
1765408461.284114,-9.752509,-0.535031,1.410210,-0.041386,-0.167683,-0.046578
1765408461.288102,-9.833213,-0.480631,1.614060,-0.041233,-0.156840,-0.054520
1765408461.291097,-10.224771,-0.261239,2.052248,-0.049786,-0.157909,-0.056047
1765408461.294117,-10.027497,-0.371832,1.605691,-0.049938,-0.164934,-0.051313
1765408461.294617,-10.075322,-0.311454,1.464610,-0.043982,-0.162490,-0.047495
1765408461.298110,-9.796746,-0.665949,1.563845,-0.043982,-0.152564,-0.041844
1765408461.299098,-9.638330,-0.585246,1.403634,-0.045204,-0.158978,-0.053298
1765408461.302106,-10.019128,-0.467480,1.696556,-0.051924,-0.166766,-0.061239
1765408461.306011,-10.078907,-0.243902,1.799976,-0.046273,-0.156534,-0.054672
1765408461.308116,-9.769248,-0.297704,1.376136,-0.043524,-0.158061,-0.041539
1765408461.311098,-9.603060,-0.697633,1.340268,-0.054520,-0.160199,-0.046731
1765408461.313069,-9.990434,-0.514108,1.505858,-0.049633,-0.163712,-0.057574
1765408461.316073,-10.474652,-0.428623,2.319464,-0.044899,-0.160505,-0.052840
1765408461.319062,-10.044834,-0.339550,1.849593,-0.044899,-0.159741,-0.052840
1765408461.321083,-9.789574,-0.380201,1.357604,-0.051160,-0.164170,-0.050855
1765408461.322100,-9.683165,-0.594213,1.089789,-0.049327,-0.166461,-0.049786
1765408461.326053,-9.985652,-0.582257,1.630201,-0.042150,-0.165392,-0.051007
1765408461.328099,-9.892395,-0.608560,1.764706,-0.039859,-0.152564,-0.053909
1765408461.331112,-10.032280,-0.307269,1.865136,-0.042761,-0.156687,-0.060476
1765408461.333130,-9.637732,-0.438785,1.328312,-0.045815,-0.159283,-0.052687
1765408461.336020,-9.820659,-0.468675,1.599713,-0.045815,-0.167988,-0.052687
1765408461.339002,-10.019128,-0.640244,1.932687,-0.042761,-0.162490,-0.052076
1765408461.341021,-9.956359,-0.395146,1.605691,-0.048411,-0.165086,-0.060476
1765408461.343152,-9.913916,-0.269010,1.312769,-0.045357,-0.168446,-0.057116
1765408461.346092,-9.922284,-0.241511,1.607484,-0.040470,-0.159589,-0.051160
1765408461.348109,-10.029889,-0.531444,1.963175,-0.047342,-0.160963,-0.045357
1765408461.351122,-10.240315,-0.610952,1.917742,-0.057421,-0.168293,-0.056810
1765408461.354067,-10.462696,-0.365256,1.981707,-0.049786,-0.168141,-0.063530
1765408461.354567,-10.252270,-0.228360,2.042085,-0.046273,-0.160352,-0.049022
1765408461.358098,-9.781204,-0.602582,1.602702,-0.050549,-0.181427,-0.045204
1765408461.361049,-9.708870,-0.582257,1.305595,-0.053603,-0.181427,-0.061392
1765408461.363102,-10.163795,-0.458513,1.688785,-0.045051,-0.172722,-0.058796
1765408461.366059,-10.046627,-0.220588,1.783835,-0.042608,-0.160658,-0.051924
1765408461.368057,-10.161406,-0.306671,2.017575,-0.050396,-0.160658,-0.047189
1765408461.371127,-9.857125,-0.701817,1.623625,-0.058185,-0.161421,-0.049938
1765408461.373154,-9.899570,-0.616930,1.413199,-0.047189,-0.171959,-0.056658
1765408461.374074,-9.460783,-0.500359,1.146580,-0.041233,-0.169668,-0.055436
1765408461.377056,-9.649688,-0.302487,1.536346,-0.043066,-0.169362,-0.057727
1765408461.381158,-9.696915,-0.407700,1.634385,-0.045204,-0.160505,-0.051771
1765408461.383089,-9.762074,-0.527260,1.611071,-0.038790,-0.163254,-0.046578
1765408461.386138,-9.660448,-0.546987,1.467001,-0.043677,-0.167530,-0.056963
1765408461.388093,-9.660448,-0.546987,1.467001,-0.043677,-0.168446,-0.056963
1765408461.391020,-10.203848,-0.274988,2.122190,-0.044899,-0.162796,-0.051924
1765408461.393048,-9.890003,-0.518890,1.979316,-0.046120,-0.162796,-0.048258
1765408461.394123,-9.709468,-0.533238,1.495696,-0.050855,-0.166308,-0.056352
1765408461.398029,-9.587517,-0.554161,1.182449,-0.058032,-0.168446,-0.061392
1765408461.401014,-9.828429,-0.205643,1.755141,-0.049175,-0.164628,-0.058948
1765408461.404051,-10.157818,-0.173362,2.357723,-0.046120,-0.164934,-0.047189
1765408461.406078,-9.977880,-0.601387,2.044476,-0.058643,-0.164934,-0.047953
1765408461.409087,-9.692730,-0.637853,0.991750,-0.057574,-0.170431,-0.063072
1765408461.411072,-9.745336,-0.212219,1.465806,-0.047953,-0.164781,-0.060476
1765408461.413052,-10.012553,-0.341942,2.187948,-0.051160,-0.159741,-0.049175
1765408461.416041,-10.012553,-0.341942,2.187948,-0.051160,-0.169515,-0.049175
1765408461.418046,-10.039454,-0.720947,1.522597,-0.057879,-0.167377,-0.055436
1765408461.421021,-9.954566,-0.596604,1.710306,-0.051618,-0.160658,-0.058796
1765408461.422108,-9.752509,-0.462099,1.683405,-0.050855,-0.163254,-0.056658
1765408461.424042,-10.105211,-0.399330,2.144309,-0.058338,-0.163254,-0.060018
1765408461.428050,-10.038258,-0.606169,1.953610,-0.056810,-0.163559,-0.054672
1765408461.430986,-9.906742,-0.533835,1.840028,-0.052229,-0.164017,-0.055131
1765408461.432035,-9.670610,-0.532042,1.561454,-0.057116,-0.165086,-0.059101
1765408461.436051,-9.619798,-0.382592,1.575801,-0.055283,-0.160352,-0.058948
1765408461.437022,-9.631754,-0.451937,1.561454,-0.052840,-0.160352,-0.053145
1765408461.441091,-9.777020,-0.599593,2.019368,-0.051771,-0.168599,-0.049480
1765408461.443065,-9.665230,-0.756217,1.697752,-0.060018,-0.169668,-0.057116
1765408461.446169,-9.616212,-0.486609,1.437111,-0.053451,-0.172264,-0.061697
1765408461.448057,-9.672404,-0.526064,1.770086,-0.049633,-0.166614,-0.057727
1765408461.451035,-9.654470,-0.565519,1.944046,-0.048258,-0.162337,-0.049633
1765408461.454001,-9.809898,-0.746054,1.648733,-0.056047,-0.176235,-0.058643
1765408461.456037,-10.108200,-0.679699,1.762314,-0.056352,-0.166766,-0.065057
1765408461.458045,-9.921089,-0.355093,1.747967,-0.046426,-0.166766,-0.058643
1765408461.461046,-9.638927,-0.542802,1.739598,-0.046731,-0.166614,-0.051618
1765408461.463075,-9.644905,-0.682688,1.728240,-0.059559,-0.170431,-0.062156
1765408461.466037,-9.995216,-0.508130,2.037302,-0.051618,-0.185550,-0.065210
1765408461.467107,-9.824843,-0.442372,1.770086,-0.046578,-0.178373,-0.056658
1765408461.471054,-9.617407,-0.267814,1.418579,-0.050702,-0.181732,-0.058338
1765408461.474097,-9.617407,-0.267814,1.418579,-0.050702,-0.176387,-0.058338
1765408461.476123,-9.499043,-0.513510,1.525586,-0.052840,-0.175471,-0.056352
1765408461.477074,-9.809898,-0.410091,1.647537,-0.052229,-0.180053,-0.056810
1765408461.481101,-10.014346,-0.417264,2.091105,-0.059865,-0.175776,-0.056658
1765408461.484087,-10.280965,-0.460904,2.235174,-0.054825,-0.168141,-0.051618
1765408461.486128,-10.013150,-0.748446,2.101865,-0.057574,-0.171042,-0.050549
1765408461.488095,-9.722619,-0.750837,1.604495,-0.058338,-0.177915,-0.059712
1765408461.489115,-9.895385,-0.366451,1.727642,-0.053451,-0.181427,-0.061239
1765408461.494059,-9.937828,-0.603778,2.060019,-0.055131,-0.171500,-0.055436
1765408461.494559,-9.994021,-0.401722,2.197513,-0.050855,-0.171500,-0.054825
1765408461.498065,-9.816475,-0.584648,1.846604,-0.058643,-0.181274,-0.059559
1765408461.501068,-9.702294,-0.603778,1.467001,-0.057421,-0.186161,-0.059559
1765408461.504018,-9.643112,-0.435198,1.627809,-0.048106,-0.191048,-0.057269
1765408461.506100,-9.993423,-0.651602,2.450980,-0.054062,-0.189368,-0.057879
1765408461.508104,-9.662840,-0.633668,1.720468,-0.057879,-0.184634,-0.064904
1765408461.511010,-10.059181,-0.466882,1.869918,-0.052076,-0.187994,-0.067959
1765408461.513088,-9.745336,-0.590626,1.857962,-0.049938,-0.180358,-0.057727
1765408461.516027,-9.715446,-0.443568,1.801769,-0.052840,-0.184023,-0.059407
1765408461.517092,-9.790769,-0.607365,2.234576,-0.061850,-0.184481,-0.064599
1765408461.520999,-9.846962,-0.561932,1.978718,-0.057116,-0.190132,-0.062308
1765408461.522052,-9.563604,-0.365854,1.419177,-0.051618,-0.188452,-0.061850
1765408461.524006,-9.287420,-0.486609,1.335485,-0.060628,-0.183870,-0.067653
1765408461.528021,-9.589908,-0.454328,1.972142,-0.058643,-0.177456,-0.061697
1765408461.529032,-9.601864,-0.601387,1.939263,-0.051771,-0.181427,-0.059712
1765408461.533085,-9.794355,-0.521282,2.038498,-0.056047,-0.191354,-0.066890
1765408461.536017,-9.674795,-0.407700,1.702534,-0.056963,-0.175166,-0.067653
1765408461.538077,-9.827832,-0.458513,2.227403,-0.048106,-0.183412,-0.056047
1765408461.540995,-9.368722,-0.632472,1.695361,-0.060323,-0.187688,-0.062919
1765408461.542062,-9.725011,-0.331181,1.590746,-0.062614,-0.206472,-0.075442
1765408461.546003,-9.937828,-0.415471,1.957795,-0.060476,-0.189979,-0.066584
1765408461.548081,-9.891200,-0.418460,1.954806,-0.048717,-0.185550,-0.056810
1765408461.550995,-9.693327,-0.573290,1.847202,-0.061392,-0.184634,-0.065515
1765408461.553105,-9.717837,-0.634266,1.849593,-0.066890,-0.184634,-0.071777
1765408461.556021,-9.633547,-0.301291,1.702534,-0.060628,-0.183870,-0.068417
1765408461.559002,-9.653275,-0.454328,1.753945,-0.056810,-0.193492,-0.060170
1765408461.561105,-9.653275,-0.454328,1.753945,-0.056810,-0.183260,-0.060170
1765408461.564047,-9.637134,-0.601985,1.745576,-0.067348,-0.171348,-0.067348
1765408461.566075,-9.566593,-0.596007,1.934481,-0.059865,-0.171348,-0.061087
1765408461.568094,-9.578550,-0.631277,1.767097,-0.064599,-0.182191,-0.058490
1765408461.571107,-9.976685,-0.693448,1.976327,-0.065668,-0.181122,-0.067348
1765408461.573091,-10.087276,-0.690459,2.313486,-0.059101,-0.170890,-0.064904
1765408461.576080,-9.634145,-0.676710,1.843018,-0.055131,-0.184023,-0.065057
1765408461.578122,-9.450620,-0.533238,1.566236,-0.060018,-0.184023,-0.069028
1765408461.581097,-9.607244,-0.584648,1.813725,-0.063225,-0.179289,-0.074220
1765408461.586863,-9.732184,-0.334768,2.106647,-0.055436,-0.174555,-0.063072
1765408461.587363,-9.832614,-0.546389,2.349354,-0.061087,-0.177456,-0.064446
1765408461.588036,-9.710664,-0.551172,2.003826,-0.070097,-0.179900,-0.067501
1765408461.591020,-9.725011,-0.609756,1.662482,-0.061850,-0.184023,-0.063530
1765408461.592077,-9.565996,-0.723936,1.831659,-0.059865,-0.181122,-0.062308
1765408461.596017,-9.739358,-0.577475,2.101865,-0.066737,-0.181122,-0.068875
1765408461.599017,-9.974891,-0.546389,2.484457,-0.068417,-0.181122,-0.065668
1765408461.601048,-9.851745,-0.775347,1.923123,-0.069486,-0.187383,-0.062308
1765408461.603034,-9.530128,-0.657580,1.652319,-0.063835,-0.186161,-0.061545
1765408461.606069,-9.490674,-0.758010,1.977522,-0.063835,-0.181274,-0.061545
1765408461.608066,-9.857125,-0.618125,2.387613,-0.061545,-0.186619,-0.064446
1765408461.611027,-9.476326,-0.793281,1.461023,-0.061545,-0.186619,-0.059254
