time,acc_x_g,acc_y_g,acc_z_g,gyro_x_rad_s,gyro_y_rad_s,gyro_z_rad_s
1765408219.411373,-9.057866,3.338115,1.921329,-0.006567,-0.006414,-0.002138
1765408219.411623,-9.024389,3.321975,1.879483,-0.009774,-0.005192,-0.000305
1765408219.411873,-9.078789,3.317790,1.928503,-0.006567,-0.007636,0.001833
1765408219.412123,-9.203729,3.336920,2.019966,-0.010537,-0.007178,0.000305
1765408219.412317,-9.264107,3.283715,2.150884,-0.005192,-0.007483,-0.000153
1765408219.412517,-9.188187,3.281922,2.044476,-0.007330,-0.007483,-0.001985
1765408219.412717,-9.044714,3.340507,1.890244,-0.006109,-0.006720,-0.001222
1765408219.412917,-9.020205,3.320181,1.936872,-0.007025,-0.005803,-0.001833
1765408219.413117,-9.014825,3.303443,1.956002,-0.008247,-0.007330,-0.002291
1765408219.413352,-9.014227,3.341702,1.880679,-0.008399,-0.006872,-0.002596
1765408219.413602,-8.871352,3.321377,1.652319,-0.012217,-0.006872,-0.007178
1765408219.413852,-8.871352,3.321377,1.652319,-0.012217,-0.006109,-0.007178
1765408219.414102,-8.675274,3.608321,1.474175,-0.016341,-0.004887,-0.005345
1765408219.414291,-8.642395,3.512673,1.437111,-0.024740,0.000764,-0.002443
1765408219.414541,-8.487565,3.339311,1.083214,-0.033445,0.005651,-0.001527
1765408219.414791,-8.260401,3.146819,0.823768,-0.037415,0.011301,-0.007636
1765408219.415041,-8.260401,3.146819,0.823768,-0.037415,0.012828,-0.007636
1765408219.415319,-8.472022,3.421807,0.963654,-0.063988,0.024129,-0.024740
1765408219.415519,-8.558105,3.310019,1.107126,-0.084758,0.024129,-0.028405
1765408219.415719,-8.463653,3.136657,0.671927,-0.102014,0.028558,-0.032529
1765408219.415919,-8.308225,2.841344,0.356289,-0.121104,0.035277,-0.050549
1765408219.416119,-8.525824,3.095408,0.510521,-0.129962,0.036499,-0.067042
1765408219.417307,-8.998086,3.411047,1.084409,-0.139277,0.045815,-0.080940
1765408219.417557,-9.337039,3.737446,1.529172,-0.153633,0.059407,-0.087659
1765408219.417807,-9.171448,3.763749,0.976207,-0.159130,0.061239,-0.088881
1765408219.418057,-9.071017,3.751793,0.630081,-0.167835,0.052076,-0.088117
1765408219.417347,-9.218077,3.611908,0.636059,-0.178373,0.052076,-0.095753
1765408219.417597,-9.704088,3.749402,1.293041,-0.186008,0.062461,-0.105069
1765408219.417847,-10.117167,3.871353,1.885461,-0.196240,0.066279,-0.111941
1765408219.418097,-9.971903,3.915590,1.102343,-0.204793,0.060628,-0.122631
1765408219.418253,-9.793758,3.992706,0.681492,-0.212428,0.054214,-0.130114
1765408219.418503,-10.011356,3.901243,1.377929,-0.212581,0.065668,-0.133627
1765408219.418753,-10.074127,3.829507,1.428742,-0.215941,0.065057,-0.130572
1765408219.419003,-10.436392,3.864179,1.879483,-0.229685,0.048869,-0.150884
1765408219.419274,-10.365852,4.402199,1.233261,-0.229991,0.052076,-0.161268
1765408219.419607,-10.206240,4.292204,1.272716,-0.236405,0.047953,-0.146455
1765408219.419941,-9.724413,3.824725,0.669536,-0.250760,0.041081,-0.145386
1765408219.420292,-9.724413,3.824725,0.669536,-0.250760,0.034208,-0.145386
1765408219.420542,-10.075920,4.053084,1.098756,-0.265726,0.046731,-0.176998
1765408219.420792,-10.008368,4.069225,1.163319,-0.271988,0.035125,-0.164017
1765408219.421042,-9.689740,3.909014,0.756815,-0.275348,0.031460,-0.179594
1765408219.421303,-9.799137,4.249163,0.511119,-0.277180,0.031001,-0.182343
1765408219.421553,-10.076518,4.218077,1.517217,-0.279318,0.048717,-0.173333
1765408219.421803,-9.846365,3.909612,1.011478,-0.284663,0.037415,-0.169821
1765408219.422053,-9.907937,3.807986,0.950502,-0.296728,0.029169,-0.177762
1765408219.422284,-9.751313,3.836681,1.261956,-0.300393,0.045968,-0.193339
1765408219.422534,-9.753705,4.249163,1.371353,-0.295353,0.045662,-0.182954
1765408219.422784,-9.334647,3.972979,0.838116,-0.309098,0.039554,-0.179442
1765408219.423034,-9.675991,4.057269,1.637972,-0.303142,0.039248,-0.183870
1765408219.423265,-9.564202,3.652558,1.285270,-0.310472,0.051771,-0.172417
1765408219.423515,-9.819464,3.409851,1.669058,-0.310167,0.053603,-0.172417
1765408219.423765,-9.526542,3.179101,1.694165,-0.317192,0.053603,-0.199753
1765408219.424015,-8.807985,3.414634,0.844094,-0.307265,0.060476,-0.200822
1765408219.424527,-8.896460,3.738642,1.390483,-0.311389,0.053145,-0.199600
1765408219.424777,-9.172644,3.547345,1.667264,-0.316123,0.043982,-0.202502
1765408219.425027,-9.441654,3.232305,1.734816,-0.323453,0.071319,-0.197462
1765408219.425277,-8.845049,2.832376,1.312171,-0.320246,0.081551,-0.201586
1765408219.425409,-8.750597,2.794715,1.622429,-0.319483,0.073915,-0.221591
1765408219.425659,-8.781682,3.130081,1.828073,-0.317345,0.091630,-0.228769
1765408219.425909,-8.990314,3.225729,1.859158,-0.320093,0.091630,-0.228005
1765408219.426159,-9.293997,3.433763,2.152678,-0.310167,0.093157,-0.215788
1765408219.426282,-8.650166,2.626733,1.671449,-0.313679,0.088575,-0.213192
1765408219.426615,-8.307627,2.612984,1.233859,-0.312916,0.121257,-0.234725
1765408219.426949,-8.412839,2.723577,1.147776,-0.306807,0.104763,-0.234267
1765408219.427295,-9.377091,3.195839,2.440817,-0.311083,0.111941,-0.244346
1765408219.427545,-9.267097,3.299856,2.058823,-0.308487,0.131489,-0.240834
1765408219.427795,-8.285508,2.847919,1.343855,-0.309403,0.154091,-0.226173
1765408219.428045,-8.171926,2.216642,1.237446,-0.295353,0.138666,-0.229227
1765408219.428403,-8.811572,2.398374,1.993663,-0.302531,0.133779,-0.260839
1765408219.428653,-9.092538,2.893352,1.836442,-0.297491,0.144470,-0.275806
1765408219.428903,-8.771520,2.939981,1.982305,-0.299629,0.155007,-0.269544
1765408219.429153,-9.102103,2.899330,1.979316,-0.292757,0.137292,-0.259007
1765408219.429413,-9.331658,2.382233,1.849593,-0.295201,0.131489,-0.262977
1765408219.429663,-9.056072,2.515543,2.050454,-0.288634,0.169821,-0.278402
1765408219.429913,-8.204805,2.442611,0.800454,-0.286496,0.169821,-0.274126
1765408219.430163,-8.873146,2.629124,1.692970,-0.292910,0.146455,-0.277486
1765408219.430310,-9.316713,2.394787,1.953610,-0.286038,0.160658,-0.288634
1765408219.430643,-9.493064,2.624342,1.932090,-0.265574,0.180663,-0.269544
1765408219.430977,-8.806191,1.927307,1.402439,-0.272599,0.165697,-0.267254
1765408219.431373,-8.907818,2.100071,1.404830,-0.266795,0.165697,-0.281303
1765408219.431623,-9.548659,2.011597,2.187350,-0.266795,0.181427,-0.281303
1765408219.431873,-9.121830,1.478957,1.514825,-0.244346,0.190285,-0.271377
1765408219.432123,-8.554519,1.751554,0.881157,-0.244193,0.198684,-0.296881
1765408219.432299,-8.922764,2.082137,1.629603,-0.239001,0.207541,-0.313679
1765408219.432549,-9.191773,2.490435,2.347561,-0.234267,0.225715,-0.294590
1765408219.432799,-9.191773,2.490435,2.347561,-0.234267,0.224035,-0.294590
1765408219.433049,-8.961022,1.128646,1.933285,-0.234878,0.218384,-0.282220
1765408219.433388,-9.900764,1.420373,2.366690,-0.218079,0.218384,-0.310167
1765408219.433638,-9.900764,1.420373,2.366690,-0.218079,0.225409,-0.310167
1765408219.433888,-9.208511,1.918340,2.373266,-0.212123,0.227089,-0.308640
1765408219.434138,-9.298182,2.144907,2.094691,-0.200669,0.220828,-0.306043
1765408219.434293,-9.563604,1.904591,2.459349,-0.195935,0.209374,-0.281303
1765408219.434626,-9.960544,1.221903,2.657819,-0.190285,0.209374,-0.284205
1765408219.434960,-10.126732,1.095170,3.020086,-0.179747,0.204487,-0.302684
1765408219.435368,-9.435676,0.966045,2.221425,-0.186008,0.213192,-0.312458
1765408219.435618,-9.606647,1.683405,2.332018,-0.160963,0.190743,-0.311389
1765408219.435868,-9.570778,1.471784,2.104854,-0.158061,0.179289,-0.295353
1765408219.436118,-10.133906,1.453850,2.810856,-0.144011,0.179289,-0.295048
1765408219.436344,-10.160210,1.083214,2.797704,-0.129045,0.199295,-0.297491
1765408219.436594,-9.202533,0.827355,1.232664,-0.122937,0.158672,-0.289856
1765408219.436844,-9.093137,0.840507,1.440698,-0.105527,0.158672,-0.311541
1765408219.437094,-9.093137,0.840507,1.440698,-0.105527,0.165239,-0.311541
1765408219.437355,-9.550453,1.819106,1.718675,-0.092241,0.167988,-0.321162
1765408219.437605,-9.350788,1.542324,1.689383,-0.082925,0.171959,-0.321162
1765408219.437855,-9.073409,1.627212,1.111908,-0.081551,0.183718,-0.325133
1765408219.438105,-9.515182,1.905787,1.898613,-0.074678,0.181122,-0.331547
1765408219.438313,-9.515182,1.905787,1.898613,-0.074678,0.177456,-0.331547
1765408219.438563,-9.954566,1.676231,1.738402,-0.068875,0.180816,-0.321773
1765408219.438813,-9.745934,1.862745,1.938068,-0.055741,0.181885,-0.335365
1765408219.439063,-9.928263,2.637494,2.021760,-0.054520,0.194561,-0.345292
1765408219.439345,-10.227163,2.759445,2.443806,-0.055436,0.194561,-0.321315
1765408219.439595,-10.227163,2.759445,2.443806,-0.055436,0.198226,-0.321315
1765408219.439845,-9.704685,2.198111,2.082735,-0.048411,0.183565,-0.319635
1765408219.440095,-9.998802,1.938068,2.381037,-0.051465,0.183565,-0.320246
1765408219.440323,-10.352701,2.083931,2.746293,-0.040470,0.168599,-0.317497
1765408219.440656,-9.946795,2.070779,2.216045,-0.032681,0.185550,-0.321315
1765408219.440990,-9.530725,2.074964,1.834050,-0.024587,0.164323,-0.321315
1765408219.441361,-9.778812,1.654113,2.289574,-0.026114,0.164781,-0.324217
1765408219.441611,-9.318506,1.523195,1.610473,-0.016952,0.169821,-0.326355
1765408219.441861,-9.398612,1.834050,1.574007,-0.010690,0.161727,-0.331242
1765408219.442111,-9.574963,1.734816,2.057628,-0.009316,0.153938,-0.342085
1765408219.442309,-10.174556,1.923720,2.052845,0.001527,0.151189,-0.332922
1765408219.442559,-9.507411,1.215327,1.447274,0.004734,0.166461,-0.326507
1765408219.442809,-8.965207,0.993544,0.344333,0.010232,0.164170,-0.343154
1765408219.443059,-8.965207,0.993544,0.344333,0.010232,0.172111,-0.343154
1765408219.443406,-10.439979,1.141798,3.064323,0.045662,0.178373,-0.345139
1765408219.443656,-10.367048,1.419775,2.521520,0.047037,0.167683,-0.349568
1765408219.443906,-9.224054,1.504065,1.102343,0.052687,0.176235,-0.367741
1765408219.444156,-9.372309,2.119799,1.902200,0.073762,0.156534,-0.348499
1765408219.444366,-9.434480,1.651721,1.765901,0.073762,0.157451,-0.348499
1765408219.444616,-10.082495,1.731827,2.712816,0.073151,0.150731,-0.357356
1765408219.444866,-9.594690,2.231587,1.561454,0.076969,0.167683,-0.358120
1765408219.445116,-8.873744,2.129364,1.730631,0.072846,0.141263,-0.343612
1765408219.445368,-9.493662,2.021162,1.996652,0.075900,0.141263,-0.342085
1765408219.445568,-10.203848,1.765901,3.134265,0.084452,0.112246,-0.337656
1765408219.445768,-9.639525,1.499880,1.898613,0.088423,0.131794,-0.348804
1765408219.445968,-9.238999,1.578790,1.340865,0.092088,0.103389,-0.352927
1765408219.446168,-9.642514,1.478957,1.722860,0.083078,0.111330,-0.364992
1765408219.446314,-10.282160,1.963175,2.682926,0.108123,0.103847,-0.364992
1765408219.446564,-10.579865,1.927307,2.923242,0.096211,0.122326,-0.358425
1765408219.446814,-9.895982,1.845409,1.865136,0.101709,0.111177,-0.363007
1765408219.447064,-9.738162,1.528575,1.978718,0.104458,0.102014,-0.363007
1765408219.447288,-9.381873,0.786705,1.154950,0.120493,0.100182,-0.345139
1765408219.447538,-9.399808,0.673123,1.118484,0.137292,0.101251,-0.368352
1765408219.447788,-9.573170,1.258369,1.842420,0.146455,0.112705,-0.396757
1765408219.448038,-9.448229,1.852582,1.482544,0.159894,0.118202,-0.394772
1765408219.448274,-8.900046,2.216045,1.321138,0.170890,0.116523,-0.372475
1765408219.448524,-9.542681,1.364180,1.297824,0.170126,0.101556,-0.360563
1765408219.448774,-9.578550,1.455045,1.727642,0.188452,0.102473,-0.374155
1765408219.449024,-9.238999,1.679818,0.978001,0.177151,0.126449,-0.397215
1765408219.449289,-9.538497,2.528694,1.682209,0.185092,0.134696,-0.399048
1765408219.449539,-9.753107,2.044476,2.103060,0.180205,0.133321,-0.386830
1765408219.449789,-9.917501,2.350550,2.254304,0.195171,0.129962,-0.371101
1765408219.450039,-9.971304,1.565040,2.309899,0.190895,0.124922,-0.371864
1765408219.450291,-9.910329,1.572214,2.131157,0.200669,0.115759,-0.383318
1765408219.450541,-9.910329,1.529172,2.097083,0.203113,0.114537,-0.388052
1765408219.450791,-9.249162,1.459828,1.498087,0.208916,0.094073,-0.388510
1765408219.451041,-9.880439,1.883070,2.312290,0.208305,0.111483,-0.391412
1765408219.451334,-9.809898,1.151363,1.657102,0.214566,0.105222,-0.375377
1765408219.451667,-9.785389,0.859636,1.631994,0.229991,0.102167,-0.367435
1765408219.452001,-9.959349,0.700622,1.493304,0.234725,0.097738,-0.394619
1765408219.452281,-9.999999,1.154950,2.128766,0.243735,0.097738,-0.401338
1765408219.452531,-9.336440,1.299617,0.990555,0.238543,0.120035,-0.398895
1765408219.452781,-9.765661,1.857962,1.496891,0.268017,0.099571,-0.391259
1765408219.453031,-9.909132,2.025347,1.844811,0.253662,0.140041,-0.392939
1765408219.453417,-10.331181,2.091105,2.546030,0.266643,0.141110,-0.381943
1765408219.453667,-9.276661,1.217719,1.542324,0.258243,0.141110,-0.364381
1765408219.453917,-8.962815,0.822573,1.180057,0.274737,0.104153,-0.374919
1765408219.454167,-8.920970,1.165710,1.151363,0.273057,0.126296,-0.409891
1765408219.454285,-9.137373,1.524390,1.388092,0.279165,0.134390,-0.406225
1765408219.454535,-9.137373,1.524390,1.388092,0.279165,0.136070,-0.406225
1765408219.454785,-9.765661,1.049737,1.629005,0.290161,0.105374,-0.388510
1765408219.455035,-9.814680,0.632472,2.000239,0.298713,0.120493,-0.390954
1765408219.455346,-9.923481,0.339550,1.836442,0.328187,0.107207,-0.402560
1765408219.455596,-9.365135,1.096365,1.648733,0.328035,0.107207,-0.419970
1765408219.455846,-9.365135,1.096365,1.648733,0.328035,0.088881,-0.419970
1765408219.456096,-10.345527,2.146102,2.289574,0.327882,0.083689,-0.416610
1765408219.456320,-9.662840,2.297943,1.106528,0.350331,0.083078,-0.383165
1765408219.456570,-9.483500,2.187948,1.631994,0.337656,0.075595,-0.408363
1765408219.456820,-9.875058,2.740913,2.058823,0.330936,0.102320,-0.412792
1765408219.457070,-10.010758,1.863940,1.472381,0.333685,0.083383,-0.377667
1765408219.457373,-10.142276,1.744380,1.416786,0.348040,0.049175,-0.387899
1765408219.457623,-10.127330,1.707317,1.458632,0.345750,0.074526,-0.412487
1765408219.457873,-9.575562,1.967958,1.289455,0.355371,0.093004,-0.404240
1765408219.458123,-9.402199,1.380918,1.070062,0.357051,0.093004,-0.395688
1765408219.458312,-9.759683,1.071855,1.508847,0.359036,0.088881,-0.410043
1765408219.458562,-9.390243,0.778336,1.316356,0.368352,0.100793,-0.419054
1765408219.458812,-9.658655,1.518412,1.527977,0.384998,0.100793,-0.426995
1765408219.459062,-9.516378,2.008608,1.139407,0.374308,0.094990,-0.426995
1765408219.459334,-9.785987,2.058823,1.383309,0.384692,0.093615,-0.420886
1765408219.459584,-8.851027,2.131755,0.642037,0.389427,0.107207,-0.408211
1765408219.459834,-9.418339,2.153276,1.290053,0.381485,0.093157,-0.417221
1765408219.460084,-10.449544,2.128766,2.898134,0.380874,0.110261,-0.414777
1765408219.460343,-10.449544,2.128766,2.898134,0.380874,0.114690,-0.414777
1765408219.460593,-9.510998,1.857365,0.901482,0.399048,0.088270,-0.393397
1765408219.460843,-9.997607,1.592539,1.896820,0.388816,0.088270,-0.410043
1765408219.461093,-10.399329,1.247011,2.581898,0.403629,0.095295,-0.396452
1765408219.461375,-9.341224,0.655189,1.077833,0.410654,0.094226,-0.388816
1765408219.461625,-9.341224,0.655189,1.077833,0.410654,0.065973,-0.388816
1765408219.461875,-10.308464,1.300813,2.113821,0.429744,0.096822,-0.441350
1765408219.462125,-9.894786,1.550693,1.642754,0.437227,0.096975,-0.425009
1765408219.462314,-9.261118,2.021162,1.636777,0.444557,0.087812,-0.412792
1765408219.462564,-8.628645,2.067193,0.059780,0.430507,0.087048,-0.419817
1765408219.462814,-9.246771,2.192730,0.341942,0.437990,0.089339,-0.414167
1765408219.463064,-9.252748,1.342659,0.900287,0.432645,0.116064,-0.402407
1765408219.463370,-9.554040,2.064801,1.256576,0.458607,0.120493,-0.414625
1765408219.463620,-9.703490,1.678622,1.675036,0.439670,0.108429,-0.408974
1765408219.463870,-9.635341,1.507652,1.385700,0.436310,0.108429,-0.398284
1765408219.464120,-10.104015,1.018651,1.463415,0.461661,0.106138,-0.399659
1765408219.464332,-9.517574,0.631277,1.657102,0.462883,0.116675,-0.410501
1765408219.464582,-9.484695,0.957676,1.156743,0.466243,0.127671,-0.444863
1765408219.464832,-9.351983,1.944046,1.258967,0.478460,0.114690,-0.446084
1765408219.465082,-10.559540,2.321855,2.189144,0.483805,0.098044,-0.433103
1765408219.465344,-10.153036,3.168340,1.995456,0.494495,0.115454,-0.420428
1765408219.465594,-9.838593,2.654232,2.196317,0.457691,0.112705,-0.419206
1765408219.465844,-9.846962,2.378646,1.624820,0.450819,0.105069,-0.410349
1765408219.466094,-9.519367,1.743185,0.480631,0.463189,0.073151,-0.390954
1765408219.466348,-10.338352,1.878886,1.970349,0.467617,0.062766,-0.419512
1765408219.466598,-9.739358,2.112625,1.358202,0.467159,0.109803,-0.428675
1765408219.466848,-9.664633,1.737207,1.660091,0.471741,0.103542,-0.399506
1765408219.467098,-9.002869,0.753228,0.647417,0.479987,0.088728,-0.395230
1765408219.467332,-9.499043,0.584051,0.539813,0.491136,0.060628,-0.422261
1765408219.467582,-9.860711,1.169297,1.826877,0.502589,0.068722,-0.444710
1765408219.467832,-10.036465,1.691774,1.206360,0.502589,0.088728,-0.461967
1765408219.468082,-9.305355,2.824605,0.291726,0.510225,0.103694,-0.450971
1765408219.468409,-8.822333,3.032042,0.707197,0.483653,0.087812,-0.440892
1765408219.468659,-9.957555,2.895743,1.656504,0.482736,0.096822,-0.416305
1765408219.468909,-9.798540,2.094093,1.004902,0.490219,0.100640,-0.386830
1765408219.469159,-10.322213,1.476566,0.734098,0.485943,0.085521,-0.402102
1765408219.469315,-10.261834,1.643950,1.526183,0.484722,0.138666,-0.423788
1765408219.469565,-9.950979,1.304400,1.147776,0.485943,0.138666,-0.412639
1765408219.469815,-10.092658,1.397656,1.229675,0.503811,0.127365,-0.393855
1765408219.470065,-10.961859,0.543998,2.330224,0.503506,0.111177,-0.412181
1765408219.470295,-10.461500,1.164515,1.817312,0.503506,0.143248,-0.412181
1765408219.470545,-9.454804,1.214730,0.475849,0.510072,0.135459,-0.439976
1765408219.470795,-9.452414,2.179579,1.596126,0.509920,0.107360,-0.446084
1765408219.471045,-10.051410,3.032042,1.584768,0.498313,0.091324,-0.449750
1765408219.471267,-10.328789,2.834768,1.648733,0.495259,0.104916,-0.420733
1765408219.471517,-9.102700,2.034911,0.040650,0.499840,0.120340,-0.382554
1765408219.471767,-9.467957,1.806552,0.949306,0.506102,0.078802,-0.398437
1765408219.472017,-9.597679,1.712099,1.640961,0.489456,0.104916,-0.411112
1765408219.472287,-9.579745,1.172884,0.869201,0.495106,0.096517,-0.400422
1765408219.472537,-9.873264,1.104735,0.802845,0.510989,0.102473,-0.405156
1765408219.472787,-9.924676,0.699426,0.560736,0.505949,0.102473,-0.421344
1765408219.473037,-9.924676,0.699426,0.560736,0.505949,0.127060,-0.421344
1765408219.473362,-9.539692,1.764706,1.154950,0.501215,0.161574,-0.445779
1765408219.473612,-9.264705,3.050573,0.252272,0.525039,0.140652,-0.423788
1765408219.473862,-9.361548,2.611190,1.287661,0.495259,0.123700,-0.423635
1765408219.474112,-10.154231,2.873625,1.604495,0.498466,0.123700,-0.430813
1765408219.474272,-9.010042,2.490435,0.355093,0.501215,0.157145,-0.401949
1765408219.474522,-8.970588,2.088713,0.932568,0.492510,0.126907,-0.402102
1765408219.474772,-9.742347,2.560975,1.435916,0.486554,0.131641,-0.421955
1765408219.475022,-10.401721,1.818508,2.032520,0.479224,0.128740,-0.411876
1765408219.475265,-9.693925,1.486131,1.050932,0.491594,0.154396,-0.400117
1765408219.475515,-9.693925,1.486131,1.050932,0.491594,0.118202,-0.400117
1765408219.475765,-9.701099,1.426949,2.061214,0.497550,0.126755,-0.439212
1765408219.476015,-9.594690,2.085724,0.650406,0.493121,0.126755,-0.451124
1765408219.476326,-9.830223,3.118723,1.347441,0.505033,0.111483,-0.434325
1765408219.476576,-9.604255,3.106169,1.215925,0.480140,0.111636,-0.437380
1765408219.476826,-10.318028,3.061932,2.126375,0.480140,0.113010,-0.437380
1765408219.477076,-9.047703,2.179579,0.496174,0.478613,0.118050,-0.383471
1765408219.477291,-9.709468,2.287183,0.412482,0.472810,0.087659,-0.400117
1765408219.477541,-10.180533,2.359517,1.420373,0.463036,0.100182,-0.418137
1765408219.477791,-10.318626,1.554280,1.443089,0.450819,0.120493,-0.400575
1765408219.478041,-9.116450,1.244620,-0.065758,0.476017,0.137139,-0.386372
1765408219.478333,-9.476326,0.417862,0.731707,0.460440,0.116981,-0.414777
1765408219.478583,-10.136297,1.353419,1.766499,0.485180,0.143401,-0.442725
1765408219.478833,-9.522357,1.872310,0.670134,0.481820,0.149509,-0.436769
1765408219.479083,-9.438066,2.264467,0.981588,0.479071,0.154243,-0.429286
1765408219.479308,-8.705164,2.713414,-0.236131,0.465174,0.154243,-0.436005
1765408219.479558,-9.695121,2.930416,0.907460,0.448070,0.168141,-0.426231
1765408219.479808,-9.371113,2.372071,0.494978,0.445779,0.168141,-0.392786
1765408219.480058,-9.362743,1.848398,0.692252,0.447917,0.143706,-0.392634
1765408219.480274,-9.384863,2.146102,1.404830,0.448070,0.170126,-0.411876
1765408219.480524,-9.200143,2.126972,0.430416,0.430660,0.170126,-0.394924
1765408219.480774,-10.248685,2.126972,1.617647,0.430660,0.141263,-0.394924
1765408219.481024,-10.406504,1.004304,1.494500,0.445932,0.153633,-0.390037
1765408219.481297,-10.399927,0.691655,1.495098,0.457843,0.162032,-0.397368
1765408219.481630,-8.978956,0.823171,0.303682,0.448681,0.176540,-0.415999
1765408219.481964,-10.200860,2.049856,1.481349,0.447459,0.131947,-0.451277
1765408219.482261,-10.777138,3.213773,2.129364,0.438907,0.170126,-0.441350
1765408219.482511,-9.628167,3.370994,0.486609,0.429591,0.165544,-0.408516
1765408219.482761,-9.210902,3.042802,0.308465,0.409280,0.167072,-0.394008
1765408219.483011,-9.285627,2.207675,-0.106408,0.412181,0.148288,-0.389427
1765408219.483289,-9.758488,1.938068,0.328192,0.405156,0.158978,-0.395841
1765408219.483539,-9.678382,2.209469,0.993544,0.407753,0.196393,-0.416916
1765408219.483789,-9.962935,2.910090,1.348637,0.402560,0.214872,-0.408822
1765408219.484039,-10.269009,2.012793,1.850789,0.392023,0.188605,-0.382249
1765408219.484307,-9.867287,1.550693,0.851267,0.397521,0.178525,-0.384845
1765408219.484557,-9.521161,0.524271,0.467480,0.390954,0.201586,-0.395383
1765408219.484807,-9.611428,1.155547,1.115495,0.401033,0.189979,-0.416610
1765408219.485057,-10.066953,2.118603,1.661286,0.393550,0.191659,-0.452040
1765408219.485344,-10.460305,3.260401,1.578192,0.395841,0.195019,-0.432187
1765408219.485594,-10.242706,2.966284,1.464610,0.390648,0.166614,-0.392786
1765408219.485844,-9.715446,2.769010,1.309182,0.377820,0.166614,-0.392939
1765408219.486094,-10.417263,2.460545,2.344572,0.362396,0.165697,-0.391565
1765408219.486286,-9.720228,1.927307,1.262554,0.360410,0.170279,-0.373391
1765408219.486536,-9.937828,1.911764,0.130320,0.365145,0.145233,-0.382860
1765408219.486786,-10.333572,2.165232,1.398852,0.352011,0.155465,-0.410654
1765408219.487036,-10.034670,2.284194,1.884266,0.348346,0.173638,-0.396604
1765408219.487268,-9.791965,1.704926,1.642157,0.345597,0.184787,-0.367435
1765408219.487518,-9.014227,0.968436,0.254065,0.334907,0.146760,-0.376904
1765408219.487768,-9.829626,0.656384,0.523075,0.338572,0.140804,-0.410196
1765408219.488018,-9.210902,1.171090,0.367049,0.353080,0.167683,-0.414167
1765408219.488338,-8.976564,1.964371,-0.150646,0.345750,0.176540,-0.418443
1765408219.488588,-9.515780,2.678144,0.297107,0.331853,0.188757,-0.418748
1765408219.488838,-10.392157,2.501195,1.626016,0.332463,0.180053,-0.386830
1765408219.489088,-9.784791,2.258488,0.877571,0.325897,0.195171,-0.365756
1765408219.489299,-9.068028,2.345767,0.188307,0.303905,0.195630,-0.391106
1765408219.489549,-9.626971,2.403754,0.354495,0.289856,0.211054,-0.388663
1765408219.489799,-9.955164,1.899808,0.963654,0.301462,0.198226,-0.354302
1765408219.490049,-9.843375,1.709110,0.535629,0.293368,0.223424,-0.361785
1765408219.490259,-9.641318,1.464012,0.908656,0.278860,0.223424,-0.386220
1765408219.490592,-9.744141,1.581779,1.248206,0.282067,0.235947,-0.383929
1765408219.490926,-9.452414,1.075442,1.245815,0.283136,0.214414,-0.377973
1765408219.491340,-9.306551,1.591344,0.498565,0.279776,0.206778,-0.409432
1765408219.491590,-10.129722,2.027738,1.340268,0.267254,0.197004,-0.419512
1765408219.491840,-10.668339,2.282400,1.474175,0.278860,0.197004,-0.378889
1765408219.492090,-9.916904,1.348637,0.957676,0.278860,0.194561,-0.378889
1765408219.492328,-9.894188,1.955404,0.827355,0.260229,0.205403,-0.406989
1765408219.492578,-10.193088,2.050454,1.266140,0.254578,0.209221,-0.399811
1765408219.492828,-9.710664,2.425873,1.226686,0.261145,0.201127,-0.381027
1765408219.493078,-9.555235,2.804878,-0.108800,0.242361,0.202044,-0.397215
1765408219.493363,-9.555235,2.804878,-0.108800,0.242361,0.213956,-0.397215
1765408219.493613,-9.025584,2.340387,-0.538020,0.220522,0.223271,-0.355982
1765408219.493863,-9.372309,1.643950,0.621712,0.233045,0.223271,-0.347124
1765408219.494113,-9.372309,1.643950,0.621712,0.233045,0.248622,-0.347124
1765408219.494284,-9.949782,2.068388,0.945720,0.206931,0.237932,-0.399964
1765408219.494534,-9.234815,2.068388,0.435796,0.206931,0.250607,-0.399964
1765408219.494784,-9.048302,2.142515,-0.169775,0.195630,0.232740,-0.376140
1765408219.495034,-9.940817,1.594930,1.187829,0.184329,0.232740,-0.373544
1765408219.495339,-9.879243,1.287063,0.898493,0.187841,0.235183,-0.380416
1765408219.495589,-10.206838,1.435318,0.949306,0.184023,0.234420,-0.393245
1765408219.495839,-9.878048,1.379722,1.263749,0.178373,0.237016,-0.398590
1765408219.496089,-10.039454,1.683405,1.184840,0.186467,0.232740,-0.385303
1765408219.496401,-10.213414,1.617049,1.333094,0.178984,0.211359,-0.370642
1765408219.496651,-10.192491,1.496293,1.251195,0.164170,0.208152,-0.391106
1765408219.496901,-9.649688,1.676231,0.270206,0.164170,0.220980,-0.383013
1765408219.497151,-9.435078,1.162721,0.628886,0.157909,0.209221,-0.378431
1765408219.497434,-9.204925,1.923720,0.145863,0.156382,0.207389,-0.378431
1765408219.497684,-10.457913,2.502391,1.518412,0.134543,0.194866,-0.404393
1765408219.497934,-10.351504,2.843137,1.369560,0.134085,0.208763,-0.373697
1765408219.498184,-9.677187,1.733620,-0.135103,0.121104,0.204640,-0.341321
1765408219.498320,-9.514585,1.322334,0.230751,0.118202,0.204640,-0.356593
1765408219.498570,-9.514585,1.322334,0.230751,0.118202,0.210290,-0.356593
1765408219.498820,-10.601385,1.545911,1.410808,0.105222,0.224798,-0.381943
1765408219.499070,-10.325203,1.988283,1.018054,0.102014,0.232587,-0.387289
1765408219.499337,-9.726207,1.834050,1.056313,0.092699,0.242666,-0.369726
1765408219.499587,-8.922764,1.728838,-0.121951,0.088423,0.242666,-0.363159
1765408219.499837,-8.922764,1.728838,-0.121951,0.088423,0.228158,-0.363159
1765408219.500087,-9.934240,1.410808,0.906265,0.073304,0.233351,-0.379958
1765408219.500293,-10.456717,1.666667,1.032998,0.079260,0.241903,-0.384234
1765408219.500543,-9.313725,1.392874,0.448350,0.071166,0.267864,-0.372170
1765408219.500793,-9.531921,1.437111,0.461502,0.078343,0.250760,-0.370642
1765408219.501043,-9.913916,1.174677,1.025825,0.075595,0.247706,-0.368046
1765408219.501335,-10.220587,1.110713,1.405428,0.068875,0.234267,-0.376598
1765408219.501585,-10.310257,1.599713,1.079627,0.066584,0.253509,-0.391412
1765408219.501835,-9.573768,1.948828,0.517695,0.060781,0.245568,-0.385303
1765408219.502085,-9.390243,1.825681,0.272597,0.053145,0.236405,-0.379195
1765408219.502301,-9.413557,2.123386,0.296509,0.052993,0.244193,-0.377667
1765408219.502551,-10.072930,1.711501,1.137613,0.050091,0.239765,-0.363618
1765408219.502801,-9.701099,1.722860,0.600191,0.032834,0.247400,-0.375682
1765408219.503051,-9.736967,1.915351,0.143472,0.032834,0.246026,-0.375682
1765408219.503327,-9.350788,1.474175,-0.344333,0.008858,0.251371,-0.369268
1765408219.503577,-9.661644,1.574605,-0.533835,0.009927,0.237932,-0.380569
1765408219.503827,-10.419655,1.543520,1.355811,-0.003665,0.276264,-0.389885
1765408219.504077,-9.849353,1.690578,1.166308,-0.010079,0.309251,-0.379653
1765408219.504309,-9.849353,1.690578,1.166308,-0.010079,0.282372,-0.379653
1765408219.504559,-9.432686,0.883548,0.251076,-0.029474,0.255189,-0.373544
1765408219.504809,-9.949782,1.282879,0.347322,-0.017257,0.262061,-0.383318
1765408219.505059,-9.130797,1.316356,-0.163797,-0.018021,0.279013,-0.378278
1765408219.505376,-9.812290,1.646341,1.521401,-0.034514,0.266032,-0.391870
1765408219.505626,-9.193566,1.805356,0.138690,-0.037721,0.281303,-0.366977
1765408219.505876,-9.870276,1.647537,0.814204,-0.045357,0.248469,-0.348346
1765408219.506126,-10.056191,1.187231,0.818986,-0.049786,0.249844,-0.352317
1765408219.506350,-10.862624,0.876973,1.378527,-0.063072,0.246331,-0.354607
1765408219.506683,-10.733500,0.466284,1.787422,-0.056658,0.246331,-0.359036
1765408219.507017,-9.568985,0.578670,-0.032879,-0.060018,0.232740,-0.367894
1765408219.507358,-10.377211,1.059302,0.687470,-0.064752,0.225409,-0.375988
1765408219.507608,-10.937350,0.782520,1.305595,-0.064141,0.227395,-0.370032
1765408219.507858,-11.152556,0.871592,1.920134,-0.062003,0.241292,-0.360563
1765408219.508108,-9.922284,0.541607,0.789096,-0.065210,0.241292,-0.373239
1765408219.508354,-9.251553,0.532042,-0.322812,-0.071929,0.225867,-0.376751
1765408219.508604,-9.467957,1.113104,-0.190698,-0.066432,0.207541,-0.385456
1765408219.508854,-10.992945,1.300215,1.396461,-0.070097,0.202960,-0.386678
1765408219.509104,-9.900167,1.571018,0.074127,-0.083841,0.242361,-0.376140
1765408219.509342,-9.778812,1.337876,0.294118,-0.088423,0.222813,-0.372781
1765408219.509592,-9.845766,1.031803,0.814801,-0.091630,0.224035,-0.362243
1765408219.509842,-10.423241,1.371951,0.688666,-0.094226,0.205251,-0.376446
1765408219.510092,-10.584648,1.658895,1.129244,-0.100487,0.222508,-0.387441
1765408219.510316,-9.738162,1.957197,-0.398733,-0.114079,0.226784,-0.369268
1765408219.510566,-10.274986,2.038498,0.956480,-0.118661,0.212276,-0.363923
1765408219.510816,-10.229554,1.325920,1.120277,-0.132252,0.215330,-0.357662
1765408219.511066,-9.726207,0.980392,0.278575,-0.139583,0.218079,-0.351095
1765408219.511316,-9.616212,1.061693,0.612147,-0.138666,0.214566,-0.370642
1765408219.511566,-10.112385,1.562052,1.157341,-0.159130,0.204334,-0.383776
1765408219.511816,-10.821377,1.830464,1.655906,-0.156687,0.193186,-0.362549
1765408219.512066,-10.389167,1.031803,1.117886,-0.165697,0.183565,-0.345139
1765408219.512280,-9.983260,0.600191,0.651004,-0.165697,0.169057,-0.346971
1765408219.512530,-9.989837,0.385581,0.816595,-0.169821,0.169057,-0.360869
1765408219.512780,-10.115973,0.370636,0.787900,-0.169057,0.155160,-0.359494
1765408219.513030,-10.303083,0.726925,0.862028,-0.173638,0.153480,-0.367894
1765408219.513317,-9.962935,0.864419,0.527857,-0.173791,0.160658,-0.360105
1765408219.513567,-10.160808,0.512912,1.092778,-0.183565,0.139430,-0.340405
1765408219.513817,-10.142874,0.122549,0.923003,-0.182191,0.139430,-0.348651
1765408219.514067,-10.241510,-0.126734,1.219512,-0.180511,0.123853,-0.348804
1765408219.514278,-10.044236,-0.005380,0.437590,-0.179900,0.130725,-0.353996
1765408219.514528,-9.933045,0.254065,0.395146,-0.170431,0.113621,-0.352775
1765408219.514778,-9.933045,0.254065,0.395146,-0.170431,0.137903,-0.352775
1765408219.515028,-9.875656,0.487207,0.052606,-0.170890,0.122784,-0.333380
1765408219.515299,-10.009563,-0.188307,0.655189,-0.188299,0.120493,-0.321162
1765408219.515549,-10.119559,-0.516499,0.087279,-0.180816,0.121257,-0.329104
1765408219.515799,-10.412481,-0.464491,1.260162,-0.183565,0.121257,-0.333074
1765408219.516049,-10.412481,-0.464491,1.260162,-0.183565,0.130572,-0.333074
1765408219.516312,-9.894786,0.297704,0.689861,-0.180358,0.115912,-0.329562
1765408219.516562,-10.026900,-0.175753,0.667145,-0.186619,0.083841,-0.312610
1765408219.516812,-11.159731,-0.361071,1.798182,-0.179289,0.110108,-0.313374
1765408219.517062,-10.245695,-0.695839,0.646820,-0.177151,0.110108,-0.309251
1765408219.517311,-10.245695,-0.695839,0.646820,-0.177151,0.084605,-0.309251
1765408219.517644,-10.559540,-0.141081,1.494500,-0.179594,0.076664,-0.321621
1765408219.517978,-11.044354,-0.087279,1.736011,-0.176082,0.056963,-0.300851
1765408219.518256,-9.886416,-0.365256,0.570301,-0.182191,0.072998,-0.285427
1765408219.518506,-9.246771,-0.555954,0.382592,-0.178067,0.072998,-0.288023
1765408219.518756,-9.788378,-0.781325,1.258967,-0.186467,0.054672,-0.283136
1765408219.519006,-10.236728,-0.596604,1.500478,-0.172722,0.054825,-0.286496
1765408219.519323,-10.005977,-0.131516,1.229077,-0.171653,0.054825,-0.290619
1765408219.519573,-9.384265,0.277379,0.648015,-0.168293,0.051313,-0.265268
1765408219.519823,-9.246771,-0.477044,0.708393,-0.178373,0.034514,-0.251676
1765408219.520073,-10.172164,-0.487207,1.877690,-0.161879,0.018326,-0.249997
1765408219.520297,-9.925871,-0.944524,1.544117,-0.161574,0.032834,-0.242972
1765408219.520547,-9.483500,-0.694644,1.206360,-0.158978,0.031307,-0.250302
1765408219.520797,-9.060855,-0.297704,0.526064,-0.158978,0.027336,-0.250302
1765408219.521047,-9.628765,0.142276,1.535150,-0.155465,0.012065,-0.238237
1765408219.521349,-9.481109,0.022716,1.330105,-0.148898,0.023366,-0.213039
1765408219.521599,-9.276661,-0.484218,1.144189,-0.152105,0.016035,-0.203113
1765408219.521849,-9.116450,-0.579866,0.485414,-0.146150,0.022297,-0.201127
1765408219.522099,-9.116450,-0.579866,0.485414,-0.146150,0.015119,-0.201127
1765408219.522306,-9.848756,-0.235533,2.280009,-0.139277,0.036346,-0.195019
1765408219.522556,-9.391438,-0.042444,1.410808,-0.141568,0.041844,-0.183870
1765408219.522806,-9.342419,0.245098,1.334888,-0.143095,0.021075,-0.171959
1765408219.523056,-9.084767,0.218197,0.837518,-0.141415,0.033598,-0.152869
1765408219.523287,-9.310138,-0.073529,1.230870,-0.139125,0.024282,-0.152869
1765408219.523537,-9.427306,-0.538618,1.187829,-0.133016,0.035277,-0.121409
1765408219.523787,-9.325681,-0.360473,0.888331,-0.123395,0.039859,-0.118966
1765408219.524037,-9.503824,-0.352104,1.407819,-0.118813,0.052534,-0.111636
1765408219.524295,-9.832614,-0.270206,1.507054,-0.104000,0.051924,-0.096517
1765408219.524545,-10.062170,-0.480631,1.667862,-0.104916,0.047953,-0.090713
1765408219.524795,-9.978478,-0.341942,1.230273,-0.095906,0.050855,-0.087506
1765408219.525045,-10.319821,-0.307269,1.548900,-0.083536,0.047037,-0.075595
1765408219.525385,-10.453131,-0.395146,1.712099,-0.075289,0.043524,-0.062766
1765408219.525635,-10.579865,-0.414873,1.578192,-0.069333,0.040623,-0.059559
1765408219.525885,-10.573289,-0.247489,1.315160,-0.063377,0.041692,-0.050855
1765408219.526135,-10.589430,-0.276184,1.247011,-0.052382,0.034667,-0.036346
1765408219.526356,-10.814202,-0.402319,1.556671,-0.041539,0.030543,-0.027031
1765408219.526556,-10.752031,-0.566714,1.382711,-0.038790,0.030543,-0.023213
1765408219.526756,-10.549974,-0.432807,1.219512,-0.026878,0.032681,-0.019548
1765408219.526956,-10.302486,-0.373027,0.717360,-0.020311,0.030849,-0.011148
1765408219.527156,-10.595408,-0.327594,0.998326,-0.014966,0.013286,-0.005345
1765408219.527368,-10.666546,-0.403515,0.937350,-0.005956,0.018631,-0.000764
1765408219.527618,-10.426229,-0.368245,0.854854,-0.003665,0.026267,0.001374
1765408219.527868,-10.230749,-0.380201,0.619919,-0.002291,0.018326,-0.002443
1765408219.528118,-10.061573,-0.190100,0.361071,0.001680,0.005345,-0.001527
1765408219.528355,-10.149448,0.052009,0.363462,0.001680,0.004734,-0.000458
1765408219.528555,-9.968913,0.245098,0.172166,0.009316,0.011301,0.009163
1765408219.528755,-9.636537,-0.019727,-0.033477,0.004887,0.010079,0.014203
1765408219.528955,-9.509205,-0.010760,-0.161406,0.005803,0.008858,0.011606
1765408219.529155,-9.702294,0.057389,-0.062171,0.003818,0.006567,0.007178
1765408219.529353,-9.922883,0.226566,0.093855,0.008094,0.016952,0.010843
1765408219.529553,-9.899570,0.027499,0.004782,0.005040,0.016952,0.017562
1765408219.529753,-9.805714,-0.168580,-0.026303,0.005192,0.017257,0.012981
1765408219.529953,-9.964130,-0.131516,0.133907,0.005956,0.010385,0.005040
1765408219.530153,-10.182925,0.198470,0.410091,0.004887,0.011148,0.003818
1765408219.530326,-10.115973,0.326399,0.220588,0.005803,0.016952,0.008552
1765408219.530526,-10.002987,0.222979,0.096844,0.005956,0.012217,0.010690
1765408219.530726,-10.002987,0.222979,0.096844,0.005956,0.002902,0.010690
1765408219.530926,-10.245695,0.231946,0.410091,0.005192,0.006414,0.004887
1765408219.531126,-10.174556,0.296509,0.293520,0.004123,0.011606,0.003818
1765408219.531324,-10.089668,0.223577,0.216404,0.000916,0.003818,0.005498
1765408219.531491,-10.191295,0.140483,0.331779,-0.001069,0.000611,0.004581
1765408219.531657,-10.267813,0.211621,0.446557,-0.000305,0.003054,0.001527
1765408219.531824,-10.124342,0.215208,0.240316,-0.000153,-0.001527,0.000153
1765408219.531991,-10.050214,0.215806,0.167384,-0.000153,-0.001527,0.001069
1765408219.532157,-10.217000,0.206839,0.365854,-0.000153,-0.005803,0.001069
1765408219.532320,-10.314442,0.284553,0.534433,-0.007330,-0.004581,-0.001527
1765408219.532570,-10.185316,0.301291,0.364658,-0.005956,-0.004123,-0.007025
1765408219.532820,-10.044236,0.397537,0.178742,-0.010232,-0.010079,-0.006109
1765408219.533070,-10.101624,0.411286,0.308465,-0.013439,-0.010079,-0.001833
1765408219.533379,-10.233739,0.326997,0.513510,-0.012065,-0.012370,0.001069
1765408219.533579,-10.194283,0.198470,0.431014,-0.011301,-0.012065,-0.000305
1765408219.533779,-10.051410,0.082496,0.249880,-0.016952,-0.012065,-0.002902
1765408219.533979,-10.011955,0.061573,0.269010,-0.017410,-0.016493,-0.007330
1765408219.534179,-10.134504,0.108800,0.514108,-0.017104,-0.017410,-0.009316
1765408219.534317,-10.056790,0.081899,0.396939,-0.015424,-0.015730,-0.008552
1765408219.534517,-9.794355,0.034672,0.092061,-0.017715,-0.017715,-0.007178
1765408219.534717,-9.760281,-0.001196,0.066356,-0.017868,-0.017715,-0.007941
1765408219.534917,-9.879243,-0.015543,0.311454,-0.020159,-0.020769,-0.009010
1765408219.535117,-9.954566,-0.029292,0.327594,-0.014813,-0.017410,-0.006872
1765408219.535365,-9.793160,-0.025705,0.126734,-0.014813,-0.015119,-0.006872
1765408219.535615,-9.764465,0.010760,0.166786,-0.018021,-0.015577,-0.008399
1765408219.535865,-9.912720,-0.027499,0.405308,-0.018479,-0.015577,-0.006414
1765408219.536115,-10.014346,-0.071736,0.457317,-0.019242,-0.015424,-0.007636
1765408219.536365,-9.884026,-0.031086,0.291726,-0.015119,-0.011606,-0.009163
1765408219.536565,-9.762074,-0.139885,0.147657,-0.012370,-0.010996,-0.007330
1765408219.536765,-9.872667,-0.187709,0.392157,-0.015882,-0.013592,-0.007941
1765408219.536965,-10.053802,-0.145863,0.566714,-0.016952,-0.016646,-0.008094
1765408219.537165,-9.997607,-0.134505,0.405308,-0.015882,-0.008858,-0.005956
1765408219.537364,-9.808702,-0.114180,0.230751,-0.014203,-0.012370,-0.007636
1765408219.537564,-9.868484,-0.153037,0.406504,-0.014966,-0.012370,-0.003665
1765408219.537764,-10.025107,-0.180536,0.612147,-0.016341,-0.016952,-0.003512
1765408219.537964,-10.008965,-0.237924,0.474653,-0.010232,-0.010537,-0.003512
1765408219.538164,-9.836202,-0.267814,0.276184,-0.009468,-0.008247,-0.004887
1765408219.538318,-9.762074,-0.247489,0.265423,-0.011912,-0.013592,-0.006872
1765408219.538568,-9.875656,-0.215806,0.423242,-0.013134,-0.010996,-0.003665
1765408219.538818,-9.986848,-0.100430,0.526064,-0.007636,-0.010232,-0.005345
1765408219.539068,-9.797344,-0.117767,0.292324,-0.009163,-0.008247,-0.001985
1765408219.539330,-9.664036,-0.196078,0.214610,-0.008552,-0.011912,0.001222
1765408219.539530,-9.790769,-0.251076,0.398135,-0.006720,-0.009621,0.001527
1765408219.539730,-9.965326,-0.267217,0.541009,-0.004429,-0.011759,0.001527
1765408219.539930,-9.965326,-0.267217,0.541009,-0.004429,-0.006414,0.001527
1765408219.540130,-9.808702,-0.181731,0.228360,-0.006109,-0.006261,-0.000305
1765408219.540368,-9.837996,-0.133309,0.349713,-0.003054,-0.008705,0.001069
1765408219.540568,-9.965326,-0.135103,0.559541,-0.004581,-0.007483,0.003971
1765408219.540768,-9.972500,-0.163797,0.434601,-0.004276,-0.003054,0.001527
1765408219.540968,-9.840983,-0.117169,0.285748,-0.002443,-0.003512,0.004429
1765408219.541168,-9.751911,-0.081301,0.188905,-0.000764,-0.005651,0.004887
1765408219.541352,-9.795551,-0.063965,0.347920,-0.000305,-0.003207,0.001680
1765408219.541552,-9.916306,-0.028694,0.377810,-0.000458,-0.003665,0.003818
1765408219.541752,-9.931850,0.008369,0.353898,-0.002138,-0.003818,0.004276
1765408219.541952,-9.871471,-0.003587,0.235533,-0.000764,0.000000,0.004429
1765408219.542152,-9.879243,-0.034672,0.240316,-0.003360,-0.001833,0.005956
1765408219.542316,-9.966521,-0.023912,0.356289,-0.004123,-0.003360,0.005040
1765408219.542516,-10.044236,-0.027499,0.438785,-0.003207,-0.004887,0.005956
1765408219.542716,-10.004781,-0.016141,0.318030,-0.000611,-0.003360,0.005956
1765408219.542916,-9.903154,-0.023314,0.242707,-0.003054,-0.003054,0.004887
1765408219.543116,-9.973098,-0.021521,0.307269,-0.003512,-0.006414,0.003665
1765408219.543388,-10.081299,0.040053,0.438785,-0.001527,-0.003665,0.000764
1765408219.543588,-10.082495,0.066954,0.373027,-0.003360,-0.002596,0.003360
1765408219.543788,-9.994021,0.106408,0.255858,-0.002443,-0.006261,0.004887
1765408219.543988,-9.933045,0.115973,0.246294,-0.003971,-0.003360,0.004429
1765408219.544188,-9.976685,0.057987,0.322214,-0.002596,-0.008247,0.002443
1765408219.544350,-9.973696,0.071138,0.368245,-0.007789,-0.008247,0.001985
1765408219.544550,-9.956957,0.122549,0.294118,-0.006414,-0.004276,-0.000458
1765408219.544750,-9.857722,0.159015,0.179938,-0.005651,-0.005040,0.000305
1765408219.544950,-9.921089,0.105213,0.282162,-0.006414,-0.011148,0.000153
1765408219.545150,-10.035269,0.087279,0.377810,-0.008247,-0.008247,0.002596
1765408219.545417,-10.013150,0.080105,0.367647,-0.009927,-0.005956,0.000305
1765408219.545584,-9.947989,0.066356,0.255858,-0.007330,-0.002291,-0.002749
1765408219.545750,-9.900167,0.059182,0.181731,-0.009621,-0.009316,-0.000153
1765408219.545917,-9.900167,0.059182,0.181731,-0.009621,-0.007025,-0.000153
1765408219.546084,-10.086082,0.108202,0.430416,-0.010232,-0.007025,-0.004123
1765408219.546250,-10.004781,0.047824,0.363462,-0.012065,-0.004581,0.000153
1765408219.546339,-9.968913,0.008369,0.338355,-0.012828,-0.006261,-0.000611
1765408219.546539,-9.964130,0.002391,0.383788,-0.010843,-0.008399,-0.002443
1765408219.546739,-10.010161,0.047226,0.333572,-0.011148,-0.005956,-0.003512
1765408219.546939,-9.997009,0.020325,0.363462,-0.010537,-0.007636,-0.003665
1765408219.547139,-10.026302,0.009565,0.429220,-0.013897,-0.007636,-0.002596
1765408219.547310,-9.992825,-0.007174,0.407102,-0.010996,-0.008399,-0.003360
1765408219.547560,-9.898373,-0.017336,0.259445,-0.011148,-0.010537,-0.002596
1765408219.547810,-9.842180,-0.053802,0.205643,-0.009468,-0.009316,-0.003971
1765408219.548060,-9.897775,-0.086083,0.390363,-0.011148,-0.010079,-0.003818
1765408219.548359,-9.995216,-0.087279,0.421449,-0.010079,-0.010843,-0.004276
1765408219.548559,-9.933643,-0.023912,0.320421,-0.010079,-0.006720,-0.004276
1765408219.548759,-9.891200,0.021521,0.315638,-0.010690,-0.007330,-0.004734
1765408219.548959,-9.913916,-0.078910,0.386179,-0.012523,-0.007330,-0.002443
1765408219.549159,-9.982065,-0.101626,0.456719,-0.010232,-0.006567,-0.005040
1765408219.549367,-9.878048,-0.033477,0.283357,-0.010690,-0.003971,-0.004734
1765408219.549567,-9.878048,-0.033477,0.283357,-0.010690,-0.004123,-0.004734
1765408219.549767,-9.835604,-0.086083,0.315638,-0.008858,-0.006872,-0.001527
1765408219.549967,-9.976685,-0.109397,0.429818,-0.010537,-0.006872,-0.000764
1765408219.550167,-9.940817,-0.083094,0.365854,-0.009621,-0.006109,0.001680
1765408219.550314,-9.829626,-0.117767,0.270206,-0.010079,-0.001527,-0.001985
1765408219.550514,-9.842777,-0.169177,0.273792,-0.009010,-0.005956,-0.001222
1765408219.550714,-10.023911,-0.109995,0.404113,-0.009163,-0.001069,-0.001374
1765408219.550914,-10.075920,-0.099235,0.499761,-0.005498,-0.001069,-0.002291
1765408219.551114,-9.970109,-0.127331,0.360473,-0.009010,0.000153,-0.001680
1765408219.551376,-9.911524,-0.115973,0.309063,-0.007636,-0.005803,-0.000305
1765408219.551576,-9.964130,-0.131516,0.309660,-0.007789,-0.007330,-0.000764
1765408219.551776,-9.964130,-0.131516,0.309660,-0.007789,-0.010385,-0.000764
1765408219.551976,-10.001194,-0.127331,0.387972,-0.006872,-0.006567,-0.001222
1765408219.552176,-9.907339,-0.038259,0.274988,-0.005956,-0.005192,0.000458
1765408219.552405,-9.871471,-0.062171,0.228360,-0.005345,-0.005956,0.001374
1765408219.552605,-9.913916,-0.073529,0.368245,-0.008399,-0.005956,-0.000764
1765408219.552805,-10.027497,-0.057389,0.420851,-0.008399,-0.008552,-0.000764
1765408219.553005,-10.002390,-0.000598,0.424438,-0.005345,-0.008247,0.000000
1765408219.553205,-9.924676,0.014347,0.264228,-0.005651,-0.004581,0.000764
1765408219.553404,-9.857722,0.007174,0.210426,-0.005192,-0.008247,0.001222
1765408219.553604,-9.976088,0.044835,0.356289,-0.007025,-0.010385,-0.001527
1765408219.553804,-9.976088,0.044835,0.356289,-0.007025,-0.004123,-0.001527
1765408219.554004,-10.002987,-0.026901,0.319225,-0.008705,-0.006567,-0.000305
1765408219.554204,-9.950979,-0.046031,0.291129,-0.007636,-0.005192,0.000916
1765408219.554363,-9.988043,0.031086,0.371832,-0.009163,-0.006414,0.000458
1765408219.554563,-10.010161,-0.016738,0.389766,-0.005956,-0.006414,0.001069
1765408219.554763,-10.010161,-0.016738,0.389766,-0.005956,-0.007636,0.001069
1765408219.554963,-9.959349,0.011358,0.319225,-0.009927,-0.005803,0.001833
1765408219.555163,-9.895385,0.010163,0.272597,-0.010232,-0.009010,0.000000
1765408219.555340,-9.890003,-0.016738,0.261239,-0.006567,-0.010690,0.000305
1765408219.555540,-9.976088,-0.018532,0.374223,-0.005345,-0.009774,0.002596
1765408219.555740,-9.976088,-0.023314,0.367049,-0.005192,-0.006872,0.000458
1765408219.555940,-9.891200,0.000000,0.242109,-0.006109,-0.003818,-0.002749
1765408219.556140,-9.868484,0.029890,0.270206,-0.007789,-0.007178,-0.002138
1765408219.556367,-9.909132,-0.013152,0.307867,-0.007941,-0.009163,-0.000916
1765408219.556567,-9.972500,0.011956,0.412482,-0.010232,-0.007025,-0.002902
1765408219.556767,-9.909731,-0.027499,0.309660,-0.007483,-0.004276,-0.001833
1765408219.556967,-9.849353,0.029890,0.228957,-0.006872,-0.003054,-0.002443
1765408219.557167,-9.892395,-0.011956,0.278575,-0.010232,-0.008094,-0.003512
1765408219.557359,-9.961740,-0.047824,0.435198,-0.010232,-0.007178,-0.003512
1765408219.557559,-9.988043,-0.016738,0.380799,-0.009468,-0.005345,-0.000458
1765408219.557759,-9.885221,0.017934,0.280966,-0.007789,-0.005956,-0.000305
1765408219.557959,-9.819464,0.014945,0.227762,-0.007483,-0.004734,-0.001374
1765408219.558159,-9.903154,-0.049020,0.339550,-0.007025,-0.007483,-0.000305
1765408219.558305,-10.010758,-0.070540,0.420253,-0.012370,-0.007025,0.000000
1765408219.558505,-9.971304,-0.009565,0.371832,-0.012370,-0.006109,-0.003665
1765408219.558705,-9.832614,-0.028694,0.216404,-0.009010,-0.006109,0.000153
1765408219.558905,-9.844571,-0.084888,0.231946,-0.009927,-0.007636,0.000458
1765408219.559105,-9.978478,-0.068149,0.407102,-0.008552,-0.007636,-0.001527
1765408219.559314,-10.072333,-0.049020,0.483620,-0.008552,-0.008247,-0.001680
1765408219.559514,-9.924676,-0.056193,0.252272,-0.008247,-0.001222,-0.000764
1765408219.559714,-9.845766,-0.056193,0.203252,-0.010385,-0.006872,-0.000611
1765408219.559914,-9.956359,-0.046628,0.362865,-0.008858,-0.006414,0.000305
1765408219.560114,-9.999999,-0.059780,0.434003,-0.008552,-0.006414,0.002138
1765408219.560398,-9.925871,-0.096844,0.266619,-0.009774,-0.006109,-0.000764
1765408219.560598,-9.854733,-0.047226,0.184122,-0.004429,-0.004734,-0.003207
1765408219.560798,-9.905546,0.020325,0.292922,-0.007941,-0.008094,-0.001069
1765408219.560998,-9.965326,-0.003587,0.424438,-0.008858,-0.010537,0.001069
1765408219.561198,-9.945002,-0.099235,0.347920,-0.006261,-0.009010,0.000305
1765408219.561364,-9.913317,-0.050215,0.266619,-0.008094,-0.007941,0.001222
1765408219.561564,-9.907937,-0.023912,0.308465,-0.007483,-0.003818,-0.000305
1765408219.561764,-9.916306,0.005978,0.358082,-0.008705,-0.009316,-0.001374
1765408219.561964,-9.933045,-0.046031,0.393950,-0.007178,-0.008399,0.001680
1765408219.562164,-9.725011,-0.235533,0.656384,-0.009468,-0.008552,0.001069
1765408219.562270,-9.338832,-0.057987,-0.072932,-0.009774,-0.003360,-0.007025
1765408219.562470,-9.288616,0.387374,-0.322812,-0.010690,0.001374,-0.012828
1765408219.562670,-9.855330,0.249880,0.847083,-0.004429,0.004276,0.010232
1765408219.562870,-9.950979,-0.187111,1.158536,-0.005803,0.001527,0.013897
1765408219.563070,-9.717837,-0.206839,0.412482,-0.015272,0.009163,-0.008094
1765408219.563318,-9.595885,-0.249880,-0.265423,-0.013439,0.002138,-0.000764
1765408219.563518,-9.697512,-0.374223,-0.153037,-0.000458,0.000611,0.004123
1765408219.563718,-10.251074,0.163797,0.898493,0.001680,0.000611,-0.013439
1765408219.563918,-10.539214,0.511717,1.369560,-0.012217,0.019090,-0.009316
1765408219.564118,-9.822452,0.173362,0.203252,-0.011454,0.015119,0.010690
1765408219.564310,-9.662840,-0.438785,-0.028694,-0.005651,-0.012217,0.015424
1765408219.564560,-9.855330,-0.612147,0.358680,-0.010690,0.011301,-0.004734
1765408219.564810,-10.090266,0.114778,0.639646,-0.005345,0.011301,-0.019700
1765408219.565060,-9.857722,0.490196,0.151841,-0.007330,0.006414,-0.007636
1765408219.565326,-9.672404,0.255858,-0.019130,-0.010537,0.002443,0.007789
1765408219.565526,-9.818267,-0.141081,0.399330,-0.005040,0.002749,0.008094
1765408219.565726,-9.956957,-0.302487,0.607365,-0.008094,0.010079,0.001527
1765408219.565926,-9.855330,-0.277379,0.242707,-0.007941,0.004123,-0.006109
1765408219.566126,-9.770443,0.009565,0.028694,-0.006720,0.000764,-0.009163
1765408219.566261,-9.891200,0.340148,0.337159,-0.008094,0.012523,-0.006567
1765408219.566461,-9.980869,0.279173,0.579866,-0.012217,0.012523,0.000611
1765408219.566661,-9.980869,0.279173,0.579866,-0.012217,0.004581,0.000611
1765408219.566861,-9.831419,-0.274988,0.063367,-0.009468,-0.002749,0.001374
1765408219.567061,-9.888808,-0.186514,0.290531,-0.007789,0.006414,-0.004581
1765408219.567290,-9.852941,0.055595,0.333572,-0.005040,0.006414,-0.006720
1765408219.567490,-9.823050,0.137494,0.204448,-0.008399,0.006414,-0.004581
1765408219.567690,-9.823050,0.137494,0.204448,-0.008399,0.005803,-0.004581
1765408219.567890,-10.099234,-0.058584,0.456719,-0.010690,0.010690,0.008094
1765408219.568090,-10.073528,-0.356289,0.512912,-0.006872,0.010537,0.005956
1765408219.568282,-9.897178,-0.343137,0.223577,-0.010843,0.005040,-0.001985
1765408219.568482,-9.886416,-0.005978,0.193687,-0.007941,0.004581,-0.012675
1765408219.568682,-9.886416,-0.005978,0.193687,-0.007941,0.005651,-0.012675
1765408219.568882,-10.003586,0.198470,0.389766,-0.008705,0.009774,0.002291
1765408219.569082,-9.997607,-0.060378,0.439981,-0.009468,0.009774,0.005651
1765408219.569341,-9.895385,-0.252272,0.302487,-0.012828,0.005192,0.004276
1765408219.569541,-9.921089,-0.289335,0.161406,-0.010843,-0.001527,-0.004123
1765408219.569741,-10.000596,-0.032879,0.283357,-0.004734,0.001527,-0.008094
1765408219.569941,-10.031085,0.175753,0.365256,-0.003054,0.005956,-0.005498
1765408219.570141,-9.936632,0.215208,0.306074,-0.008705,0.007025,-0.001222
1765408219.570267,-9.932447,0.029292,0.321019,-0.008858,0.005803,0.003360
1765408219.570467,-10.032280,-0.157221,0.404113,-0.010079,0.003512,0.007178
1765408219.570667,-10.084887,-0.228360,0.438785,-0.008399,0.005192,0.002443
1765408219.570867,-9.988641,-0.125538,0.269010,-0.007025,0.007025,-0.004581
1765408219.571067,-10.004781,0.007174,0.252272,-0.010385,0.001527,-0.005803
1765408219.571324,-10.059779,0.137494,0.280368,-0.010385,-0.001985,-0.005803
1765408219.571524,-10.063366,0.116571,0.337159,-0.008705,0.005345,0.003971
1765408219.571724,-10.001194,-0.011358,0.325203,-0.008858,0.005345,0.005345
1765408219.571924,-10.076518,-0.184122,0.411286,-0.012523,0.001374,0.001680
1765408219.572124,-10.166784,-0.180536,0.432807,-0.008399,-0.000153,0.000611
1765408219.572298,-10.145862,-0.066356,0.313845,-0.007025,0.000305,0.000611
1765408219.572498,-9.936632,0.094452,0.203252,-0.006414,0.000764,-0.003054
1765408219.572698,-9.857722,0.073529,0.106408,-0.009774,-0.003054,0.000000
1765408219.572898,-9.988043,0.065758,0.290531,-0.008705,-0.005192,0.002596
1765408219.573098,-10.127929,-0.051411,0.442372,-0.006261,-0.003512,0.002749
1765408219.573346,-10.017933,-0.159015,0.344333,-0.005498,0.000458,-0.000458
1765408219.573546,-9.952174,-0.135103,0.249283,-0.006567,-0.000611,-0.001985
1765408219.573746,-10.043041,-0.016738,0.300096,-0.004887,-0.007636,-0.004123
1765408219.573946,-10.068149,0.094452,0.341942,-0.005192,-0.005651,-0.001527
1765408219.574146,-9.992825,0.113582,0.276184,-0.006261,-0.002291,0.001985
1765408219.574368,-9.869678,0.028694,0.188307,-0.007941,-0.003971,0.001985
1765408219.574868,-9.976088,-0.060976,0.377810,-0.011454,-0.007941,0.000305
1765408219.576300,-10.059181,-0.135701,0.429220,-0.009010,-0.007025,0.000916
1765408219.579251,-9.983858,-0.110593,0.308465,-0.007025,-0.007025,-0.005040
1765408219.580282,-9.866092,0.019130,0.145265,-0.009621,-0.003207,-0.006567
1765408219.584285,-9.900167,0.135103,0.243902,-0.004887,-0.006872,-0.001527
1765408219.586282,-10.060975,0.096844,0.464491,-0.006720,-0.007483,0.001374
1765408219.589357,-10.060975,0.096844,0.464491,-0.006720,-0.002291,0.001374
1765408219.591337,-9.939023,-0.203252,0.263032,-0.012828,-0.002902,0.002902
1765408219.594288,-9.895982,-0.166188,0.253467,-0.009163,-0.007789,-0.003971
1765408219.597328,-10.010161,-0.017934,0.421449,-0.006720,-0.010996,-0.003512
1765408219.597828,-9.985652,0.098039,0.428025,-0.005040,-0.006261,-0.002749
1765408219.600304,-9.878646,0.091463,0.237924,-0.005345,-0.007330,-0.000305
1765408219.604277,-9.796746,-0.037064,0.208034,-0.008247,-0.007789,0.003512
1765408219.605325,-9.930654,-0.123745,0.355691,-0.007941,-0.009468,0.001985
1765408219.609342,-9.941415,-0.145863,0.308465,-0.009774,-0.007025,0.001374
1765408219.610248,-9.827832,-0.059780,0.263032,-0.007025,-0.009468,-0.004123
1765408219.614253,-9.860114,0.123147,0.276184,-0.005651,-0.003665,-0.003054
1765408219.617270,-9.873264,0.112984,0.272597,-0.009927,-0.003971,-0.000611
1765408219.619291,-9.942013,-0.033477,0.341942,-0.011148,-0.010537,0.004429
1765408219.622294,-9.904350,-0.125538,0.344333,-0.010843,-0.007330,0.002596
1765408219.624302,-9.905546,-0.163797,0.325203,-0.009316,-0.003360,-0.002902
1765408219.627333,-9.876852,-0.022119,0.297704,-0.005498,-0.003971,-0.002291
1765408219.629313,-9.939023,0.092061,0.285748,-0.005956,-0.006872,-0.002749
1765408219.631286,-9.927666,0.088474,0.334768,-0.009621,-0.005803,-0.000305
1765408219.634237,-9.940218,-0.038857,0.315638,-0.007941,-0.005803,0.001222
1765408219.636238,-9.866689,-0.118364,0.298302,-0.008705,-0.009621,0.002138
1765408219.639433,-9.897178,-0.080105,0.294715,-0.009621,-0.006720,-0.003665
1765408219.642290,-9.824244,-0.093257,0.249880,-0.009468,-0.003054,-0.001680
1765408219.644311,-9.882233,-0.037661,0.236729,-0.007941,-0.009010,0.000000
1765408219.647259,-9.977283,0.024510,0.390961,-0.008399,-0.003665,-0.002443
1765408219.649299,-10.008368,0.048422,0.453132,-0.009774,-0.000458,-0.000305
1765408219.652277,-9.928263,-0.069345,0.335964,-0.008705,-0.004123,0.000000
1765408219.654273,-10.009563,-0.059780,0.344333,-0.009621,-0.005498,-0.002138
1765408219.655253,-10.153036,-0.047226,0.524868,-0.009010,-0.000916,-0.003512
1765408219.657370,-10.068149,-0.068149,0.407700,-0.007941,-0.000916,-0.001985
1765408219.661345,-9.900167,-0.029292,0.185318,-0.007941,-0.003360,-0.001985
1765408219.664271,-9.929459,0.057389,0.304280,-0.008705,-0.001985,-0.002443
1765408219.667289,-9.965924,0.000000,0.425634,-0.004734,-0.002596,-0.001069
1765408219.670147,-9.984456,-0.041248,0.364658,-0.008399,-0.003360,-0.000153
1765408219.671316,-9.880439,-0.010163,0.209230,-0.006872,-0.001680,0.000458
1765408219.672249,-9.851745,-0.061573,0.263630,-0.007483,-0.000764,-0.002443
1765408219.677269,-9.903154,-0.060976,0.304878,-0.005651,-0.005956,-0.000916
1765408219.679273,-9.973696,0.017934,0.340746,-0.007178,-0.005956,-0.002138
1765408219.682279,-9.978478,0.064562,0.361071,-0.008858,-0.001374,-0.004429
1765408219.685373,-9.927666,0.017336,0.289335,-0.009010,-0.000611,0.000305
1765408219.687234,-9.959349,-0.054400,0.295313,-0.008705,-0.004734,0.002902
1765408219.689294,-10.046627,-0.056193,0.347920,-0.008399,-0.006567,-0.002902
1765408219.690310,-10.067551,-0.075323,0.413678,-0.006567,-0.006567,-0.002902
1765408219.693264,-9.936632,-0.081301,0.281564,-0.010079,-0.005040,-0.004581
1765408219.696256,-9.884026,0.033477,0.198470,-0.008858,-0.001985,-0.003512
1765408219.699253,-9.848158,0.096844,0.242707,-0.007789,-0.003360,-0.002291
1765408219.700279,-9.876852,0.035868,0.255858,-0.008247,-0.004276,0.000458
1765408219.704305,-9.925871,-0.043639,0.260641,-0.010385,-0.002749,-0.000458
1765408219.707255,-9.986250,-0.051411,0.295911,-0.010843,0.000611,-0.003665
1765408219.709279,-10.007172,-0.084888,0.337159,-0.006261,-0.003818,-0.003054
1765408219.711304,-9.928861,-0.069345,0.259445,-0.008705,-0.007178,-0.002596
1765408219.714288,-9.958152,0.007174,0.313247,-0.010537,-0.008247,-0.006720
1765408219.715331,-9.929459,0.044237,0.280966,-0.010537,-0.002596,-0.004429
1765408219.719338,-9.898971,-0.024510,0.259445,-0.006109,-0.004887,0.000764
1765408219.722274,-9.953370,-0.087279,0.343137,-0.005651,-0.002138,-0.002749
1765408219.724288,-10.016139,-0.084888,0.356289,-0.009010,-0.002138,-0.003818
1765408219.727248,-10.016139,-0.084888,0.356289,-0.009010,-0.005651,-0.003818
1765408219.729392,-9.878048,-0.004782,0.237924,-0.004734,-0.006414,-0.005040
1765408219.732286,-10.004781,0.062171,0.396341,-0.008552,-0.003512,-0.003818
1765408219.734269,-9.985652,0.016141,0.380201,-0.008552,-0.005192,-0.001374
1765408219.735308,-9.936632,-0.076518,0.246294,-0.007178,-0.005192,-0.002902
1765408219.739295,-10.015541,-0.078910,0.380201,-0.006720,-0.003818,-0.006720
1765408219.740313,-10.068149,-0.102822,0.436394,-0.006109,-0.006567,-0.007178
1765408219.744348,-9.992825,-0.104017,0.270206,-0.005498,-0.006567,-0.004429
1765408219.745365,-9.895982,-0.011956,0.234338,-0.002902,-0.008399,-0.005651
1765408219.749378,-9.909731,0.053802,0.300096,-0.006567,-0.003207,-0.003360
1765408219.752237,-9.925871,-0.003587,0.261239,-0.005345,-0.005651,-0.000458
1765408219.754284,-9.945002,-0.052009,0.335964,-0.004734,-0.010385,-0.003665
1765408219.756342,-9.916306,-0.046628,0.334170,-0.004429,-0.005192,-0.005956
1765408219.759342,-9.866689,-0.074725,0.248685,-0.006720,-0.003971,-0.005651
1765408219.763658,-9.824843,-0.054400,0.164993,-0.004276,-0.009010,-0.003207
1765408219.764297,-9.967718,0.023314,0.371832,-0.005803,-0.009927,-0.004276
1765408219.765307,-10.043041,0.010760,0.411286,-0.007483,-0.005040,-0.002596
1765408219.770134,-9.986250,-0.080105,0.311454,-0.004887,-0.005956,-0.001985
1765408219.770634,-9.974891,-0.081301,0.273792,-0.004734,-0.004887,-0.002749
1765408219.774255,-10.070539,-0.023912,0.444165,-0.006109,-0.004123,-0.003971
1765408219.777309,-10.013748,-0.093257,0.398135,-0.008094,-0.005651,-0.003054
1765408219.777809,-9.907937,-0.105213,0.207437,-0.005192,-0.012370,-0.003512
1765408219.782325,-9.905546,-0.013152,0.205643,-0.006414,-0.008399,-0.005040
1765408219.782825,-9.916306,0.016738,0.274988,-0.006414,-0.006261,-0.005040
1765408219.787214,-9.994021,-0.017934,0.307269,-0.002443,-0.008858,-0.002596
1765408219.789245,-10.028693,-0.057389,0.326399,0.000000,-0.007330,-0.003512
1765408219.791252,-9.921089,-0.082496,0.333572,-0.001985,-0.008399,-0.003665
1765408219.792263,-9.882831,-0.148254,0.160210,-0.003207,-0.008399,-0.004123
1765408219.797289,-9.903154,-0.146461,0.160808,-0.001222,-0.009163,-0.006414
1765408219.799241,-10.018531,-0.008369,0.356887,0.000000,-0.007483,-0.008247
1765408219.802313,-10.015541,0.079507,0.394548,-0.003818,-0.005498,-0.007025
1765408219.804289,-10.011955,0.087877,0.344333,-0.000611,-0.006720,-0.005956
1765408219.805281,-9.934240,-0.022716,0.310856,-0.001527,-0.006720,-0.003971
1765408219.809289,-9.983260,-0.101626,0.366451,-0.002138,-0.007636,-0.004429
1765408219.810236,-9.980272,-0.111191,0.292922,-0.002138,-0.005651,-0.007941
1765408219.814230,-9.966521,0.035868,0.208034,-0.000305,-0.010537,-0.007941
1765408219.817286,-9.886416,0.090866,0.166188,0.000458,-0.010996,-0.005498
1765408219.819275,-9.952174,-0.042444,0.246294,-0.001069,-0.009621,-0.001680
1765408219.821310,-9.996411,-0.057987,0.362267,0.001069,-0.010537,-0.003360
1765408219.824235,-10.054399,-0.047824,0.444763,-0.002596,-0.008399,-0.005498
1765408219.827230,-9.957555,-0.095648,0.282162,-0.003665,-0.009927,-0.009163
1765408219.829323,-9.953370,-0.045433,0.221186,-0.004734,-0.012523,-0.008247
1765408219.830276,-10.049019,0.064562,0.331779,-0.003665,-0.012523,-0.007483
1765408219.834309,-10.035867,0.136896,0.399928,-0.005345,-0.011912,-0.004734
1765408219.835247,-9.976088,0.011956,0.345528,-0.006414,-0.009468,-0.001985
1765408219.839225,-9.959946,-0.023912,0.269010,-0.005192,-0.006261,-0.002138
1765408219.841356,-10.027497,-0.059780,0.392157,-0.004887,-0.007941,-0.005498
1765408219.844306,-9.940218,-0.126136,0.365854,-0.001527,-0.010385,-0.003207
1765408219.847220,-10.002390,-0.083692,0.255858,-0.001680,-0.012981,-0.007941
1765408219.847720,-9.925274,0.054998,0.264228,-0.001374,-0.008552,-0.010690
1765408219.851394,-9.873264,0.051411,0.236729,-0.001680,-0.007483,-0.006414
1765408219.854273,-9.857125,0.002391,0.263032,0.001833,-0.008705,-0.004429
1765408219.856276,-10.042442,-0.048422,0.432209,-0.000764,-0.012675,-0.004276
1765408219.860065,-10.031085,-0.107604,0.466882,-0.000764,-0.009774,-0.004276
1765408219.862255,-9.945002,-0.143472,0.248087,-0.002902,-0.012828,-0.006720
1765408219.864259,-9.988043,0.053802,0.301291,-0.003665,-0.012828,-0.012523
1765408219.867259,-9.988043,0.053802,0.301291,-0.003665,-0.010996,-0.012523
1765408219.869266,-10.010758,0.075921,0.407700,-0.002902,-0.009163,-0.005498
1765408219.872240,-9.985053,-0.129125,0.255858,-0.002902,-0.010232,-0.005498
1765408219.874226,-9.948587,-0.304280,0.292922,0.000458,-0.011912,-0.004887
1765408219.877282,-9.892395,-0.208034,0.308465,0.002291,-0.011912,-0.009316
1765408219.879275,-9.879841,0.019130,0.357484,0.000916,-0.010843,-0.015119
1765408219.882280,-9.953370,0.182329,0.308465,0.000764,-0.007330,-0.011759
1765408219.884315,-9.934838,0.117767,0.264228,0.002138,-0.009010,-0.001069
1765408219.887283,-9.934838,0.117767,0.264228,0.002138,-0.010232,-0.001069
1765408219.889325,-9.893590,-0.072932,0.291726,-0.004276,-0.008399,-0.007483
1765408219.892283,-9.978478,-0.172166,0.236729,0.000916,-0.009163,-0.008399
1765408219.894225,-9.974294,-0.075323,0.425634,0.004123,-0.006720,-0.009010
1765408219.897316,-10.076518,0.063367,0.509326,0.001222,-0.006720,-0.011301
1765408219.899203,-9.955164,0.001196,0.395744,-0.003665,-0.005651,-0.004734
1765408219.902285,-9.864896,-0.089072,0.187709,0.000764,-0.010843,-0.002138
1765408219.904283,-10.054996,-0.161406,0.377810,0.001374,-0.014966,-0.004581
1765408219.906294,-10.170969,-0.173362,0.469871,-0.001985,-0.011759,-0.010232
1765408219.909319,-10.075322,-0.097441,0.322812,0.000305,-0.011759,-0.010385
1765408219.912279,-9.923481,-0.023912,0.249283,0.000305,-0.013439,-0.010385
1765408219.914284,-9.892395,0.037064,0.228957,-0.000305,-0.014661,-0.010385
1765408219.916347,-9.850550,-0.049617,0.156026,0.000458,-0.017715,-0.005498
1765408219.919222,-9.884026,-0.118364,0.225371,0.002138,-0.009010,-0.007941
1765408219.921266,-9.895982,-0.095050,0.164993,0.000916,-0.009010,-0.010232
1765408219.924205,-9.895982,-0.095050,0.164993,0.000916,-0.011148,-0.010232
1765408219.925256,-9.870276,-0.065758,0.178742,0.001985,-0.010996,-0.011454
1765408219.929223,-10.109396,0.099235,0.571497,0.002902,-0.010996,-0.013134
1765408219.930250,-10.152438,0.068149,0.621712,-0.001680,-0.012065,-0.007330
1765408219.934232,-9.950979,-0.032879,0.253467,-0.001069,-0.012065,-0.002138
1765408219.937279,-9.858320,-0.122549,0.269010,0.001680,-0.014203,-0.005803
1765408219.939234,-10.040051,-0.089670,0.424438,-0.001985,-0.015119,-0.007025
1765408219.942258,-10.131515,-0.164993,0.459110,-0.000305,-0.020006,-0.009010
1765408219.944266,-9.998802,-0.117169,0.291129,-0.000305,-0.015730,-0.009010
1765408219.947222,-9.886416,0.083692,0.178144,0.001222,-0.015730,-0.009927
1765408219.949260,-9.779410,-0.046628,0.150646,0.003054,-0.014355,-0.008399
1765408219.952280,-9.843375,-0.105213,0.200861,0.001680,-0.020464,-0.007636
1765408219.953283,-9.986848,-0.111789,0.309660,0.005956,-0.018326,-0.008552
1765408219.957264,-9.928263,-0.106408,0.221784,0.006414,-0.008858,-0.007636
1765408219.959308,-9.979673,-0.019130,0.288140,0.005498,-0.010690,-0.010537
1765408219.962216,-10.104613,-0.038259,0.468675,0.004581,-0.014966,-0.013744
1765408219.964214,-10.092658,0.044237,0.448350,0.004734,-0.011148,-0.012981
1765408219.967246,-9.809898,-0.006576,0.149450,0.003971,-0.011148,-0.009010
1765408219.969291,-9.735771,-0.090866,0.222979,0.003971,-0.015272,-0.010079
1765408219.972214,-9.989238,0.054998,0.356289,0.005803,-0.015882,-0.012828
1765408219.974233,-10.096244,-0.008369,0.521282,0.004123,-0.018173,-0.007178
1765408219.977333,-9.821257,-0.090866,0.289933,0.005956,-0.018173,-0.005956
1765408219.979273,-9.861309,-0.011956,0.243902,0.006567,-0.018173,-0.013286
1765408219.980260,-9.978478,0.039455,0.353898,0.000000,-0.018784,-0.012828
1765408219.982195,-10.064561,-0.039455,0.347322,0.003665,-0.025656,-0.007941
1765408219.987254,-9.968315,0.004185,0.292922,0.003971,-0.017562,-0.011301
1765408219.989238,-9.854136,0.018532,0.248087,0.003054,-0.016188,-0.013439
1765408219.992232,-9.931850,-0.100430,0.291129,0.001527,-0.016188,-0.008399
1765408219.994220,-10.028693,-0.035868,0.363462,0.003665,-0.022144,-0.007330
1765408219.997246,-10.027497,-0.025108,0.497370,0.005956,-0.016646,-0.013592
1765408219.999214,-9.851745,-0.025108,0.285151,0.004581,-0.012981,-0.011148
1765408220.001241,-9.744141,0.000598,0.141081,0.005498,-0.018937,-0.008705
1765408220.004278,-9.942610,-0.087279,0.393352,0.006567,-0.025198,-0.009010
1765408220.005310,-10.031085,-0.123147,0.330583,0.005956,-0.019242,-0.008858
1765408220.009284,-10.002987,-0.104017,0.250478,0.006261,-0.016799,-0.010232
1765408220.010270,-9.886416,-0.102822,0.239120,0.004581,-0.014966,-0.011912
1765408220.014251,-9.880439,-0.035868,0.151841,0.002291,-0.020922,-0.011454
1765408220.017278,-10.080104,-0.068149,0.477044,0.003818,-0.020464,-0.011606
1765408220.019264,-9.939023,-0.043042,0.352702,0.008705,-0.012675,-0.013134
1765408220.021309,-9.794952,-0.069345,0.105811,0.008247,-0.013439,-0.008094
1765408220.024254,-9.833213,-0.180536,0.099235,0.008705,-0.018479,-0.015119
1765408220.026256,-9.965924,-0.144668,0.400526,0.009468,-0.016035,-0.014508
1765408220.029236,-9.921089,-0.017934,0.402917,0.008247,-0.012065,-0.016493
1765408220.032320,-9.719033,0.098039,0.131516,0.006261,-0.011759,-0.017104
1765408220.034233,-9.803323,0.050215,0.001196,0.004734,-0.016952,-0.010232
1765408220.037242,-10.069344,-0.008369,0.374223,0.009774,-0.016952,-0.007636
1765408220.039210,-10.166186,-0.123745,0.566714,0.009163,-0.012370,-0.010843
1765408220.041290,-9.926469,-0.090866,0.357484,0.007789,-0.004734,-0.013439
1765408220.044244,-9.827832,-0.222979,0.259445,0.006567,-0.012065,-0.013744
1765408220.046226,-9.827832,-0.008967,0.273792,0.010537,-0.016035,-0.014966
1765408220.049339,-10.065758,0.064562,0.487207,0.008552,-0.019395,-0.014813
1765408220.051275,-10.065758,0.064562,0.487207,0.008552,-0.014355,-0.014813
1765408220.052342,-9.875656,-0.120158,0.211621,0.004123,-0.020464,-0.011301
1765408220.057453,-9.906742,-0.100430,0.297704,0.009163,-0.020617,-0.012370
1765408220.059336,-10.044236,-0.139885,0.497370,0.010996,-0.027642,-0.016493
1765408220.061305,-9.991630,-0.051411,0.445959,0.009927,-0.024740,-0.016188
1765408220.064336,-10.008368,-0.075323,0.254663,0.009927,-0.023671,-0.018326
1765408220.066262,-9.874461,0.155428,0.106408,0.016035,-0.023060,-0.015272
1765408220.069267,-9.943806,-0.047226,0.328790,0.009163,-0.023060,-0.011148
1765408220.071253,-10.047822,0.066356,0.438187,0.009774,-0.019853,-0.013744
1765408220.074288,-10.035269,-0.216404,0.261836,0.003054,-0.019090,-0.012065
1765408220.077282,-9.876852,-0.086681,0.224773,0.008552,-0.018937,-0.016799
1765408220.079205,-9.763269,-0.055595,0.086083,0.010385,-0.015577,-0.017868
1765408220.081228,-9.992825,0.105213,0.420851,0.008399,-0.015577,-0.014355
1765408220.084239,-9.992825,0.105213,0.420851,0.008399,-0.019090,-0.014355
1765408220.087250,-9.938425,-0.126734,0.322812,0.011454,-0.015882,-0.013592
1765408220.087750,-9.961740,-0.131516,0.313845,0.009927,-0.019548,-0.018021
1765408220.090233,-10.071735,-0.105811,0.554758,0.013134,-0.015119,-0.015882
1765408220.094387,-9.933045,-0.138690,0.290531,0.016035,-0.024587,-0.015272
1765408220.095273,-9.933045,-0.138690,0.290531,0.016035,-0.025656,-0.015272
1765408220.099256,-9.840983,0.057389,0.059780,0.012675,-0.021380,-0.015272
1765408220.102217,-10.005977,0.047226,0.163199,0.012370,-0.021380,-0.012981
1765408220.104189,-10.150046,-0.080703,0.568508,0.011301,-0.017715,-0.010537
1765408220.107186,-10.222381,-0.155428,0.628886,0.008858,-0.018021,-0.014203
1765408220.109300,-10.037063,-0.254663,0.374223,0.010537,-0.016493,-0.015119
1765408220.111258,-9.744739,-0.016738,-0.004185,0.014813,-0.025351,-0.019242
1765408220.114227,-9.994618,0.061573,0.296509,0.009468,-0.025351,-0.017868
1765408220.116268,-10.080104,0.094452,0.585246,0.010996,-0.019395,-0.014508
1765408220.119237,-10.163198,-0.138690,0.455524,0.010385,-0.018173,-0.012523
1765408220.122220,-9.995216,-0.064562,0.318030,0.016799,-0.016952,-0.013897
1765408220.124283,-9.962935,-0.156624,0.267814,0.009010,-0.021380,-0.015577
1765408220.127289,-10.284551,-0.042444,0.706600,0.012370,-0.027031,-0.015424
1765408220.129320,-10.237924,-0.052606,0.539813,0.011912,-0.021686,-0.018173
1765408220.130218,-10.095646,0.028694,0.420851,0.011759,-0.020617,-0.016952
1765408220.134293,-9.771639,-0.070540,-0.004782,0.012523,-0.020464,-0.016188
1765408220.137344,-10.113581,-0.038259,0.500359,0.017104,-0.028711,-0.015424
1765408220.139287,-10.129722,-0.041846,0.471066,0.014966,-0.018173,-0.016952
1765408220.142271,-10.129722,-0.041846,0.471066,0.014966,-0.028405,-0.016952
1765408220.144303,-9.687947,-0.241511,0.070540,0.012217,-0.028863,-0.018173
1765408220.146244,-9.878048,-0.013152,0.025108,0.017257,-0.037568,-0.021380
1765408220.149329,-10.049019,0.123147,0.388570,0.016493,-0.028711,-0.018631
1765408220.150232,-10.056191,0.060976,0.395744,0.015119,-0.020617,-0.016646
1765408220.155296,-9.980869,-0.103419,0.374223,0.015119,-0.023366,-0.012675
1765408220.157396,-9.805116,-0.172166,0.279770,0.014661,-0.023366,-0.015577
1765408220.159327,-9.930654,-0.153037,0.349115,0.014203,-0.024893,-0.019242
1765408220.161290,-9.721423,-0.068747,0.123147,0.017410,-0.031460,-0.018784
1765408220.162290,-9.929459,0.034672,0.395744,0.019548,-0.031307,-0.020617
1765408220.167226,-9.772835,-0.008369,-0.031086,0.020769,-0.026114,-0.016646
1765408220.169286,-9.863700,-0.141081,0.267814,0.016646,-0.030391,-0.015730
1765408220.172241,-9.956957,-0.010760,0.239120,0.016188,-0.025962,-0.020922
1765408220.174224,-10.215207,0.027499,0.585246,0.016493,-0.023824,-0.015424
1765408220.177284,-10.056191,-0.174558,0.444763,0.015577,-0.021686,-0.015577
1765408220.179248,-9.881634,-0.045433,0.223577,0.016952,-0.024740,-0.020617
1765408220.181272,-10.016139,-0.116571,0.414873,0.016035,-0.029932,-0.022755
1765408220.184228,-9.947989,-0.031086,0.285748,0.017562,-0.029932,-0.023060
1765408220.186263,-10.005977,0.049020,0.398135,0.019242,-0.031918,-0.020006
1765408220.189219,-9.880439,-0.056193,0.288737,0.016646,-0.021686,-0.022602
1765408220.192183,-10.033475,-0.066954,0.417264,0.018173,-0.029169,-0.021686
1765408220.194231,-9.962935,-0.133907,0.328790,0.018326,-0.031001,-0.020922
1765408220.197258,-9.966521,-0.064562,0.289335,0.018937,-0.032223,-0.023518
1765408220.199232,-9.928263,0.008369,0.303682,0.018326,-0.022755,-0.022449
1765408220.202232,-9.900764,-0.059780,0.327594,0.017562,-0.028711,-0.017104
1765408220.202732,-10.026900,-0.008369,0.373027,0.018479,-0.028711,-0.021686
1765408220.207235,-10.064561,-0.073529,0.502750,0.017410,-0.029780,-0.020006
1765408220.209243,-9.958751,-0.254663,0.474653,0.013897,-0.026725,-0.018937
1765408220.212274,-9.808105,-0.151243,0.059182,0.021380,-0.031765,-0.021991
1765408220.212774,-9.948587,-0.032281,0.326399,0.017410,-0.029780,-0.028100
1765408220.217237,-9.977283,0.023912,0.313247,0.018937,-0.029780,-0.025656
1765408220.219270,-9.970109,-0.080105,0.391559,0.016952,-0.026267,-0.020617
1765408220.221326,-9.945002,-0.096844,0.369440,0.018326,-0.025504,-0.021533
1765408220.224256,-10.067551,-0.096246,0.442970,0.017410,-0.027336,-0.024282
1765408220.226248,-10.050812,-0.114778,0.356289,0.020464,-0.031460,-0.023060
1765408220.229246,-10.106407,-0.086083,0.395744,0.022144,-0.031612,-0.027642
1765408220.231228,-10.092658,-0.025108,0.414275,0.020617,-0.021991,-0.026420
1765408220.234288,-9.894786,-0.000598,0.329986,0.018479,-0.025809,-0.023824
1765408220.237305,-10.026302,-0.023912,0.487805,0.018326,-0.029169,-0.024435
1765408220.239255,-10.224771,-0.083692,0.669536,0.018937,-0.026267,-0.023366
1765408220.242229,-10.002390,-0.245098,0.511717,0.020769,-0.026267,-0.022449
1765408220.244258,-9.794355,-0.157221,0.077116,0.023976,-0.030696,-0.027031
1765408220.247236,-9.741750,-0.056791,0.096844,0.022755,-0.030849,-0.025809
1765408220.249242,-9.924676,0.060976,0.366451,0.020769,-0.032223,-0.027031
1765408220.252200,-9.943806,-0.120756,0.282162,0.020769,-0.028558,-0.021991
1765408220.254267,-9.858918,-0.129125,0.333572,0.022144,-0.028558,-0.022907
1765408220.256212,-9.871471,-0.093855,0.237924,0.026114,-0.026725,-0.024129
1765408220.259860,-10.002987,-0.276781,0.410689,0.024282,-0.032681,-0.023060
1765408220.262221,-9.887612,-0.243902,0.172166,0.023366,-0.036346,-0.028558
1765408220.264183,-9.911524,0.056791,0.194285,0.025198,-0.027336,-0.031154
1765408220.267178,-9.791965,0.039455,0.263032,0.020769,-0.020464,-0.026725
1765408220.269282,-9.791965,0.039455,0.263032,0.020769,-0.025656,-0.026725
1765408220.272177,-10.094451,0.006576,0.640842,0.022449,-0.028711,-0.020922
1765408220.274171,-10.025704,-0.237924,0.504543,0.024587,-0.028711,-0.021838
1765408220.276164,-10.025704,-0.237924,0.504543,0.024587,-0.031460,-0.021838
1765408220.279181,-9.826636,-0.104017,0.187709,0.024129,-0.033903,-0.032529
1765408220.282198,-10.061573,0.034672,0.533238,0.023213,-0.027184,-0.030849
1765408220.284169,-10.016738,0.032281,0.504543,0.023976,-0.031918,-0.022907
1765408220.287218,-9.959349,-0.136298,0.352104,0.023518,-0.031918,-0.025045
1765408220.289214,-10.013150,-0.055595,0.270206,0.028405,-0.034361,-0.025351
1765408220.292195,-9.891200,-0.209230,0.310856,0.029322,-0.028405,-0.023518
1765408220.294173,-9.822452,-0.301291,0.216404,0.027794,-0.031001,-0.025045
1765408220.296225,-9.991032,-0.147059,0.391559,0.025504,-0.029932,-0.033445
1765408220.299201,-10.027497,0.001196,0.462697,0.027642,-0.029932,-0.030391
1765408220.302182,-9.891797,-0.043042,0.365854,0.028558,-0.032070,-0.026878
1765408220.304186,-9.881634,0.016738,0.242109,0.026267,-0.031460,-0.027947
1765408220.306238,-10.074724,-0.086083,0.497370,0.026114,-0.035277,-0.023824
1765408220.309237,-10.178144,-0.232544,0.740076,0.025351,-0.032987,-0.023976
1765408220.311259,-9.945002,-0.247489,0.208034,0.024740,-0.038179,-0.030543
1765408220.314225,-10.025107,-0.075921,0.308465,0.024282,-0.042302,-0.038026
1765408220.316262,-9.851745,0.028694,0.248087,0.030238,-0.038943,-0.031612
1765408220.317272,-9.836202,0.028097,0.197274,0.024282,-0.038943,-0.025198
1765408220.321279,-9.836202,0.028097,0.197274,0.024282,-0.031918,-0.025198
1765408220.324238,-10.131515,-0.226566,0.530846,0.029780,-0.032223,-0.025962
1765408220.326178,-10.004781,-0.277977,0.285748,0.031001,-0.038943,-0.024587
1765408220.329279,-9.934838,-0.236729,0.204448,0.025962,-0.040470,-0.031001
1765408220.331380,-9.964130,-0.120158,0.359876,0.029932,-0.030085,-0.035583
1765408220.334306,-9.964130,-0.120158,0.359876,0.029932,-0.031918,-0.035583
1765408220.337284,-9.837397,-0.035270,0.377212,0.030543,-0.034667,-0.029474
1765408220.339208,-10.124939,0.094452,0.460306,0.032834,-0.032376,-0.027031
1765408220.342259,-10.209229,-0.267814,0.631277,0.029322,-0.038637,-0.023060
1765408220.344227,-9.892395,-0.347322,0.215208,0.029322,-0.038637,-0.029169
1765408220.347257,-9.880439,-0.145863,0.145863,0.032223,-0.041233,-0.036041
1765408220.349214,-9.848756,-0.057389,0.297704,0.030085,-0.036346,-0.034361
1765408220.350158,-9.933643,0.117169,0.370038,0.032681,-0.034819,-0.027184
1765408220.354191,-10.018531,-0.007174,0.506934,0.031307,-0.032681,-0.025504
1765408220.357227,-10.060975,-0.199665,0.444165,0.029322,-0.035583,-0.024893
1765408220.359161,-10.020324,-0.382592,0.429220,0.031612,-0.037568,-0.026573
1765408220.362194,-9.837397,-0.335964,0.129125,0.035736,-0.042302,-0.032223
1765408220.364262,-9.919893,-0.130320,0.253467,0.031918,-0.038637,-0.037415
1765408220.365265,-9.972500,0.062171,0.475849,0.034819,-0.033445,-0.036499
1765408220.369261,-10.008965,0.130320,0.552367,0.034972,-0.029474,-0.032987
1765408220.372263,-10.016738,0.017934,0.494978,0.033292,-0.031918,-0.027184
1765408220.374919,-10.046627,-0.193687,0.494978,0.031765,-0.035430,-0.028100
1765408220.377275,-9.985652,-0.350909,0.477044,0.033903,-0.040470,-0.026878
1765408220.379230,-9.985652,-0.350909,0.477044,0.033903,-0.040012,-0.026878
1765408220.381229,-9.949782,-0.058584,0.402917,0.033903,-0.039401,-0.037110
1765408220.384227,-9.777020,0.007174,0.104017,0.031460,-0.043677,-0.032987
1765408220.387270,-9.923481,0.014347,0.158417,0.036805,-0.048106,-0.030391
1765408220.389258,-10.070539,0.017934,0.374223,0.035277,-0.038026,-0.029322
1765408220.390168,-10.083690,-0.221784,0.639646,0.036957,-0.033598,-0.025962
1765408220.394200,-9.959349,-0.419656,0.597202,0.035277,-0.038637,-0.030696
1765408220.397259,-9.981467,-0.248087,0.465088,0.034361,-0.044440,-0.040775
1765408220.399225,-10.018531,-0.017934,0.418460,0.038637,-0.048106,-0.040623
1765408220.401260,-10.010758,0.033477,0.276184,0.035736,-0.048106,-0.037721
1765408220.404240,-9.984456,0.057389,0.179340,0.035736,-0.042455,-0.033598
1765408220.407229,-9.919893,-0.035868,0.230751,0.036194,-0.038485,-0.031765
1765408220.409212,-9.892993,-0.246891,0.399330,0.034667,-0.036957,-0.031001
1765408220.411189,-9.933045,-0.178144,0.552965,0.037568,-0.035125,-0.035583
1765408220.414243,-9.987445,-0.071736,0.484218,0.035277,-0.038485,-0.037263
1765408220.417214,-9.945002,-0.115375,0.324605,0.034667,-0.048106,-0.031918
1765408220.419206,-10.018531,-0.164993,0.324008,0.039401,-0.047037,-0.033903
1765408220.422225,-10.018531,-0.164993,0.324008,0.039401,-0.039095,-0.033903
1765408220.424203,-10.045432,-0.125538,0.449546,0.039095,-0.037415,-0.036652
1765408220.427165,-10.002390,-0.102822,0.456719,0.038637,-0.037874,-0.033750
1765408220.429196,-9.970109,-0.100430,0.290531,0.041233,-0.045968,-0.040164
1765408220.431194,-10.043041,-0.022716,0.262434,0.036346,-0.046426,-0.039554
1765408220.434208,-10.029889,-0.031086,0.447752,0.038485,-0.036957,-0.035430
1765408220.436307,-10.081299,-0.074127,0.554758,0.036957,-0.039248,-0.033903
1765408220.439249,-10.157818,-0.135103,0.370636,0.032070,-0.041386,-0.032681
1765408220.441229,-10.015541,-0.292922,0.269010,0.031765,-0.039401,-0.035277
1765408220.443184,-9.979673,-0.259445,0.199067,0.041997,-0.042761,-0.037721
1765408220.445211,-10.002987,-0.074127,0.636657,0.038943,-0.041844,-0.040164
1765408220.449282,-10.136297,0.074127,0.668938,0.036652,-0.039095,-0.037874
1765408220.451225,-10.084887,-0.127331,0.460306,0.038332,-0.046578,-0.032223
1765408220.454253,-10.022716,-0.201459,0.345528,0.041692,-0.047953,-0.033750
1765408220.456258,-10.105211,-0.154232,0.674916,0.042608,-0.040164,-0.037263
1765408220.459221,-10.131515,-0.170971,0.744859,0.037415,-0.040164,-0.038332
1765408220.462602,-10.084887,-0.186514,0.380201,0.037415,-0.050244,-0.038332
1765408220.464252,-10.053204,-0.075921,0.286944,0.034819,-0.057116,-0.040928
1765408220.466264,-9.955164,-0.061573,0.198470,0.034819,-0.046731,-0.040928
1765408220.469237,-9.918099,-0.206839,0.407700,0.038332,-0.043219,-0.031460
1765408220.472248,-9.988641,-0.163797,0.605571,0.043066,-0.043219,-0.033445
1765408220.474297,-10.173361,-0.279770,0.632472,0.041692,-0.050549,-0.036346
1765408220.477212,-10.060975,-0.399330,0.377212,0.040470,-0.049480,-0.041539
1765408220.479193,-9.922284,-0.162602,0.304280,0.045815,-0.046578,-0.047342
1765408220.482202,-9.937828,-0.066954,0.362267,0.041386,-0.040164,-0.042302
1765408220.484177,-10.003586,-0.093855,0.547585,0.044593,-0.045662,-0.037263
1765408220.487160,-10.181729,-0.096246,0.683883,0.041692,-0.047037,-0.038179
1765408220.489251,-10.132710,-0.200861,0.579866,0.039401,-0.041692,-0.037721
1765408220.492182,-10.045432,-0.359876,0.593018,0.042608,-0.041692,-0.034361
1765408220.494174,-10.045432,-0.359876,0.593018,0.042608,-0.054214,-0.034361
1765408220.495235,-10.216402,-0.120158,0.558345,0.042608,-0.054214,-0.048869
1765408220.499205,-10.087874,-0.008369,0.506337,0.046884,-0.044746,-0.041844
1765408220.502202,-9.833811,-0.124342,0.255858,0.043677,-0.051007,-0.035430
1765408220.504208,-9.979075,-0.089670,0.372429,0.045051,-0.051007,-0.042150
1765408220.507274,-10.263031,-0.089670,0.572692,0.042302,-0.048869,-0.042761
1765408220.507774,-10.145862,-0.243902,0.610952,0.046578,-0.042302,-0.036346
1765408220.512238,-9.913317,-0.302487,0.482425,0.051007,-0.045815,-0.039706
1765408220.514180,-10.020923,-0.086681,0.801052,0.044440,-0.051618,-0.047037
1765408220.517200,-10.078907,-0.063965,0.685079,0.045357,-0.051618,-0.043371
1765408220.519180,-9.940218,-0.255858,0.180536,0.042761,-0.059712,-0.036041
1765408220.522194,-9.796746,-0.245098,0.002391,0.048564,-0.043982,-0.042150
1765408220.524255,-10.047226,-0.202056,0.692252,0.045815,-0.043982,-0.044593
1765408220.525257,-10.132710,-0.205643,0.870397,0.047800,-0.054062,-0.039401
1765408220.529263,-9.927068,-0.144668,0.387374,0.046578,-0.054062,-0.046884
1765408220.532208,-9.788378,-0.060976,0.114778,0.044746,-0.056505,-0.048869
1765408220.532708,-9.830223,0.022716,0.371832,0.051313,-0.043371,-0.037415
1765408220.537253,-10.008368,-0.194883,0.834529,0.049175,-0.044746,-0.033292
1765408220.539263,-10.120754,-0.291726,0.748446,0.049175,-0.056047,-0.033292
1765408220.542206,-10.138689,-0.396939,0.389766,0.045509,-0.057421,-0.043982
1765408220.544243,-9.898971,-0.379005,0.192492,0.050855,-0.056658,-0.043371
1765408220.546191,-10.053802,-0.121951,0.290531,0.050244,-0.053756,-0.052382
1765408220.549226,-10.213414,0.096246,0.830942,0.045662,-0.045815,-0.052993
1765408220.551145,-10.213414,0.096246,0.830942,0.045662,-0.046731,-0.052993
1765408220.554154,-9.940218,-0.088474,0.277977,0.049480,-0.051160,-0.040928
1765408220.556224,-10.148253,-0.182927,0.793878,0.045204,-0.046578,-0.044440
1765408220.559212,-10.186513,-0.251076,0.944524,0.048564,-0.050702,-0.038637
1765408220.562177,-10.035867,-0.326399,0.435198,0.047037,-0.057574,-0.044593
1765408220.564240,-9.924078,-0.148254,0.134505,0.046884,-0.065973,-0.050091
1765408220.566191,-9.935436,-0.166786,0.251076,0.050091,-0.053298,-0.047037
1765408220.569213,-10.047822,-0.080105,0.498565,0.053603,-0.047953,-0.046578
1765408220.572218,-9.999401,-0.096844,0.511119,0.055131,-0.047495,-0.046273
1765408220.575252,-10.010758,-0.184720,0.535629,0.052229,-0.047495,-0.046884
1765408220.577173,-10.097439,-0.222382,0.636059,0.055436,-0.048564,-0.046884
1765408220.578176,-10.155428,-0.156026,0.738881,0.055436,-0.053298,-0.048258
1765408220.581263,-10.025107,-0.114180,0.456719,0.049327,-0.051465,-0.050549
1765408220.584220,-9.774628,-0.032281,0.097441,0.052076,-0.051465,-0.048717
1765408220.586242,-9.824244,-0.190698,0.339550,0.053298,-0.051465,-0.044899
1765408220.589271,-10.015541,-0.203252,0.754424,0.049175,-0.045968,-0.045509
1765408220.591218,-10.129124,-0.278575,0.821377,0.047495,-0.045204,-0.051007
1765408220.594196,-10.034670,-0.136298,0.532640,0.052229,-0.053603,-0.052534
1765408220.597162,-9.860711,0.043042,0.392157,0.051771,-0.053145,-0.053603
1765408220.599183,-9.898373,0.051411,0.555954,0.051160,-0.058032,-0.046578
1765408220.602169,-9.905546,-0.199665,0.416069,0.048258,-0.060781,-0.043371
1765408220.604184,-9.917501,-0.282162,0.272597,0.051465,-0.064294,-0.044440
1765408220.607200,-9.909731,-0.338355,0.141081,0.051007,-0.058490,-0.047953
1765408220.609192,-9.880439,-0.276781,0.518890,0.054978,-0.051924,-0.051771
1765408220.611249,-9.833811,-0.121353,0.597800,0.052534,-0.048717,-0.052076
1765408220.614188,-9.943806,-0.042444,0.664754,0.052382,-0.059865,-0.051007
1765408220.617214,-9.890003,-0.129125,0.180536,0.049327,-0.062614,-0.045509
1765408220.619197,-9.965326,-0.361071,0.143472,0.054978,-0.064599,-0.043982
1765408220.622237,-10.022716,-0.393950,0.527857,0.061087,-0.049938,-0.049327
1765408220.624238,-10.153036,-0.371832,0.692252,0.061697,-0.051160,-0.049022
1765408220.627148,-10.031682,-0.379005,0.548780,0.054520,-0.051160,-0.054062
1765408220.629157,-9.928263,-0.233142,0.206839,0.058490,-0.056505,-0.057574
1765408220.632183,-9.958152,-0.031683,0.395744,0.052840,-0.053909,-0.057269
1765408220.634145,-10.060975,-0.029890,0.665351,0.056352,-0.050244,-0.051160
1765408220.636164,-10.153036,-0.175155,0.991750,0.053145,-0.054214,-0.049480
1765408220.639192,-9.992227,-0.286944,0.499761,0.056505,-0.057116,-0.047342
1765408220.640185,-9.971304,-0.496174,0.298302,0.058032,-0.060934,-0.049938
1765408220.644189,-10.037660,-0.337159,0.484218,0.063225,-0.059254,-0.057574
1765408220.646186,-10.037660,-0.337159,0.484218,0.063225,-0.057574,-0.057574
1765408220.649229,-9.909132,-0.020325,0.466284,0.051924,-0.054825,-0.060170
1765408220.651192,-9.774628,-0.016738,0.218795,0.052534,-0.058643,-0.053756
1765408220.654200,-9.956957,-0.172166,0.506934,0.057116,-0.057727,-0.046578
1765408220.656276,-10.133906,-0.297704,0.755619,0.061697,-0.057116,-0.049327
1765408220.659171,-10.178741,-0.386179,0.715567,0.060018,-0.057727,-0.052076
1765408220.661244,-9.849353,-0.372429,0.263032,0.062156,-0.065821,-0.056963
1765408220.664170,-9.777020,-0.221186,0.148852,0.061697,-0.069791,-0.061697
1765408220.667152,-9.891200,-0.023912,0.408895,0.058185,-0.061697,-0.059712
1765408220.669178,-10.025107,0.069345,0.734696,0.055741,-0.055741,-0.054978
1765408220.671267,-9.899570,-0.125538,0.518890,0.054825,-0.058338,-0.051618
1765408220.674217,-9.831419,-0.252869,0.269010,0.058032,-0.060934,-0.053298
1765408220.677165,-9.768052,-0.423840,0.278575,0.060628,-0.060934,-0.052534
1765408220.679161,-9.817072,-0.393352,0.285748,0.060018,-0.061392,-0.061697
1765408220.682252,-9.915112,-0.235533,0.377810,0.060323,-0.059101,-0.065821
1765408220.684180,-9.864896,-0.115973,0.493783,0.064752,-0.055131,-0.060476
1765408220.687147,-10.087874,-0.030488,0.889526,0.065973,-0.059712,-0.057421
1765408220.689249,-10.147058,-0.060976,0.962458,0.065057,-0.059712,-0.053145
1765408220.691204,-10.147058,-0.060976,0.962458,0.065057,-0.065363,-0.053145
1765408220.694188,-10.029889,-0.517097,0.117169,0.066890,-0.073151,-0.056505
1765408220.697197,-9.986848,-0.407102,0.304878,0.066890,-0.073151,-0.064752
1765408220.699266,-9.996411,-0.225968,0.554758,0.067042,-0.062308,-0.068722
1765408220.700212,-9.892395,-0.017336,0.511717,0.065821,-0.060476,-0.065210
1765408220.704248,-9.892395,-0.017336,0.511717,0.065821,-0.064446,-0.065210
1765408220.706221,-10.013150,-0.117169,0.492587,0.063072,-0.063683,-0.055589
1765408220.709188,-10.045432,-0.374223,0.648613,0.063835,-0.063683,-0.051160
1765408220.712161,-9.848158,-0.532042,0.403515,0.063377,-0.066432,-0.057879
1765408220.714195,-9.801530,-0.429220,0.292324,0.061087,-0.066279,-0.067195
1765408220.717206,-9.794355,-0.150646,0.429818,0.066126,-0.065821,-0.065515
1765408220.717706,-9.845766,-0.121951,0.552367,0.069028,-0.069486,-0.061697
1765408220.721253,-9.894786,-0.086083,0.412482,0.066126,-0.072693,-0.057269
1765408220.724193,-10.109396,-0.382592,0.510521,0.063072,-0.073151,-0.056963
1765408220.727173,-10.077114,-0.555356,0.737685,0.068875,-0.065363,-0.058338
1765408220.729195,-9.986848,-0.373027,0.616930,0.071929,-0.065363,-0.065973
1765408220.732208,-9.973098,-0.163797,0.527857,0.067501,-0.074373,-0.065668
1765408220.735170,-9.974294,-0.173362,0.381396,0.070250,-0.074373,-0.061087
1765408220.736231,-10.151243,-0.175753,0.720349,0.072998,-0.072540,-0.059254
1765408220.737177,-10.065758,-0.202056,0.594213,0.065210,-0.062614,-0.057879
1765408220.741264,-9.917501,-0.272597,0.598996,0.061850,-0.063988,-0.058643
1765408220.744222,-9.836202,-0.435198,0.422047,0.060781,-0.069486,-0.060628
1765408220.747200,-9.909132,-0.303682,0.365256,0.064294,-0.079412,-0.058948
1765408220.749236,-9.948587,-0.319225,0.567312,0.065668,-0.068875,-0.065668
1765408220.752211,-9.912720,-0.195481,0.692850,0.067959,-0.064294,-0.064141
1765408220.754183,-9.882233,-0.234338,0.682688,0.072388,-0.064294,-0.059712
1765408220.757240,-9.882233,-0.234338,0.682688,0.072388,-0.071471,-0.059712
1765408220.757740,-9.748325,-0.339550,0.341942,0.070860,-0.070250,-0.060476
1765408220.761147,-9.626971,-0.552367,0.291726,0.071624,-0.070555,-0.058948
1765408220.764153,-9.843973,-0.408895,0.734696,0.077427,-0.072235,-0.064141
1765408220.767195,-9.960544,-0.322812,0.824964,0.075900,-0.069791,-0.067348
1765408220.769177,-9.821855,-0.192492,0.369440,0.070555,-0.075595,-0.065821
1765408220.770173,-9.686751,-0.068149,0.074127,0.072235,-0.073915,-0.067653
1765408220.774209,-9.829028,-0.217599,0.554758,0.073915,-0.072846,-0.057879
1765408220.776295,-9.980869,-0.386777,0.818986,0.074984,-0.062461,-0.059254
1765408220.779983,-9.744141,-0.435796,0.455524,0.072235,-0.075442,-0.064294
1765408220.780483,-9.650884,-0.243902,0.100430,0.068417,-0.073915,-0.073304
1765408220.784230,-9.604255,-0.115973,0.192492,0.075136,-0.065057,-0.064446
1765408220.787196,-9.825441,-0.178144,0.896102,0.075900,-0.063072,-0.058643
1765408220.789175,-10.194881,-0.209230,1.043759,0.070555,-0.070402,-0.060781
1765408220.791345,-10.074127,-0.497370,0.738283,0.068264,-0.070402,-0.058643
1765408220.794190,-9.855330,-0.695839,0.282759,0.076053,-0.078802,-0.060018
1765408220.796221,-9.780008,-0.384983,0.379005,0.080329,-0.076969,-0.071471
1765408220.799243,-9.833811,-0.211621,0.801650,0.071929,-0.063530,-0.070708
1765408220.802193,-9.833811,-0.211621,0.801650,0.071929,-0.068570,-0.070708
1765408220.804191,-9.999999,-0.228957,0.568508,0.081703,-0.074526,-0.063683
1765408220.806232,-9.961740,-0.215208,0.556552,0.077274,-0.073151,-0.063530
1765408220.809172,-9.974294,-0.456719,0.640842,0.074678,-0.072235,-0.061850
1765408220.812128,-9.839190,-0.533238,0.441176,0.076053,-0.072235,-0.063072
1765408220.814160,-10.022716,-0.308465,0.645624,0.070250,-0.075747,-0.073304
1765408220.817196,-9.851745,0.001196,0.466882,0.071624,-0.067042,-0.075289
1765408220.819185,-9.844571,-0.037064,0.594213,0.072540,-0.063377,-0.063377
1765408220.822173,-9.794355,-0.245098,0.580464,0.079260,-0.062919,-0.052993
1765408220.824198,-10.101624,-0.706600,0.862028,0.074526,-0.069486,-0.055131
1765408220.827132,-10.037063,-0.802248,0.811812,0.079260,-0.069791,-0.067195
1765408220.829177,-9.881036,-0.381396,0.365256,0.079412,-0.076053,-0.076969
1765408220.831170,-9.856527,0.013152,0.469871,0.075442,-0.071929,-0.076358
1765408220.834148,-9.956359,0.078910,0.514108,0.075595,-0.064904,-0.062461
1765408220.837158,-10.003586,-0.321616,0.784314,0.078343,-0.068722,-0.054672
1765408220.839170,-10.086082,-0.570301,0.661167,0.076969,-0.067042,-0.061087
1765408220.842273,-10.046627,-0.717360,0.632472,0.075595,-0.070860,-0.064294
1765408220.844191,-9.838593,-0.581659,0.393352,0.077122,-0.073457,-0.070555
1765408220.845240,-9.930654,-0.223577,0.535629,0.076816,-0.066279,-0.078649
1765408220.849221,-9.904350,-0.069345,0.661167,0.076816,-0.066279,-0.068570
1765408220.852219,-9.591701,-0.408297,0.261836,0.078038,-0.076511,-0.061545
1765408220.854201,-9.733380,-0.377810,0.141081,0.082620,-0.080176,-0.064294
1765408220.857257,-9.955761,-0.436992,0.635461,0.080634,-0.068722,-0.067653
1765408220.857757,-9.910329,-0.552367,0.590626,0.082925,-0.062614,-0.069180
1765408220.861204,-10.057388,-0.299498,0.836920,0.083536,-0.071319,-0.078343
1765408220.864209,-10.390362,-0.299498,1.300215,0.083536,-0.069333,-0.078343
1765408220.867172,-10.125537,-0.141081,0.928383,0.082009,-0.073762,-0.059712
1765408220.868200,-9.866092,-0.533238,0.342539,0.080634,-0.085216,-0.059101
1765408220.872285,-9.910329,-0.593615,0.232544,0.079565,-0.083230,-0.072998
1765408220.874237,-10.075322,-0.512912,0.687470,0.078649,-0.075747,-0.074526
1765408220.876322,-10.075322,-0.512912,0.687470,0.078649,-0.071929,-0.074526
1765408220.879193,-9.950979,-0.162004,0.580464,0.079718,-0.077733,-0.075136
1765408220.881216,-9.909132,-0.329986,0.424438,0.078343,-0.077733,-0.067501
1765408220.884220,-9.850550,-0.491392,0.334768,0.085674,-0.078191,-0.062308
1765408220.887164,-10.047226,-0.463893,0.771162,0.086132,-0.081092,-0.068264
1765408220.889191,-10.219392,-0.307269,1.024629,0.080176,-0.073457,-0.078496
1765408220.892232,-10.111190,-0.334768,0.644428,0.085368,-0.083689,-0.071777
1765408220.894180,-9.871471,-0.515304,0.490794,0.092546,-0.083689,-0.062156
1765408220.897191,-9.784791,-0.511717,0.387374,0.086590,-0.092393,-0.075289
1765408220.899186,-10.013150,-0.261836,0.548780,0.086896,-0.083383,-0.078343
1765408220.901219,-9.976088,-0.199665,0.560139,0.083536,-0.079565,-0.073609
1765408220.904158,-10.205642,-0.163797,0.853658,0.088117,-0.079871,-0.067806
1765408220.906188,-10.136297,-0.362865,0.903874,0.083230,-0.077733,-0.067806
1765408220.909204,-10.020324,-0.611549,0.725729,0.083383,-0.083841,-0.066737
1765408220.911197,-9.780008,-0.631277,0.200861,0.087048,-0.082467,-0.074526
1765408220.914162,-9.876254,-0.271999,0.518293,0.085827,-0.082467,-0.082620
1765408220.917220,-9.876254,-0.271999,0.518293,0.085827,-0.078649,-0.082620
1765408220.919219,-10.106407,-0.132712,0.950502,0.086896,-0.081703,-0.071624
1765408220.922189,-9.995216,-0.469871,0.680894,0.083841,-0.085674,-0.064141
1765408220.924201,-9.922284,-0.706600,0.438187,0.085521,-0.085521,-0.069333
1765408220.926215,-10.072333,-0.552965,0.949306,0.090408,-0.085674,-0.078954
1765408220.929165,-10.072333,-0.552965,0.949306,0.090408,-0.080329,-0.078954
1765408220.930156,-9.927068,-0.050813,0.650406,0.078496,-0.085063,-0.074526
1765408220.934202,-9.603060,-0.481229,0.066954,0.082925,-0.094531,-0.063835
1765408220.937230,-9.742945,-0.648015,0.420851,0.089339,-0.071929,-0.065821
1765408220.937730,-9.968315,-0.615734,0.978599,0.090561,-0.071929,-0.073609
1765408220.941235,-10.050214,-0.421449,1.086800,0.089644,-0.074984,-0.080787
1765408220.944244,-10.015541,-0.257054,0.760402,0.091172,-0.095448,-0.078343
1765408220.947125,-9.759683,-0.349115,0.462697,0.098655,-0.095448,-0.071929
1765408220.949167,-9.692730,-0.369440,0.453132,0.098044,-0.087659,-0.071777
1765408220.952160,-9.867287,-0.384983,0.765782,0.094073,-0.085216,-0.075595
1765408220.954118,-10.114776,-0.486609,0.871592,0.095600,-0.085368,-0.075442
1765408220.956181,-10.215804,-0.393352,0.903874,0.094990,-0.085979,-0.075442
1765408220.959177,-10.126732,-0.478240,0.903276,0.095142,-0.082009,-0.075595
1765408220.962206,-9.860711,-0.567910,0.634864,0.092546,-0.087201,-0.074220
1765408220.966630,-9.991630,-0.577475,0.703013,0.090103,-0.093462,-0.083994
1765408220.967130,-10.135101,-0.263032,0.899091,0.101556,-0.085063,-0.083536
1765408220.969206,-9.941415,-0.260641,0.670732,0.093004,-0.085063,-0.076816
1765408220.972155,-9.837397,-0.284553,0.370636,0.095600,-0.086896,-0.072388
1765408220.974202,-9.837397,-0.284553,0.370636,0.095600,-0.082314,-0.072388
1765408220.975217,-9.961740,-0.763988,0.835724,0.106443,-0.082009,-0.073304
1765408220.979194,-10.045432,-0.418460,1.078431,0.103694,-0.083536,-0.090255
1765408220.981250,-10.136297,0.099833,1.023434,0.096669,-0.079260,-0.090561
1765408220.984197,-9.752509,-0.186514,0.170373,0.094531,-0.083994,-0.064752
1765408220.986185,-9.824244,-0.731707,0.579268,0.098197,-0.096822,-0.067501
1765408220.989188,-10.215207,-0.439981,1.206360,0.096059,-0.079565,-0.086743
1765408220.992245,-10.074724,-0.520684,1.041368,0.092852,-0.077580,-0.078954
1765408220.994170,-9.549257,-0.439981,0.139885,0.095753,-0.100487,-0.079260
1765408220.996153,-9.575562,-0.294715,0.041846,0.094837,-0.100487,-0.080176
1765408220.999131,-9.820659,-0.479436,0.700024,0.094837,-0.090866,-0.075136
1765408221.001181,-9.953967,-0.502152,0.764586,0.100640,-0.082161,-0.077427
1765408221.004118,-9.806311,-0.523673,0.429220,0.099418,-0.085216,-0.080176
1765408221.006167,-9.840983,-0.324008,0.404113,0.098197,-0.080481,-0.083994
1765408221.009146,-10.147058,-0.278575,1.078431,0.103236,-0.080481,-0.078802
1765408221.010161,-10.119559,-0.637255,1.312769,0.102320,-0.079718,-0.069028
1765408221.014132,-9.976088,-0.652798,0.780129,0.096059,-0.091630,-0.083078
1765408221.016155,-9.745336,-0.384983,0.234935,0.096059,-0.094990,-0.083078
1765408221.019171,-9.725011,-0.282162,0.503945,0.106749,-0.089186,-0.089797
1765408221.022179,-9.990434,-0.422047,0.779531,0.109650,-0.083383,-0.064904
1765408221.024170,-10.335963,-0.847680,1.197393,0.097891,-0.088881,-0.076664
1765408221.026227,-10.298899,-0.754424,1.064682,0.104611,-0.088423,-0.087659
1765408221.029128,-10.007172,-0.419058,0.565519,0.106749,-0.085979,-0.090408
1765408221.033145,-9.770443,-0.114778,0.549976,0.107360,-0.083078,-0.083841
1765408221.034124,-9.712457,-0.283357,0.587637,0.102014,-0.083078,-0.074220
1765408221.037161,-9.967718,-0.525466,0.895504,0.096211,-0.090103,-0.077274
1765408221.039116,-10.060376,-0.425634,0.959469,0.098349,-0.086743,-0.083383
1765408221.041195,-9.971903,-0.447154,0.738881,0.101862,-0.084299,-0.079107
1765408221.044198,-9.784791,-0.456719,0.469871,0.103389,-0.092699,-0.080023
1765408221.047154,-9.870873,-0.408297,0.774151,0.100793,-0.089034,-0.083841
1765408221.049190,-9.804518,-0.463893,0.868006,0.099571,-0.084910,-0.082467
1765408221.052150,-9.654470,-0.507532,0.505739,0.105222,-0.092241,-0.079107
1765408221.054120,-9.879243,-0.335366,0.527260,0.107665,-0.095142,-0.086896
1765408221.057157,-10.187708,-0.279770,1.098756,0.104611,-0.085521,-0.079871
1765408221.057657,-10.005379,-0.665351,0.915232,0.103542,-0.086285,-0.074373
1765408221.061177,-9.533117,-0.645624,0.284553,0.099418,-0.098044,-0.087506
1765408221.064172,-9.666426,-0.215208,0.350311,0.093768,-0.084452,-0.101404
1765408221.066159,-9.854733,-0.015543,0.713175,0.099571,-0.084452,-0.083078
1765408221.069247,-9.898971,-0.485414,0.937350,0.105222,-0.087659,-0.067959
1765408221.071194,-9.824244,-0.619321,0.417264,0.100945,-0.091477,-0.080329
1765408221.072182,-10.034670,-0.554758,0.920612,0.096364,-0.091019,-0.095906
1765408221.077195,-9.956359,-0.471066,1.004304,0.104916,-0.081551,-0.084452
1765408221.077695,-9.968913,-0.361071,1.068866,0.109345,-0.089644,-0.084299
1765408221.082146,-10.034670,-0.377810,1.059899,0.100335,-0.090561,-0.089950
1765408221.082646,-9.943806,-0.455524,0.490196,0.104763,-0.092393,-0.082161
1765408221.086138,-9.876852,-0.697035,0.772358,0.105832,-0.099418,-0.083078
1765408221.089164,-9.876852,-0.697035,0.772358,0.105832,-0.088881,-0.083078
1765408221.090142,-10.139286,-0.365854,1.315758,0.096364,-0.088881,-0.087201
1765408221.094178,-9.860114,-0.628886,0.790292,0.105069,-0.099724,-0.084605
1765408221.096174,-9.859515,-0.490794,0.627690,0.108276,-0.098502,-0.093310
1765408221.098181,-9.872667,-0.335964,0.673123,0.104305,-0.098502,-0.093157
1765408221.101243,-9.872667,-0.335964,0.673123,0.104305,-0.091172,-0.093157
1765408221.104193,-9.864896,-0.456719,0.717360,0.106901,-0.096364,-0.080940
1765408221.106167,-9.864896,-0.493783,0.823768,0.108734,-0.098655,-0.089797
1765408221.107171,-10.068149,-0.420851,1.137016,0.105069,-0.086437,-0.098349
1765408221.112127,-9.612027,-0.462697,0.710186,0.103389,-0.089339,-0.087659
1765408221.114159,-9.628167,-0.389766,0.552965,0.101404,-0.100793,-0.092699
1765408221.115149,-9.889405,-0.416069,0.881157,0.097586,-0.098502,-0.097280
1765408221.119217,-9.956957,-0.448948,0.999522,0.105374,-0.094531,-0.088117
1765408221.120147,-9.739358,-0.456719,0.720947,0.109192,-0.096669,-0.091630
1765408221.124190,-9.805116,-0.515304,0.894309,0.104000,-0.096669,-0.094531
1765408221.127120,-9.776422,-0.523673,0.697633,0.104000,-0.098960,-0.094531
1765408221.129173,-9.648493,-0.717958,0.302487,0.105069,-0.100640,-0.097891
1765408221.131131,-9.777617,-0.380799,0.494978,0.103847,-0.100640,-0.103542
1765408221.134133,-10.043041,-0.325203,1.037781,0.104458,-0.087812,-0.100335
1765408221.135141,-10.203251,-0.523673,1.749761,0.106901,-0.080176,-0.090561
1765408221.139138,-9.876852,-0.797465,0.795672,0.105680,-0.089492,-0.091935
1765408221.142116,-9.897178,-0.686274,0.584648,0.105374,-0.104153,-0.104153
1765408221.144187,-10.046029,-0.604974,0.954089,0.114537,-0.094837,-0.103847
1765408221.147111,-10.046029,-0.604974,0.954089,0.114537,-0.092088,-0.103847
1765408221.149139,-9.625775,-0.402319,0.766380,0.113926,-0.093310,-0.100793
1765408221.151166,-9.580342,-0.426829,0.583453,0.107207,-0.093310,-0.099724
1765408221.154128,-9.617407,-0.453730,0.193687,0.117286,-0.101709,-0.083689
1765408221.157283,-9.827832,-0.841702,0.944524,0.109650,-0.099418,-0.090255
1765408221.159124,-9.827832,-0.841702,0.944524,0.109650,-0.084147,-0.090255
1765408221.161147,-9.770443,-0.907460,0.784314,0.110872,-0.109039,-0.099724
1765408221.164142,-9.619201,-0.711382,0.324605,0.117897,-0.109039,-0.104763
1765408221.167182,-9.935436,-0.297704,0.646820,0.116370,-0.099571,-0.104611
1765408221.169231,-10.164392,-0.469871,1.491511,0.120340,-0.087965,-0.093310
1765408221.173219,-9.988043,-0.565519,0.846485,0.118661,-0.090408,-0.087201
1765408221.174173,-10.176947,-0.744859,0.799856,0.115606,-0.109039,-0.094990
1765408221.175167,-10.150046,-0.769966,1.016260,0.118661,-0.096822,-0.097433
1765408221.177214,-9.913916,-0.680296,0.946915,0.119119,-0.095448,-0.092852
1765408221.180159,-9.907937,-0.581062,0.775944,0.105832,-0.101709,-0.102931
1765408221.182157,-10.117167,-0.407102,0.972023,0.111177,-0.105222,-0.099724
1765408221.186206,-10.187110,-0.714969,1.096365,0.121104,-0.099724,-0.079107
1765408221.189165,-10.033475,-0.978599,0.820182,0.119882,-0.097128,-0.084910
1765408221.191136,-9.861309,-0.876973,0.778336,0.111177,-0.097280,-0.106901
1765408221.194174,-9.885221,-0.701219,0.875179,0.121562,-0.099571,-0.100182
1765408221.195198,-9.925871,-0.689861,0.771760,0.131031,-0.110108,-0.090713
1765408221.199118,-10.019128,-0.639646,1.010282,0.124464,-0.108734,-0.098502
1765408221.201134,-9.829626,-0.625299,0.662362,0.118050,-0.098807,-0.103847
1765408221.204120,-9.903154,-0.458513,0.826160,0.124922,-0.102931,-0.093157
1765408221.206120,-10.260639,-0.518890,1.296030,0.126144,-0.112705,-0.091477
1765408221.209136,-10.387374,-0.614538,1.478957,0.124311,-0.111636,-0.092088
1765408221.212120,-10.104015,-0.891918,1.140602,0.118050,-0.109803,-0.098960
1765408221.214086,-9.833811,-0.426231,0.664754,0.130267,-0.117744,-0.102167
1765408221.216078,-9.772237,-0.557150,0.573888,0.124158,-0.123547,-0.094379
1765408221.219118,-10.008965,-0.441774,0.863223,0.127060,-0.114690,-0.095753
1765408221.222095,-9.982663,-0.459708,0.906265,0.121257,-0.100793,-0.091935
1765408221.224078,-10.075920,-0.624103,1.377331,0.117744,-0.104305,-0.089186
1765408221.225131,-9.967718,-0.881157,0.972621,0.117592,-0.106596,-0.091019
1765408221.228130,-9.771639,-0.804041,0.657580,0.126144,-0.124617,-0.097433
1765408221.231126,-9.740554,-0.523673,0.870397,0.121104,-0.111636,-0.107970
1765408221.234093,-9.615016,-0.286944,0.616930,0.130725,-0.109345,-0.091783
1765408221.237171,-9.756096,-0.711980,0.976805,0.125380,-0.116523,-0.083994
1765408221.239144,-9.999999,-0.677905,1.015064,0.129198,-0.119577,-0.091172
1765408221.240135,-10.046627,-0.824964,0.947513,0.124769,-0.109803,-0.091477
1765408221.244169,-9.634145,-0.774151,0.426829,0.125227,-0.114232,-0.097128
1765408221.247164,-9.759683,-0.612745,0.667145,0.122784,-0.115148,-0.103847
1765408221.248181,-10.039454,-0.577475,1.457436,0.121257,-0.106443,-0.098197
1765408221.252171,-9.940817,-0.542802,1.006695,0.124158,-0.101556,-0.094684
1765408221.255108,-10.088473,-0.483022,1.162721,0.120646,-0.111636,-0.096975
1765408221.257151,-9.918099,-0.669536,0.833333,0.122784,-0.106596,-0.093768
1765408221.259103,-10.011955,-0.899689,1.260162,0.135459,-0.109345,-0.088728
1765408221.262133,-9.607842,-0.916427,0.945122,0.127976,-0.111025,-0.099571
1765408221.264099,-9.707077,-0.438187,0.646820,0.119882,-0.120951,-0.113468
1765408221.269157,-9.507411,-0.382592,0.315638,0.120799,-0.116217,-0.103389
1765408221.269657,-9.711261,-0.395744,0.838116,0.125533,-0.100487,-0.093462
1765408221.272178,-9.884026,-0.416069,1.263749,0.124158,-0.100487,-0.097586
1765408221.274161,-9.795551,-0.610952,1.111908,0.120493,-0.106749,-0.094226
1765408221.276182,-9.652080,-0.943328,0.360473,0.121715,-0.120493,-0.091019
1765408221.279163,-9.817072,-0.708991,0.638450,0.127824,-0.127976,-0.105680
1765408221.280110,-10.193088,-0.493783,1.535150,0.133321,-0.105374,-0.106138
1765408221.284100,-9.894786,-0.517097,1.182449,0.127671,-0.105374,-0.096059
1765408221.286218,-9.626971,-0.770564,0.596007,0.121868,-0.124617,-0.099571
1765408221.289145,-9.992227,-0.645026,0.694644,0.129503,-0.111636,-0.106138
1765408221.290111,-10.355091,-0.703611,1.586561,0.127976,-0.111636,-0.099266
1765408221.294129,-10.362864,-0.639646,1.427546,0.127976,-0.109345,-0.099266
1765408221.295176,-9.967718,-0.793878,0.903874,0.122020,-0.122173,-0.106749
1765408221.299119,-9.967718,-0.793878,0.903874,0.122020,-0.124464,-0.106749
1765408221.301201,-10.231946,-0.355093,1.279292,0.133474,-0.113316,-0.098502
1765408221.304111,-10.197870,-0.543998,1.236250,0.125533,-0.113316,-0.091935
1765408221.305115,-10.351504,-0.836920,1.360593,0.121257,-0.120646,-0.101862
1765408221.309147,-10.182925,-0.894907,1.186035,0.129198,-0.118050,-0.100335
1765408221.312113,-9.708273,-1.013869,0.668340,0.129198,-0.124158,-0.100335
1765408221.314088,-9.824244,-0.667145,0.775944,0.128129,-0.110414,-0.114690
1765408221.317154,-9.885221,-0.539216,1.004902,0.127824,-0.110414,-0.107665
1765408221.318085,-9.976088,-0.728718,1.374342,0.136681,-0.114232,-0.094684
1765408221.321119,-9.985053,-0.661765,1.214132,0.141110,-0.117744,-0.100182
1765408221.322097,-10.161406,-0.864419,1.392276,0.133016,-0.124922,-0.102625
1765408221.327100,-9.892395,-0.839311,1.032998,0.132405,-0.119882,-0.105222
1765408221.329117,-9.755498,-0.741272,0.814801,0.137292,-0.129809,-0.106749
1765408221.330104,-9.611428,-0.737087,0.597202,0.128740,-0.127213,-0.109498
1765408221.334174,-9.879243,-0.437590,0.868006,0.134238,-0.114843,-0.110108
1765408221.337184,-10.138689,-0.427427,1.673242,0.140652,-0.114843,-0.105069
1765408221.339136,-10.111190,-0.596604,1.346246,0.139125,-0.116981,-0.095448
1765408221.341165,-9.959349,-0.912243,1.258369,0.135307,-0.116981,-0.099876
1765408221.344143,-9.947989,-0.995935,1.305595,0.135307,-0.118813,-0.099876
1765408221.346247,-10.033475,-0.755619,1.412601,0.142179,-0.127213,-0.107207
1765408221.349121,-9.817072,-0.610354,1.040172,0.134238,-0.127213,-0.109192
1765408221.352152,-9.817072,-0.610354,1.040172,0.134238,-0.129351,-0.109192
1765408221.354121,-9.519367,-0.801052,0.468675,0.143095,-0.122784,-0.097128
1765408221.357119,-10.004781,-0.866810,1.549498,0.144470,-0.117133,-0.102473
1765408221.359084,-10.175752,-0.830942,1.956002,0.140194,-0.105069,-0.108123
1765408221.360155,-9.701099,-0.748446,0.808823,0.143401,-0.120646,-0.105680
1765408221.364161,-9.626971,-0.813008,0.743065,0.132863,-0.133474,-0.113926
1765408221.367131,-9.726207,-0.450741,1.110713,0.140499,-0.119882,-0.109956
1765408221.369149,-9.916306,-0.667743,1.500478,0.144928,-0.117286,-0.096517
1765408221.370154,-9.566593,-0.948709,0.699426,0.138361,-0.123700,-0.103084
1765408221.374109,-10.065758,-0.967240,1.083812,0.137292,-0.121104,-0.109803
1765408221.376141,-10.190099,-0.866810,1.615256,0.154549,-0.104153,-0.104763
1765408221.381198,-9.886416,-0.753228,1.468197,0.149967,-0.109803,-0.110414
1765408221.381698,-9.782400,-0.539216,0.921808,0.138208,-0.121868,-0.115759
1765408221.384106,-9.702294,-0.396939,0.720349,0.139583,-0.120951,-0.111941
1765408221.387076,-9.678980,-0.611549,1.159732,0.144470,-0.116981,-0.091172
1765408221.389150,-9.796148,-0.900287,1.296030,0.138514,-0.119119,-0.100793
1765408221.392084,-10.109396,-0.790292,1.177666,0.136223,-0.118355,-0.118966
1765408221.394089,-9.825441,-0.952893,1.076638,0.138972,-0.114537,-0.109956
1765408221.396106,-9.638927,-0.644428,0.850072,0.150578,-0.122326,-0.110567
1765408221.399122,-9.970109,-0.534433,1.195600,0.135918,-0.123853,-0.120493
1765408221.402084,-10.428022,-0.314443,1.792204,0.128282,-0.115454,-0.115759
1765408221.404130,-10.218196,-0.827355,1.159134,0.140041,-0.118202,-0.100945
1765408221.405133,-9.842180,-1.027020,1.064084,0.139125,-0.117744,-0.107360
1765408221.409110,-9.901959,-0.848876,1.157341,0.131489,-0.110261,-0.124158
1765408221.412088,-10.276181,-0.539813,1.744380,0.143095,-0.118050,-0.116064
1765408221.413122,-9.625775,-0.917025,0.582257,0.135154,-0.123547,-0.116217
1765408221.417110,-9.717239,-0.500359,0.716164,0.142179,-0.103389,-0.126144
1765408221.419071,-9.778215,-0.487207,1.241033,0.147219,-0.103389,-0.118966
1765408221.421146,-9.780008,-0.618125,1.006097,0.148746,-0.120035,-0.100182
1765408221.424081,-9.863700,-0.827355,1.023434,0.136681,-0.129962,-0.119271
1765408221.426102,-10.144667,-0.601387,1.344452,0.138208,-0.123089,-0.124617
1765408221.429107,-9.796148,-0.596604,0.975012,0.146608,-0.109039,-0.109498
1765408221.432106,-9.630558,-0.842898,0.998326,0.142179,-0.124158,-0.115148
1765408221.434104,-9.909132,-0.640842,1.030009,0.135918,-0.116370,-0.121868
1765408221.437138,-10.018531,-0.740076,1.429938,0.149509,-0.119271,-0.111788
1765408221.439115,-10.070539,-0.606169,1.314562,0.149357,-0.119424,-0.112094
1765408221.441136,-10.053204,-0.793878,1.408417,0.136681,-0.120493,-0.119730
1765408221.444083,-10.120754,-0.768771,1.646341,0.140194,-0.120493,-0.121868
1765408221.447145,-9.807508,-0.675514,0.974414,0.144622,-0.128587,-0.115606
1765408221.449131,-9.447034,-0.816595,0.585844,0.135918,-0.139583,-0.117897
1765408221.451154,-9.632950,-0.770564,0.755619,0.129962,-0.132405,-0.129809
1765408221.454219,-10.127929,-0.361071,1.556671,0.144928,-0.116064,-0.121257
1765408221.456184,-10.078907,-0.672525,1.513630,0.145386,-0.120799,-0.104000
1765408221.459146,-9.930056,-1.169297,1.268532,0.128893,-0.129809,-0.114079
1765408221.461246,-9.942610,-0.953491,1.146580,0.136834,-0.130725,-0.127518
1765408221.464157,-9.964130,-0.989957,1.345050,0.139430,-0.121409,-0.121104
1765408221.466245,-10.146461,-0.618125,1.269727,0.147982,-0.133779,-0.125227
1765408221.469142,-10.231348,-0.689263,1.620038,0.140652,-0.129503,-0.127365
1765408221.471286,-10.231348,-0.689263,1.620038,0.140652,-0.120493,-0.127365
1765408221.474118,-9.812887,-1.026423,1.023434,0.156076,-0.127060,-0.113163
1765408221.477075,-9.717239,-1.328312,1.201578,0.148135,-0.127060,-0.121409
1765408221.478149,-9.717239,-1.328312,1.201578,0.148135,-0.131031,-0.121409
1765408221.481195,-9.904350,-0.889526,1.309182,0.151953,-0.123395,-0.130878
1765408221.484156,-9.887612,-0.570899,1.175275,0.158061,-0.125838,-0.117286
1765408221.486134,-9.941415,-0.950502,1.402439,0.154243,-0.132252,-0.112857
1765408221.489142,-10.205642,-1.068866,1.462219,0.160047,-0.132252,-0.112246
1765408221.491171,-10.099234,-1.238044,1.377929,0.163254,-0.130878,-0.115606
1765408221.492134,-9.949782,-1.145983,1.040172,0.159130,-0.132863,-0.123700
1765408221.497206,-10.032280,-0.927786,1.355811,0.149815,-0.132405,-0.131336
1765408221.498168,-10.013150,-0.648015,1.293639,0.153174,-0.130572,-0.123700
1765408221.502131,-10.211619,-0.767575,1.435916,0.152105,-0.130572,-0.114537
1765408221.504127,-10.257052,-0.848876,1.715686,0.150120,-0.124769,-0.118202
1765408221.507117,-10.301888,-0.990555,1.691774,0.156229,-0.139125,-0.110261
1765408221.508155,-10.049019,-1.269727,1.224892,0.157756,-0.139125,-0.113621
1765408221.510119,-10.139286,-0.877571,1.474175,0.157756,-0.136070,-0.113621
1765408221.514183,-9.870276,-0.815399,1.408417,0.152564,-0.123089,-0.119577
1765408221.517152,-9.849353,-0.777140,1.328312,0.150884,-0.138361,-0.116675
1765408221.519112,-10.031682,-0.856050,1.466403,0.156229,-0.139583,-0.113316
1765408221.521196,-10.040051,-1.152558,1.220708,0.158825,-0.139583,-0.106443
1765408221.524133,-10.040051,-1.152558,1.220708,0.158825,-0.137597,-0.106443
1765408221.526169,-9.801530,-1.074844,1.412004,0.164934,-0.123242,-0.121715
1765408221.529161,-9.837397,-0.760402,1.343855,0.166919,-0.131794,-0.116828
1765408221.531100,-9.719033,-0.839909,1.268532,0.154702,-0.140804,-0.115148
1765408221.534118,-9.730989,-0.865614,1.142994,0.153327,-0.140804,-0.113774
1765408221.537194,-9.730989,-0.865614,1.142994,0.153327,-0.140804,-0.113774
1765408221.539120,-9.650884,-1.154950,1.172884,0.163406,-0.145539,-0.111025
1765408221.542073,-9.612624,-1.077833,0.869201,0.164934,-0.145539,-0.117439
1765408221.544057,-9.747727,-1.059899,0.999522,0.166919,-0.134238,-0.121562
1765408221.546079,-10.164991,-0.634266,1.782640,0.171500,-0.134238,-0.122478
1765408221.549131,-10.131515,-0.578670,1.928503,0.161116,-0.136070,-0.117286
1765408221.552094,-9.773433,-0.823768,1.413797,0.147524,-0.143401,-0.119271
1765408221.554181,-9.595288,-0.788498,0.862028,0.158672,-0.145080,-0.114690
1765408221.555077,-9.858320,-0.942731,1.618245,0.161574,-0.143095,-0.106596
1765408221.559081,-10.012553,-1.132233,1.734218,0.160047,-0.143095,-0.112857
1765408221.562123,-9.976088,-0.876973,1.630798,0.161268,-0.137597,-0.127671
1765408221.564187,-9.720826,-0.613343,1.194404,0.161268,-0.135612,-0.123395
1765408221.566198,-9.551050,-0.701219,0.927786,0.161268,-0.145844,-0.112705
1765408221.569114,-9.778812,-0.894309,1.503467,0.161268,-0.147371,-0.112705
1765408221.571140,-9.943806,-0.836920,1.624820,0.152258,-0.127213,-0.114232
1765408221.574155,-9.821855,-1.123864,1.655906,0.158825,-0.125686,-0.111788
1765408221.576212,-9.611428,-1.219512,1.465208,0.164017,-0.135612,-0.118966
1765408221.579915,-9.710664,-1.110713,1.263151,0.166003,-0.142790,-0.131336
1765408221.583667,-9.748923,-0.483022,1.341463,0.166003,-0.127060,-0.131336
1765408221.584167,-9.349592,-0.501554,1.018651,0.166003,-0.127060,-0.116064
1765408221.586057,-9.670610,-0.866810,1.643950,0.156382,-0.137139,-0.116064
1765408221.589177,-9.875656,-1.019847,1.392874,0.164017,-0.133779,-0.121257
1765408221.592063,-9.719630,-1.217121,1.196796,0.162948,-0.133016,-0.118966
1765408221.594136,-9.283834,-0.989957,1.187231,0.170737,-0.129045,-0.131031
1765408221.597163,-9.546865,-0.426829,1.365375,0.162490,-0.135307,-0.130572
1765408221.599094,-9.800333,-0.639646,1.285270,0.150731,-0.142179,-0.122937
1765408221.600061,-9.661644,-0.875777,1.163319,0.158214,-0.122478,-0.116981
1765408221.604079,-9.426111,-1.019847,1.164515,0.154854,-0.122478,-0.119577
1765408221.606108,-9.829028,-0.694644,2.084529,0.157756,-0.132252,-0.127824
1765408221.609069,-9.753107,-0.846485,1.357006,0.153327,-0.130420,-0.125686
1765408221.612070,-9.615016,-1.056313,0.824964,0.165392,-0.136834,-0.116828
1765408221.613112,-9.486489,-1.050932,0.872788,0.165086,-0.127671,-0.125380
1765408221.616083,-10.230749,-0.827355,2.055237,0.157451,-0.130572,-0.128740
1765408221.619058,-10.258247,-0.969632,1.895026,0.152105,-0.123547,-0.125075
1765408221.621085,-9.949186,-1.006695,1.256576,0.159741,-0.128434,-0.118508
1765408221.622123,-9.637732,-1.203969,1.135820,0.161268,-0.129503,-0.126907
1765408221.627071,-9.782400,-1.163917,1.734816,0.168599,-0.132710,-0.126602
1765408221.629128,-9.879243,-1.047346,1.654711,0.172264,-0.134238,-0.129656
1765408221.630105,-9.819464,-0.888331,1.115495,0.169515,-0.138972,-0.131336
1765408221.634076,-9.989238,-0.930775,1.470588,0.165544,-0.134696,-0.130725
1765408221.637097,-10.142276,-0.943328,1.698948,0.167224,-0.135459,-0.125533
1765408221.638123,-10.088473,-1.002511,1.557867,0.163865,-0.133016,-0.122326
1765408221.642116,-10.130320,-1.105930,1.692970,0.160199,-0.133627,-0.132100
1765408221.644052,-10.324006,-1.105930,1.880679,0.170431,-0.132863,-0.125991
1765408221.647082,-10.229554,-1.019847,1.854973,0.174402,-0.137750,-0.125227
1765408221.649200,-10.184121,-0.899091,1.691176,0.162643,-0.140804,-0.136223
1765408221.651138,-9.907937,-0.798661,1.447872,0.161879,-0.133169,-0.125838
1765408221.654095,-9.637732,-1.021042,1.127451,0.168904,-0.135612,-0.120035
1765408221.657169,-9.887612,-1.082018,1.292444,0.169973,-0.146913,-0.125227
1765408221.659122,-10.118362,-1.157341,1.878886,0.165239,-0.129656,-0.134849
1765408221.662067,-9.863700,-0.934959,1.597322,0.172722,-0.129656,-0.131641
1765408221.664109,-9.528933,-0.862625,1.177068,0.172111,-0.135765,-0.126755
1765408221.665108,-9.676588,-0.925992,1.281086,0.162490,-0.147524,-0.131336
1765408221.669086,-9.787780,-1.046150,1.401243,0.161879,-0.145997,-0.127824
1765408221.671288,-9.699903,-1.120277,1.458034,0.167377,-0.140499,-0.131183
1765408221.674125,-9.438066,-1.090985,1.162721,0.167377,-0.136528,-0.139430
1765408221.675071,-9.630558,-0.889526,1.543520,0.168599,-0.144164,-0.137292
1765408221.681149,-9.601864,-0.753228,1.414395,0.170126,-0.146760,-0.136987
1765408221.682155,-9.642514,-0.769966,1.107723,0.162337,-0.143859,-0.134696
1765408221.684131,-9.372309,-0.795672,0.989957,0.161727,-0.139735,-0.129962
1765408221.685160,-9.754900,-0.985174,1.594930,0.156382,-0.146608,-0.129962
1765408221.687142,-9.979673,-0.975610,1.649928,0.162796,-0.139888,-0.132252
1765408221.690071,-10.002390,-1.186035,1.671449,0.169210,-0.136070,-0.129809
1765408221.693109,-9.768052,-1.316356,1.383309,0.169821,-0.136070,-0.133779
1765408221.697098,-9.768052,-1.316356,1.383309,0.169821,-0.149815,-0.133779
1765408221.699057,-10.217599,-0.868603,1.985892,0.167224,-0.147219,-0.139583
1765408221.702098,-10.212217,-0.949904,1.672644,0.170126,-0.147219,-0.131336
1765408221.703061,-9.625775,-1.182449,1.074844,0.170431,-0.137292,-0.133779
1765408221.707068,-9.421328,-0.957078,1.162123,0.170737,-0.137292,-0.137597
1765408221.709095,-9.421328,-0.957078,1.162123,0.170737,-0.145539,-0.137597
1765408221.710039,-9.893590,-1.186035,1.625418,0.175624,-0.151647,-0.136528
1765408221.714091,-9.939023,-0.961262,1.458034,0.174707,-0.152258,-0.142179
1765408221.717079,-9.643710,-0.980392,1.298422,0.166766,-0.146302,-0.143553
1765408221.719074,-9.471543,-0.978599,1.428742,0.168599,-0.146302,-0.135459
1765408221.722095,-9.662242,-1.024629,1.428742,0.173180,-0.151953,-0.134085
1765408221.724046,-10.033475,-1.335485,1.800573,0.169057,-0.150578,-0.138666
1765408221.727042,-9.965326,-1.264945,1.531564,0.181427,-0.150578,-0.135918
1765408221.729060,-9.671208,-1.088594,1.340268,0.185245,-0.152411,-0.141721
1765408221.731136,-9.317909,-1.010282,1.397656,0.168752,-0.150884,-0.147066
1765408221.732211,-9.434480,-0.979196,1.263749,0.174707,-0.160658,-0.129198
1765408221.737078,-9.605451,-1.229077,1.347441,0.183412,-0.166003,-0.125227
1765408221.739120,-9.808702,-1.413199,1.484337,0.182191,-0.157909,-0.136528
1765408221.740168,-10.245097,-1.175873,2.109039,0.187994,-0.153022,-0.142637
1765408221.744056,-10.038857,-1.230870,1.848398,0.190437,-0.146608,-0.135459
1765408221.747037,-9.858918,-1.145983,1.609278,0.184634,-0.165697,-0.135918
1765408221.749094,-10.132113,-0.892515,1.808943,0.179594,-0.160199,-0.149967
1765408221.751045,-9.962337,-0.835724,1.768292,0.184329,-0.146302,-0.127060
1765408221.754048,-9.962337,-0.835724,1.768292,0.184329,-0.152716,-0.127060
1765408221.755039,-10.069344,-1.467599,2.066595,0.179442,-0.161727,-0.128129
1765408221.757217,-9.852941,-1.365973,1.587757,0.181732,-0.155312,-0.138056
1765408221.762127,-9.627569,-1.186035,1.227881,0.189521,-0.155160,-0.133779
1765408221.762627,-9.867885,-1.048541,1.957795,0.179594,-0.160047,-0.133474
1765408221.766210,-9.982065,-0.915830,2.281803,0.176235,-0.147371,-0.134696
1765408221.769141,-9.634145,-1.213534,1.697752,0.173638,-0.153174,-0.123089
1765408221.770144,-9.325681,-1.501674,1.354017,0.183107,-0.159589,-0.126602
1765408221.774245,-9.325681,-1.501674,1.354017,0.183107,-0.165392,-0.126602
1765408221.776125,-9.791965,-1.066475,2.153276,0.184939,-0.152258,-0.132558
1765408221.779061,-9.768650,-1.096365,1.766499,0.184176,-0.155771,-0.132558
1765408221.781139,-9.458392,-1.472979,1.733620,0.182038,-0.154243,-0.123242
1765408221.782120,-9.184600,-1.394668,1.302009,0.188605,-0.157909,-0.134085
1765408221.786051,-9.396221,-1.235055,1.734218,0.189368,-0.156229,-0.136376
1765408221.789091,-9.677187,-1.157939,1.906982,0.195782,-0.153327,-0.133779
1765408221.790139,-9.829028,-1.169297,2.005021,0.189674,-0.155007,-0.132252
1765408221.794123,-9.472141,-1.258967,1.649928,0.185550,-0.147371,-0.133627
1765408221.796168,-9.256335,-1.207556,1.319942,0.184329,-0.152564,-0.141110
