time,acc_x_g,acc_y_g,acc_z_g,gyro_x_rad_s,gyro_y_rad_s,gyro_z_rad_s
1765409005.536067,0.8263557063825951,1.3757659512234273,9.836769282774553,-0.00866636900648001,-0.006845783646348772,-0.0032760100405724323
1765409005.536317,0.8235346234683135,1.4238582388489505,9.830805631433789,-0.007808228013514575,-0.007073049088612927,-0.0047073635850447505
1765409005.536567,0.8207351163282623,1.477533972007352,9.824358955704255,-0.007034886957882332,-0.00733006729305865,-0.006004397504418626
1765409005.536817,0.8191534508480182,1.539288985534843,9.81657908268053,-0.006462970450840834,-0.007580910467283605,-0.0070314143607792005
1765409005.53703,0.8199550243683436,1.6111120580045593,9.806680795620357,-0.006208371146793349,-0.007785767884901744,-0.007647649987973153
1765409005.53723,0.8242300764125545,1.6943204089605326,9.793983504222505,-0.0063816331885828545,-0.007901738921442263,-0.007712448704144665
1765409005.53743,0.8329551566003667,1.789431015045346,9.777944639540491,-0.007083393300188629,-0.007883760243923376,-0.007091034852613096
1765409005.53763,0.8469619283178821,1.8960774296305116,9.758185008561101,-0.008400066310856793,-0.0076856488148880535,-0.005660687185322648
1765409005.53783,0.8669144887781323,2.012979595596253,9.734504675330454,-0.010399970326893411,-0.007261230804961398,-0.003317047637882509
1765409005.538081,0.8932959960390415,2.137971205159668,9.70688828329034,-0.013130084026247234,-0.0065655154851425755,1.97756267744853e-05
1765409005.538281,0.9264049421342853,2.2680855396605715,9.675499265839152,-0.016613612244800832,-0.005555864999029909,0.004399707297633543
1765409005.538481,0.9663607831990834,2.3996966297711695,9.640663263978452,-0.020848508491682616,-0.004193108352707764,0.00983823128096832
1765409005.538681,1.0131178223216717,2.528708368979326,9.602842181068105,-0.025807068841105018,-0.002442550622367239,0.016313362027283108
1765409005.538881,1.0664854182568426,2.650780277105341,9.562601300851695,-0.03143667048001717,-0.0002748331352401454,0.023764430520688776
1765409005.53903,1.126152009047908,2.761575290444963,9.520572467752965,-0.037661674400055474,0.0023333937285830047,0.032092964168912996
1765409005.53928,1.1917102206070607,2.85701256854572,9.477416445074939,-0.044386441352362714,0.005399014765332655,0.041165805948634636
1765409005.53953,1.262680489913567,2.933507169700279,9.433787346686282,-0.051499326744795654,0.008932231274289144,0.05082044565443012
1765409005.53978,1.3385311996165288,2.988178848459247,9.390301527671172,-0.0588774366572975,0.012936594358210972,0.0608723394824309
1765409005.540004,1.4186942980150343,3.019014361195809,9.347512527215182,-0.06639186206726072,0.017409303771539247,0.07112379370871343
1765409005.540204,1.5025765489317997,3.024971524202688,9.305892743435768,-0.07391307428930954,0.022341781045794356,0.08137380626342652
1765409005.540404,1.589567482370002,3.0060185602237084,9.265821789874593,-0.08131616128572725,0.027720512597423995,0.09142812567352765
1765409005.540604,1.6790454495398384,2.9631083467645842,9.227581125210369,-0.0884856055148969,0.033528139024460245,0.10110873652020412
1765409005.540804,1.7703829631758141,2.8980930814336907,9.191354421344467,-0.0953193452506614,0.039744743262103574,0.11026204121303594
1765409005.541267,1.8629520922949514,2.8135896190743916,9.157232912425739,-0.10173191887149206,0.04634926487337233,0.1187651754985495
1765409005.541517,1.9561304187378221,2.7128087175995157,9.125224550176098,-0.10765655815214485,0.05332094747048636,0.12653013080110004
1765409005.541767,2.0493079989064475,2.5993626243245505,9.095265476332417,-0.11304616726470597,0.060640720952914666,0.13350560327736263
1765409005.542017,2.1418957166111596,2.477065195982688,9.067232424051106,-0.11787320152637913,0.06829243179225668,0.13967669432110624
1765409005.541999,2.2333351627750853,2.3497375530026896,9.040955107083589,-0.12212854475867865,0.07626385270703064,0.14506271934838005
1765409005.542249,2.323109712090129,2.2210305756848796,9.016228132386075,-0.1258195645287645,0.08454741623945176,0.14971344517413684
1765409005.542499,2.4107559726884547,2.094273631263265,8.992822260900175,-0.12896758155001423,0.09314062480825624,0.15370410515242208
1765409005.542749,2.495874517558966,1.9723567186695568,8.97049490161956,-0.13160501255214363,0.10204610324765459,0.15712956905130945
1765409005.542978,2.5781388510675427,1.8576504604606694,8.948999657561536,-0.13377243676939024,0.111271287409481,0.16009807460217504
1765409005.543228,2.6573017543056454,1.7519650342535005,8.92809476690072,-0.1355158010927536,0.12082777953972348,0.16272493559757661
1765409005.543478,2.73319828262545,1.6565457668514005,8.907550515467777,-0.1368839250057317,0.13073043289526856,0.1651266060497598
1765409005.543728,2.8057447590983067,1.5721005030089104,8.887155953452853,-0.1379264035285738,0.14099624510658607,0.16741540713765807
1765409005.544142,2.8749332965608367,1.4988523305125967,8.866725253359773,-0.13869194448316804,0.1516431453720877,0.16969514169571048
1765409005.544342,2.9408217996725843,1.436610452127146,8.8461037955902,-0.1392271218021379,0.1626887596581368,0.172057751413485
1765409005.544542,3.0035199447266994,1.3848515210341847,8.825173805168538,-0.1395754849284843,0.17414922989019802,0.17458110617942071
1765409005.544742,3.0631720950896737,1.3428036890150674,8.803859224560862,-0.13977694209855468,0.1860381495341595,0.17732792822592633
1765409005.544942,3.119938374503346,1.3095264173508583,8.782129441384251,-0.13986733426566705,0.1983656685847914,0.18034574447045923
1765409005.545095,3.1739752329966566,1.2839809468549388,8.760001544459168,-0.13987813158105306,0.21113782092875857,0.18366766357025738
1765409005.545345,3.2254168331165536,1.2650887047047223,8.737541103832742,-0.13983621076406472,0.22435612537414507,0.18731372674846197
1765409005.545595,3.2743584000787957,1.2517769549533873,8.714861899646152,-0.13976370632498333,0.2380174892343213,0.19129258704065116
1765409005.545845,3.3208423329428998,1.2430121920458839,8.692125128304335,-0.1396779608322874,0.25211439385334866,0.19560330536770745
1765409005.546042,3.3648475756952205,1.2378224397935913,8.669538224554298,-0.13959161141857085,0.26663528377437923,0.2002370898407273
1765409005.546292,3.4062827347605507,1.2353102650365972,8.647352768598777,-0.1395128367042449,0.2815650471803527,0.20517884159212527
1765409005.546542,3.444983666841633,1.2346588561882292,8.625860267660652,-0.13944576552076576,0.2968854809177739,0.2104084136846757
1765409005.546792,3.480716379556998,1.2351335090302138,8.605384202136385,-0.13939102784930965,0.3125756679359095,0.21590154208552398
1765409005.547005,3.5131857135384394,1.2360804148168927,8.586267020921007,-0.1393464052528337,0.328612240429673,0.22163045837518558
1765409005.547255,3.5420494702315923,1.2369243820772526,8.56885188314861,-0.1393075142700994,0.3449695531972621,0.22756423033021067
1765409005.547505,3.5669369752437063,1.237167212240671,8.553460232006579,-0.13926844835964897,0.36161984337210995,0.2336689014298871
1765409005.547755,3.587471027670829,1.2363883456441163,8.54036688834784,-0.13922232196279816,0.37853348027606626,0.23990752306605892
1765409005.548039,3.6032925750352076,1.234248713135976,8.529774286212604,-0.13916169478786938,0.3956793896533857,0.24624018748937543
1765409005.548289,3.614087518152181,1.2304978379698617,8.521787551791796,-0.13907889087516678,0.41302568304451837,0.25262415896833534
1765409005.548539,3.619614420893344,1.2249837178328171,8.516392738814483,-0.13896625664345447,0.4305404728582994,0.25901416906002345
1765409005.548789,3.619731060858626,1.2176649075578914,8.513441149740505,-0.13881641845739023,0.4481928248352362,0.26536291677393253
1765409005.548996,3.6144174252112755,1.2086240291830659,8.512642608735764,-0.138622598259444,0.4659537803327333,0.27162181287323645
1765409005.549246,3.6037930539226597,1.1980812691804068,8.5135697171477,-0.1383790273152694,0.48379735968230625,0.27774201382070524
1765409005.549496,3.5881270864497137,1.1864054429869146,8.515673987093754,-0.13808146996482618,0.5017014428787807,0.28367577520089293
1765409005.549746,3.5678395314047817,1.1741195517704983,8.51831387568033,-0.1377278371224593,0.5196484282095021,0.2893781061711972
1765409005.549977,3.54349218043688,1.1618980049729692,8.520794268142165,-0.13731883891773783,0.537625593136491,0.294808644072198
1765409005.550227,3.5157677259185025,1.1505537794297456,8.52241631864687,-0.1368586050109579,0.5556251136115974,0.2999336215818747
1765409005.550477,3.4854366247527016,1.1410150826311078,8.522534999305993,-0.13635519387482958,0.5736437251845159,0.30472778319870397
1765409005.550727,3.4533132115994976,1.1342920097676723,8.52061936394759,-0.13582091804602497,0.5916820254443316,0.3091761141745538
1765409005.550986,3.420204896155502,1.131434190614332,8.516308513442434,-0.1352724316362503,0.609743429656893,0.31327525381493615
1765409005.551236,3.3868600808801683,1.1334807948046262,8.509455458108986,-0.13473055889430985,0.6278328143524949,0.31703446885007935
1765409005.551486,3.353921069117758,1.141404708581498,8.500151733866447,-0.1342198785727428,0.6459549230063292,0.32047606958483665
1765409005.551736,3.3218874117977255,1.1560532213415684,8.488727947256045,-0.13376810398629133,0.6641126584309871,0.32363517133372427
1765409005.552045,3.291093059171833,1.1780880532136557,8.475729311359405,-0.13340530727970218,0.6823054373731015,0.32655873832370874
1765409005.552295,3.2616982632772586,1.2079279116145094,8.461869317602437,-0.13316303147796674,0.7005278163436488,0.3293038941761173
1765409005.552545,3.233695514489445,1.245697035331724,8.44796718227806,-0.13307331848127651,0.7187685929343254,0.3319355365235286
1765409005.552795,3.206928080167326,1.291183527774236,8.434875412525319,-0.13316766072230227,0.7370105375512399,0.3345233446406898
1765409005.552992,3.1811191494607596,1.343811652757589,8.423404009180146,-0.13347587162944097,0.7552308317443369,0.33713831263224936
1765409005.553242,3.155908526727447,1.4026322697918292,8.414248196385746,-0.1340248762099748,0.7734022017500555,0.33984897851808005
1765409005.553492,3.1308925266865635,1.4663347909165336,8.40792669343838,-0.1348374453550047,0.7914946526739387,0.3427175537608501
1765409005.553742,3.105661983708142,1.5332823903451744,8.40473684518576,-0.13593092583441715,0.8094776395487578,0.3457961827255496
1765409005.553988,3.079833638953759,1.6015700407308358,8.40473120323124,-0.13731604497127609,0.8273224655320335,0.3491235681174799
1765409005.554238,3.0530716517459004,1.6691028044527991,8.407717330635808,-0.13899588728107712,0.8450046773200623,0.3527221840055202
1765409005.554488,3.025098156023396,1.7336901486539753,8.413279139701457,-0.14096514186824446,0.862506230329977,0.3565962661819399
1765409005.554738,2.995693920744349,1.7931510746688653,8.420815206615828,-0.1432097058869337,0.8798172199674779,0.36073072512444043
1765409005.555066,2.964691655459911,1.8454242641943988,8.429588207835824,-0.14570671252087036,0.8969370155486134,0.3650910745520885
1765409005.555266,2.9319650378209876,1.8886767981089347,8.438779772706026,-0.14842503345677024,0.9138746772660931,0.369624410071315
1765409005.555466,2.89741602541758,1.9214044510360744,8.447546206794971,-0.15132627098993215,0.9306485793051442,0.37426140566823524
1765409005.555666,2.8609615152934382,1.9425168352001423,8.4550726473966,-0.15436619814947736,0.9472852181219935,0.3789192254076024
1765409005.555866,2.822518503512884,1.9514020511310688,8.460625834591852,-0.1574965483633786,0.9638172657653895,0.38350518941236944
1765409005.556009,2.781985785794774,1.9479673588478463,8.463607319708268,-0.1606670260198938,0.9802810180008315,0.3879210012375396
1765409005.556342,2.739221044821537,1.9326539231013746,8.463608051874793,-0.16382740955062325,0.9967134522484957,0.39206733574430475
1765409005.556676,2.694014793217511,1.9064248261777172,8.460462072405281,-0.16692963546115228,1.0131491336819702,0.3958485846652556
1765409005.558015,2.6460656969875886,1.8707267004268702,8.454293501130797,-0.16992977339447687,1.029617200395459,0.3991775455603262
1765409005.558265,2.5949637857079986,1.8274266864474025,8.445549046774575,-0.17278982348161412,1.0461386361021277,0.4019798215642934
1765409005.558515,2.5401882122561292,1.7787276803931067,8.435008453452538,-0.1754792838778242,1.0627240031367997,0.4041976923882312
1765409005.558765,2.481124458464937,1.727065670453353,8.423767294953468,-0.1779764462783613,1.0793717612289973,0.4057932358245477
1765409005.558097,2.4171026025019566,1.674993443154536,8.413189840323382,-0.18026938163190315,1.0960672531270863,0.40675051945406915
1765409005.558347,2.3474544571494915,1.6250554236678654,8.40483340563286,-0.18235657819093376,1.1127824087284888,0.40707672808936585
1765409005.558597,2.271584217633604,1.5796591076034596,8.400348565929958,-0.1842471868632658,1.129476199723992,0.40680213545354016
1765409005.558847,2.189045358229257,1.540949291326657,8.401361500783342,-0.18596081428268516,1.146095853142763,0.4059788773711439
1765409005.559071,2.0996158033195664,1.51069184892315,8.40934619503584,-0.18752679384318516,1.1625787941399646,0.4046785488302474
1765409005.559321,2.0033634614718085,1.4901740021556162,8.425495775227734,-0.18898287945781855,1.178855234858908,0.40298872338617164
1765409005.559571,1.9006948316278542,1.4801277832584234,8.45060359319366,-0.1903733549781502,1.1948512724974436,0.4010085662067438
1765409005.559821,1.7923806875278752,1.4806825336603986,8.484964858540103,-0.19174661994864547,1.2104923319357956,0.39884377472552657
1765409005.560064,1.6795548901717212,1.4913507762991158,8.528308305827235,-0.19315237774418725,1.2257067997804962,0.3966011303365357
1765409005.560314,1.5636848217418973,1.5110498590907613,8.579765123017488,-0.19463860465836347,1.2404297298739644,0.3943829733653005
1765409005.560564,1.446514253290421,1.5381595964144033,8.637879809613908,-0.19624851538096932,1.25460651741438,0.3922819202944366
1765409005.560814,1.3299814505310943,1.5706137184680022,8.700664793267935,-0.1980177554628074,1.2681964156193808,0.3903761354203001
1765409005.561049,1.2161171887266646,1.606020320142008,8.765697198822119,-0.19997203942652667,1.2811757150819998,0.3887254499423947
1765409005.561299,1.106929339093554,1.6418040531985005,8.830252115308078,-0.2021254165920482,1.2935403487694934,0.3873685787894434
1765409005.561549,1.004282696285028,1.6753609801223757,8.891462576608067,-0.20447929301331336,1.3053076469799523,0.3863216115963394
1765409005.561799,0.9097841279310462,1.7042160122676109,8.94649315587145,-0.2070222750803698,1.316516967719065,0.3855778552362313
1765409005.562059,0.8246831840433462,1.7261726813469702,8.99271240611808,-0.20973083529567546,1.3272289932512698,0.3851089994490043
1765409005.562309,0.749796676208217,1.7394456274934653,9.027849906903803,-0.21257073952765645,1.3375236153096992,0.3848674867145641
1765409005.562559,0.6854627027228986,1.7427676763487607,9.050126623970208,-0.2154991237193643,1.3474964951133994,0.38478990623213755
1765409005.562809,0.6315258616666247,1.7354656174452834,9.05835209904538,-0.21846707265900506,1.3572545351619913,0.384801199138409
1765409005.563028,0.5873518762924176,1.717501277706822,9.051986902418081,-0.22142253773117657,1.3669106096175379,0.38481944856000844
1765409005.563278,0.5518672951456696,1.689476500345439,9.031171831930356,-0.22431343274542515,1.3765779579719257,0.38476102004880425
1765409005.563528,0.5236184573170172,1.6526019713073716,8.99672616551584,-0.22709075632507542,1.386364657066971,0.38454580188081955
1765409005.563778,0.5008432390587787,1.6086310856429236,8.950117273244645,-0.2297115897460678,1.3963685650307305,0.3841022706462093
1765409005.564125,0.48154912169357683,1.5597618565305988,8.89340433629043,-0.2321418052935275,1.406673081086228,0.3833720963315584
1765409005.564375,0.46359197180982564,1.5085118998899563,8.829159648060227,-0.2343583074331018,1.4173439683764308,0.3823140234549664
1765409005.564625,0.44475139763882937,1.4575728986776741,8.76037124247656,-0.23635063534831705,1.4284273339632156,0.3809068128018603
1765409005.564875,0.42280007551491067,1.4096516061133684,8.690330309881578,-0.23812178361721173,1.4399486903636738,0.3791510722768437
1765409005.565081,0.39556572889377234,1.3673052198976192,8.622506525822292,-0.2396881456561299,1.4519129081459148,0.377069831605129
1765409005.565331,0.36098568142393084,1.3327802989758941,8.560414321627203,-0.24107855280320256,1.4643048517704147,0.374707745289756
1765409005.565581,0.3171554512382545,1.3078656974853762,8.50747296431781,-0.24233246191603858,1.4770905459980193,0.3721288759752518
1765409005.565831,0.26237488675890036,1.2937702390150438,8.466862692375999,-0.24349741668340275,1.4902187841711985,0.3694131263126136
1765409005.566001,0.1951974528796515,1.2910345863294417,8.441378386651321,-0.24462596113029436,1.503623121376134,0.36665152076373475
1765409005.566251,0.11448918608040477,1.299484402677242,8.43328233531093,-0.24577222065529833,1.5172242017201287,0.3639406427759828
1765409005.566501,0.019502063178986406,1.3182292088940468,8.444159317328502,-0.24698838982133905,1.5309323791645004,0.36137658695928415
1765409005.566751,-0.09003840930821617,1.3457085825130255,8.474780372372392,-0.24832137375910268,1.544650622601057,0.35904880717465754
1765409005.567085,-0.21383861095984455,1.3797841923854568,8.524985581227375,-0.24980981513935038,1.5582777425963257,0.35703425402605654
1765409005.567335,-0.3509493548328011,1.4178724292654925,8.59359999585909,-0.251481697931538,1.5717120210260618,0.3553921992968163
1765409005.567585,-0.49970395358590614,1.457108641949623,8.67839908514425,-0.25335265921030886,1.584855340302797,0.35416011914976847
1765409005.567835,-0.6577001287689812,1.494531198773339,8.776139054431408,-0.25542507867514047,1.5976178642340366,0.3533509397037316
1765409005.568067,-0.8218395782931875,1.527272300665961,8.882662432219249,-0.25768796829788077,1.6099231964775846,0.35295185073889945
1765409005.568317,-0.9884311987625927,1.5527424596224677,8.99308109892615,-0.2601176529776936,1.6217137499487144,0.3529247866539271
1765409005.568567,-1.1533544117972774,1.5687963531603477,9.102028855471207,-0.26267920705943465,1.632955853636355,0.3532085644524239
1765409005.568817,-1.3122695652550802,1.573869153886213,9.203965441958154,-0.26532858073566346,1.6436439732758423,0.3537225519680427
1765409005.569003,-1.4608552424901584,1.5670744902136935,9.293506221511334,-0.26801530978072674,1.6538033946278157,0.3543716206266422
1765409005.569253,-1.5950496969588746,1.548257977521099,9.365749141776826,-0.27068565526102706,1.6634908323421411,0.35505203635253674
1765409005.569503,-1.7112761039687412,1.518003467230273,9.416573347299869,-0.27328598117260444,1.6727926366637025,0.3556578791916571
1765409005.569753,-1.806637141047977,1.4775923163730982,9.442889468590899,-0.2757661610132711,1.6818205072802854,0.35608755556435534
1765409005.57037,-1.8790706500679035,1.4289190207720206,9.442827321591249,-0.2780828051255225,1.6907048619166773,0.3562499644179313
1765409005.570703,-1.927462446812169,1.3743696812317732,9.41585119550142,-0.28020210697269343,1.6995862538134074,0.3560699042078755
1765409005.571037,-1.9517140099658121,1.316672575666351,9.362796110017047,-0.2821021212815288,1.7086054753240405,0.3554923774369923
1765409005.571009,-1.9527627837616406,1.258731652806246,9.285821143278381,-0.2837743218730706,1.7178931803344761,0.3544855569385093
1765409005.571259,-1.9325528489810244,1.2034537367582845,9.188279446466538,-0.28522433760737365,1.7275599631035754,0.35304229105507384
1765409005.571509,-1.8939547488902002,1.1535793654479896,9.074510008071227,-0.2864718138486332,1.7376878284733515,0.3511801193142577
1765409005.571759,-1.8406352040885656,1.111526341842818,8.949563423556624,-0.2875493879461336,1.748323878184091,0.34893985017340806
1765409005.572141,-1.776879962207972,1.0792544004845972,8.818881101248152,-0.2885008112041386,1.7594768223078263,0.34638283215145654
1765409005.572391,-1.7073762900768379,1.0581584572075398,8.687952587084737,-0.28937830896788097,1.7711166176118853,0.34358712525406526
1765409005.572641,-1.6369659948170667,1.0489963720807667,8.561978274206712,-0.2902393431430546,1.7831771857986094,0.34064283118597144
1765409005.572891,-1.5703848142919772,1.051855080657229,8.445564586135976,-0.2911430089590898,1.7955618491144762,0.33764686278891826
1765409005.573105,-1.5120077849204094,1.0661566351602307,8.34247539289838,-0.29214633653576405,1.8081508878555266,0.3346974418608609
1765409005.573355,-1.4656209281323782,1.0907033011840332,8.255456691678436,-0.29330076900170343,1.820810475314886,0.3318886230601994
1765409005.573605,-1.434236679784207,1.123758241061518,8.186142391956606,-0.2946490609989338,1.8334021747553955,0.3293051453900477
1765409005.573855,-1.4199648022000844,1.1631555068892794,8.13503948500803,-0.2962227927120323,1.845792204734488,0.32701789822314525
1765409005.574088,-1.4239439758599755,1.2064308449838672,8.101583310138448,-0.2980406293037996,1.8578597993087482,0.3250802432000448
1765409005.574421,-1.4463339256921846,1.250964234392338,8.084249748931354,-0.3001073880372677,1.869504178360085,0.3235253583026053
1765409005.574755,-1.4863646416109562,1.2941261087341753,8.080711057547218,-0.30241392378826387,1.8806498501596391,0.3223646944347891
1765409005.575072,-1.5424370437200798,1.3334204651937487,8.0880238350306,-0.30493780802686166,1.8912501426530661,0.3215875907654164
1765409005.575322,-1.612266965860816,1.3666183845388884,8.10283898728449,-0.3076447424822612,1.9012889623467781,0.3211620768297228
1765409005.575572,-1.6930616773523117,1.3918752732396786,8.121623673045324,-0.31049061262742383,1.9107808040912426,0.3210368545075112
1765409005.575822,-1.781716699749136,1.4078256773104438,8.140885111473255,-0.31342405573667026,1.9197690239157228,0.3211443774275941
1765409005.576121,-1.8750213229634929,1.4136512470865878,8.15738695649153,-0.31638939814981665,1.9283224039182816,0.32140485343238845
1765409005.576371,-1.969863393040818,1.409119443255203,8.168350250083305,-0.31932980659980853,1.936530113843929,0.32173092742999837
1765409005.576621,-2.0634258788290376,1.394591810138504,8.171630880610929,-0.3221904984735046,1.9444952901931436,0.3220327686732991
1765409005.576871,-2.153367566528374,1.3710011558028805,8.165863059810372,-0.3249218581103407,1.9523275827999003,0.3222232709607678
1765409005.577117,-2.2379773435544634,1.339797676213915,8.150555195033478,-0.3274823010803242,1.9601351492326573,0.32222306523137256
1765409005.57745,-2.316287588975242,1.3028654105487762,8.126123438693869,-0.3298407224390856,1.9680166903190401,0.3219650520576336
1765409005.577784,-2.388130673021035,1.2624120375179206,8.093850901351757,-0.33197837423440735,1.9760541788403563,0.321398194737779
1765409005.57813,-2.4541262734939995,1.2208366140674891,8.055767322589446,-0.3338900418012184,1.9843069134776463,0.32049035995956127
1765409005.57838,-2.515595810073535,1.1805817310245157,8.014454031562005,-0.3355844176424644,1.9928074345073843,0.31923003912166853
1765409005.57863,-2.574410576698512,1.1439788778675226,7.972790064610032,-0.3370836128403584,2.0015596764887245,0.31762683511752265
1765409005.57888,-2.6327887130519274,1.1130978296770169,7.933664427554636,-0.33842181257283266,2.010539512667355,0.31571067196833125
1765409005.579123,-2.6930616256853193,1.089611502615099,7.899684833505995,-0.33964316369159625,2.0196975874586687,0.3135297792698332
1765409005.579373,-2.7574333942563305,1.0746866449802244,7.87291453859842,-0.34079905112846526,2.0289640858102347,0.31114759817565013
1765409005.579623,-2.827757823609821,1.0689085322811556,7.854666289512781,-0.3419449630825356,2.038254910073858,0.3086388246311957
1765409005.579873,-2.905356774199471,1.0722452382555203,7.845375928203996,-0.34313716427840396,2.047478663332417,0.3060848436853223
1765409005.580195,-2.9908991972676837,1.0840543339697235,7.844568773685145,-0.3444293932411604,2.056543867667021,0.30356882971179067
1765409005.580445,-3.0843526292632926,1.1031318626192541,7.8509214658898525,-0.3458697773906045,2.065365927074383,0.301170803152457
1765409005.580695,-3.1850088175819957,1.1277999093645976,7.862411758443562,-0.34749812896865007,2.0738734009597732,0.2989629452340378
1765409005.580945,-3.2915746121215848,1.1560253529833182,7.87653861741395,-0.3493437512386659,2.0820131350435243,0.2970054681484378
1765409005.581041,-3.4023106494582684,1.1855595397707994,7.890585534293998,-0.3514238483460716,2.089753749572787,0.2953433050555463
1765409005.581374,-3.5151958782862507,1.2140875501154067,7.901894033613117,-0.35374259685706355,2.0970870352463313,0.2940038190486912
1765409005.581708,-3.628096355391068,1.239376106696221,7.908114566251608,-0.35629090678043296,2.104027019345586,0.29299564816147294
1765409005.582049,-3.7389206687757612,1.2594100656849434,7.907407800687913,-0.359046876923388,2.1106067676452063,0.2923087135203735
1765409005.582299,-3.8457498451908063,1.2725087326821007,7.898578090930576,-0.36197693270796516,2.116873278729175,0.29191531155592904
1765409005.582549,-3.9469355403256774,1.2774156905510186,7.881130785189047,-0.36503761490003855,2.1228810734751264,0.2917721031766547
1765409005.582799,-4.041166060986458,1.2733594347330937,7.855255429991219,-0.3681779543487191,2.1286852820382753,0.291822757304388
1765409005.583062,-4.1275043146305315,1.2600853815540167,7.821746591104452,-0.37134232584404386,2.1343351445766587,0.29200103715428644
1765409005.583312,-4.205404050386731,1.237861159449782,7.781880709993564,-0.3744736380448626,2.139868808006671,0.29223419924490074
1765409005.583562,-4.274710508458226,1.2074567371360674,7.737269515509088,-0.37751668833087526,2.14531008961569,0.2924466369931673
1765409005.583812,-4.335649675531909,1.17010059947582,7.689708441133509,-0.3804214845073484,2.1506675245389015,0.2925637033265032
1765409005.584068,-4.388808090851664,1.1274138509929164,7.641034312603631,-0.38314631284300543,2.155935606871351,0.2925156070460014
1765409005.584318,-4.435103408918444,1.0813250430540224,7.593001927984632,-0.38566032889674823,2.1610977741675477,0.2922412404205467
1765409005.584568,-4.475744840230356,1.0339685877819271,7.547184323574266,-0.3879454751976735,2.1661304526280802,0.2916917754971156
1765409005.584818,-4.512182462056221,0.9875691488913829,7.504897087852559,-0.38999758398945605,2.1710074244357913,0.290833834955687
1765409005.588049,-4.546045772857747,0.9443148377266304,7.4671450488489475,-0.39182658687012417,2.1757038941866043,0.28965198621173016
1765409005.588382,-4.579074289828397,0.9062243068131641,7.434590992243876,-0.39345581324256784,2.1801998382660055,0.28815026692958456
1765409005.588716,-4.61304468807341,0.8750161930466102,7.407548444679596,-0.3949204216369879,2.184482404753616,0.28635248049757145
1765409005.588139,-4.649698526336878,0.8519919303357281,7.3860004979693095,-0.3962650804940778,2.1885472292709296,0.28430111015810783
1765409005.588389,-4.690672361392266,0.8379432778344468,7.369643363867144,-0.397541080562354,2.1923985779962782,0.28205485399166863
1765409005.588639,-4.737429777157926,0.8330939972845016,7.357949009289612,-0.39880309043881823,2.1960483030929683,0.2796849333687706
1765409005.588889,-4.791194124986157,0.8370817630803966,7.3502378044314325,-0.4001057614211884,2.1995137334786303,0.27727044601662315
1765409005.589043,-4.852881943099701,0.8489822036510046,7.345749763952741,-0.40150037598146293,2.2028147906963342,0.27489311584544973
1765409005.589293,-4.923039461935129,0.8673725726660021,7.34370194804174,-0.40303172553043226,2.2059707673142652,0.2726318385460508
1765409005.589543,-5.001787334664874,0.8904289563161046,7.3433218265427005,-0.4047353853172825,2.2089973082493177,0.2705574366460978
1765409005.589793,-5.088780714586402,0.9160487699915649,7.34385319220268,-0.40663552865216723,2.2119041629479965,0.26872802454753736
1765409005.589983,-5.183192241904007,0.9419891334875112,7.344540379199345,-0.40874340199277764,2.214694181795031,0.2671853469273521
1765409005.590233,-5.283724370237847,0.9660108106892008,7.344603654477868,-0.41105656146386754,2.2173638015578745,0.26595238246038405
1765409005.590483,-5.388655327934431,0.9860168777200288,7.3432209068433,-0.4135589345117581,2.219904960903725,0.2650323798218075
1765409005.590733,-5.495920150315517,1.0001759777874124,7.339528419124086,-0.4162217180266402,2.222308099178275,0.26440931939268064
1765409005.591015,-5.603224434005275,1.0070224463278585,7.332647865982123,-0.4190050682098282,2.224565683646571,0.2640496209204764
1765409005.591348,-5.708184147538261,1.005529267876143,7.3217392727054005,-0.42186048331393966,2.2266756146760547,0.26390480609159656
1765409005.591682,-5.808481351729227,0.9951534628071038,7.3060733643620415,-0.42473372926625014,2.2286439016684136,0.26391480324427036
1765409005.592041,-5.902023785354076,0.9758557246912122,7.28511400244762,-0.4275681181833974,2.2304861810360728,0.2640116344725382
1765409005.592291,-5.9870950738369295,0.9480963962532346,7.258600989798236,-0.43030793383895644,2.2322278825454887,0.2641233102786558
1765409005.592541,-6.062481098890589,0.9128089822529298,7.226622244326063,-0.43290180665656397,2.2339030383363605,0.2641778191778584
1765409005.592791,-6.127558048830481,0.8713518090581226,7.1896622918704,-0.4353058531078538,2.2355518476073213,0.26410711044563534
1765409005.593017,-6.182330609085242,0.8254387761451912,7.148614276277104,-0.4374863929998994,2.2372172154740175,0.263850949830856
1765409005.593267,-6.2274145649039525,0.7770507408753239,7.104746292754951,-0.43942205892171937,2.23894060214263,0.2633605096727834
1765409005.593517,-6.263965038489015,0.7283293621323532,7.05961819202752,-0.4411051442839263,2.2407576127893067,0.26260152295657513
1765409005.593767,-6.293557993978039,0.6814559512837425,7.014951335743748,-0.4425420958039764,2.242693812813584,0.2615567685375571
1765409005.594039,-6.318037542518006,0.6385201748773329,6.97246163290277,-0.4437531152809333,2.24476128717561,0.26022759992135114
1765409005.594289,-6.339344560314495,0.6013869489788848,6.933674421294418,-0.4447708896186343,2.246956458197067,0.25863424416191066
1765409005.594539,-6.35934332945039,0.5715726007297101,6.89974524360916,-0.4456385293415425,2.249259569410984,0.25681469997025885
1765409005.594789,-6.37966265320424,0.5501417367175141,6.87131120579174,-0.44640685398474067,2.25163600877558,0.2548222247502875
1765409005.595049,-6.401566325846995,0.5376344178674998,6.848394049102787,-0.44713119762007336,2.254039339982435,0.25272157098163445
1765409005.595382,-6.425865141648338,0.5340303859885638,6.8303698719726755,-0.44786792639175266,2.2564156295763462,0.2505842739835631
1765409005.595716,-6.452879157571916,0.5387538303308621,6.816012178045582,-0.44867088198130217,2.2587084769998493,0.24848338866605194
1765409005.596009,-6.482454737893756,0.5507184689288923,6.803605421054789,-0.4495879846593501,2.2608641171917525,0.2464881221289244
1765409005.596259,-6.514035644380544,0.5684088954847363,6.7911176559327915,-0.4506582252394846,2.262836063160433,0.2446588164569517
1765409005.596509,-6.546780868382156,0.5899909774854548,6.776414648614082,-0.4519092463589179,2.264588909569402,0.24304270782089446
1765409005.596759,-6.5797148197288635,0.6134418693510949,6.757492966993345,-0.4533556771004716,2.2661010226412084,0.24167082267393916
1765409005.59705,-6.611889937708951,0.6366887782809864,6.732705733143317,-0.45499833990861244,2.2673658766988414,0.24055625806968228
1765409005.5973,-6.642539634009993,0.6577451731173385,6.70095345318167,-0.45682437868356457,2.2683918521431,0.23969393435532055
1765409005.59755,-6.671200865478386,0.6748340714040962,6.661814927835686,-0.4588082704684374,2.2692004585406873,0.239061733175259
1765409005.5978,-6.697789931195838,0.6864904249556228,6.615599585412853,-0.4609136129058985,2.2698231662359754,0.23862277330644677
1765409005.598005,-6.722622291879469,0.6916380628955902,6.563312739786886,-0.46309553684384075,2.270297259356076,0.23832846614711567
1765409005.598338,-6.746376781180187,0.6896403001461519,6.50653889956705,-0.46530356341096346,2.2706613188545144,0.23812197627507523
1765409005.598672,-6.770014067142401,0.6803258085054781,6.447262347469517,-0.46748470569068235,2.2709510486406255,0.2379417971018555
1765409005.599007,-6.794665752941854,0.6639916692035192,6.387654047679263,-0.46958661928746115,2.2711961018721776,0.23772527297464963
1765409005.599257,-6.821512827518278,0.6413842965240659,6.329856573076376,-0.47156063156745004,2.2714183377762387,0.23741198134579372
1765409005.599507,-6.851670469661558,0.6136580084152966,6.27579449473971,-0.4733645137678348,2.2716316129208627,0.23694691300917312
1765409005.599757,-6.886091213866898,0.5823116009365611,6.227028742011389,-0.4749648983077191,2.271842886271855,0.23628338159327203
1765409005.600064,-6.925491954289899,0.5491048615185203,6.184662908084238,-0.47633927452027897,2.2720541800908194,0.2353855804772535
1765409005.600314,-6.970305177236253,0.5159584523267069,6.149301035121864,-0.4774774970008137,2.2722648406203603,0.23423069100231564
1765409005.600564,-7.020653326056713,0.4848415427000123,6.121052085076544,-0.4783827134689724,2.2724735800038056,0.2328104280544237
1765409005.600814,-7.076346349508362,0.4576520129648856,6.099574412518297,-0.47907160378642233,2.2726798913094357,0.23113189138167026
1765409005.600999,-7.136903251712437,0.43609440616892853,6.084151372913528,-0.47957384654346047,2.2728845567715386,0.22921758053796662
1765409005.601249,-7.201597034100423,0.4215619359480581,6.073786769789698,-0.4799307778181571,2.273089129268956,0.22710444044364672
1765409005.601499,-7.269519271559585,0.4150310493963497,6.067307782316877,-0.4801932605902689,2.273294481429238,0.22484185487598962
1765409005.601749,-7.339657076069659,0.41697893016588955,6.063463273970829,-0.4804188540244271,2.2734987343819224,0.22248860796769807
1765409005.601984,-7.410972784004394,0.4273340153360417,6.0610063648081285,-0.4806684585644233,2.273695026346613,0.22010896989834813
1765409005.602234,-7.482476639100532,0.44546666347580793,6.058753204887966,-0.48100267980469213,2.273869652017448,0.21776819731464103
1765409005.602484,-7.553285240636875,0.4702227004043494,6.055616251257159,-0.4814781774733037,2.274001112478468,0.21552784132526803
1765409005.602734,-7.622662153342291,0.4999979648439281,6.050617876866414,-0.4821442609765591,2.27406052435646,0.21344130454397692
1765409005.602998,-7.690040060496548,0.5328478145244043,6.04289486386437,-0.4830399746487881,2.274013595398919,0.2115500743611136
1765409005.603331,-7.755025656035393,0.566622143801464,6.031704290112672,-0.48419187350532256,2.2738240124034332,0.20988098760644813
1765409005.603665,-7.8173896561764735,0.5991140352776017,6.0164372272908615,-0.48561262152345996,2.2734577235926245,0.20844476242645932
1765409005.604051,-7.877045365566448,0.628208800933692,5.99664071440243,-0.4873004708164186,2.2728873531484903,0.20723587879215555
1765409005.604301,-7.9340202650743725,0.6520201089309121,5.972043872220291,-0.4892396127550383,2.2720959249435886,0.20623372204212653
1765409005.604551,-7.988425943310633,0.6690018206804149,5.942583383088045,-0.4914013241828077,2.271079195664572,0.2054047580005728
1765409005.604801,-8.0404318225693,0.6780284111864883,5.908425673627061,-0.49374577382192036,2.269846153285208,0.2047054154279466
1765409005.605005,-8.090246853447248,0.678442354858986,5.869983761313049,-0.49622433089203893,2.2684175493751675,0.20408532790536602
1765409005.605255,-8.138110599188945,0.670071518004035,5.827924070790586,-0.4987822253061471,2.2668226462631162,0.203490630267288
1765409005.605505,-8.184291537876126,0.6532217352450719,5.783155441991761,-0.501361417707968,2.265094644902329,0.2028670951353608
1765409005.605755,-8.229087062533155,0.6286492045043629,5.736792378397097,-0.503903544324863,2.263265483866368,0.20216299432931392
1765409005.605984,-8.272818172233602,0.5975153864911954,5.690087819735877,-0.5063528228839953,2.261360819641045,0.20133163674089125
1765409005.606317,-8.315813631127718,0.5613254358198446,5.644336252235734,-0.5086588318513802,2.259395991239421,0.200333562439783
1765409005.606651,-8.35838297258774,0.5218507965593123,5.6007546314565975,-0.5107790774619082,2.2573736492680023,0.1991383880706676
1765409005.606998,-8.400782726240509,0.48103734322011327,5.560354889654586,-0.5126812399831782,2.2552835041798267,0.1977263112182986
1765409005.607248,-8.443183169167963,0.44090163900298496,5.52382575442072,-0.5143449645275299,2.2531043191831355,0.1960892755394578
1765409005.607498,-8.48564265783336,0.4034190291480645,5.491441670283751,-0.5157630447144157,2.2508078605626047,0.19423176385442592
1765409005.607748,-8.528093645623555,0.3704085177726289,5.463012551810458,-0.5169418453067077,2.2483641136382033,0.19217112955501559
1765409005.608007,-8.57034056489005,0.3434209703423425,5.4378809275371465,-0.517900839706806,2.245746818468965,0.18993731826693233
1765409005.608257,-8.6120670637533,0.32363881469026534,5.414964723220577,-0.5186712133831094,2.242938373117698,0.18757181010065763
1765409005.608507,-8.652850101423141,0.3117963163477117,5.39283754281427,-0.5192935924504596,2.23993337591763,0.18512566497392854
1765409005.608757,-8.692180925319239,0.30812902112468893,5.3698366752933175,-0.51981506961297,2.2367404195688216,0.18265668153385525
1765409005.608984,-8.729495996182612,0.3123585207088796,5.3441915071630675,-0.520285794270362,2.2333820779249844,0.18022584442722425
1765409005.609234,-8.764221964890321,0.3237142896989266,5.3141672656796874,-0.5207554495691812,2.2298932626979138,0.17789337219801418
1765409005.609484,-8.795836749779431,0.3409894656764398,5.278218021292141,-0.521269937864769,2.2263182744488983,0.1757147354774692
1765409005.609734,-8.823944396326356,0.36262430182853533,5.235139464479303,-0.5218685412752458,2.2227069652499494,0.1737369859667804
1765409005.609988,-8.848356212982626,0.3868101885209489,5.184208083256901,-0.5225817459632736,2.21911046970345,0.17199566637726013
1765409005.610321,-8.86916636247716,0.4116071022446303,5.125290406631982,-0.5234298389818817,2.2155769346618857,0.17051250987521033
1765409005.610655,-8.88680839353048,0.4350666709151485,5.058906084881647,-0.524422301589038,2.21214762333897,0.16929409144743493
1765409005.611027,-8.902080800630836,0.45535205212272595,4.986233471882346,-0.5255579375880716,2.2088537356755795,0.16833153309676233
1765409005.611277,-8.91613362376236,0.4708457825399479,4.909054519911051,-0.5268256171807861,2.2057142529032916,0.1676012674802954
1765409005.611527,-8.930412982134678,0.48023840678422375,4.829643599308735,-0.5282054994475996,2.2027350162704376,0.16706674571063201
1765409005.611777,-8.946565708946613,0.4825937360583008,4.750610420856969,-0.5296706024872272,2.1999090779314736,0.16668087780786692
1765409005.612029,-8.966311508547172,0.47738993475148583,4.674710771026366,-0.5311886076395848,2.197218173169558,0.16638895447476632
1765409005.612279,-8.99129421034533,0.4645379211109612,4.60464042818705,-0.532723820950265,2.1946350113791566,0.16613181899405052
1765409005.612529,-9.02292600589536,0.4443791273322191,4.542827723632072,-0.5342392622608771,2.1921259942621636,0.16584911085048337
1765409005.612779,-9.062239789385076,0.41766417263848504,4.4912405939458235,-0.5356988727778742,2.1896539700986732,0.16548245294909972
1765409005.613016,-9.109765735935705,0.3855135996133481,4.451225975167386,-0.5370698030621435,2.1871807297013803,0.16497848191167533
1765409005.613266,-9.165447896107626,0.3493617622638376,4.423400510690095,-0.5383246852043022,2.1846690784215954,0.16429162871356223
1765409005.613516,-9.228612677753212,0.3108848726249043,4.407607243211464,-0.5394437388689742,2.1820843857791536,0.16338655623983575
1765409005.613766,-9.297993348731323,0.2719143216280487,4.402942233342541,-0.5404165227196099,2.179395508306019,0.16224015448815182
1765409005.614054,-9.371805488311255,0.2343373534761838,4.4078419319176305,-0.5412431247729802,2.176574984076536,0.1608429806859293
1765409005.614304,-9.44786076806308,0.19998899251394928,4.420211783967353,-0.5419346095075664,2.1735984740438123,0.15920001428654146
1765409005.614554,-9.523702647647346,0.17054100491464771,4.437571982712015,-0.5425126208600541,2.170443560787436,0.15733058966378105
1765409005.614804,-9.59674802837281,0.1473950388004201,4.457198420858126,-0.5430081484766831,2.167088168011521,0.1552673919501705
1765409005.615033,-9.664422807936157,0.1315880294012634,4.4762449400493685,-0.5434595498881393,2.163509007207955,0.15305446901055772
1765409005.615366,-9.724285175671532,0.12371854651609653,4.491844247513568,-0.5439099703039146,2.159680549297855,0.15074432365168272
1765409005.6157,-9.774136514244134,0.12390232610554514,4.501195059514441,-0.5444043378562247,2.1555749931899206,0.1483942846657408
1765409005.616047,-9.812123493034397,0.1317628993452359,4.501648020714833,-0.5449861487515192,2.151163523157515,0.1460624797447401
1765409005.616297,-9.836834432260662,0.14645914017853423,4.490801123818244,-0.5456942822009003,2.146418847675989,0.14380380589442696
1765409005.616547,-9.847388787128935,0.16674698874223914,4.466608337544631,-0.546560089188339,2.1413186846282692,0.14166628471812476
1765409005.616797,-9.843513462679622,0.19106887913176157,4.427496169211523,-0.5476049851418525,2.135849599985147,0.13968811219116073
1765409005.617004,-9.825596509933611,0.21766202450034533,4.3724754438560325,-0.5488387436758358,2.130010495297604,0.13789560323552605
1765409005.617254,-9.794708851170666,0.24467578550347654,4.301233054698628,-0.5502586285700029,2.123815109575566,0.13630211931526734
1765409005.617504,-9.752587641295817,0.2702887892920929,4.214191952932032,-0.5518494165216802,2.117293112523124,0.1349079688752723
1765409005.617754,-9.701579326528519,0.29281772911375453,4.112533887486411,-0.553584273662535,2.1104895999652826,0.13370119646481693
1765409005.617981,-9.644544908561208,0.31081117850171375,3.9981833171577486,-0.5554263751138091,2.1034629586761233,0.13265912178372186
1765409005.618231,-9.584733376487332,0.32312328183758826,3.873751307802395,-0.5573311068324408,2.096281163310736,0.13175044031637745
1765409005.618481,-9.525631415317154,0.3289643496328108,3.742438498549354,-0.5592486642557009,2.089016693462228,0.1309376554918444
1765409005.618731,-9.47079841688209,0.32792816585338314,3.607898902714654,-0.5611268689872343,2.0817404452930908,0.1301796032995706
1765409005.618959,-9.423695823871492,0.3199981701525828,3.4740698014235623,-0.5629140614055514,2.0745151916812885,0.12943387193974915
1765409005.619209,-9.387519561368084,0.3055356060910991,3.344975189736685,-0.5645619648734418,2.0673892494152573,0.12865899632104233
1765409005.619459,-9.365044292829868,0.2852524064151643,3.224512175004741,-0.5660284216605013,2.0603910498390734,0.1278163841815882
1765409005.619709,-9.358488221078524,0.26017088975120967,3.116233080216472,-0.5672798756512752,2.053525303672335,0.126871981379442
1765409005.620088,-9.369406334301823,0.23157169534318417,3.023139456888198,-0.568293458391369,2.0467713591455827,0.12579770265912874
1765409005.620338,-9.398618078316987,0.2009308266060017,2.9475050066853883,-0.5690585416541221,2.040084115815556,0.12457264717542385
1765409005.620588,-9.446172939849614,0.16984651027891257,2.890742046089214,-0.5695776409666757,2.033397504989327,0.12318409448743713
1765409005.620838,-9.511354949642543,0.13995714463214487,2.8533221551769836,-0.5698665832335496,2.0266301955509167,0.12162824589251703
1765409005.620996,-9.592724730426212,0.11285264098229214,2.834756598794506,-0.5699538941252497,2.0196929175638654,0.11991065049308815
1765409005.621246,-9.688195248917486,0.08998231357861763,2.8336353377441625,-0.5698794151977105,2.012496625926199,0.1180462439968348
1765409005.621496,-9.79513521696481,0.07256314249174763,2.8477160563245003,-0.5696922115008106,2.004960654386612,0.11605892226108658
1765409005.621746,-9.910493086073227,0.06149356056557501,2.8740504667946727,-0.5694478701467289,1.9970200736490078,0.11398056360454333
1765409005.622042,-10.030935362785259,0.057280169718690446,2.9091370670084866,-0.5692053276533751,1.9886316698494224,0.1118494302271391
1765409005.622292,-10.15299465864891,0.05998652530049719,2.949095417476313,-0.5690234070673766,1.9797782048545527,0.10970795755952518
1765409005.622542,-10.273223563032682,0.06921233309805747,2.989861205186621,-0.5689572853280256,1.9704707789917502,0.10760007074003854
1765409005.622792,-10.388348884735928,0.08410774562922226,3.0273999862552383,-0.5690551255589809,1.96074915841371,0.1055682853427865
1765409005.622974,-10.495417801195051,0.10342264457195423,3.05793146713909,-0.569355088714178,1.950679940389017,0.10365089617180522
1765409005.623224,-10.59192514807015,0.12558683985169378,3.0781494241926604,-0.5698828993147231,1.9403525127459662,0.10187952781570064
1765409005.623474,-10.675911342697761,0.14881457410921883,3.0854181899064366,-0.5706501028490004,1.9298729418648752,0.10027725131003379
1765409005.623724,-10.746023582766194,0.17122498240295303,3.0779261084104457,-0.5716531222681589,1.9193561516839168,0.09885739827700876
1765409005.624098,-10.801537778860073,0.1909688679830118,3.0547792903850954,-0.5728731847961552,1.9089169830807602,0.09762313212817957
1765409005.624348,-10.842343199678844,0.20635175459605845,3.0160250234179635,-0.574277139584225,1.8986609065527422,0.09656775721654784
1765409005.624598,-10.868894566139074,0.2159440608883816,2.962602333172742,-0.5758191309423059,1.888675249406444,0.09567566955298003
1765409005.624848,-10.882137621533692,0.21867117643918504,2.896225728933654,-0.5774430434603595,1.8790217568866514,0.0949237969792506
1765409005.625064,-10.883415693150296,0.21387868866745968,2.819215858247504,-0.5790855924398077,1.8697311575766355,0.09428335469093994
1765409005.625314,-10.874367141617167,0.2013705832811969,2.734297031558305,-0.5806798897613744,1.8608002001880528,0.09372175334055398
1765409005.625564,-10.856825287922646,0.18142046031011522,2.6443852445107523,-0.5821592800751879,1.8521913975145117,0.0932045318506544
1765409005.625814,-10.832731305964264,0.15475719475684147,2.552389938347845,-0.5834612268669183,1.8438354519449633,0.09269723241637803
1765409005.625975,-10.804066538433046,0.1225268929717446,2.4610479975574786,-0.5845310264918243,1.8356360615859908,0.0921671806224733
1765409005.626225,-10.7728056598112,0.08623284989748274,2.3728008270759573,-0.5853251289435908,1.827476569215352,0.09158516546124183
1765409005.626475,-10.740887970103717,0.04765507396784102,2.2897168441725464,-0.5858138530741087,1.8192277772482623,0.09092701365906791
1765409005.626725,-10.710201356260635,0.008751187501667297,2.213454114309294,-0.5859833133815326,1.810756241537387,0.09017501641265542
1765409005.627035,-10.6825720016109,-0.028458574714223323,2.1452529577932924,-0.5858364212071983,1.8019324671150958,0.089319113785398
1765409005.627368,-10.659753193672179,-0.0620175950947748,2.0859479377887054,-0.5853928756198621,1.7926386125776075,0.0883576961920146
1765409005.627702,-10.643408894142183,-0.09016278147275765,2.0359925577371634,-0.584688121014139,1.7827754814797696,0.08729786379186223
1765409005.627997,-10.635090897973571,-0.1114479111597504,1.9954950099546374,-0.5837713220569565,1.7722686500126998,0.08615501454389206
1765409005.628247,-10.636210151202826,-0.12484912768830761,1.9642654021526533,-0.5827024796866894,1.761073525970949,0.0849517159685562
1765409005.628497,-10.648001978268766,-0.12984253457671988,1.9418726960243604,-0.5815488698184863,1.7491790202450515,0.08371592681517219
1765409005.628747,-10.671483004887374,-0.1264467296871838,1.9277053101561625,-0.580381026269846,1.736609436296798,0.08247872948216253
1765409005.629023,-10.70739727113404,-0.11522653212320422,1.9210265851729944,-0.5792685122218022,1.7234242057069036,0.08127178770263581
1765409005.629273,-10.756151870401437,-0.09725722366024572,1.921017159842618,-0.5782757309107149,1.7097152303723537,0.0801247626118094
1765409005.629523,-10.81774713988861,-0.07405133248903552,1.9267999268066227,-0.5774580234616343,1.695601813753978,0.07906291975455525
1765409005.629773,-10.891710423876116,-0.047452838395631906,1.9374472912536103,-0.5768582953304868,1.6812234308834004,0.07810514411795141
1765409005.630033,-10.977044173373773,-0.01950683705361216,1.9519735471505002,-0.5765043917478514,1.6667308458428443,0.07726254480661424
1765409005.630283,-11.07219855551661,0.007684514009349813,1.96931745486113,-0.5764073937253743,1.652276295109608,0.07653777073654679
1765409005.630533,-11.175076367635052,0.03210752228109809,1.9883218703039585,-0.5765609393862576,1.6380035918384939,0.07592507333591132
1765409005.630783,-11.283074546239751,0.05197205444211177,2.0077180876082643,-0.5769416128627182,1.6240390473774864,0.07541105457843482
1765409005.63099,-11.393162857760796,0.06582609235586655,2.0261220326490808,-0.577510388948454,1.610484029613924,0.0749759553301168
1765409005.63124,-11.501997449569929,0.07264246966376063,2.042048300595225,-0.5782150634652222,1.597409784907498,0.07459529256564863
1765409005.63149,-11.606064984741597,0.07187397649158632,2.053947118587316,-0.5789935339366873,1.5848548768065323,0.0742416524991175
1765409005.63174,-11.701851100464541,0.06347646731717631,2.0602678707879956,-0.5797777351605312,1.572825283672053,0.0738864860235462
1765409005.631984,-11.78602406063781,0.047902099950189264,2.059549156365319,-0.5804979909042196,1.5612968833030936,0.0735018160130058
1765409005.632234,-11.855621312027088,0.02606583246824019,2.050529501860246,-0.5810875175306911,1.550219782675314,0.07306182502027309
1765409005.632484,-11.908224652649082,-0.0007118353152010824,2.0322670615536724,-0.5814868055699681,1.5395237904386887,0.0725443224103441
1765409005.632734,-11.942109533346958,-0.030783254759891444,2.0042528310908825,-0.5816476108473503,1.5291243164260464,0.07193208537510994
1765409005.633038,-11.956355199589945,-0.06227041627817933,1.966500238756875,-0.5815363062022794,1.5189280893748978,0.07121404002201732
1765409005.633288,-11.950904583316953,-0.09317665276008737,1.9195943209736024,-0.5811363740851311,1.5088382520584593,0.07038621509797355
1765409005.633538,-11.926566393469345,-0.12150864394758674,1.8646867512570666,-0.5804498603261388,1.4987585810880721,0.06945237449658669
1765409005.633788,-11.884957043257511,-0.14540279583846347,1.8034294019392807,-0.5794976655407332,1.4885967687003536,0.0684242206266582
1765409005.634057,-11.828386498253192,-0.16324865890489795,1.7378482383512048,-0.5783186216352575,1.4782668758124486,0.0673210651023032
1765409005.634307,-11.759698823880164,-0.17380072571452376,1.6701694029859342,-0.5769673783991691,1.4676911887158541,0.06616889579108905
1765409005.634557,-11.682083935288361,-0.17626931874171275,1.6026181622940012,-0.5755112039300884,1.4568017595857743,0.0649988337289509
1765409005.634807,-11.598880558206066,-0.1703821407942212,1.5372169439064858,-0.5740258782058715,1.4455418786741228,0.06384505926636339
1765409005.635065,-11.51339059860691,-0.15641065999938833,1.4756095671960319,-0.5725909212807967,1.4338676285823402,0.06274237182004433
1765409005.635315,-11.428721575126856,-0.13515912501648186,1.4189344553177252,-0.5712844405448746,1.4217495314332393,0.061723605853802786
1765409005.635565,-11.347667299994958,-0.10791746333588696,1.3677608183138763,-0.5701779127317083,1.409174150651766,0.06081714015791804
1765409005.635815,-11.272629510957746,-0.07638183339472436,1.3220907936435113,-0.5693312405340383,1.3961453975938865,0.06004471440522199
1765409005.636125,-11.205576786693802,-0.042548289879054256,1.2814207001772189,-0.5687884289792587,1.382685262216166,0.05941973158848423
1765409005.636375,-11.14803317920579,-0.008586565745203632,1.244848392413295,-0.5685742015319283,1.3688337390066883,0.05894619215185974
1765409005.636625,-11.101087747156352,0.023297193242067818,1.2112110026682834,-0.5686918242057463,1.3546478084331732,0.05861836185675363
1765409005.636875,-11.065416934816499,0.050998232341300895,1.1792362350618883,-0.5691223333004051,1.3401994064362548,0.05842120127950406
1765409005.637062,-11.041313757481198,0.07264055965251233,1.1476901605227854,-0.5698252630754375,1.3255723602684142,0.058331488299342434
1765409005.637312,-11.028720470417658,0.08668435779338433,1.1155065180488537,-0.5707408417581217,1.3108583257412938,0.05831947898574521
1765409005.637562,-11.027264108634634,0.0920069117422546,1.0818874595861439,-0.5717934869055097,1.296151862371853,0.05835090568166927
1765409005.637812,-11.036295889706393,0.08795397934130189,1.0463712763824506,-0.5728963161643048,1.2815449132476515,0.05838911147068114
1765409005.638083,-11.05493524718289,0.07436142762952969,1.0088661727563573,-0.5739563181851088,1.2671210656790075,0.058397156369121475
1765409005.638333,-11.082117813086782,0.051549002130901286,0.969650551975327,-0.5748798029463121,1.2529500257942545,0.05833978183743638
1765409005.638583,-11.11664537948765,0.020289370962944097,0.929341439549171,-0.5755777640050117,1.2390827508116926,0.05818517015988593
1765409005.638833,-11.157235401940836,-0.01824395545297889,0.8888344437528057,-0.5759708281798849,1.2255476587240814,0.0579064762738177
1765409005.639083,-11.202567665776439,-0.06254653641876473,0.8492204245941601,-0.5759935270671436,1.2123482745481273,0.05748313268114912
1765409005.639283,-11.251326161552273,-0.11086796899116001,0.8116856353025119,-0.57559768272784,1.1994625705224349,0.05690192394136327
1765409005.639483,-11.30223529951451,-0.1613091843574583,0.7774040657440279,-0.5747547482528172,1.1868441179072016,0.056157803339944634
1765409005.639683,-11.354091153523061,-0.2119287792942018,0.7474326618839799,-0.5734569894366764,1.1744250010840391,0.05525439986077604
1765409005.639883,-11.4057894579082,-0.2608541494219504,0.7226204354736268,-0.5717174485997967,1.1621202706424656,0.05420414600119409
1765409005.640126,-11.456351763561473,-0.30639198542273843,0.7035402804905752,-0.569568696496156,1.149833561248533,0.053027945797847885
1765409005.640376,-11.504949836468086,-0.3471313320665592,0.6904484765492226,-0.5670604432145885,1.1374634017385523,0.05175430987819161
1765409005.640626,-11.550927198203318,-0.3820313917882824,0.683273155989123,-0.5642561390003149,1.1249097119730531,0.05041792463500828
1765409005.640876,-11.593816322980976,-0.41048623547785146,0.6816303089460776,-0.5612287541387826,1.112080005870441,0.04905769034977423
1765409005.641029,-11.633349986323186,-0.4323598997547814,0.6848637562631447,-0.558055982378777,1.0988948836000945,0.0477143410710674
1765409005.641362,-11.66946492691267,-0.4479879057504006,0.692103451461363,-0.5548151567823638,1.0852924785223652,0.046427830657582804
1765409005.641695,-11.702295504731692,-0.4581445294043408,0.7023348475348757,-0.5515781947497223,1.0712316145130547,0.04523471507582152
1765409005.642068,-11.732155282262973,-0.46397845052305353,0.714471527447347,-0.5484068990409909,1.0566935239904893,0.04416576566400188
1765409005.642318,-11.75950594978801,-0.4669221947964215,0.7274240450898699,-0.5453489308727155,1.0416820739441766,0.04324401599655448
1765409005.642568,-11.784915361918552,-0.46858300008839554,0.7401596738124421,-0.542434734373514,1.0262225434640766,0.04248339285316006
1765409005.642818,-11.809008644223034,-0.470624414375159,0.7517499669388159,-0.5396756265698751,1.01035909358776,0.0418880201301892
1765409005.64304,-11.83241754036991,-0.47464879373871666,0.7614051631191712,-0.5370631761960243,0.9941511659943452,0.041452216496054295
1765409005.64324,-11.855733234060752,-0.48209050060402675,0.7684962268966947,-0.5345698856274838,0.9776691207894498,0.041161139292283495
1765409005.64344,-11.879467004889742,-0.4941278663869998,0.7725665113332908,-0.5321510781934171,0.9609894538383195,0.040991968873474144
1765409005.64364,-11.90402142973677,-0.5116191180407628,0.7733354508663883,-0.5297477989645359,0.9441899245890041,0.040915487990353494
1765409005.64384,-11.929672703224837,-0.535064004765558,0.7706963996564618,-0.527290478422594,0.927344897419971,0.04089789796732113
1765409005.644078,-11.956562666953818,-0.5645896278210905,0.7647100714712713,-0.5247030899830923,0.9105211645659805,0.04090273380475142
1765409005.644411,-11.984698040143599,-0.5999568938088897,0.7555941833228248,-0.5219075450535349,0.8937744742518555,0.04089278672105056
1765409005.644745,-12.013954489676445,-0.6405835299456363,0.743708908164864,-0.5188280960203859,0.8771469339004925,0.04083199051951632
1765409005.645084,-12.044084300013981,-0.6855803582118709,0.7295369864693817,-0.5153955408654832,0.8606654003737064,0.04068725318980699
1765409005.645334,-12.074727668162241,-0.7337986718872797,0.7136573261402133,-0.5115510355423294,0.8443409082619509,0.04043020817795938
1765409005.645584,-12.10542816690971,-0.7838873344969077,0.6967116978238204,-0.5072493308462772,0.828169123816651,0.04003882552943463
1765409005.645834,-12.135652465912335,-0.8343582339629855,0.6793654104780106,-0.5024612741006562,0.8121317557516496,0.03949877837670299
1765409005.646082,-12.164813495948806,-0.8836579710134124,0.6622642766129182,-0.4971754545500635,0.7961988141884796,0.038804433167340543
1765409005.646332,-12.192295531229767,-0.9302425865672451,0.6459913652367703,-0.4913989150099978,0.7803315751578269,0.03795934598456942
1765409005.646582,-12.217479527105233,-0.9726514176832181,0.6310277318288636,-0.48515689588270033,0.7644860566495824,0.03697619826412134
1765409005.646832,-12.239767690628675,-1.0095761174737767,0.6177216061753172,-0.47849162480354046,0.7486167426390186,0.03587616531293493
1765409005.647081,-12.258607517193285,-1.039921219930408,0.6062704471815746,-0.4714602187908449,0.7326802402471132,0.034687759600392
1765409005.647331,-12.273516514702733,-1.0628531444594747,0.5967192464877641,-0.46413182297925953,0.7166385575913744,0.03344523122055459
1765409005.647581,-12.284108503940372,-1.0778353443793356,0.5889759080887109,-0.4565841634688846,0.700461744624013,0.03218664734841019
1765409005.647831,-12.290120657507027,-1.0846484184661027,0.5828410738022307,-0.4488997311750032,0.6841297232677892,0.03095179946281149
1765409005.648097,-12.291438390349782,-1.083395029293492,0.578046963542707,-0.4411618312284113,0.6676332298792048,0.029780084577386144
1765409005.648347,-12.28811399722253,-1.0744900788061773,0.574298717876822,-0.4334507290642833,0.6509738905993239,0.02870847804102342
1765409005.648597,-12.280374942293554,-1.0586369284265436,0.5713122848144546,-0.42584010474125117,0.6341635320214004,0.02776968254166816
1765409005.648847,-12.268618733988156,-1.0367908793808946,0.5688443902448301,-0.41839399525747323,0.6172228858832942,0.026990517001444857
1765409005.649023,-12.253393012278025,-1.010111757688853,0.5667118736945336,-0.4111643640817998,0.6001798816959518,0.02639059832976855
1765409005.649273,-12.235361474110258,-0.9799080499650958,0.5647992272235584,-0.4041893896952412,0.5830677389486152,0.025981359996290386
1765409005.649523,-12.215258163146002,-0.9475753278431165,0.5630545256201943,-0.397492512182478,0.5659230621773945,0.02576544114713901
1765409005.649773,-12.19383406618107,-0.9145316176664074,0.5614752302753427,-0.39108222708204093,0.5487841004771659,0.025736469148884705
1765409005.650024,-12.17180070222387,-0.8821521227874632,0.5600865087264614,-0.3849525810777239,0.5316892676251199,0.025879248396893668
1765409005.650274,-12.149775636235992,-0.851705611725947,0.5589155675298795,-0.3790843061568373,0.5146759501910647,0.026170363026070155
1765409005.650524,-12.128234918049229,-0.8242950403640801,0.5579660597012087,-0.3734465168711392,0.49777957532195277,0.026579201036803234
1765409005.650774,-12.107477282367926,-0.8008054600690336,0.557196829764373,-0.36799888280479703,0.4810328793507559,0.027069400458824888
1765409005.651017,-12.087604048310155,-0.7818626315677069,0.5565086829252616,-0.3626941790066823,0.4644653226129512,0.027600691725098624
1765409005.651267,-12.068516772383065,-0.7678057305089478,0.5557412238376446,-0.35748111325496845,0.44810263102146636,0.028131067843953344
1765409005.651517,-12.049932453253275,-0.7586769727582379,0.5546797159174096,-0.35230732413762517,0.4319664894903209,0.028619167318063563
1765409005.651767,-12.031414491745474,-0.7542297954630223,0.5530705935909197,-0.3471224296649325,0.4160744424765052,0.02902670781239783
1765409005.652069,-12.012416913956713,-0.7539553178227232,0.5506440907760677,-0.34188098206292844,0.40044005764317336,0.02932076662724344
1765409005.652319,-11.99233870644196,-0.7571244973164739,0.5471423717933135,-0.33654516119190453,0.38507337162021227,0.029475691605144794
1765409005.652569,-11.97058376698298,-0.7628415645859626,0.5423506006629359,-0.33108703216287105,0.36998156816895367,0.02947446813104905
1765409005.652819,-11.946620470950688,-0.7701036913162224,0.5361270704702698,-0.3254902110334276,0.3551697693567431,0.029309453102232486
1765409005.653036,-11.920034358887191,-0.7778622593536195,0.5284279980129204,-0.3197508225201725,0.34064178913069393,0.028982472825241815
1765409005.653286,-11.89056837626924,-0.7850818733761635,0.5193231774174909,-0.3138776855218192,0.3264007224897583,0.02850434053598156
1765409005.653536,-11.858146864691092,-0.7907941295330313,0.5089998737106376,-0.3078917175777477,0.3124493026559221,0.027893885161584708
1765409005.653786,-11.822881525156557,-0.7941443153994957,0.497753870395881,-0.3018246022068836,0.29879001806918215,0.027176605744152295
1765409005.654029,-11.78505973874601,-0.7944305969247792,0.4859685664960799,-0.29571680734086797,0.28542502191671937,0.026383072121574976
1765409005.654279,-11.745117736025417,-0.7911363223246832,0.4740850091140035,-0.28961507461875646,0.272355892453816,0.025547180065052567
1765409005.654529,-11.70360257891813,-0.783956426849605,0.46256681619685247,-0.2835695183706896,0.2595833186955146,0.024704346748849366
1765409005.654779,-11.6611274497071,-0.7728185990345666,0.45186386472286155,-0.2776304813962688,0.2471067930250093,0.0238897093775202
1765409005.655091,-11.618324632094783,-0.7578991927545171,0.4423780914692511,-0.2718452925644558,0.23492438787223616,0.023136371458034738
1765409005.655341,-11.57580019265444,-0.7396331415856743,0.4344342873914645,-0.26625506130826765,0.2230326760251918,0.02247373097009994
1765409005.655591,-11.53409378493981,-0.7187164684482041,0.42825823289822684,-0.26089163301361556,0.2114268262381467,0.021925921275718886
1765409005.655841,-11.493646158847698,-0.6960994053671621,0.42396378693377695,-0.25577482403461704,0.20010087812029193,0.021510396023532725
1765409005.656055,-11.454775911517292,-0.6729677925581786,0.4215496927894795,-0.25091005895277574,0.18904817763302526,0.02123669515735691
1765409005.656305,-11.417665885414328,-0.6507105481894865,0.4209058570304599,-0.24628654429469693,0.17826192862962786,0.02110544174332414
1765409005.656555,-11.382358638135699,-0.6308716512639089,0.42182768682984356,-0.24187612429481037,0.16773578590400212,0.02110763411621834
1765409005.656805,-11.348759846687386,-0.6150861562592504,0.4240361399102054,-0.23763296324499242,0.15746440082713312,0.021224311085626512
1765409005.656997,-11.31664838366055,-0.6050012592318641,0.42720090747959505,-0.23349417747476103,0.1474438485833696,0.02142667910881085
1765409005.657247,-11.285691816534948,-0.6021854206741526,0.43096449149053095,-0.22938149819644638,0.1376719064936729,0.021676792023785335
1765409005.657497,-11.255465969896226,-0.6080307445247806,0.4349653244574412,-0.22520398707891512,0.12814819094637947,0.021928851719800437
1765409005.657747,-11.22547703684041,-0.6236554936353447,0.4388583615782486,-0.22086175141729586,0.11887418135904622,0.022131145467282936
1765409005.657968,-11.195184861442502,-0.6498140867511003,0.44233217227384725,-0.21625052176061438,0.10985316650925879,0.02222856240556426
1765409005.658218,-11.164026550415679,-0.6868211077984078,0.4451226204160749,-0.2112668760778694,0.10109015047830829,0.022165560508186844
1765409005.658468,-11.1314400703557,-0.734494477028604,0.4470239435218045,-0.20581383491938146,0.09259175316549761,0.021889409924274288
1765409005.658718,-11.096887395807368,-0.7921218334068973,0.44789750211159063,-0.1998065162483972,0.08436612697527962,0.02135352495157158
1765409005.659,-11.059876250810486,-0.858453532892415,0.447677105743008,-0.19317752344063868,0.07642288674538332,0.020520698016278822
1765409005.65925,-11.019979335052287,-0.9317249598954854,0.4463692040907751,-0.18588174141220618,0.06877302790711956,0.019366047448342173
1765409005.6595,-10.976850533982383,-1.0097095687693713,0.44404714881334917,-0.17790023255220538,0.061428802368138455,0.017879488796315447
1765409005.65975,-10.930238402757837,-1.0898021881557243,0.4408402245225643,-0.16924295729156086,0.054403531822333304,0.016067549662778215
1765409005.660031,-10.879997433579701,-1.1691299429341964,0.4369188649419212,-0.15995009648585,0.047711350970282854,0.01395437504516085
1765409005.660231,-10.826097321550284,-1.2446859701209634,0.432477392016752,-0.15009182433817414,0.041366878235193624,0.011581807761321014
1765409005.660431,-10.76863026225848,-1.3134790423869838,0.42771574662522227,-0.13976646653918903,0.03538481149511897,0.009008470219688054
1765409005.660631,-10.707816425360472,-1.3726903044590888,0.4228223374963145,-0.1290970739151445,0.029779451100330836,0.006307819750778396
1765409005.660831,-10.644007673981632,-1.419826719928487,0.41796043377531894,-0.1182265437828611,0.024564164703436937,0.0035652052637987516
1765409005.660998,-10.577689030721825,-1.4528598889711881,0.4132597469658173,-0.10731152197686329,0.019750818473038282,0.0008740237601930221
1765409005.661248,-10.509476706212975,-1.470339172597249,0.408813505708053,-0.09651540747464604,0.015349198298235925,-0.0016688396169278633
1765409005.661498,-10.440111257313443,-1.471469913986357,0.40468040363699764,-0.08600085182398286,0.011366438000137086,-0.003968019884497154
1765409005.661748,-10.37044468154801,-1.4561507344846378,0.4008904865380622,-0.07592219329227078,0.007806471828128588,-0.005934801597072793
1765409005.662065,-10.301420641055731,-1.4249675682857543,0.3974537960656341,-0.06641828357575563,0.004669537434244747,-0.00749202223247606
1765409005.662315,-10.23404737672217,-1.3791454876628664,0.3943701115900901,-0.05760614521165741,0.0019517615729964966,-0.008578416367918546
1765409005.662565,-10.16936340211174,-1.3204622274363365,0.39163777406016614,-0.04957584163397713,-0.0003551444827432693,-0.009152103440202529
1765409005.662815,-10.108396915191118,-1.2511298460213434,0.38925976417508495,-0.042386859061094004,-0.0022640636254300296,-0.00919297684928104
1765409005.663008,-10.05212085450899,-1.1736532615260207,0.3872459249687841,-0.03606619925045977,-0.0037925147135775424,-0.008703827833075457
1765409005.663208,-10.001406302781106,-1.0906761751289624,0.3856111226502359,-0.03060826998588861,-0.004962543008804714,-0.0077101321313127
1765409005.663408,-9.956977365049262,-1.0048256565593852,0.3843699506360922,-0.025976544230540934,-0.005800439431141565,-0.006258533841624262
1765409005.663608,-9.919370887173754,-0.9185661933270577,0.38352923056466914,-0.022106852013793477,-0.006336271624531184,-0.004414167327141247
1765409005.663808,-9.888904571950656,-0.834072525379905,0.383080054663492,-0.018912080494672162,-0.006603224943862928,-0.002257047829039676
1765409005.664057,-9.865656957620873,-0.7531285783653786,0.3829913262167171,-0.0162879870634941,-0.0066367728661947635,0.00012218313078419054
1765409005.664307,-9.84946189003564,-0.6770576648774956,0.38320642575529335,-0.014119772979472929,-0.006473715447742903,0.00262685746810529
1765409005.664557,-9.839918451450739,-0.6066869812516341,0.38364367593357757,-0.012289019583006686,-0.006151140227570518,0.005158941949527549
1765409005.664807,-9.836415348175274,-0.5423472206363588,0.38420012234509443,-0.010680561426737864,-0.005705374409509378,0.007623506435010838
1765409005.665107,-9.838167237074671,-0.4839057623892522,0.38475746344777056,-0.00918887153334755,-0.0051710055274595155,0.009932774177609967
1765409005.665307,-9.844259702118293,-0.4308294466757505,0.38518900813024826,-0.007723571713381618,-0.004580042347544293,0.012009563346408864
1765409005.665507,-9.853699398978982,-0.3822706781231846,0.38536694062802535,-0.006213753700325111,-0.003961267972319093,0.013789973787756147
1765409005.665707,-9.865465959151793,-0.33716894499736394,0.3851694137003705,-0.004610893071147059,-0.003339810223687446,0.015225231450949832
1765409005.665907,-9.878562444371584,-0.29435918085914176,0.38448697372498475,-0.0028902435062194975,-0.002736928423449255,0.016282668958857206
1765409005.666016,-9.892061496566345,-0.25267884099651505,0.38322784364444107,-0.0010507042539704596,-0.0021699954632511346,0.016945881851322554
1765409005.666216,-9.905144872335088,-0.21106676852826733,0.3813218654502632,0.000886747067741748,-0.00165264094145966,0.0172141431481993
1765409005.666416,-9.917134714274315,-0.1686482720280022,0.37872328976775405,0.002881877130535356,-0.0011950143177901845,0.01710117961219791
1765409005.666616,-9.927515536902238,-0.12480195147322869,0.37541279773390523,0.004879027566763755,-0.0008041252818827795,0.016633419778191754
1765409005.666816,-9.935946351276208,-0.07920480615120863,0.3713990118944116,0.006811660065528945,-0.0004842208056460925,0.015847829898608726
1765409005.66698,-9.942262638156276,-0.03185335764283634,0.3667194188732432,0.008607297637684265,-0.0002371636247111701,0.014789464839682156
1765409005.66718,-9.94646820577373,0.01693992469348623,0.3614403287225198,0.010192539422989321,-6.278493381903612e-05,0.013508871503663554
1765409005.66738,-9.948717510909148,0.06657377768331708,0.3556553772803404,0.01149784241275768,4.0805046286924556e-05,0.012059485662707904
1765409005.66758,-9.949289733091454,0.11620585852263701,0.3494821284382473,0.012461799704189216,7.695272805853556e-05,0.01049515629353525
1765409005.66778,-9.94855659132174,0.1648162952413717,0.3430565427623052,0.013034698472696513,5.0236038540011634e-05,0.008867913658777945
1765409005.668008,-9.946946481227174,0.21128111298510696,0.3365255028759266,0.013181204574027812,-3.3736874400700395e-05,0.007226068431456653
1765409005.668208,-9.944907948610048,0.254449037558572,0.3300381745436667,0.012882085899296897,-0.00016852529606831195,0.0056126935033607
1765409005.668408,-9.94287564705521,0.2932154693100704,0.32373744746846306,0.012134949046224546,-0.0003470695473516143,0.004064507639908372
1765409005.668608,-9.941241530987242,0.32658841897711854,0.3177527033271387,0.01095402441518999,-0.0005619327273059455,0.0026111596833910448
1765409005.668808,-9.94033311913218,0.35374249227946897,0.3121946791936456,0.009369092750896498,-0.0008055708750973187,0.0012749028873320811
1765409005.669007,-9.940399563660405,0.3740582506104377,0.3071526120513119,0.007423694868350934,-0.0010706208312593435,7.064062162483436e-05
1765409005.669207,-9.941605340383221,0.38714549983238106,0.3026935470565904,0.005172797907235443,-0.001350188040885557,-0.0009936928283926449
1765409005.669407,-9.944030709193335,0.39285049000202615,0.29886363478400635,0.002680103101708076,-0.0016381120636871876,-0.001916477118922356
1765409005.669607,-9.947677564198175,0.3912485905294715,0.2956911235276721,1.5174499611134274e-05,-0.0019291851770572262,-0.0027015553630719297
1765409005.669807,-9.952478911008996,0.38262533781335023,0.2931904835156784,-0.0027494502570900455,-0.002219302652059378,-0.0033572691082381983
1765409005.670024,-9.958310149661546,0.36744945815483127,0.2913669122743129,-0.005541033201515947,-0.0025055335708029478,-0.0038954471137572864
1765409005.670224,-9.965000674507175,0.34634146962421575,0.29022053004041837,-0.008289191281948775,-0.0027861135820706467,-0.0043303982513442744
1765409005.670424,-9.972344847984667,0.3200408879840879,0.289749749000287,-0.01092816255421872,-0.003060369788557481,-0.004677940684832644
1765409005.670624,-9.98011189584837,0.2893740617042718,0.2899533843944028,-0.013398737654624761,-0.0033285920692791428,-0.004954483636671226
1765409005.670824,-9.988054572059637,0.25522348797633204,0.2908310769945465,-0.015649827823810976,-0.0035918671271569563,-0.005176169939249048
1765409005.67103,-9.995916607067459,0.21849854376382633,0.29238170844614864,-0.017639650148396566,-0.0038518929075041317,-0.005358093637308836
1765409005.67128,-10.003439112026177,0.18010731808293573,0.2945998391093837,-0.019336516442152965,-0.004110790392198714,-0.005513624483307596
1765409005.67153,-10.01036629743809,0.14092970741413977,0.2974706739872178,-0.020719218815622227,-0.004370924216583212,-0.005653884375173589
1765409005.67178,-10.016450968886412,0.1017927237382862,0.30096441582401867,-0.021777015345207314,-0.004634732284098075,-0.005787412457152922
1765409005.67205,-10.021460184580746,0.06344945401455544,0.3050309613540735,-0.022509233693426955,-0.004904552042638144,-0.005920025117686417
1765409005.67225,-10.025181278397953,0.026562912131657464,0.30959585029292913,-0.022924527356174867,-0.0051824249285137925,-0.006054843307181914
1765409005.67245,-10.027428344320954,-0.008304748412504871,0.31455834969758095,-0.02303983615551615,-0.005469865528512692,-0.006192443228265214
1765409005.67265,-10.028049259307787,-0.04069803624934494,0.3197924721683502,-0.022879117319213254,-0.005767597439778349,-0.006331091371483628
1765409005.67285,-10.026933207573201,-0.07026978343354848,0.3251513468755818,-0.022471923022871133,-0.006075278424708013,-0.006467038693599297
1765409005.673039,-10.024018348817702,-0.09677954412696121,0.33047467754197335,-0.021851902256524953,-0.006391255909261183,-0.0065948590418085885
1765409005.673239,-10.019298894467658,-0.12008939975943385,0.33559836364059764,-0.021055299355170483,-0.006712402867538356,-0.006707821456265619
1765409005.673439,-10.012830654704201,-0.14015757182614894,0.34036504513001337,-0.020119509993397594,-0.007034078845586067,-0.006798287882865831
1765409005.673639,-10.004734146745536,-0.15703000875773776,0.3446343471832774,-0.019081739893668435,-0.007350240965469868,-0.006858127860319782
1765409005.673839,-9.99519449954608,-0.17082997722885102,0.3482917706779239,-0.017977796060775732,-0.007653701172809351,-0.006879139173825606
1765409005.674069,-9.984457617844193,-0.18174569161046944,0.35125545206148323,-0.01684103062914017,-0.007936500347667337,-0.006853460774173721
1765409005.674319,-9.972822462728367,-0.19001612983125193,0.35348044219732333,-0.015701455401792526,-0.008190357318356935,-0.006773965088546478
1765409005.674569,-9.960629818397289,-0.1959153556791618,0.35496057077592863,-0.01458504666508231,-0.008407151055352075,-0.0066346200091868335
1765409005.674819,-9.948248290086187,-0.1997359096631072,0.35572807714200294,-0.013513258625751838,-0.00857939855570015,-0.0064308114275725275
1765409005.675023,-9.936058373927827,-0.20177217752373733,0.3558509973579653,-0.012502756664203314,-0.008700694062300236,-0.006159614058292588
1765409005.675223,-9.924435436927238,-0.2023049789005964,0.3554281777221618,-0.011565368931414112,-0.008766080937973503,-0.005819996540546443
1765409005.675423,-9.913732546925694,-0.20158866298032302,0.35458199025754716,-0.010708239275665518,-0.0087723385599978,-0.005412950924424183
1765409005.675623,-9.904264187644573,-0.19984160461204906,0.3534491597003949,-0.00993415085487708,-0.00871817810196289,-0.0049415439074131816
1765409005.675823,-9.896291777371314,-0.19724036296231662,0.35217030328112026,-0.009241983263169433,-0.008604347481394313,-0.004410890478013829
1765409005.676048,-9.890011687996227,-0.19391727618985827,0.35087891122845055,-0.008627267955762777,-0.008433648091122847,-0.003828047354682094
1765409005.676248,-9.885546411744862,-0.18996111421869175,0.3496907424217964,-0.008082813463897266,-0.008210867246391203,-0.0032018193229651536
1765409005.676448,-9.882939621534588,-0.18542045483613734,0.3486948315434151,-0.007599378162610736,-0.007942630129165048,-0.002542474674215011
1765409005.676648,-9.882155808739974,-0.18030941144232437,0.34794719397091933,-0.00716637116396785,-0.007637173135223199,-0.0018613796895931669
1765409005.676848,-9.88308484504045,-0.17461513163034012,0.347467897001478,-0.006772561170941723,-0.007304040722133145,-0.0011705806492655253
1765409005.676997,-9.885551403669414,-0.16830626514296732,0.3472417726462804,-0.00640677124202645,-0.006953713172100397,-0.0004823738061157765
1765409005.677197,-9.889328813872071,-0.1613415536299971,0.34722280294321467,-0.006058537500350041,-0.006597180330984967,0.0001910983019902704
1765409005.677397,-9.894156463046953,-0.15367783327293205,0.34734186037403225,-0.005718712417893011,-0.006245481849981222,0.0008381993135281596
1765409005.677597,-9.899759214325774,-0.1452769603577043,0.34751686399246356,-0.005379995428206835,-0.005909237900400415,0.0014480918096556818
1765409005.677797,-9.905866753414074,-0.13611139756527593,0.34766381904640364,-0.0050373724026798765,-0.0055981982481264556,0.002010974777751097
1765409005.677992,-9.912230732387474,-0.12616840929105486,0.3477071100305534,-0.004688442024982752,-0.005320840322202616,0.0025182769600870666
1765409005.678192,-9.918638092751817,-0.1154529757863603,0.3475878482814618,-0.0043336055662306526,-0.005084044295093208,0.002962817380751601
1765409005.678392,-9.924919652474891,-0.10398961655361741,0.3472696066122852,-0.003976100390203972,-0.004892865760691977,0.00333893887045817
1765409005.678592,-9.93095359792662,-0.09182331902984124,0.3467411783267589,-0.0036218662417031185,-0.004750419405123038,0.0036426129041265583
1765409005.678792,-9.936663972540131,-0.07901975250068594,0.3460162051349052,-0.003279243919473064,-0.004657881519871935,0.0038715084971935798
1765409005.679053,-9.94201478675232,-0.06566496682577258,0.3451298997579653,-0.0029585164227659043,-0.004614610862345895,0.004025015856658734
1765409005.679253,-9.947000932080027,-0.05186481409784091,0.34413358815297385,-0.002671313371299912,-0.004618373937390217,0.004104216275809119
1765409005.679453,-9.951637385256161,-0.037744295593723776,0.34308807299318667,-0.0024299104293332855,-0.004665647494726062,0.004111792699034877
1765409005.679653,-9.955948084803879,-0.023446879462266902,0.3420567009964426,-0.0022464651881738645,-0.00475196485729264,0.004051880648267118
1765409005.679853,-9.959955523268459,-0.00913363546749414,0.3410987148142413,-0.002132238048589801,-0.0048722742838092775,0.003929866315745148
1765409005.680083,-9.963671826796046,0.005018091783931503,0.3402633108916612,-0.0020968503207334107,-0.00502128185159644,0.003752144908620174
1765409005.680283,-9.96709199339496,0.018816758590990836,0.33958485692068036,-0.002147630712605044,-0.005193754037031042,0.003525854710513969
1765409005.680483,-9.970189857126572,0.03205965601838718,0.3390797039220715,-0.0022890938130054467,-0.005384756899029078,0.003258601228794543
1765409005.680683,-9.972917062637396,0.044536988157063265,0.33874479596721957,-0.0025225806039567986,-0.005589813358250472,0.0029581849632390896
1765409005.680883,-9.975204958477493,0.056036947215154294,0.33855799362572037,-0.002846075767420044,-0.00580497011307433,0.0026323474385230735
1765409005.681005,-9.976969067898297,0.06635163073955046,0.3384799268755804,-0.003254204504573891,-0.006026779724486867,0.0022885498704971795
1765409005.681205,-9.978115721680425,0.07528361634140147,0.338457262819335,-0.0037384041174815604,-0.006252215739662925,0.0019337933410861062
1765409005.681405,-9.978550395767826,0.08265306722880891,0.33842731006461757,-0.004287260589050831,-0.00647854407833987,0.0015744802274347538
1765409005.681605,-9.978187194834666,0.08830529038061885,0.33832380683171126,-0.004886995510263992,-0.006703173038521044,0.0012163099034276654
1765409005.681805,-9.976958819981592,0.09211856372575292,0.3380836366523006,-0.0055220825610956025,-0.006923502317006019,0.0008642013215147565
1765409005.682062,-9.97482628850231,0.0940117692676945,0.33765409080951786,-0.006175963743907344,-0.007136790083458905,0.0005222393111110547
1765409005.682262,-9.97178754057366,0.09395107953729072,0.33700003451940685,-0.006831823614464873,-0.007340054065529796,0.00019364563166838705
1765409005.682462,-9.96788384723947,0.09195484313151552,0.33610996891356365,-0.00747336947752386,-0.0075300181186934755,-0.00011922327611571445
1765409005.682662,-9.96320284860712,0.08809595886992021,0.33499982340988826,-0.008085563271182544,-0.007703113232047703,-0.0004148513532349225
1765409005.682862,-9.957877350492002,0.08250131798815569,0.3337136072418905,-0.008655258196343404,-0.007855540812046693,-0.0006925097976745571
1765409005.683044,-9.952079632500613,0.07534818412274057,0.33232063415346236,-0.009171705919190882,-0.00798340075433655,-0.0009521700509198318
1765409005.683244,-9.946011679420055,0.06685759194693612,0.33090957419797895,-0.009626912852835361,-0.00808287495217109,-0.0011943727541924181
1765409005.683444,-9.93989229177337,0.057285007804833386,0.3295800106038483,-0.01001583311233402,-0.008150444893395795,-0.0014200456338312373
1765409005.683644,-9.933942523057244,0.04690870378942042,0.3284326157208571,-0.010336391436239748,-0.008183118008205828,-0.001630275501127026
1765409005.683844,-9.928371287941136,0.0360165944457591,0.32755942228560414,-0.010589335230812711,-0.008178641672804143,-0.0018260545977301984
1765409005.684085,-9.923363024285916,0.02489258166427535,0.3270356448442628,-0.01077792446139153,-0.008135690369297007,-0.002008031754550326
1765409005.684285,-9.919068827380418,0.013803573423350738,0.32691401124926184,-0.010907481223495006,-0.008054017464578365,-0.0021763015968033084
1765409005.684485,-9.91560173692324,0.0029881977262541416,0.3272219169889391,-0.010984833300163971,-0.007934569116733736,-0.0023302616809016447
1765409005.684685,-9.913036182040706,-0.007352072103721442,0.3279612587597727,-0.011017693460750136,-0.007779561535432643,-0.0024685592258924236
1765409005.684885,-9.911411037483612,-0.017058946584681323,0.32911050856258656,-0.011014018522446295,-0.007592519656964703,-0.0025891368661158155
1765409005.685091,-9.910735205806583,-0.02602025766767892,0.3306282701797336,-0.010981392870340246,-0.007378267821094299,-0.0026893732890296215
1765409005.685291,-9.910994221243367,-0.03416972462119066,0.3324573362038273,-0.010926482307891248,-0.007142860590331407,-0.0027663030770821045
1765409005.685491,-9.912156365942455,-0.041483694051017796,0.33452844176080926,-0.01085460337225423,-0.0068934478683710596,-0.0028168918552003586
1765409005.685691,-9.914177245443453,-0.04797528077389911,0.33676343015976107,-0.010769446183898086,-0.006638075820194814,-0.002838338133344687
1765409005.685891,-9.917002354795459,-0.05368658921005712,0.3390779408901214,-0.010672973517180218,-0.006385426980536507,-0.0028283727131962724
1765409005.686033,-9.92056756995121,-0.058679824312233966,0.34138372709352827,-0.010565497626236866,-0.006144502179861773,-0.0027855296913905135
1765409005.686233,-9.924797753968596,-0.06302806677588278,0.34359054518050053,-0.010445915005202776,-0.00592425109289013,-0.0027093672960469546
1765409005.686433,-9.929603953986074,-0.0668063390215756,0.34560759350664166,-0.010312063243541184,-0.005733168939962739,-0.0026006201960978442
1765409005.686633,-9.934879969899507,-0.07008343554830024,0.34734471641550674,-0.010161156918657653,-0.005578887239886568,-0.002461268453825958
1765409005.686833,-9.940499199487359,-0.07291492393488677,0.3487137585721554,-0.00999026096892092,-0.005467789254677243,-0.0022945137370742118
1765409005.687019,-9.946312495946202,-0.07533774384665257,0.3496303912021635,-0.009796766203786928,-0.005404676243737642,-0.002104661302986895
1765409005.687219,-9.95214743584912,-0.07736685189536058,0.35001654087335793,-0.009578837271476712,-0.00539250445867145,-0.0018969158736578723
1765409005.687419,-9.957809117478458,-0.07899426795302171,0.3498034174007522,-0.00933580562629939,-0.00543220758384119,-0.001677109083803078
1765409005.687619,-9.963082503852053,-0.0801906396336248,0.34893510943336253,-0.009068479506655324,-0.005522612570385549,-0.001451382877773219
1765409005.687819,-9.967736304308298,-0.08090914518785089,0.34737266893103813,-0.00877934300406571,-0.0056604462598374965,-0.001225854820869101
1765409005.68803,-9.971528296613958,-0.0810913327218908,0.345098403916477,-0.008472620728394718,-0.005840417961132758,-0.0010062886949273795
1765409005.68823,-9.974211803086295,-0.08067438954642188,0.34211981271263686,-0.008154194698912685,-0.006055354523950968,-0.0007977904790639022
1765409005.68843,-9.975542893099037,-0.07959928599015063,0.3384724714182381,-0.00783137427947287,-0.0062963648104024175,-0.0006045479532956417
1765409005.68863,-9.975287933730394,-0.07781917588843165,0.33422136317203543,-0.0075125354968144705,-0.006553022039147821,-0.0004296306440424203
1765409005.68883,-9.973231321059322,-0.07530736116647585,0.3294604532624292,-0.007206660182588155,-0.0068135704836293064,-0.00027486375722592246
1765409005.688988,-9.969183428608691,-0.07206407297668349,0.32431051906004144,-0.006922815422818179,-0.007065176055259616,-0.00014078443490370273
1765409005.689188,-9.96298890270669,-0.06812131482587482,0.3189153201870751,-0.006669618201517584,-0.007294239702896904,-2.668206738379835e-05
1765409005.689388,-9.954535481724557,-0.0635450971425752,0.31343634711051205,-0.006454728889126368,-0.0074867814172017095,6.928149497514718e-05
1765409005.689588,-9.943763593858588,-0.058434621697467236,0.30804670143729,-0.0062844113826324875,-0.007628891502482676,0.00014988054483600384
1765409005.689788,-9.930676994063385,-0.05291834916141144,0.30292492233883894,-0.006163189016986905,-0.007707239740693766,0.00021857687459323968
1765409005.690038,-9.915354437832333,-0.04714731156872415,0.29824951883361916,-0.0060936159899028655,-0.0077096277059572746,0.000279234272189476
1765409005.690238,-9.897961825099216,-0.041286380886956985,0.2941946143290422,-0.006076175572181202,-0.007625560419404572,0.00033582018966169056
1765409005.690438,-9.878763581286858,-0.0355044009650625,0.29092669339864347,-0.00610930901364006,-0.00744680443086203,0.0003921157548184243
1765409005.690638,-9.858131501205373,-0.029964144928188587,0.2886021075400833,-0.006189571441063802,-0.0071678958664324255,0.00045144830086229245
1765409005.690838,-9.836548936492395,-0.024813008943592358,0.28736470503519157,-0.006311901606915939,-0.006786562060550148,0.0005164549000467643
1765409005.691042,-9.814608047890907,-0.02017521154931919,0.2873426814433873,-0.006469981627225837,-0.006304019230034902,0.0005888829717879427
1765409005.691242,-9.792997968815289,-0.016146054695305757,0.28864368350462694,-0.0066566536546205125,-0.0057251085859943785,0.0006694333225354049
1765409005.691442,-9.772482336645911,-0.012788554573756702,0.291347560614364,-0.006864355309403094,-0.005058240344200615,0.0007576509002374092
1765409005.691642,-9.753865791046229,-0.010132495980620666,0.2954968856212477,-0.0070855355360518275,-0.004315128795897817,0.0008518694827649069
1765409005.691842,-9.737950487329243,-0.008175720654326531,0.3010861355495049,-0.007313017573698516,-0.0035103160361091416,0.0009492187852243585
1765409005.692084,-9.725485185967054,-0.006887255183795793,0.3080510191146681,-0.007540285623397368,-0.002660494297685467,0.0010457057469704695
1765409005.692284,-9.717111049862936,-0.00621175846695297,0.3162599200385756,-0.007761684538561779,-0.0017836496829806224,0.0011363849457201427
1765409005.692484,-9.713309860780543,-0.006074785796707502,0.3255098037811245,-0.007972533823575928,-0.0008980673969636604,0.0012156342566978487
1765409005.692684,-9.714361353459491,-0.006388632570620082,0.33552888551676585,-0.008169165302916616,-2.1262761903071972e-05,0.001277548030222662
1765409005.692884,-9.720315770349305,-0.007059035366195291,0.34598742907865576,-0.008348897477315034,0.0008310678804075176,0.0013164446433877057
1765409005.693073,-9.73098525770805,-0.00799335711955889,0.3565162070623326,-0.008509960510187016,0.0016459564925396016,0.0013274496000605961
1765409005.693273,-9.745954458795724,-0.00911037827775132,0.36673012587879594,-0.008651385282362816,0.0024138100148178264,0.0013070648683896928
1765409005.693473,-9.764608195179228,-0.01035036401219729,0.37625339700475946,-0.008772867605913793,0.003128705809698379,0.0012536030589732766
1765409005.693673,-9.78617293174158,-0.011682712206131098,0.38474293538928905,-0.00887461597243323,0.003788312300408635,0.0011673876320635232
1765409005.693873,-9.809768070524019,-0.01310854767633543,0.39190789106344925,-0.008957193601758437,0.004393478934654701,0.0010506931570393144
1765409005.69411,-9.834462427839076,-0.014657404489166704,0.3975243715945596,-0.009021373748054754,0.004947580071162019,0.0009074766816115705
1765409005.69436,-9.85933074984929,-0.01637948342199466,0.40144484084817106,-0.009068029859347883,0.00545570270909052,0.0007429875234524706
1765409005.69461,-9.8835053245993,-0.01833617715856911,0.40360163646586217,-0.009098069776148777,0.005923759069428052,0.0005633270049641695
1765409005.69486,-9.906218863353294,-0.0205907788800187,0.40400442817516996,-0.009112405000636318,0.006357608438379239,0.00037498885478919546
1765409005.695086,-9.926836605455035,-0.023199475858725154,0.4027326018087346,-0.009111938915349884,0.006762286912246391,0.00018439253642519302
1765409005.695286,-9.944877339711057,-0.02620187518970728,0.3999246341322025,-0.009097563415113832,0.007141439708489483,-2.5515155422733624e-06
1765409005.695486,-9.960023955058269,-0.029611336746886492,0.39576646992137465,-0.00907016099336074,0.007497012761900947,-0.00018076984243789804
1765409005.695686,-9.972124153701772,-0.033407039537971965,0.3904798750034667,-0.009030612988903869,0.007829208669885105,-0.0003461855469164663
1765409005.695886,-9.981181817808036,-0.037530023983887606,0.38431076676239023,-0.008979815943504544,0.008136673417945628,-0.0004957158562577328
1765409005.696059,-9.987339924467275,-0.04188402086939924,0.3775172599960131,-0.008918707515739999,0.00841685742640803,-0.000627177153129169
1765409005.696259,-9.990856810593437,-0.04634008019204807,0.3703574747961419,-0.008848300414225284,0.008666479803615864,-0.0007391724647935013
1765409005.696459,-9.992078403201152,-0.05074334415395723,0.36307766219226245,-0.008769719784155703,0.008882020915211864,-0.0008309935093283479
1765409005.696659,-9.991409253248587,-0.05492097803158144,0.3559015962423781,-0.008684239682601097,0.009060178011628872,-0.0009025275677478538
1765409005.696859,-9.98928480322479,-0.05869133844948526,0.34902220303805714,-0.008593315682018517,0.009198233863502731,-0.0009541527126785178
1765409005.698111,-9.986146591124186,-0.06187485489155914,0.34259605623099776,-0.00849860839427542,0.009294304252239564,-0.000986627155079687
1765409005.698311,-9.982421389012872,-0.06430649000030957,0.3367409768453069,-0.008401988177745994,0.009347451399772574,-0.0010009995117418462
1765409005.698511,-9.978504738762664,-0.0658485785202908,0.3315367177445983,-0.00830551177710702,0.009357675933810015,-0.0009985629905499783
1765409005.698711,-9.974748957336068,-0.06640222801349085,0.32702842641274515,-0.00821136951156204,0.009325816349132609,-0.0009808495105507297
1765409005.698911,-9.971455408580729,-0.06591576148070796,0.3232321527408411,-0.008121810385995748,0.009253383896356373,-0.0009496319552332971
1765409005.698215,-9.968870656276492,-0.06438956161713508,0.32014133409812107,-0.008039055515846544,0.009142352721975456,-0.0009068966376228263
1765409005.698415,-9.967185915518995,-0.06187739020926314,0.31773317572717913,-0.007965207984371819,0.008994924560944194,-0.0008547689603724605
1765409005.698615,-9.966538910237702,-0.058484331903971405,0.31597403701373533,-0.007902164495462155,0.00881329328514179,-0.0007954080604911138
1765409005.698815,-9.967016970731732,-0.05436114865800019,0.31482315204430283,-0.007851533834619822,0.008599435106910542,-0.0007309058759845073
1765409005.699015,-9.96866028319576,-0.0496947135317034,0.3142343557513715,-0.00781456822541397,0.00835494124168827,-0.0006632174371328118
1765409005.699073,-9.971464718254644,-0.04469482467517312,0.3141560776861845,-0.007792114065800954,0.00808089943228972,-0.0005941229711227017
1765409005.699273,-9.975384282466376,-0.039578828773041,0.3145304152656125,-0.007784587220603847,0.007777826915212863,-0.0005252063263194521
1765409005.699473,-9.980333544209799,-0.034556277088399576,0.31529215992073717,-0.007791974181770993,0.0074456589588227234,-0.00045784275072653944
1765409005.699673,-9.986190358333975,-0.02981569127113126,0.3163682843947943,-0.007813853682017619,0.007083797209181879,-0.00039320794235262537
1765409005.699873,-9.992799169414731,-0.02551458275416492,0.317678141578877,-0.007849426917769964,0.006691218064337696,-0.0003323250622333552
1765409005.700152,-9.999975273498238,-0.021772862121352234,0.31913468116739646,-0.007897543966150018,0.006266637018357295,-0.0002761488124175551
1765409005.700352,-10.007510444225442,-0.01866934750384327,0.32064694752208245,-0.007956721055874227,0.005808722612690157,-0.0002256593577259673
1765409005.700552,-10.015180051743437,-0.016241286847408245,0.3221236779750269,-0.008025153437588903,0.005316349566035247,-0.00018192594669956167
1765409005.700752,-10.022751347542355,-0.014487089969955081,0.32347731970917337,-0.00810073541321138,0.004788872196184222,-0.00014611256281288587
1765409005.700952,-10.029992256005542,-0.013372251163228783,0.32462768867515335,-0.008181099828876229,0.004226390196065494,-0.0001194269306823828
1765409005.701076,-10.036679915195924,-0.012837720364156539,0.325504746892131,-0.008263684889105342,0.0036299745949669704,-0.00010303772600638913
1765409005.701276,-10.042608266198647,-0.012809257550831689,0.32605023771952113,-0.008345829447912278,0.0030018239543912755,-9.798734015542535e-05
1765409005.701476,-10.047594163468574,-0.013206131049521362,0.3262181284020596,-0.00842489244934972,0.0023453281680562805,-0.00010511175327192941
1765409005.701676,-10.051481814678871,-0.01394806262606394,0.32597413464057806,-0.008498389053889742,0.0016650282277975768,-0.00012496156513677943
1765409005.701876,-10.054145810937024,-0.014960233536671115,0.32529501451176546,-0.008564132940371725,0.0009664743438329935,-0.0001577147826025021
1765409005.702018,-10.05549332313887,-0.01617683346604655,0.3241684864814113,-0.008620369672568748,0.00025600034403304136,-0.0002030845130474191
1765409005.702218,-10.055465938805803,-0.017543666786202068,0.32259428291724845,-0.008665882331278121,-0.0004595548988855865,-0.0002602413679570889
1765409005.702418,-10.054041129439348,-0.01901987028856174,0.3205861529766861,-0.008700051725915038,-0.0011731428517821386,-0.0003277771251229095
1765409005.702618,-10.051232866890828,-0.020578370811644254,0.31817404575880837,-0.0087228604132293,-0.001877784012898214,-0.0004037275002118512
1765409005.702818,-10.047090825054502,-0.02220476350891661,0.3154055709916894,-0.00873484037825168,-0.0025668038442109033,-0.00048565290905504163
1765409005.703019,-10.041697904338191,-0.023894801330764243,0.3123460885441837,-0.008736974967653702,-0.0032340095693697063,-0.0005707591063104538
1765409005.703219,-10.035166210154493,-0.02565120125674477,0.30907715511140155,-0.008730572439027204,-0.0038738034743185236,-0.00065603614858292
1765409005.703419,-10.027631899515344,-0.027480528988784024,0.3056934214696547,-0.008717129035581035,-0.004481241704969155,-0.0007384051830879398
1765409005.703619,-10.019249480193995,-0.02939046955742668,0.3022984146076736,-0.008698195343367103,-0.005052057193241135,-0.0008148756085612469
1765409005.703819,-10.010186189696972,-0.0313872260082845,0.29899983829307825,-0.008675254784854328,-0.005582665524685946,-0.0008827154884204891
1765409005.704053,-10.000616892242924,-0.03347260754870987,0.2959049206552356,-0.008649620320606354,-0.0060701641496511355,-0.0009396237511870272
1765409005.704253,-9.990719559574952,-0.035640743932818374,0.29311601230795764,-0.008622354432710111,-0.0065123270698231785,-0.0009838767764304458
1765409005.704453,-9.98067113969724,-0.037874996397155226,0.2907264127570694,-0.00859421590643249,-0.006907596057510794,-0.001014420129865294
1765409005.704653,-9.97064367724318,-0.04014600312943815,0.2888164728010588,-0.008565633837487959,-0.007255072096701158,-0.0010308922196867057
1765409005.704853,-9.960800779253377,-0.042411587953154986,0.2874502477328623,-0.008536706551826721,-0.007554508777276998,-0.0010335893761348638
1765409005.705016,-9.951294625234578,-0.044618626277436416,0.2866730810882772,-0.0085072227833364,-0.00780630187942717,-0.0010233958556368971
1765409005.706044,-9.942263637646287,-0.04670636927556005,0.286510390501962,-0.008476703675375051,-0.008011463346650047,-0.0010017002280854387
1765409005.708041,-9.933830816096673,-0.048610571635661924,0.2869677502354914,-0.00844446456023599,-0.008171568531989738,-0.0009703062461384083
1765409005.71103,-9.926102678117276,-0.05026806128804197,0.2880322356716182,-0.008409694073379607,-0.008288671328098043,-0.0009313336003886524
1765409005.713059,-9.919168657957814,-0.051621747782372364,0.289674828353893,-0.00837154537808991,-0.008365188214277668,-0.0008871020185732592
1765409005.716024,-9.913100635264245,-0.0526260502280281,0.291853372996116,-0.008329231077757219,-0.008403758162943245,-0.0008400011927048918
1765409005.718011,-9.907952116780278,-0.05325226744351514,0.29451529272496946,-0.008282111645922258,-0.008407092011283479,-0.0007923597123254044
1765409005.721024,-9.90375667811955,-0.05349290133686909,0.29759935609458465,-0.00822976808942312,-0.00837783152673424,-0.000746328712373019
1765409005.722021,-9.900525642204979,-0.05336385988540788,0.3010363496039463,-0.008172052018349822,-0.008318440957176019,-0.0007037887178905767
1765409005.726008,-9.898245421127442,-0.052903943231950176,0.3047491659149982,-0.008109109031489096,-0.008231148568547019,-0.0006662786684435548
1765409005.728132,-9.896875196564402,-0.05217176687306452,0.3086530847355004,-0.008041374444867648,-0.008117943107477966,-0.0006349431635691779
1765409005.731055,-9.896345590385371,-0.051240861883919304,0.3126568281255467,-0.007969543831562832,-0.00798061634377244,-0.0006104982222877186
1765409005.73304,-9.896558840441635,-0.05019384096463821,0.316664631072765,-0.00789452328642872,-0.007820835535975533,-0.0005932195062188625
1765409005.737082,-9.897390856531967,-0.049116279479707176,0.32057930013875957,-0.007817364802918147,-0.007640231129545733,-0.0005829539459921533
1765409005.739029,-9.898695310251924,-0.04809065206295742,0.32430597345858236,-0.007739191601619692,-0.007440489758558648,-0.0005791482661250495
1765409005.741044,-9.900309561484628,-0.047190608754814206,0.3277560284666332,-0.007661118275585245,-0.007223444544453708,-0.0005808824985436063
1765409005.742073,-9.902061917244527,-0.04647607813100946,0.33085052873013715,-0.007584171119716794,-0.0069911540314788875,-0.000586898185804867
1765409005.745998,-9.903779657941053,-0.04598983018229215,0.3335228883957298,-0.0075092139691010215,-0.006745960643518051,-0.0005956205863411708
1765409005.748021,-9.905297399174811,-0.04575593304947245,0.33572083592595064,-0.007436884533538069,-0.0064905186204715784,-0.0006051867671983806
1765409005.749038,-9.90646547834777,-0.04578006272731342,0.3374079723640358,-0.007367546245534978,-0.006227779425286435,-0.0006134978796683888
1765409005.753042,-9.907158103094039,-0.04605120227713878,0.3385652125079351,-0.007301260504074597,-0.005960923309062656,-0.0006183086040301571
1765409005.756172,-9.907281015574014,-0.046544153632257,0.33919226711351214,-0.0072377829628373185,-0.005693232637503011,-0.0006173523686655918
1765409005.758058,-9.906778333849529,-0.047222483354603204,0.3393090300484712,-0.007176584310662483,-0.005427914807489794,-0.0006084858303827834
1765409005.759076,-9.905637960784421,-0.04804182941138793,0.3389563108099677,-0.007116890216079797,-0.005167896491028073,-0.0005898291948446592
1765409005.761132,-9.903894724232964,-0.048953654028986576,0.33819515457985116,-0.007057728718132157,-0.004915621760477516,-0.000559883999720705
1765409005.766123,-9.901630535829154,-0.04990941257873708,0.33710429890837706,-0.006997970875344477,-0.004672888817514975,-0.0005176217002701496
1765409005.767103,-9.898971274419148,-0.05086480378751259,0.3357758633884046,-0.00693635436442396,-0.004440751110299922,-0.00046254511265722846
1765409005.771038,-9.89608047696392,-0.05178347487062722,0.33430968273267575,-0.006871488137814428,-0.0042194931841676,-0.0003947257362075702
1765409005.773068,-9.89315012141253,-0.05263947104059454,0.33280673475033085,-0.0068018461862215185,-0.00400867831694643,-0.00031481566602218003
1765409005.773977,-9.890388983374288,-0.05341795196951325,0.3313621795695711,-0.00672576692255673,-0.003807258596729985,-0.00022402777367115488
1765409005.777987,-9.888009334854848,-0.05411419242667509,0.33005866543810475,-0.0066414772405300575,-0.003613735866528345,-0.0001240753835595558
1765409005.781094,-9.886212967356304,-0.0547313992692841,0.3289605295294916,-0.006547153514568459,-0.0034263590931169147,-1.7065514122830216e-05
1765409005.783057,-9.885177543561815,-0.055278131258258596,0.32810928698632047,-0.006441018410427132,-0.003243340721763845,9.465048117944126e-05
1765409005.78601,-9.88504427141711,-0.055765970111610295,0.32752065272037284,-0.00632146026350997,-0.0030630751903531293,0.00020865089562484702
1765409005.788162,-9.885908041975688,-0.05620765466259442,0.3271834805875117,-0.006187157658358166,-0.002884345927885392,0.00032261394022023313
1765409005.791086,-9.887811321068307,-0.05661545062950718,0.3270612006511559,-0.0060371963118921726,-0.0027065080403954676,0.000434458370894967
1765409005.793037,-9.89074282940962,-0.056999437906793,0.3270961480927593,-0.005871172837213945,-0.0025296325460363728,0.0005424442834075156
1765409005.796122,-9.894641235307434,-0.057365767344844505,0.3272164884568333,-0.005689283571303253,-0.0023545988449871925,0.0006452413947074751
1765409005.79708,-9.899403054357833,-0.0577154570461372,0.32734463556708276,-0.005492394327656723,-0.002183125578046232,0.0007419766277883163
1765409005.801046,-9.904893195989484,-0.05804445115211481,0.32740563299543635,-0.005282082164213206,-0.0020177333784505923,0.0008322608795688255
1765409005.804076,-9.91095635297348,-0.05834519842328986,0.32733409625279963,-0.005060637487755464,-0.0018616371245573338,0.0009161785986670822
1765409005.806034,-9.917427623583778,-0.05860917262544112,0.32707879503661286,-0.004831015990617212,-0.0017185727564114448,0.000994220056160088
1765409005.808085,-9.924141208101998,-0.05882914173225173,0.3266045225670723,-0.004596734796609609,-0.0015925730055983637,0.0010671522197799384
1765409005.811003,-9.930936598676281,-0.05900009904190201,0.3258914250169273,-0.004361714843440086,-0.001487714334240894,0.001135851741662043
1765409005.813025,-9.937662297507371,-0.05911859157902468,0.32493242665759814,-0.004130080238932965,-0.001407862932780377,0.0012011439721603542
1765409005.816048,-9.94417762317144,-0.05918114951333059,0.3237297019525012,-0.003905931636827599,-0.0013564486269599808,0.0012636890425159187
1765409005.818014,-9.950353415404603,-0.059182921626824835,0.3222911553147415,-0.003693110984263333,-0.001336288251603275,0.0013239302742315993
1765409005.820986,-9.95607237036692,-0.05911717755247175,0.3206275707188312,-0.0034949701211863284,-0.0013494658531281515,0.0013820899155613082
1765409005.823052,-9.961229530547364,-0.05897544935804578,0.31875076531065644,-0.003314152183360214,-0.001397263899549028,0.001438184716721084
1765409005.82609,-9.965733338304036,-0.05874753147236646,0.31667297504952735,-0.0031523986941304227,-0.0014801343168471632,0.001492046438403327
1765409005.827107,-9.969507583108138,-0.05842084225903038,0.3144076871353575,-0.003010404917055374,-0.0015977006650210515,0.0015433559309900372
1765409005.831006,-9.972494322094589,-0.05797953652339498,0.3119719055283488,-0.0028877520550373314,-0.0017487877655734914,0.0015917109093459352
1765409005.833018,-9.974657446714298,-0.05740445401008486,0.30938940720709845,-0.002782938303581362,-0.0019314770119526557,0.0016367350891270916
1765409005.834003,-9.975986272453417,-0.056674846866646034,0.30669427219652196,-0.0026935116663425536,-0.002143183467219906,0.0016782079259589743
1765409005.836981,-9.976498520899371,-0.055771912314136335,0.3039340477745271,-0.00261628537738645,-0.0023807483591787777,0.001716170274517319
1765409005.841073,-9.976242223845775,-0.05468316352955345,0.3011721096123272,-0.002547602640606369,-0.0026405413110563197,0.0017509606874828313
1765409005.844021,-9.975296172793923,-0.05340631593064565,0.29848878139323426,-0.0024836148872703174,-0.0029185707569070666,0.0017831637365173245
1765409005.844521,-9.973768526490412,-0.05195180255470565,0.29598061201302683,-0.002420542993066821,-0.0032106055359978677,0.0018134887675974882
1765409005.848035,-9.971793265587351,-0.05034382092094216,0.29375727406770363,-0.0023548986199594135,-0.0035123111842170675,0.0018426186621639158
1765409005.850991,-9.969524468685659,-0.04862033494008712,0.29193603942629565,-0.002283650749849602,-0.0038193982912791335,0.001871062293140937
1765409005.853001,-9.96712872787707,-0.04683236351303645,0.29063441397375483,-0.0022043307431245693,-0.004127770251806237,0.0018990260946925549
1765409005.856043,-9.964776192728955,-0.04504236668953229,0.28996184222201427,-0.0021150781748087216,-0.00443365071573364,0.0019263123801863092
1765409005.857058,-9.962630701480697,-0.04332120345894605,0.29001132484074715,-0.002014637641136475,-0.004733672795484655,0.0019522612581996238
1765409005.861068,-9.960839406604999,-0.04174347993781992,0.2908515578714052,-0.0019023203302130308,-0.005024923172549025,0.0019757651288640986
1765409005.864164,-9.959522384906645,-0.040381971432214024,0.29252003188692305,-0.0017779414701436364,-0.005304948283898246,0.0019953809228909726
1765409005.864664,-9.95876289289202,-0.039302467476265604,0.2950174440921398,-0.0016417380204254354,-0.005571736417828727,0.0020095395858314687
1765409005.867068,-9.958599025770125,-0.03856024717343801,0.29830370025863506,-0.001494265702929577,-0.005823684184433028,0.0020168174870957727
1765409005.871052,-9.959017541425563,-0.0381984806196067,0.3022957773323548,-0.0013362762375488334,-0.006059545674321403,0.002016211823029767
1765409005.873084,-9.959950639040175,-0.03824781253873069,0.30686788796584097,-0.0011685858432381273,-0.006278358998848933,0.0020073649848161776
1765409005.876068,-9.961276499179357,-0.03872595745850088,0.3118545418741975,-0.000991958602847438,-0.006479351085979841,0.001990706894058503
1765409005.878021,-9.962824148243502,-0.03963659729609521,0.317056840648507,-0.0008070323910409291,-0.0066618319091353295,0.001967511911574583
1765409005.881132,-9.964382623605811,-0.04096783372935234,0.3222516597389187,-0.0006143051859027069,-0.0068250972875699145,0.0019398810106497231
1765409005.884021,-9.965713783208386,-0.042691184640522954,0.3272027747279166,-0.0004141815698427576,-0.006968362156771538,0.0019106561756493982
1765409005.886177,-9.966567754973704,-0.044762121216468304,0.33167289824263985,-0.00020706396626227338,-0.0070907422371451825,0.0018832632985194722
1765409005.888069,-9.966699942473914,-0.047122458911174094,0.3354358725900755,6.5336759542332e-06,-0.0071912903695134835,0.0018614782800462826
1765409005.891038,-9.965888466723603,-0.04970404970346939,0.3382885132301521,0.0002258721075108066,-0.00726907860679398,0.0018491256410326353
1765409005.893004,-9.963950866413823,-0.052432787224166826,0.34006166872073346,0.0004498927590324377,-0.007323308595551968,0.0018497424305455592
1765409005.896104,-9.960758942442558,-0.05523219199551881,0.3406300885000966,0.0006771606350773146,-0.007353436621015157,0.001866257701765491
1765409005.898034,-9.956250849606349,-0.05802649110824206,0.33992074283021884,0.0009058583949046933,-0.007359308095978057,0.0019007372639577753
1765409005.901022,-9.950439709471123,-0.06074355646084831,0.33791919405592413,0.0011338422159962067,-0.007341296339238854,0.001954223586661945
1765409005.903037,-9.94341803895905,-0.06331795169585931,0.3346734574847911,0.001358765237090105,-0.007300430872721469,0.002026673424709241
1765409005.905984,-9.935357377129113,-0.06569379342900444,0.33029478039495425,0.0015782675170334767,-0.007238492257783164,0.0021169782163101723
1765409005.908048,-9.926502859490542,-0.06782666563253649,0.3249550780293744,0.0017902219134443942,-0.007158052397926449,0.0022230531375840522
1765409005.91104,-9.917162966208345,-0.06968391929805351,0.3188811244860854,0.0019930150808399054,-0.0070624488810699755,0.0023419914560690995
1765409005.913057,-9.90769492870693,-0.07124338313877233,0.3123456340309785,0.0021858355184682363,-0.006955691932528475,0.0024702837932664415
1765409005.916063,-9.898486307009463,-0.07249130693015315,0.30565516378233937,0.002368937317135617,-0.006842309202368484,0.0026040879595055264
1765409005.918059,-9.88993337112401,-0.07342059141693336,0.29913478473392713,0.0025438459976787338,-0.00672713766256239,0.0027395131676073094
1765409005.921005,-9.88241735537097,-0.07402978317909788,0.29310997630683616,0.002713469109559296,-0.006615074468975024,0.0028728711217107378
1765409005.923081,-9.876280235236713,-0.07432239297824404,0.28788695135746545,0.0028820718300357788,-0.006510800129982533,0.0030008574685292866
1765409005.925987,-9.871802021948332,-0.07430564702403243,0.28373310590876105,0.003055082735573523,-0.006418489751333411,0.0031206567305593134
1765409005.928363,-9.869181480515381,-0.07398824465884499,0.28085925492488967,0.00323871137244827,-0.006341534620078829,0.003229995167128808
1765409005.931056,-9.868521808058015,-0.07337773382954985,0.2794049841984479,0.0034393879398033787,-0.006282305578196043,0.0033271791314641998
1765409005.933025,-9.869822464625209,-0.07247888276246554,0.27942822652111426,0.0036630732742180725,-0.00624199340751025,0.003411142915267779
1765409005.936103,-9.872978120978194,-0.07129426180013299,0.2809001658262877,0.003914525122721391,-0.00622055227308356,0.00348150072614223
1765409005.93809,-9.877785370206338,-0.06982720133024929,0.28370649802595144,0.004196629871947162,-0.006216752322725171,0.0035385751138294237
1765409005.941064,-9.883957221773457,-0.06808607599389238,0.2876556146790391,0.0045099062780887805,-0.006228327657577098,0.0035833753148169652
1765409005.943097,-9.891144503100536,-0.06608830440408113,0.29249341212259333,0.00485225991134468,-0.006252195356104554,0.0036175207557508178
1765409005.946077,-9.898962408276606,-0.06386285441123872,0.2979234459121749,0.005219024885067906,-0.006284720638768402,0.0036431288492745953
1765409005.947089,-9.90701983561,-0.06145100576615627,0.30363041374400496,0.005603285817198925,-0.006322007083688416,0.0036626942544803046
1765409005.951117,-9.914948973006027,-0.05890588533003968,0.3093046931633066,0.005996437196196444,-0.006360193960222103,0.0036789742919506978
1765409005.953069,-9.922432744069061,-0.05629133602158945,0.3146658503723262,0.006388914049104053,-0.006395743423815282,0.0036948723463819306
1765409005.956108,-9.929227994873042,-0.053680133208469635,0.31948338915943597,0.006771016248402261,-0.006425698910937238,0.003713296697295218
1765409005.957095,-9.935182520453285,-0.05115107075104648,0.3235932109481219,0.007133744305468511,-0.006447894583708474,0.003736981328508572
1765409005.961024,-9.940244296347219,-0.04878460546141596,0.3269082935613941,0.007469564296543997,-0.006461097571214766,0.003768284196501671
1765409005.963077,-9.944461855570733,-0.046657563089791576,0.32942232525748233,0.007773025817960757,-0.006465071632459204,0.0038090040020581895
1765409005.966081,-9.94797570550769,-0.044838208830343736,0.3312057531283442,0.008041172708963833,-0.0064605593563318055,0.0038602566546281527
1765409005.968062,-9.951001704110455,-0.04338301189412443,0.3323947182982051,0.008273711204380087,-0.006449186152383193,0.0039224277171833995
1765409005.971106,-9.953808042352332,-0.042335507376838534,0.33317419201666687,0.008472929881552845,-0.006433294808513107,0.003995188375853513
1765409005.973162,-9.956687900444129,-0.04172641015033556,0.33375715037573817,0.008643393845787658,-0.006415728806278411,0.004077551369891409
1765409005.97607,-9.959930175442913,-0.04157356188434845,0.334361957102976,0.008791456316679323,-0.006399594685317728,0.004167953834156246
1765409005.979166,-9.963790899342339,-0.041880906570220214,0.33519020235545566,0.008924643023153465,-0.0063880404529278595,0.004264371494292615
1765409005.980102,-9.968467824292501,-0.042636997903250096,0.3364068933234644,0.009050972330851729,-0.006384081912079426,0.004364473728651477
1765409005.984083,-9.974080106504518,-0.04381443480411859,0.33812427123760197,0.009178279737129185,-0.006390494564195677,0.00446581441680873
1765409005.986042,-9.980654404120623,-0.04537134890002038,0.34039008104402274,0.009313616265757923,-0.006409773867653891,0.004566029765008379
1765409005.9882,-9.98811832411315,-0.04725484885863475,0.34318103343307116,0.009462779929111943,-0.006444155516151787,0.004663000843939877
1765409005.991044,-9.996301915575305,-0.04940511895520295,0.3464021984529837,0.00963001622119654,-0.006495678688090729,0.004754948875842766
1765409005.99209,-10.00494746151201,-0.05175859347123041,0.34989276125174174,0.009817894836163663,-0.006566268785805947,0.004840461751517014
1765409005.996067,-10.013727020455208,-0.05424945202164299,0.35343786861030263,0.01002734555066608,-0.006657814844426238,0.004918480093166108
1765409005.997011,-10.022266253115038,-0.05680989679713005,0.35678549099772083,0.010257820904349624,-0.006772220402538758,0.004988277719461317
1765409006.000996,-10.03017239817107,-0.05937029612791644,0.35966668739431057,0.010507545283024057,-0.00691141118148091,0.005049450542523514
1765409006.00203,-10.037063979485426,-0.06185988237795079,0.36181750406826485,0.010773807379985387,-0.007077286498976873,0.005101899978396392
1765409006.006005,-10.042599816981246,-0.06420777111438755,0.3630007735914023,0.01105325654408152,-0.007271606206312119,0.005145789470965747
1765409006.008101,-10.04650500595413,-0.06634359949764104,0.3630260719396231,0.01134217325544602,-0.007495813847400855,0.005181474837021362
1765409006.009066,-10.048591727680979,-0.06819759997719858,0.36176608385967773,0.011636696238289983,-0.007750809940860409,0.005209440128761445
1765409006.012026,-10.048773224690475,-0.06970094928643407,0.35916792926002794,0.011932998780012912,-0.00803670274051995,0.0052302775437316
1765409006.016011,-10.047070058312674,-0.07078768425003559,0.3552587441062086,0.012227413006111746,-0.008352570017598522,0.00524472128010833
1765409006.018064,-10.043608583958918,-0.07139875913322336,0.3501456336798647,0.012516504548764145,-0.008696261532486031,0.005253705848825144
1765409006.020998,-10.038612105706767,-0.07148744543432153,0.3440105551043846,0.012797103012339751,-0.009064265937011356,0.005258404876414328
1765409006.023063,-10.032385448920019,-0.07102437157890296,0.3371007140482486,0.013066296781375478,-0.009451666815701202,0.005260226633150175
1765409006.026036,-10.02529404615479,-0.07000074898133442,0.329715047628769,0.013321404446035282,-0.009852216531870515,0.005260774008372155
1765409006.02812,-10.017739212758473,-0.06842941824624385,0.3221875709827653,0.013559939298013456,-0.010258550877048089,0.0052617893920485215
1765409006.031108,-10.010131839656026,-0.06634434549435604,0.31486868643739435,0.013779586274537606,-0.010662547158544292,0.005265091693338846
1765409006.033046,-10.00286685084716,-0.06379938528892966,0.3081057224232829,0.013978209447746064,-0.011055801755240107,0.005272492859564121
1765409006.036104,-9.996300327445903,-0.060866552527770505,0.3022238575753723,0.014153900927797582,-0.011430183219197391,0.005285678242317638
1765409006.038068,-9.990730472040058,-0.05763341140832617,0.2975083254255176,0.014305070014557561,-0.011778410259944307,0.005306054202531071
1765409006.039091,-9.986383003777258,-0.05419917260478733,0.2941886180150683,0.014430558835465174,-0.012094607979773736,0.005334593116373955
1765409006.043107,-9.983401313287608,-0.050669728650502406,0.2924254073804159,0.014529764082459639,-0.012374802503904932,0.005371720345103068
1765409006.04602,-9.98184160853409,-0.04715256067010192,0.29230097378307524,0.014602747968192697,-0.012617315581275209,0.005417277673166046
1765409006.049091,-9.981673097654875,-0.0437525704893873,0.29381387820117894,0.014650331356591524,-0.012823015844958761,0.0054705676551671965
1765409006.051043,-9.982782933557045,-0.04056929910758854,0.29687837410711615,0.014674169252177745,-0.01299538164920117,0.005530452980845408
1765409006.053019,-9.984985390929701,-0.03769513379611647,0.3013287687464403,0.014676808812198095,-0.013140342986036451,0.005595474519810146
1765409006.05609,-9.988034723016394,-0.03521359525997288,0.3069287625982894,0.014661725511275508,-0.013265897108025481,0.005663964698908838
1765409006.05715,-9.991641173140312,-0.03319694485402189,0.31338556262832395,0.014633327944832127,-0.013381523486670897,0.005734154363300591
1765409006.061108,-9.995489360910588,-0.03170299307926358,0.3203680086127128,0.01459691671598418,-0.013497449123276167,0.005804282459919337
1765409006.063088,-9.999257749115394,-0.030771645595492964,0.3275271829555466,0.014558579038340298,-0.013623832673151271,0.0058727122833928894
1765409006.066237,-10.002637563697117,-0.030421965126902387,0.3345174864080326,0.014525002646167967,-0.01376994539172587,0.005938044130052584
1765409006.068212,-10.005349701666272,-0.030650294883306787,0.3410162567382749,0.01450320354675155,-0.013943426549161236,0.005999204659095523
1765409006.070559,-10.007158662687967,-0.03142959454636105,0.34674050026643566,0.014500178805880152,-0.014149678740907052,0.006055495081155848
1765409006.073066,-10.007883015483353,-0.03270995895898675,0.35145984929811314,0.014522510835544768,-0.014391446648143612,0.006106592939675759
1765409006.076097,-10.007402180861206,-0.03442041613893011,0.3550052888249988,0.014575958989422143,-0.014668597680769504,0.006152517757286666
1765409006.078083,-10.005659449545826,-0.0364722943792356,0.35727354319701976,0.014665078049524164,-0.014978100780584647,0.006193577577917212
1765409006.081088,-10.00266131747795,-0.03876438989167559,0.3582273641322442,0.014792903953274702,-0.015314182962106312,0.006230307204643537
1765409006.083079,-9.998473485291868,-0.04118975137999119,0.35789231332067506,0.014960745037412432,-0.015668631820752284,0.006263398164944792
1765409006.084042,-9.993214134068173,-0.04364330658159138,0.35635084253405774,0.015168109050760449,-0.016031206728440224,0.006293616685481192
1765409006.0881,-9.987045215381388,-0.04602912630464538,0.3537344428693311,0.01541278037399171,-0.016390124194669935,0.0063217132066176965
1765409006.091095,-9.980162488492887,-0.04826615248240758,0.35021450355988054,0.015691041359711746,-0.016732595233139937,0.006348340567787241
1765409006.092147,-9.972785034039267,-0.05029175648191024,0.3459925086655385,0.01599801206728932,-0.01704540785802566,0.006374007519054659
1765409006.094079,-9.965144981676215,-0.05206324141875778,0.34129026509054333,0.01632806825882005,-0.01731555174101823,0.0063990893934211205
1765409006.098039,-9.95747800737716,-0.05355789923073632,0.3363407100212433,0.01667529076610107,-0.017530868089927664,0.006423898485125111
1765409006.101001,-9.950014697911513,-0.054772212588100035,0.3313793954710894,0.017033900597063945,-0.01768068821441203,0.006448794508165973
1765409006.104068,-9.942972453857829,-0.05572035468299202,0.32663632556879413,0.017398641195164894,-0.017756416275051107,0.006474302925692933
1765409006.106029,-9.936547567761647,-0.05643168682476965,0.322327768227991,0.017765078952538503,-0.01775201824790245,0.006501211142927974
1765409006.108142,-9.93090738824282,-0.05694693137268177,0.3186478672569907,0.018129803946140194,-0.017664391859260657,0.0065306267377530595
1765409006.11105,-9.926182740812795,-0.05731321860919102,0.3157600701189661,0.018490525193955134,-0.017493605773182447,0.006563997175739048
1765409006.11303,-9.922460975729141,-0.057578866509986545,0.3137886129169866,0.018846068241786793,-0.017243008586720038,0.006603094108814106
1765409006.116065,-9.919780313356867,-0.057788973411174276,0.31281075270904246,0.019196294488761097,-0.016919214544512333,0.006649956571573372
1765409006.118024,-9.918126500218872,-0.05798248126166187,0.31285096163758985,0.019541966278403825,-0.016531970100049854,0.006706779256257101
1765409006.121034,-9.917432879258872,-0.05819062384278225,0.3138784925120063,0.019884577893726278,-0.016093897608614703,0.006775737022705514
1765409006.122993,-9.917584619273748,-0.05843614974693383,0.3158093404925981,0.02022616578940909,-0.015620108047018228,0.006858755958361386
1765409006.126034,-9.918427149875198,-0.05873274450011104,0.31851278191226107,0.02056910874071582,-0.015127680232560965,0.006957265703496336
1765409006.127045,-9.919778139333983,-0.05908456437500489,0.3218217758871972,0.020915930528611692,-0.014635019053320566,0.007071983410593765
