time,acc_x_g,acc_y_g,acc_z_g,gyro_x_rad_s,gyro_y_rad_s,gyro_z_rad_s
1765410151.483874,-7.573208913009759,5.0694377670197195,4.307031227503655,-0.008976947820054877,-0.009774190308604023,0.0009643968775899797
1765410151.484074,-7.5565315693973085,5.071584656770325,4.2814322998577685,-0.008535637806090646,-0.009649173309756268,0.00022391070979804807
1765410151.484274,-7.539195295969459,5.075130229397036,4.255818327016884,-0.008017660006982692,-0.009534744248140005,-0.0004694186406875404
1765410151.484474,-7.520998183400525,5.081335520926552,4.230470150225211,-0.007437731808175749,-0.009407023421112227,-0.0011563950432988584
1765410151.484729,-7.501737295194922,5.091404830508495,4.205618040864913,-0.006817130008828601,-0.009237817313220903,-0.0018814484354395282
1765410151.484929,-7.481223181774065,5.106427355418241,4.181432422164256,-0.00618415030080025,-0.008995037068581933,-0.002691346434283907
1765410151.485129,-7.459297604419096,5.127320722532399,4.1580217436449916,-0.005574359835591252,-0.008643374776723365,-0.0036338994181570957
1765410151.485329,-7.435853208779581,5.15477924708594,4.1354370278665105,-0.005030587952004615,-0.008145224136355381,-0.004756704757725635
1765410151.485529,-7.410853256328283,5.189230071986578,4.113681740391843,-0.004602604918047232,-0.007461809400592283,-0.006105970828820751
1765410151.485692,-7.384349209833367,5.230800405291815,4.092725108442443,-0.004346446023042766,-0.0065544661277681495,-0.007725446447272202
1765410151.485942,-7.356494022869397,5.279298718078734,4.0725168383400066,-0.004323348601442315,-0.005386000427811087,-0.009655458499345425
1765410151.486192,-7.327549380504025,5.334211876614732,4.053001337497754,-0.00459828629257687,-0.003922041550380789,-0.011932036027792848
1765410151.486442,-7.29788573667622,5.394718835887843,4.034129879333189,-0.005238111548247244,-0.002132295845682155,-0.014586081285818802
1765410151.486723,-7.267974630335546,5.459720017943012,4.0158695174639725,-0.006309352754860055,8.390143793051404e-06,-0.017642545865923294
1765410151.486973,-7.238373403662273,5.527880204522261,3.9982080060971446,-0.007875749254256671,0.0025192394409151004,-0.02111958604103867
1765410151.487223,-7.20970313406092,5.59768187089834,3.981154612649967,-0.009995637225170363,0.005413086083990181,-0.025027699739825875
1765410151.487473,-7.182621275769396,5.6674853279272925,3.964737424539598,-0.012719317047227478,0.008696273151113243,-0.02936887833139197
1765410151.487673,-7.157791043261331,5.7355917574416555,3.9489983311999954,-0.01608653893138526,0.012368893781653343,-0.0341358347462608
1765410151.487873,-7.135849850950743,5.800305307577996,3.933987169808812,-0.02012424021762138,0.016425329431818878,-0.039311395119948134
1765410151.488073,-7.117379100466472,5.859991013123221,3.919756530908487,-0.02484465633636624,0.020855024000490073,-0.044868161375743607
1765410151.488273,-7.102877276359674,5.913126445677118,3.9063584309257977,-0.030243911691535563,0.025643432138861035,-0.05076855912962657
1765410151.488473,-7.092737859435578,5.958346440309371,3.8938436151925377,-0.0363011823093048,0.030773080938724877,-0.056965370278974005
1765410151.488696,-7.087233309375255,5.994481508356786,3.8822639280971973,-0.04297851066387081,0.03622467593366363,-0.06340280758424166
1765410151.488946,-7.086506284853675,6.020591118419586,3.8716779537613246,-0.050221339068954186,0.041978170962350014,-0.07001812110279602
1765410151.489196,-7.090568832663297,6.035992676082639,3.8621595067055234,-0.05795980412701788,0.04801371890530987,-0.07674364661970318
1765410151.489446,-7.099309117152465,6.040286005729099,3.8538072554881277,-0.06611079898093605,0.054312428383007025,-0.08350914023949596
1765410151.489751,-7.112503828204947,6.0333720763915375,3.846752381029134,-0.07458076511737552,0.06085686698750969,-0.09024421642133382
1765410151.490001,-7.1298336003843605,6.015464240447002,3.8411607612102214,-0.08326912238250692,0.06763128023268382,-0.09688072177587112
1765410151.490251,-7.150898991695963,5.9870905057779416,3.837227195741345,-0.09207218468794569,0.07462154190208106,-0.10335490946470964
1765410151.490501,-7.1752354011422215,5.94908590501115,3.835161075635547,-0.10088734820730379,0.08181489931144313,-0.10960930148224433
1765410151.490738,-7.2023261850368545,5.902574321076349,3.835164776034078,-0.10961729746247967,0.08919959976925325,-0.11559413782586506
1765410151.490988,-7.231614059780824,5.8489391348739455,3.8374076154185013,-0.11817396469789804,0.0967644781801846,-0.1212683382529799
1765410151.491238,-7.262511763808924,5.789782260940619,3.841999572123822,-0.1264819956913779,0.10449856894984066,-0.12659996016356515
1765410151.491488,-7.294413604838615,5.726871909339502,3.8489696370019675,-0.13448151501384614,0.11239078753299384,-0.13156620666896648
1765410151.491699,-7.326709411292531,5.66208059511508,3.8582528862594523,-0.14213004399286183,0.12042969935298724,-0.13615308960177905
1765410151.491949,-7.358801550487486,5.597316092540912,3.86968818243139,-0.1494034946385181,0.12860335705957712,-0.14035486908544648
1765410151.492199,-7.39012474624649,5.534448920851407,3.883026199938542,-0.15629622505883498,0.13689916461951426,-0.14417337913692346
1765410151.492449,-7.420167943801827,5.475240378549182,3.8979463682494977,-0.16282019089259914,0.14530373714318767,-0.14761731688362476
1765410151.492732,-7.448497202397025,5.421275005305497,3.9140810266918904,-0.16900327033122622,0.15380275488881645,-0.15070153607103903
1765410151.493065,-7.474778067399943,5.373900823907095,3.931044581206404,-0.17488688176680423,0.1623808269734842,-0.15344636344892695
1765410151.493399,-7.498795208710956,5.334180246128243,3.948464649158577,-0.18052305070860353,0.1710213730055135,-0.15587695567502605
1765410151.493754,-7.520466925610042,5.302854332541638,3.9660119072794604,-0.1859711137571533,0.17970651734340007,-0.15802271724559128
1765410151.494004,-7.5398525955736115,5.280322828123739,3.9834258969822525,-0.19129426907768096,0.1884169913923935,-0.15991678541422424
1765410151.494254,-7.557151836034125,5.266641492702272,4.000534728624186,-0.19655618921155427,0.1971320512801037,-0.1615955570426617
1765410151.494504,-7.572694747705388,5.261536627732643,4.017267077608012,-0.20181789731914063,0.20582942478336064,-0.16309820880814854
1765410151.494685,-7.586923267183536,5.264434967616832,4.0336554102138935,-0.20713507027460878,0.21448529650227113,-0.16446616816606074
1765410151.494935,-7.600364349183349,5.274505965760765,4.0498300189996135,-0.21255587837230042,0.22307433228357462,-0.1657425233016004
1765410151.495185,-7.613595976422114,5.290713117570722,4.066003543828276,-0.2181194180138299,0.23156974165604147,-0.16697138823843205
1765410151.495435,-7.627206762632511,5.31187090300963,4.082445180825019,-0.2238547544493814,0.2399433838450601,-0.16819724365557168
1765410151.495692,-7.641749895878443,5.3367037777632405,4.099443926520728,-0.22978056447473405,0.24816594187099814,-0.1694642619926814
1765410151.495942,-7.657693061571092,5.3639034545445465,4.117261931793672,-0.23590534261892374,0.2562072218408066,-0.17081561919336383
1765410151.496192,-7.675367493364108,5.392180942487895,4.136081737504194,-0.24222810607429382,0.2640366689196454,-0.17229280748397297
1765410151.496442,-7.694920524125428,5.420310827366018,4.155953359424245,-0.24873951053247642,0.27162420133400134,-0.17393498843842214
1765410151.496715,-7.716276506148019,5.447167006033481,4.176748112691132,-0.25542327474571513,0.278941428983915,-0.17577844350182406
1765410151.497048,-7.739110921631562,5.471750925355942,4.198125962625051,-0.26225780308206226,0.2859632521868167,-0.17785616690299522
1765410151.497382,-7.762841987359512,5.493214465865462,4.219522365754654,-0.26921789213437114,0.29266976048886856,-0.18019759803811727
1765410151.497818,-7.786642837694113,5.510879450455238,4.2401588574003295,-0.2762764143092869,0.2990482940373392,-0.1828284315461434
1765410151.498068,-7.809475513766616,5.52425457129013,4.259079053115298,-0.28340589005491423,0.30509548813924864,-0.18577040854780158
1765410151.498318,-7.830145941711236,5.533049056724569,4.275208729515658,-0.2905798840987467,0.31081909048865397,-0.18904099706272973
1765410151.498568,-7.847377060848046,5.537181381695389,4.287435563814239,-0.2977741818198363,0.31623933240991525,-0.19265290380162817
1765410151.498686,-7.859895278313822,5.536781077324865,4.29470123529116,-0.30496772107560227,0.3213896637131672,-0.19661340624336204
1765410151.498936,-7.866523844769074,5.532182061506944,4.296096781444311,-0.31214327772344286,0.32631671793794986,-0.20092354050860928
1765410151.499186,-7.866276041301629,5.523906577003513,4.29095204925425,-0.3192879259553552,0.3310794377773942,-0.20557722009715898
1765410151.499436,-7.85844120462579,5.512639652659658,4.278911267020082,-0.32639330587578563,0.33574734541295176,-0.2105603916406073
1765410151.499692,-7.8426572228701,5.499194994781134,4.259988128268913,-0.33345572357478076,0.3403979966094416,-0.21585035457250928
1765410151.500025,-7.81896402485689,5.484474141598233,4.234595111177828,-0.340476088414766,0.3451137210143432,-0.22141536930107378
1765410151.500359,-7.787833715113792,5.469421049839479,4.2035435855555665,-0.34745967204259015,0.34997781503279213,-0.2272146382586822
1765410151.500644,-7.750174235764817,5.4549737834402965,4.168013724075316,-0.3544156649514587,0.3550703961803119,-0.23319867839698188
1765410151.500894,-7.707304784187631,5.4420141914553986,4.129495850174249,-0.3613565118611545,0.36046413998158844,-0.23931005580746934
1765410151.501144,-7.660903023093659,5.431316285291748,4.089707235975068,-0.36829702513254686,0.3662201153076073,-0.24548445545294223
1765410151.501394,-7.612926493880947,5.4234947575372034,4.05049033314828,-0.3752533026449146,0.37238393195408737,-0.25165209692190216
1765410151.501684,-7.565513001213363,5.418956293010904,4.013699609280384,-0.3822415055630544,0.37898242442420216,-0.2577395393730153
1765410151.501934,-7.520866468110669,5.417857469306006,3.9810845306866303,-0.3892765728731157,0.38602111019359436,-0.26367191929588507
1765410151.502184,-7.481136074698922,5.42007386701874,3.9541766864601677,-0.3963709579568488,0.3934826612651231,-0.26937563056648706
1765410151.502434,-7.44829782469322,5.425185309304195,3.9341902699608187,-0.4035334666955206,0.40132659862614917,-0.27478139105661115
1765410151.502712,-7.424048504249686,5.43248161798096,3.9219460340875574,-0.41076825876081546,0.40949035272060463,-0.27982755094710793
1765410151.502962,-7.40972119689216,5.440991727213702,3.917827525285295,-0.41807405016949656,0.41789172905998695,-0.28446340496265626
1765410151.503212,-7.406228901885352,5.449536571590377,3.9217745519622125,-0.42544353483524416,0.4264326850015641,-0.2886522013042904
1765410151.503462,-7.414039293508188,5.456803160063929,3.933313910444337,-0.43286303294302375,0.43500418381338196,-0.29237351405316647
1765410151.503666,-7.433180088563428,5.461434021974352,3.9516228120579164,-0.4403123775152509,0.44349177698080045,-0.29562467582143853
1765410151.503999,-7.463271182128042,5.462123400691475,3.975616870152238,-0.44776506478131495,0.4517814985112861,-0.2984210644862171
1765410151.504333,-7.503577169726598,5.457710117136842,4.004052377375025,-0.455188709192814,0.45976563827495237,-0.3007951980267953
1765410151.504717,-7.5530728068002295,5.447257669462947,4.035632297626849,-0.46254584842928603,0.46734798109228565,-0.30279477443398717
1765410151.504967,-7.610514384612442,5.430114804447287,4.069106631611979,-0.4697951300562847,0.47444813782377654,-0.30447993300501747
1765410151.505217,-7.674511074571106,5.405953562682822,4.103359718344227,-0.4768928761141896,0.48100464915569263,-0.3059200612511621
1765410151.505467,-7.74359128746172,5.374785360910469,4.137478885687334,-0.48379496803047994,0.4869766233859179,-0.3071904298526558
1765410151.50569,-7.816260105343294,5.336957891903735,4.17080052419707,-0.49045893894154247,0.49234379101881487,-0.3083688472370723
1765410151.50594,-7.8910452097574595,5.293136025940961,4.20293125306009,-0.49684612610901435,0.4971050172153232,-0.3095324356336981
1765410151.50619,-7.966530313758405,5.24426906446306,4.233743394207964,-0.5029237291873343,0.5012754804922621,-0.31075457897791
1765410151.50644,-8.04137657722676,5.1915459073696955,4.263345598924876,-0.5086666286408584,0.5048828712615395,-0.31210208908312376
1765410151.50667,-8.114333827444076,5.136339870123963,4.292031534833562,-0.5140588312593124,0.5079630668513198,-0.3136326573020897
1765410151.50692,-8.184244661472125,5.080145833656307,4.320212045521359,-0.5190944282128983,0.5105557873761224,-0.31539266748571104
1765410151.50717,-8.25004534053347,5.024513112042147,4.348338307676194,-0.5237779820914112,0.512700717588617,-0.31741542427937636
1765410151.50742,-8.31076738283091,4.970977003604019,4.376824202547248,-0.5281243030600946,0.5144344910506784,-0.3197198171199164
1765410151.507716,-8.36554304663202,4.920990562760281,4.405975428806849,-0.5321576234696288,0.5157887934669619,-0.32230943325042866
1765410151.508049,-8.41361693532667,4.875856832149827,4.435931833759588,-0.5359102244872462,0.5167896884051292,-0.32517217517818425
1765410151.508383,-8.454364710698238,4.836661892741982,4.466628397320895,-0.5394205993674285,0.517458129026348,-0.3282805086727596
1765410151.508707,-8.487317935784167,4.804210983772175,4.4977785289654495,-0.5427312555944206,0.5178114967998957,-0.3315925070418821
1765410151.508957,-8.51219157251332,4.778972629142002,4.528880488803488,-0.5458862683487503,0.517865895106051,-0.3350538090713979
1765410151.509207,-8.528908589619494,4.761037420411083,4.559244552905572,-0.5489287069678762,0.5176388276918187,-0.33860047005332994
1765410151.509457,-8.537615377397247,4.750097652670799,4.588035889278528,-0.5518980666518157,0.5171518349197102,-0.3421625222051115
1765410151.509769,-8.538682545751252,4.745451779430429,4.614326587024393,-0.5548278439232782,0.5164326777372552,-0.3456679493812523
1765410151.510019,-8.53268802835082,4.746035098099158,4.637150423624091,-0.5577433865729632,0.5155167595984838,-0.3490467464473303
1765410151.510269,-8.520382620485707,4.750476175365038,4.655555822182083,-0.5606601281144205,0.5144476244499803,-0.3522347485785661
1765410151.510519,-8.502641324354615,4.757177049610206,4.668655168582346,-0.5635822994730781,0.5132765080419928,-0.35517695049761894
1765410151.510806,-8.480406521188295,4.764413442766169,4.6756709457229135,-0.5665022093319174,0.5120610199502345,-0.3578300835087184
1765410151.511139,-8.454630591979395,4.770448743419086,4.675980139804005,-0.5694001891484513,0.5108630993091046,-0.3601642792252682
1765410151.511473,-8.42622571069232,4.773652870231481,4.669157970285039,-0.5722452855913651,0.5097464292985648,-0.36216372450853285
1765410151.511735,-8.396026789215599,4.772615386412153,4.655020530816188,-0.5749967403616244,0.5087735176737412,-0.36382631298699003
1765410151.511985,-8.364770138462687,4.766242446928429,4.633663668745523,-0.5776062338162647,0.5080026593562532,-0.36516242384969666
1765410151.512235,-8.333086320741492,4.7538293978405255,4.605492731402244,-0.5800207991718741,0.507485000462868,-0.36619306668461005
1765410151.512485,-8.301502548651849,4.735103986308612,4.571235832422068,-0.5821862467245125,0.5072619191640726,-0.3669476648293099
1765410151.512725,-8.27044918899582,4.7102377986500965,4.5319335802936465,-0.5840508780566058,0.5073629186069901,-0.3674617023402734
1765410151.512975,-8.24026640162015,4.679825320919345,4.488901033397252,-0.5855692272423867,0.5078041910563582,-0.36777439002817336
1765410151.513225,-8.21120931774315,4.644831640789344,4.44366167378915,-0.5867055478137151,0.5085879719961035,-0.367926472770657
1765410151.513475,-8.183452152694883,4.606512083386059,4.397857223299902,-0.5874367736136672,0.5097027659324643,-0.3679583015442608
1765410151.513855,-8.157092901646992,4.566309845483125,4.353140981374674,-0.5877547182502827,0.5111244861486396,-0.3679082869603157
1765410151.514105,-8.132160763421524,4.525739963973623,4.311065602067823,-0.5876673391405804,0.5128184961687944,-0.36781181399784546
1765410151.514355,-8.108627937966725,4.4862689416414225,4.272977525607326,-0.5871989678424657,0.5147424630171351,-0.3677006453290193
1765410151.514605,-8.086426122405749,4.449199272282116,4.239929084440221,-0.5863894804563463,0.5168498330790587,-0.3676027952410174
1765410151.514839,-8.065466815707413,4.415567732708479,4.212616711612296,-0.585292439340792,0.5190936372851265,-0.36754281904259495
1765410151.515172,-8.045664002862528,4.386065849407761,4.191350655363901,-0.5839722880753164,0.5214302567635217,-0.36754242067061704
1765410151.515506,-8.026957380298288,4.360989698594268,4.176057767998738,-0.5825007409858827,0.5238227646314785,-0.36762123027156857
1765410151.515811,-8.00933348012636,4.340223476009666,4.166314347198476,-0.5809525780345423,0.526243508609821,-0.36779756360930677
1765410151.516061,-7.992841553378,4.323257550869589,4.161402651422126,-0.5794011189176214,0.5286756910379277,-0.3680889790567907
1765410151.516311,-7.977601908988099,4.309238480764573,4.160384419947484,-0.5779136912260324,0.5311138153794478,-0.368512510479365
1765410151.516561,-7.963806137304007,4.297046662842842,4.1621863017049145,-0.576547426141174,0.5335629897594745,-0.36908454712360417
1765410151.516813,-7.9517095557600905,4.285396261636592,4.165692326359317,-0.5753457135941492,0.5360371937901464,-0.3698204002785931
1765410151.517063,-7.9416156142258805,4.272950407960359,4.169836368370485,-0.5743356160772704,0.5385567015450818,-0.3707336140670078
1765410151.517313,-7.93385146439833,4.258442190823155,4.173685615987746,-0.5735264650487045,0.5411448998947942,-0.3718350737039033
1765410151.517563,-7.9287353113456,4.240790099576459,4.176507218908217,-0.572909755498505,0.5438247651336562,-0.3731319868983805
1765410151.517892,-7.926539021975596,4.219196880812634,4.177813833251949,-0.5724603367593879,0.5466152886374064,-0.37462686650867405
1765410151.518142,-7.927451240224141,4.19322325857565,4.1773866381740685,-0.572138789554022,0.5495281762387305,-0.3763166779647531
1765410151.518392,-7.931545456171693,4.162831237365967,4.175275176526508,-0.5718947888982701,0.5525651574948793,-0.3781922936162153
1765410151.518642,-7.938755387309886,4.12839460839217,4.171773598166138,-0.5716711844881532,0.5557161979042469,-0.38023832906624483
1765410151.518721,-7.948859014682544,4.090676765185042,4.1673745103489965,-0.5714084854702756,0.558958807811305,-0.38243336251106097
1765410151.519054,-7.9614731522852535,4.050778296011307,4.162704551348934,-0.571049409709038,0.5622585239222998,-0.3847504793724251
1765410151.519388,-7.976060670891177,4.010058744612761,4.158448230731808,-0.5705431453708767,0.5655705461544973,-0.38715804192215814
1765410151.519716,-7.9919508332006135,3.9700378793755022,4.155267430455915,-0.5698489832776751,0.5688424474573228,-0.3896205629291925
1765410151.519966,-8.008370286723203,3.932282049886082,4.153723717334455,-0.568939025370219,0.5720178036718564,-0.3920995817832698
1765410151.520216,-8.02448005322208,3.8982817988561504,4.154209885236351,-0.5677997582248987,0.5750404928678643,-0.39455450467849484
1765410151.520466,-8.039413483843548,3.869328472949428,4.15689584133264,-0.566432386001579,0.5778593102513646,-0.3969434469794717
1765410151.520712,-8.05231147014752,3.8463994948654316,4.161692404923306,-0.5648519295735503,0.5804324825590323,-0.39922416569050106
1765410151.520962,-8.06235346176795,3.830062887740007,4.168235745116444,-0.5630852104805874,0.5827316805474445,-0.40135517901098455
1765410151.521212,-8.068784982834707,3.820410851676952,4.175895038156672,-0.5611679416181028,0.5847452129869148,-0.40329715031161234
1765410151.521462,-8.070943371945257,3.817030102907673,4.183805305998413,-0.559141228035486,0.5864801876418293,-0.40501457830241844
1765410151.521708,-8.06828328790919,3.8190141976155427,4.190925677081876,-0.5570478281999042,0.5879634936603111,-0.4064777828853761
1765410151.521958,-8.060402704990464,3.8250203865225147,4.196120726598979,-0.55492853181756,0.5892415019539137,-0.4076650957479356
1765410151.522208,-8.047068755291217,3.833369794979481,4.198258988725087,-0.5528189781191689,0.5903784386392869,-0.4085650541125561
1765410151.522458,-8.028240670933352,3.8421840969973866,4.196318237651742,-0.550747180946543,0.591453476709114,-0.40917829147752804
1765410151.522807,-8.00408523575679,3.849545419536159,4.18948362847457,-0.5487319548653936,0.5925566883766872,-0.40951878723458923
1765410151.52314,-7.974980379785901,3.8536617957286445,4.177225030400536,-0.5467823534746543,0.5937840862491082,-0.40961421475356696
1765410151.523474,-7.941505082873705,3.853020286846761,4.159344191486435,-0.544898139314645,0.5952320652887652,-0.4095052822439717
1765410151.52375,-7.90441669473102,3.8465135974013056,4.135988048004166,-0.5430712078742795,0.5969916431012162,-0.4092441186115545
1765410151.524,-7.8646183975698,3.8335311731059147,4.1076290739738,-0.5412877926094343,0.5991429486386203,-0.4088918540761182
1765410151.52425,-7.8231199846336255,3.814009756740159,4.075016994164847,-0.5395311979039558,0.6017503867125872,-0.408515563508194
1765410151.5245,-7.780995282634022,3.7884403175767187,4.039108995522531,-0.5377847587317229,0.6048588152219433,-0.4081847198318603
1765410151.524803,-7.739339304439582,3.757829616788028,4.000986936005138,-0.5360347119924558,0.6084909699773731,-0.407967313331105
1765410151.525053,-7.6992269383848075,3.723617514350001,3.961769104326686,-0.5342726730487487,0.6126463018327337,-0.40792585405507137
1765410151.525303,-7.661673154335421,3.6875558126250763,3.9225221046163643,-0.5324974361772663,0.6173013409674137,-0.40811354682004286
1765410151.525553,-7.6275940282886,3.6515591760070087,3.884177918669256,-0.5307158748539058,0.6224116321149115,-0.4085709620192465
1765410151.525829,-7.597769296170811,3.617541558916042,3.84746277551141,-0.5289428225626306,0.6279151689547909,-0.4093235139264247
1765410151.526162,-7.572809461011155,3.5872525228477268,3.8128460805995523,-0.5271999499573637,0.6337371048219099,-0.4103800188132187
1765410151.526496,-7.553131620479625,3.5621280523747485,3.780517117433174,-0.5255137780369878,0.6397953588342989,-0.4117325358278709
1765410151.526773,-7.538947463368453,3.5431704618203166,3.750394320755554,-0.5239130550011447,0.646006609323159,-0.41335757067570106
1765410151.527023,-7.530265243296037,3.5308705310732895,3.7221676077677293,-0.5224257812715434,0.6522921056898775,-0.41521853842954737
1765410151.527273,-7.5269058486251765,3.5251806219138984,3.6953693025774075,-0.5210761982451323,0.6585827468764237,-0.4172691762295059
1765410151.527523,-7.52853146982346,3.5255404340238368,3.669464539562802,-0.5198820538681281,0.6648229514721273,-0.41945744811002633
1765410151.527722,-7.534684033259309,3.5309496700018568,3.6439491820831202,-0.5188524182013006,0.6709729616602967,-0.42172946094992786
1765410151.527972,-7.544829916450953,3.5400768230084836,3.618442997474976,-0.5179862563163807,0.6770093788876514,-0.4240330045240976
1765410151.528222,-7.558407231480739,3.5513910777861524,3.5927672636374224,-0.5172718903851543,0.6829239193969645,-0.4263204587618805
1765410151.528472,-7.574871579382515,3.56330356277023,3.566998024949485,-0.5166874046724501,0.6887205771552746,-0.4285509128656156
1765410151.528702,-7.593735840599719,3.574304053638396,3.5414887441522205,-0.5162019648528766,0.6944115574287745,-0.4306914213510229
1765410151.528952,-7.614599951025095,3.5830802466928384,3.5168593260108167,-0.5157779381428896,0.7000124775540556,-0.4327174107331576
1765410151.529202,-7.637167683622956,3.5886094066310603,3.4939519430292774,-0.5153736217170275,0.705537414498804,-0.4346123382490794
1765410151.529452,-7.6612487265760105,3.5902159824338624,3.4737573137565003,-0.5149463258163648,0.7109944006250738,-0.436366762284332
1765410151.52971,-7.686745927300855,3.5875927363553037,3.457318388478194,-0.5144555286893038,0.7163819192089343,-0.4379770123882167
1765410151.530043,-7.713629734016673,3.5807866561765143,3.445621632174327,-0.5138658318030501,0.7216868327326297,-0.4394436650996252
1765410151.530377,-7.741904023153183,3.570154292751305,3.4394877879042913,-0.5131494877992608,0.7268840032791751,-0.44077004118629326
1765410151.530697,-7.771568710088896,3.5562936270238006,3.4394731964220577,-0.512288328824176,0.7319376500951693,-0.4419609182175063
1765410151.530947,-7.802584732849696,3.539960449955287,3.4457905903972623,-0.5112749724204955,0.7368042567552431,-0.4430215915083665
1765410151.531197,-7.834846760626148,3.5219766535672012,3.4582565128265377,-0.5101132262653492,0.7414366310436267,-0.44395734295483313
1765410151.531447,-7.868168338693628,3.503136859640667,3.4762711253662033,-0.5088176619885781,0.7457885865233151,-0.4447733273951943
1765410151.531692,-7.902282495303281,3.4841197018196746,3.4988337797795475,-0.5074123875312289,0.7498196881342555,-0.44547486797586006
1765410151.531942,-7.9368579997371524,3.4654112660175347,3.52459391169531,-0.5059291099185989,0.7534995761000541,-0.44606813923998145
1765410151.532192,-7.971528506840899,3.4472497814345893,3.551933028088641,-0.5044046339474539,0.7568115089637019,-0.4465611756861672
1765410151.532442,-8.00592992287377,3.4296006835748964,3.579071273857131,-0.5028779833836367,0.759754893809745,-0.44696506304499967
1765410151.532692,-8.03974055388396,3.4121679569957952,3.6041909078773244,-0.5013873637087075,0.7623466624413227,-0.44729507368291477
1765410151.532942,-8.072718183887018,3.394441467114079,3.6255675807611323,-0.4999672073578377,0.7646214047261577,-0.4475714488432833
1765410151.533192,-8.104728025519899,3.375773281056885,3.6416984445590503,-0.49864554259004074,0.7666302154103255,-0.44781955623819963
1765410151.533442,-8.135756436567894,3.3554715750414577,3.651415321192771,-0.4974418986647526,0.768438282101844,-0.44806926269193953
1765410151.533695,-8.16590797222002,3.332899587391422,3.6539723827969097,-0.4963659107743108,0.7701213449425299,-0.44835350963509213
1765410151.534028,-8.195386679768022,3.3075681062011504,3.6491002801302126,-0.4954167341910352,0.7717612670053917,-0.44870621184075793
1765410151.534362,-8.224464884522584,3.279211738887835,3.6370213267482696,-0.4945833264673127,0.7734410363192017,-0.4491597008582019
1765410151.534731,-8.253443649362701,3.2478413638714954,3.618423335962186,-0.49384560141576633,0.7752395603904535,-0.4497420129328065
1765410151.534981,-8.28260935973859,3.2137681845686314,3.594393518082741,-0.49317638595013974,0.7772266215759562,-0.4504743704255042
1765410151.535231,-8.312190869068564,3.177598660460792,3.5663179310837525,-0.49254402345108633,0.7794583596692513,-0.45136919645528395
1765410151.535481,-8.342321061927118,3.140203278569649,3.535755280909871,-0.49191538856956024,0.7819736453823545,-0.4524289162626714
1765410151.535704,-8.373005891076527,3.1026645095000256,3.5042964226749342,-0.49125903285545175,0.7847916820152802,-0.4536456540305674
1765410151.535954,-8.404104020457085,3.066209987945154,3.473423523083934,-0.49054817327377126,0.7879110939776982,-0.45500177680499004
1765410151.536204,-8.435321166705558,3.0321364988136557,3.4443849088613656,-0.48976325381105457,0.79131063605499,-0.456471116869243
1765410151.536454,-8.466223110277028,3.0017296488205534,3.4181008607073284,-0.4888938438462136,0.7949515159788901,-0.45802064803247994
1765410151.536694,-8.49626836853156,2.9761836816138585,3.3951107396698643,-0.4879396902643619,0.7987811704653827,-0.4596123940080331
1765410151.537027,-8.524856592349478,2.956525576703338,3.375564380104287,-0.48691082155439924,0.8027381530996004,-0.4612053835982032
1765410151.537361,-8.551384735067328,2.9435469779901733,3.359253404946923,-0.4858267045801118,0.8067575993530508,-0.4627575186893052
1765410151.537672,-8.575301916499773,2.9377466800533036,3.345672756598225,-0.4847145537429262,0.8107766098136555,-0.4642272809850673
1765410151.537922,-8.596155461480777,2.9392858792140513,3.3341000082327312,-0.48360696301515066,0.814738916490697,-0.46557526946258987
1765410151.538172,-8.613623566681571,2.947958620586619,3.323680445539847,-0.48253906973907895,0.8185983706540254,-0.466765621818558
1765410151.538422,-8.627533316426277,2.9631806744170124,3.313509257862396,-0.4815454824409617,0.822321037690482,-0.4677674071598263
1765410151.538714,-8.637865542194241,2.984000662510916,3.3027067230427716,-0.4806572293465267,0.825885909027198,-0.46855606468719796
1765410151.538964,-8.644749809057751,3.009136797031893,3.290485692978742,-0.4798990042840584,0.8292843851318721,-0.4691149055919838
1765410151.539214,-8.64845339291734,3.0370407630795073,3.2762116222325126,-0.4792869797735404,0.8325187470616504,-0.46943661002238507
1765410151.539464,-8.649367442488785,3.065987221100993,3.2594539876277135,-0.47882740822261155,0.835599850249642,-0.4695245587555767
1765410151.539788,-8.647991934039684,3.094183568637939,3.240025634922377,-0.4785161489324074,0.8385442704406965,-0.4693937681374322
1765410151.540038,-8.64491943921286,3.119890849922794,3.218005217284055,-0.4783391621438565,0.8413711216156118,-0.4690711797907956
1765410151.540288,-8.640817084434602,3.1415441761562675,3.193738483329554,-0.47827391929916857,0.8440987622693006,-0.4685951101156547
1765410151.540538,-8.636406470980534,3.157860449205627,3.167816295602662,-0.47829159997546733,0.8467416176335744,-0.46801377823722035
1765410151.540709,-8.632441886738178,3.167922647137395,3.1410297588606544,-0.4783598817001376,0.8493073637069516,-0.46738297717543215
1765410151.541042,-8.629687035368857,3.171233198717802,3.114304999886907,-0.47844607637367936,0.8517947256823581,-0.4667630920543169
1765410151.541376,-8.628889900047232,3.167733356236822,3.0886221735316375,-0.4785203296291701,0.8541921215901441,-0.4662157544631595
1765410151.541712,-8.63075511681726,3.1577895350612453,3.0649255511927214,-0.4785585872563468,0.8564773272984008,-0.4658004269124754
1765410151.541962,-8.635913654027968,3.142149965107004,3.0440333666211923,-0.4785450483960252,0.8586182633942331,-0.46557115359311835
1765410151.542212,-8.64489004069824,3.1218756780262393,3.026555969523467,-0.47847385957046396,0.8605749203566045,-0.4655736411423618
1765410151.542462,-8.658067472943097,3.098250111825249,3.0128285670950663,-0.47834985282331527,0.8623023402698823,-0.4658427853912421
1765410151.542699,-8.67565160947949,3.072672654443789,3.002862256824628,-0.47818820714657967,0.8637544514402448,-0.4664007446663224
1765410151.542949,-8.697635645614875,3.0465433106530972,2.9963160313095716,-0.4780130270107659,0.8648884221583535,-0.4672556593055432
1765410151.543199,-8.723771722689863,3.021147482056286,2.9924926572072277,-0.4778549718349781,0.8656691004437709,-0.46840111468912843
1765410151.543449,-8.753554966005703,2.997550844358372,2.990360946475403,-0.4777481946585308,0.8660730705232195,-0.46981643843306053
1765410151.543819,-8.786225364827787,2.9765144215226598,2.9886051391030346,-0.47772691871713313,0.8660918905094571,-0.4714678996443987
1765410151.544069,-8.820790301131472,2.95843930524604,2.9856999898942713,-0.477821992054012,0.8657341653789722,-0.4733108108582169
1765410151.544319,-8.856068411615327,2.9433486320380133,2.9800086919058577,-0.4780577366787668,0.865026238461245,-0.4752924118137714
1765410151.544569,-8.890753870077964,2.930910682055927,2.9698993076046203,-0.4784493719252048,0.8640114394972197,-0.4773552735831132
1765410151.544701,-8.923498170802551,2.9205012884817543,2.9538727991597105,-0.479001242516475,0.8627479847448567,-0.4794408608130504
1765410151.545034,-8.953003699494376,2.9112975170031516,2.9306923623827994,-0.47970601138444807,0.8613057511684628,-0.4814928743407588
1765410151.545368,-8.978120757412356,2.902389966160394,2.899501316925969,-0.48054488657416333,0.8597622206409666,-0.48346006967048927
1765410151.545785,-8.997938665016969,2.892899458722135,2.859917030162551,-0.4814888560553086,0.8581979151209703,-0.48529836665233467
1765410151.546035,-9.011862563012608,2.8820849983651287,2.8120914838597044,-0.4825008210645104,0.8566916382481681,-0.48697217859379405
1765410151.546285,-9.019669512998005,2.8694321956184594,2.7567332741829285,-0.48353845357118425,0.8553158201832487,-0.48845497109929903
1765410151.546535,-9.021538991404126,2.854713800457427,2.6950886258057807,-0.4845575506798567,0.8541322415841018,-0.48972912138482977
1765410151.546758,-9.018053726180218,2.838016531520672,2.628880202628204,-0.4855156124644183,0.8531883918752126,-0.4907852047693741
1765410151.547008,-9.010168523765417,2.8197317101010007,2.5602046031222514,-0.4863753371506691,0.8525146958611578,-0.4916208914794236
1765410151.547258,-8.999148269559369,2.8005113966505197,2.4913941619176727,-0.4871077260938237,0.8521228243875574,-0.49223967944860036
1765410151.547508,-8.986480421712349,2.7811958895612348,2.424854276449684,-0.4876945301299778,0.8520052843311293,-0.49264969149216026
1765410151.547813,-8.973769990289352,2.7627214631848824,2.362890923639796,-0.4881298397060622,0.852136432123458,-0.492862716398808
1765410151.548063,-8.96262593964262,2.7460187213320233,2.307543762872688,-0.4884207046293207,0.8524749396376115,-0.49289359181348075
1765410151.548313,-8.954548517326735,2.731912169934489,2.260439705434999,-0.48858674999680524,0.8529675653856159,-0.4927599415972821
1765410151.548563,-8.950827575224674,2.7210307276039774,2.2226804570526113,-0.4886588265615737,0.8535538992132647,-0.49248220791385483
1765410151.548723,-8.952461248803278,2.713737012908572,2.194774232458443,-0.48867679738945835,0.8541716145351499,-0.49208386863749987
1765410151.549056,-8.960101655954961,2.7100809186899277,2.1766165886684985,-0.48868662249615297,0.8547617052773852,-0.4915917155864881
1765410151.54939,-8.974030681053469,2.7097809520849903,2.1675200795945506,-0.4887369594632974,0.8552731987432105,-0.4910360858443998
1765410151.549755,-8.994166041722478,2.71223536002551,2.1662890142314426,-0.4888755435821731,0.8556669022318898,-0.4904509629652088
1765410151.550005,-9.020095936618326,2.716563734202187,2.171333695486556,-0.48914563967784036,0.8559178444183254,-0.48987387369452007
1765410151.550255,-9.05113849496854,2.721677717381669,2.18081617821968,-0.4895828675153241,0.8560162011097723,-0.4893454942268335
1765410151.550505,-9.086419226092001,2.7263759223992303,2.1928155263309654,-0.4902126855624215,0.8559666351681597,-0.48890886223533014
1765410151.550781,-9.124956708946518,2.7294536552247837,2.205495857749158,-0.49104875913275786,0.855786116989609,-0.48860810073596417
1765410151.551031,-9.165745854503605,2.7298145235296487,2.2172578995561483,-0.49209233493917803,0.8555004254655697,-0.4884866347501453
1765410151.551281,-9.207830025117499,2.7265708020168535,2.2268564169499503,-0.493332616997225,0.8551396696558679,-0.4885850139235977
1765410151.551531,-9.25035680566783,2.719122663067921,2.2334714694024176,-0.4947480296754005,0.8547333031024441,-0.4889385709257784
1765410151.551712,-9.29261520859995,2.707210641683231,2.236728677926402,-0.49630819390279424,0.854305180621817,-0.48957517373552945
1765410151.552045,-9.334053569394168,2.690938558956143,2.236670046781898,-0.49797642686663984,0.8538691975804685,-0.4905132755755425
1765410151.552379,-9.37427790520469,2.670765561918458,2.233681380394093,-0.49971257113586137,0.8534259636125102,-0.4917604011154178
1765410151.55275,-9.41303131349972,2.647467720059237,2.2283856714530303,-0.5014759454974002,0.8529608372394833,-0.49331218332928234
1765410151.553,-9.450157088595951,2.6220727687035104,2.221515182126398,-0.5032281978040217,0.8524435195958108,-0.4951520605865551
1765410151.55325,-9.485551682639585,2.5957750245837214,2.213778384151879,-0.5049358489898329,0.8518292817392752,-0.4972516994508702
1765410151.5535,-9.519117008416234,2.569839257883558,2.2057398054313433,-0.5065723484482086,0.8510617720927868,-0.4995721075212285
1765410151.553687,-9.550722657210088,2.5455017722472264,2.1977291430228996,-0.5081195018919055,0.8500772134020713,-0.5020652937573882
1765410151.553937,-9.580186347467523,2.52387538429104,2.1897907076730445,-0.5095681762556142,0.848809654522087,-0.5046762842824836
1765410151.554187,-9.607276453579564,2.5058639254816213,2.1816774182881686,-0.5109182353872573,0.8471968008129639,-0.5073453176025242
1765410151.554437,-9.631735723917304,2.4920915678198665,2.172887084709172,-0.5121777207338781,0.8451858362681788,-0.5100100856451497
1765410151.554728,-9.65332131355963,2.48285191923361,2.1627331536368732,-0.5133613609602679,0.8427386168177777,-0.5126079245019838
1765410151.554978,-9.67185314921488,2.4780807627331054,2.150437657091757,-0.514488560379479,0.8398356844716475,-0.5150778873448352
1765410151.555228,-9.687260593652562,2.4773545812106925,2.135231614399574,-0.5155810623436938,0.8364787050673995,-0.5173626588712906
1765410151.555478,-9.699616988643253,2.4799151878148082,2.1164483788811808,-0.5166605058149266,0.8326911247521102,-0.5194102992749196
1765410151.555731,-9.709153575184553,2.48471922673204,2.093598273683301,-0.5177460983580942,0.8285170412653345,-0.5211758282572837
1765410151.556064,-9.716248659191402,2.49050970770586,2.0664174907561645,-0.518852621257428,0.824018470913872,-0.5226226605998748
1765410151.556398,-9.721393831070307,2.495904703244665,2.0348895011693404,-0.5199889574898853,0.8192713305101985,-0.5237238842374675
1765410151.556809,-9.72514452144702,2.499496395609883,1.9992417104113949,-0.5211572842881401,0.8143605320768486,-0.5244633512525827
1765410151.557059,-9.728064846920862,2.499952885340475,1.9599224000494047,-0.5223529997645835,0.8093746198218346,-0.5248365400795696
1765410151.557309,-9.730675645451845,2.496115671684218,1.9175628321124878,-0.5235653691077281,0.804400371286553,-0.5248511216291046
1765410151.557559,-9.733411333060495,2.487086312281346,1.8729280411089748,-0.5247787982589946,0.7995177314118662,-0.5245271152444927
1765410151.55777,-9.736588407648972,2.4722955635073545,1.8268590768128583,-0.5259745854675382,0.794795367876972,-0.5238964905137442
1765410151.55802,-9.740387314504924,2.4515479452474467,1.7802099873187642,-0.5271329670456646,0.7902870743240757,-0.5230021012208399
1765410151.55827,-9.744849006722943,2.4250357943673433,1.7337841119961452,-0.5282352603988231,0.7860292238545701,-0.5218959281426457
1765410151.55852,-9.749886608452355,2.393320401081941,1.6882755917535532,-0.5292659109867289,0.782039456105665,-0.5206367204410294
1765410151.558782,-9.755310996141846,2.3572827632035014,1.6442228703918804,-0.5302142648775656,0.7783167243770587,-0.5192872135908086
1765410151.559032,-9.760867161763928,2.3180504362426624,1.6019803655862679,-0.5310759104582322,0.7748427216482647,-0.5179111329369883
1765410151.559282,-9.766276011440372,2.276908340846141,1.561711500288027,-0.5318534608961004,0.7715845615173097,-0.5165701763735467
1765410151.559532,-9.771274562156712,2.235201028889912,1.5234017804595308,-0.5325566835877809,0.7684984401049172,-0.5153211498910005
1765410151.559799,-9.775647934963102,2.194233667590123,1.4868871640569254,-0.5332019245884608,0.7655338832955789,-0.5142134245481467
1765410151.560132,-9.77924965003154,2.1551793834536817,1.4518922778042007,-0.5338108303134099,0.7626381284962384,-0.5132868697316664
1765410151.560466,-9.78201081932105,2.119000492083912,1.4180743598024992,-0.5344084435720401,0.7597602206923433,-0.5125703801272516
1765410151.560807,-9.78394155126216,2.0863895943322475,1.3850702546207645,-0.5350208399228326,0.756854495886109,-0.5120810730276647
1765410151.561057,-9.785128365716425,2.057734178095939,1.352544293134404,-0.5356725451413755,0.7538832267302601,-0.5118242101266754
1765410151.561307,-9.785730494380136,2.033106779455797,1.3202348006615656,-0.5363840076449325,0.7508182801710626,-0.5117938826929771
1765410151.561557,-9.78597669560209,2.012282415726377,1.287997010909198,-0.5371693907952791,0.74764170089199,-0.5119744524680272
1765410151.561717,-9.786162842944043,1.994784321726666,1.255839940615532,-0.5380349171442899,0.7443452170812666,-0.5123426310938739
1765410151.561967,-9.786648847599842,1.9799559375856914,1.2239534463630592,-0.538977947051179,0.7409287587092629,-0.512869932229607
1765410151.562217,-9.787852077469076,1.9670517860022383,1.1927201100801934,-0.5399869007799976,0.7373981581355415,-0.5135251332883104
1765410151.562467,-9.790234538165528,1.9553351935485925,1.1627070400510362,-0.5410420375628069,0.7337622750667646,-0.5142764169212478
1765410151.562751,-9.794282784984087,1.9441695966123584,1.1346357817898725,-0.5421170080928377,0.7300298655116695,-0.5150930027198138
1765410151.563084,-9.80048156774796,1.933092567382605,1.1093324762530066,-0.5431810246849873,0.7262065661638075,-0.5159462271143397
1765410151.563418,-9.809283451439116,1.9218655442513248,1.0876630982762576,-0.5442014567863066,0.7222923471458537,-0.5168101164276611
1765410151.563679,-9.821076962756683,1.9104956359801264,1.0704593968231901,-0.5451466495085779,0.7182797001121863,-0.5176615340994514
1765410151.563929,-9.836155502059592,1.8992285035852157,1.0584405837546929,-0.5459887605208051,0.7141527177824392,-0.5184800059005922
1765410151.564179,-9.854688753596728,1.8885137982706417,1.0521350217045509,-0.5467064009444754,0.7098871245255131,-0.5192473515100855
1765410151.564429,-9.876698240703275,1.8789471779725844,1.0518064227294066,-0.5472868513838928,0.7054512556493012,-0.5199472656949571
1765410151.564766,-9.902039414181539,1.871195091837759,1.0573909645788948,-0.5477276272510635,0.7008079509021049,-0.5205649802931488
1765410151.565016,-9.930393722584194,1.8659097437070582,1.068454198140161,-0.5480372089264127,0.6959172923939809,-0.5210870986885338
1765410151.565266,-9.961274253908767,1.863641940637985,1.0841772410740493,-0.5482348300643357,0.6907400442283282,-0.5215016498852616
1765410151.565516,-9.994046969935091,1.8647595142376348,1.1033788033793488,-0.5483493124716435,0.6852415462884158,-0.5217983818835382
1765410151.565769,-10.027966725903044,1.8693790610272738,1.1245738642791148,-0.5484170299821441,0.679395722576102,-0.521969298164525
1765410151.566019,-10.062224435736008,1.877318462546061,1.1460638952819664,-0.548479166851351,0.6731888234567269,-0.5220094121401517
1765410151.566269,-10.09600006179735,1.888076284149693,1.1660494376732724,-0.5485785063525678,0.6666225313215977,-0.5219176469275357
1765410151.566519,-10.128516171545044,1.900841591247713,1.1827541199947416,-0.5487560393741389,0.659716096111982,-0.5216977666792448
1765410151.566777,-10.159088462159412,1.9145345954439172,1.1945495285423964,-0.5490477091378992,0.6525072172721426,-0.5213592121509586
1765410151.56711,-10.187171752411157,1.927875544320258,1.2000718703853095,-0.5494815960586688,0.6450514663379863,-0.5209177185606406
1765410151.567444,-10.21240071408821,1.939476622274461,1.198322649712546,-0.5500758004793527,0.637420168701599,-0.520395599202925
1765410151.567774,-10.2346232439076,1.9479492639570322,1.188745686555978,-0.5508372124181832,0.6296968224060299,-0.5198215829260483
1765410151.568024,-10.253922129217582,1.9520172672711826,1.1712727624452246,-0.5517612717080018,0.6219722872590268,-0.5192301136348322
1765410151.568274,-10.270619823040148,1.9506249039617711,1.146332115381769,-0.5528327216661166,0.6143391041359378,-0.5186600712109812
1765410151.568524,-10.285262665278688,1.9430295875185244,1.114818397597427,-0.5540272574289369,0.6068854064502232,-0.5181529532471186
1765410151.568709,-10.298583594727416,1.9288707857085763,1.078027493674827,-0.5553138863479341,0.5996889628185724,-0.5177506358499799
1765410151.568959,-10.311444750499529,1.908209829678946,1.0375626593249354,-0.5566577656001049,0.5928119105861129,-0.517492874618889
1765410151.569209,-10.324763255180246,1.8815376979508456,0.9952197455862499,-0.5580232606809256,0.5862966726039067,-0.517414714727174
1765410151.569459,-10.339425637947778,1.849749422269437,0.9528599191272873,-0.5593769661589193,0.5801634080035284,-0.5175439860158264
1765410151.569827,-10.35619868278298,1.814085514272894,0.9122788248242452,-0.5606904351546712,0.5744091814159331,-0.5178990823528614
1765410151.570077,-10.375645953897353,1.776043694276257,0.8750815899865924,-0.5619423794115173,0.5690088787008514,-0.5184872395479626
1765410151.570327,-10.39805913976889,1.7372677136026493,0.8425732897367944,-0.5631201446289955,0.5639177499029313,-0.5193034990472568
1765410151.570577,-10.423411711999448,1.6994227507859703,0.8156736868626617,-0.5642203413542213,0.5590753166215126,-0.5203304739995992
1765410151.571363,-10.451339743703848,1.6640679464743244,0.7948624528991362,-0.5652485993363183,0.5544102595675102,-0.5215389521910654
1765410151.571696,-10.48115199184588,1.632536632750299,0.780157677040113,-0.5662184883577687,0.5498458332213596,-0.5228893079318223
1765410151.57203,-10.511869282815587,1.6058345269886545,0.7711284234774533,-0.5671497076078454,0.5453053540304822,-0.5243336513293919
1765410151.57168,-10.542291383049324,1.5845655250355288,0.7669415921779851,-0.5680656986134853,0.5407173651685604,-0.5258185924984339
1765410151.57193,-10.571086591199109,1.5688928851537378,0.7664420508458841,-0.568990887935597,0.5360201600952802,-0.5272884271668418
1765410151.57218,-10.596895269262989,1.558540040972454,0.7682614468654139,-0.5699478099233583,0.5311654101033679,-0.5286884806887282
1765410151.57243,-10.618435423774848,1.5528305597875465,0.7709465279177151,-0.5709543864017885,0.5261206749555174,-0.5299683149767629
1765410151.572764,-10.634598068778349,1.5507620503170523,0.7730941548524227,-0.5720216375460908,0.5208706093289499,-0.5310845230534623
1765410151.573014,-10.64452233296592,1.5511051221814776,0.7734783624543653,-0.5731520607659161,0.5154167537498275,-0.5320028996428015
1765410151.573264,-10.647643958772745,1.552516220081449,0.7711553248835563,-0.5743388490616673,0.509775928670396,-0.5326998661097924
1765410151.573514,-10.643715134234606,1.5536523439476941,0.7655352767099513,-0.575566039711611,0.5039774048994259,-0.5331631293508834
1765410151.573711,-10.63279770693357,1.5532764575289233,0.7564154481340941,-0.5768095957448517,0.4980591592693667,-0.533391651880625
1765410151.573961,-10.615234666837866,1.5503449443335122,0.7439730532483131,-0.5780393303349172,0.4920636101822056,-0.533395082441589
1765410151.574211,-10.591605761316645,1.5440722904699766,0.7287211599776302,-0.5792214968794486,0.48603325595886276,-0.5331928162164447
1765410151.574461,-10.56267267088573,1.5339718240521396,0.7114328523866513,-0.5803217992947213,0.48000662382543996,-0.5328128094901537
1765410151.574748,-10.529318285034533,1.5198733736446055,0.6930409013770592,-0.5813085398058484,0.4740148980925234,-0.5322901934365366
1765410151.574998,-10.492484031135074,1.5019189313637855,0.674521743719517,-0.5821556163118151,0.46807954049742784,-0.531665672636914
1765410151.575248,-10.453109183884482,1.4805370012480745,0.65677449297934,-0.5828450984846577,0.46221114101030775,-0.5309836926848188
1765410151.575498,-10.412076407863315,1.4563966287821284,0.6405079084114762,-0.5833691442592976,0.456409634729872,-0.5302904056005309
1765410151.575709,-10.370168005536197,1.4303435169967738,0.6261495073221637,-0.5837310710225205,0.45066587720857065,-0.5296315155685983
1765410151.576042,-10.32803687235181,1.4033225382055297,0.6137895535468937,-0.5839454727085142,0.4449643891865987,-0.5290501260438897
1765410151.576376,-10.286194392617372,1.376292543685944,0.6031676891246351,-0.5840373662567596,0.43928690188260033,-0.528584727494667
1765410151.57669,-10.245014455932129,1.3501403559953924,0.5937026945766359,-0.58404044207161,0.4336162177082729,-0.5282674682823973
1765410151.57694,-10.20474972094671,1.325601447178822,0.5845590492923904,-0.5839945695582238,0.42793988764696034,-0.5281228411284593
1765410151.57719,-10.165554982075088,1.3031950955290736,0.5747400862918213,-0.5839427643083589,0.4222532840264285,-0.528166883267502
1765410151.57744,-10.127513395197731,1.2831810526918723,0.5631967428418955,-0.5839278605441057,0.416561769469942,-0.52840692232986
1765410151.577697,-10.090662861951404,1.2655422451771237,0.5489412905545342,-0.5839891567970225,0.4108817860947395,-0.5288418258484316
1765410151.577947,-10.05502041770821,1.2499943488064442,0.5311554287294111,-0.5841593135835484,0.4052407946857222,-0.5294626728726897
1765410151.578197,-10.020602115037057,1.236019879789625,0.5092820182810647,-0.5844617692742291,0.3996760812504606,-0.5302537741231649
1765410151.578447,-9.987435980839667,1.2229228617292776,0.4830907029227152,-0.584908895096565,0.3942325272582806,-0.5311939830292371
1765410151.578672,-9.955566741984793,1.2098995625776328,0.4527102084102953,-0.5855010328131569,0.38895952340325674,-0.5322582126922377
1765410151.578922,-9.925052396739153,1.1961197736199283,0.4186236760832471,-0.5862264617832049,0.38390729794953193,-0.533419001510393
1765410151.579172,-9.895953709380843,1.1808111316598418,0.38162727541701613,-0.5870622465920867,0.3791230106715736,-0.5346479118744122
1765410151.579422,-9.86831885323783,1.1633372057864642,0.3427565278063665,-0.5879758410777988,0.3746470031059382,-0.53591656405259
1765410151.579678,-9.842167263415913,1.1432600733532965,0.3031892519044519,-0.5889272761781316,0.3705095806835731,-0.5371972048540953
1765410151.579928,-9.817478257652105,1.120380430755536,0.264137583399548,-0.5898717346757536,0.3667286414066474,-0.538462835834183
1765410151.580178,-9.794189300641463,1.0947519723668375,0.22674235690897063,-0.5907623134695449,0.3633083782635034,-0.539687020403413
1765410151.580428,-9.772205628163212,1.0666702270601824,0.19198103043893897,-0.5915527898475101,0.3602391792657538,-0.5408435267082431
1765410151.580681,-9.751419232060814,1.036638320678768,0.16059688987160145,-0.5922002293578416,0.3574987304948802,-0.5419059539490674
1765410151.581014,-9.731733019090514,1.0053134833177948,0.13305405205369913,-0.5926672858312607,0.35505420083792144,-0.542847463656022
1765410151.581348,-9.713085480167813,0.9734392734076244,0.10952001675033274,-0.5929240499830617,0.35286527325742173,-0.5436407135158311
1765410151.581661,-9.695471250610332,0.9417695859696039,0.08987476092114004,-0.5929493146292766,0.3508877052344616,-0.5442580617820367
1765410151.581911,-9.678953008710737,0.9109910388634973,0.07374269483818079,-0.5927311519305725,0.34907705616232243,-0.5446720644750107
1765410151.582161,-9.663661065888348,0.8816500943862721,0.06054189533099589,-0.5922667423134987,0.34739221803059395,-0.5448562416712508
1765410151.582411,-9.649779431777787,0.8540908089178851,0.049544450150784285,-0.5915614524233302,0.345798435767856,-0.5447860671103707
1765410151.582674,-9.637520413459926,0.8284088739752593,0.03994245263097597,-0.5906272250277314,0.34426959312044825,-0.5444401310742367
1765410151.582924,-9.627092417049585,0.8044272931796328,0.030915647846397467,-0.5894804084540296,0.342789633933598,-0.5438014111940449
1765410151.583174,-9.618666555324534,0.7816978504837876,0.021698089506801556,-0.588139209683446,0.34135305533563115,-0.542858548534478
1765410151.583424,-9.612347066752296,0.7595300620184724,0.01164158226908033,-0.5866210013416482,0.33996444016399,-0.5416069899446189
1765410151.583707,-9.60814924200557,0.7370459790208229,0.0002729716967790218,-0.5849397444504657,0.33863700916555683,-0.54004985288305
1765410151.583957,-9.605987106910769,0.7132559984361975,-0.012658930036221878,-0.5831037937404946,0.33739020815921766,-0.5381984013777045
1765410151.584207,-9.605671497724959,0.6871486099053224,-0.027152073681217023,-0.5811143173100343,0.3362464376737663,-0.5360720699066911
1765410151.584457,-9.606917366591613,0.6577859633465334,-0.04294106016796513,-0.5789644891847133,0.33522717848516176,-0.5336980100524176
1765410151.584722,-9.609357849912048,0.6243968806479981,-0.05951227394089836,-0.5766395229538787,0.3343489119996301,-0.5311101546198475
1765410151.584972,-9.612562810717403,0.5864591325168031,-0.07614475850042177,-0.5741175312489615,0.3336193156700998,-0.5283478100856212
1765410151.585222,-9.616061149447129,0.5437636327529762,-0.09197234935450241,-0.571371129797973,0.33303420498126163,-0.5254538205583715
1765410151.585472,-9.619367434006938,0.49645491449605456,-0.10605876948166133,-0.5683696542372162,0.3325756115324716,-0.5224723938657518
1765410151.585764,-9.622012663112356,0.44504457912048684,-0.11747690651567318,-0.5650818197203109,0.3322112582802145,-0.5194467223196961
1765410151.586097,-9.62357683597611,0.3903967329712958,-0.1253853786273168,-0.5614786279065636,0.3318955372832741,-0.516416553087164
1765410151.586431,-9.623719655050088,0.3336863484916439,-0.12909686687128147,-0.5575363120083291,0.33157193245439964,-0.5134158668507772
1765410151.586696,-9.622206167340536,0.2763330126832075,-0.12813265879862987,-0.553239102198983,0.3311766833822731,-0.5104708134903746
1765410151.586946,-9.618925373776216,0.21991392656907136,-0.1222584286618153,-0.5485815866895234,0.33064336779071746,-0.5075980367050167
1765410151.587196,-9.613900399745805,0.1660615569642367,-0.11149920971048916,-0.543570445343368,0.3299079872020217,-0.5048035045290417
1765410151.587446,-9.607288617200773,0.1163529740910704,-0.09613585039462295,-0.5382253569603781,0.3289140775731828,-0.5020819500100923
1765410151.588702,-9.599370125904109,0.0721992450640712,-0.07668834407703198,-0.5325789345909123,0.32761735530339453,-0.49941700563431707
1765410151.588952,-9.59052414869656,0.03474384871011143,-0.05389139017725662,-0.5266756191588017,0.3259894674032451,-0.49678207750981274
1765410151.589202,-9.581195092611711,0.00477873811842838,-0.028664863317543476,-0.5205695515726773,0.3240205336604791,-0.4941419515945377
1765410151.589452,-9.571852329952963,-0.017314492575306196,-0.0020788112321760686,-0.5143215434255656,0.32172030951277814,-0.4914550602812598
1765410151.588793,-9.562949306980308,-0.031592708364593845,0.024689041498280707,-0.5079953692481034,0.3191179198083875,-0.48867626817725324
1765410151.589043,-9.554888064933778,-0.038545430170538436,0.05040534712440888,-0.5016536900308,0.3162602034989012,-0.4857599656633148
1765410151.589293,-9.54799443096389,-0.03905507349091261,0.07384351968126102,-0.4953539670042988,0.31320878309511996,-0.4826631983704989
1765410151.589543,-9.542506815287197,-0.03432675492262749,0.0938546300725918,-0.4891447281701191,0.31003604578230115,-0.47934852952617263
1765410151.589735,-9.538578223415945,-0.025794685334937544,0.10944174432093633,-0.48306250990504074,0.3068202958292997,-0.47578635131510166
1765410151.589985,-9.536288051577246,-0.015014785888535677,0.11983024937494711,-0.4771297167330786,0.3036404033279134,-0.47195643676641785
1765410151.590235,-9.535658704940884,-0.0035542679748984344,0.12452626022981719,-0.4713535360382427,0.30057032445548026,-0.46784863571774604
1765410151.590485,-9.536672408127826,0.007111609903724662,0.1233565971163401,-0.4657259325900172,0.29767389226251617,-0.4634627346860209
1765410151.590707,-9.539285210671684,0.0156871522301384,0.11648632832525263,-0.4602246516282584,0.2950002628969682,-0.458807597437906
1765410151.590957,-9.543437077645464,0.021122184940677673,0.10441256978119341,-0.45481509181294205,0.292580349243479,-0.45389977333476733
1765410151.591207,-9.549058183023025,0.022653233210149937,0.08793525209055797,-0.4494528722734469,0.2904244952196318,-0.44876180270759863
1765410151.591457,-9.556072061628676,0.01982020021180995,0.06810690792640652,-0.4440869029089516,0.2885215545296188,-0.4434204543696903
1765410151.591813,-9.5643969150767,0.012462391760058686,0.04616527258055441,-0.4386627630047144,0.2868394443896859,-0.43790508575368964
1765410151.592146,-9.573947373315827,0.0007001225748837145,0.02345513072614503,-0.4331261941585384,0.2853271495228421,-0.43224622044937877
1765410151.59248,-9.584639241953317,-0.015092103707475303,0.0013478343758108696,-0.4274265190285096,0.28391805480407506,-0.426474324410655
1765410151.592783,-9.596397989505189,-0.034317720808906785,-0.018833857536056167,-0.4215198087844726,0.28253438231974165,-0.420618690178183
1765410151.593033,-9.609168648558486,-0.05619590924176689,-0.035881322281199536,-0.41537163902529584,0.2810924005064716,-0.41470635201632283
1765410151.593283,-9.62292274783388,-0.07980702527397611,-0.04875501493233733,-0.40895929495117384,0.27950798135789945,-0.4087610417866768
1765410151.593533,-9.637658312731176,-0.10414624188838188,-0.056629029975682706,-0.4022733129471444,0.2777020458459473,-0.40280229176565097
1765410151.593768,-9.65339101277465,-0.1281830786060737,-0.05892518821278786,-0.39531828020839005,0.2756054794811474,-0.3968448298368373
1765410151.594018,-9.670136490228348,-0.15092224879084928,-0.05533637976940639,-0.38811285525878736,0.27316319501682074,-0.39089837310114556
1765410151.594268,-9.68788539956653,-0.17146091333694816,-0.045838954941995295,-0.3806890140450773,0.27033711733646304,-0.384967839361909
1765410151.594518,-9.706574515643936,-0.18903861792702786,-0.03069313259168214,-0.373090563299808,0.267107942288405,-0.37905391460520593
1765410151.594726,-9.72605941877796,-0.20307773249681688,-0.010428874282853138,-0.3653709946533549,0.263475596010089,-0.3731538710436028
1765410151.594976,-9.746095264923175,-0.21321320200754593,0.01418562052694966,-0.35759078410007233,0.25945841580138523,-0.3672625241719491
1765410151.595226,-9.766330716490764,-0.2193105899536722,0.042193354138314716,-0.3498142765185484,0.25509117387826946,-0.36137323344556105
1765410151.595476,-9.786316761968031,-0.2214710751458098,0.07251254514970537,-0.3421063312509844,0.25042214318741435,-0.3554788744680913
1765410151.595697,-9.805528691394564,-0.2200220061103771,0.1040085838505382,-0.33452893026779523,0.24550945718864245,-0.34957272675741563
1765410151.595947,-9.82339729013308,-0.21549247146144607,0.13556607900797427,-0.32713795365403053,0.24041705681576642,-0.3436492235750708
1765410151.596197,-9.839344572132815,-0.208575079336393,0.16615386558982548,-0.31998030837315067,0.23521054315444795,-0.33770450783173905
1765410151.596447,-9.852819717407135,-0.20007710639184723,0.1948777395962737,-0.31309156596704735,0.22995324376369805,-0.33173674865957486
1765410151.5967,-9.863331872477676,-0.19086557636276233,0.22101799403613148,-0.30649423381090857,0.22470274861617764,-0.3257462085749772
1765410151.597033,-9.870477634985397,-0.18181116979579845,0.24405078350486775,-0.3001967572481789,0.21950809323840537,-0.3197351046037093
1765410151.597367,-9.873962018318883,-0.17373521680479548,0.2636536478757579,-0.2941933214640617,0.214407680860538,-0.31370735523097687
1765410151.597663,-9.873612479052586,-0.16736279641433213,0.27969664893438134,-0.28846448240219436,0.20942796209229578,-0.3076683259372251
1765410151.597913,-9.869386251984887,-0.16328354717205654,0.292221857462438,-0.28297860354094995,0.20458285073535226,-0.3016246688610131
1765410151.598163,-9.861371643590244,-0.1619205837924606,0.3014149509906321,-0.2776940201523906,0.19987385026247803,-0.29558429824575616
1765410151.598413,-9.84978408850467,-0.1635074346272886,0.3075730668357447,-0.2725618044359702,0.1952908696004797,-0.2895564687928633
1765410151.598698,-9.834957930427942,-0.1680733860134406,0.3110730226180395,-0.2675289632153119,0.1908136869974798,-0.2835518595793098
1765410151.598948,-9.817335030639924,-0.17543852716208025,0.31234363885730626,-0.2625418617832824,0.18641397199885115,-0.27758254139770944
1765410151.599198,-9.797450997410266,-0.1852202395046698,0.3118446747726994,-0.25754963880600407,0.18205771860673137,-0.2716617286277679
1765410151.599448,-9.77591894171247,-0.19685241925287733,0.3100526441935784,-0.2525073699262504,0.17770789824701633,-0.2658032716798685
1765410151.599712,-9.753409846598924,-0.20961765276862918,0.30745138276478856,-0.24737875789718985,0.17332711574209983,-0.2600209082539662
1765410151.599962,-9.73062864891954,-0.2226913712453258,0.30452383684381146,-0.24213816940789132,0.16888004963965872,-0.2543273471497214
1765410151.600212,-9.70828598422299,-0.23519583204439343,0.3017414944914034,-0.23677189292286177,0.16433549412155857,-0.24873330207825106
1765410151.600462,-9.68706667089814,-0.24626058451834018,0.2995489714816686,-0.2312785521196082,0.15966789880038468,-0.2432466163723406
1765410151.600684,-9.66759701840593,-0.25508508854207795,0.298343358875105,-0.22566867586721795,0.15485839906033355,-0.2378716140031165
1765410151.600934,-9.650413847563891,-0.26099863649288424,0.2984505331404157,-0.2199634952137635,0.14989540125654496,-0.23260878123151169
1765410151.601184,-9.635938505394973,-0.2635126806856009,0.3001024660345037,-0.21419309804139314,0.14477481361751876,-0.22745483723343243
1765410151.601434,-9.62445883856345,-0.26236099852053946,0.3034196537997609,-0.20839410716539894,0.1395000064555405,-0.22240319491242896
1765410151.601719,-9.616121091686775,-0.2575240311397825,0.3084015204077145,-0.20260705358446535,0.13408156364622417,-0.2174447456464952
1765410151.601969,-9.610932473217533,-0.24923549779777826,0.31492629610147227,-0.19687360654682784,0.1285368591152631,-0.2125688387649126
1765410151.602219,-9.608774057119401,-0.23797182941464093,0.3227609851598643,-0.1912338133900617,0.12288946105293137,-0.20776429432824242
1765410151.602469,-9.609422717382216,-0.22442725991515244,0.3315810849294836,-0.18572349856069487,0.11716834427845192,-0.20302030041861197
1765410151.602686,-9.612579875580291,-0.2094786151241799,0.3409983842549484,-0.18037196240136974,0.11140688930992161,-0.19832709320575478
1765410151.602936,-9.617904318984252,-0.1941436219441303,0.3505941495777897,-0.1752000966907495,0.10564166528253474,-0.19367637205910782
1765410151.603186,-9.625046372444896,-0.17953554017994125,0.35995483878674783,-0.1702189980285705,0.09991102313852346,-0.1890614368822491
1765410151.603436,-9.633680716078732,-0.16681604031914762,0.36870745943957145,-0.16542912258882028,0.09425355373681037,-0.18447704730467326
1765410151.60369,-9.643534655405219,-0.1571478898169106,0.3765510014809221,-0.16081999525009702,0.08870648472971115,-0.17991901280194944
1765410151.60394,-9.654408276674928,-0.15164893120119713,0.3832797065149692,-0.15637046477464453,0.08330410160601114,-0.17538354615068805
1765410151.60419,-9.666183726663737,-0.15134874904018641,0.38879475580329076,-0.15204948266221008,0.07807629124846592,-0.17086645021820385
1765410151.60444,-9.678822887088595,-0.15714917979924337,0.3931034423375573,-0.14781737604899567,0.07304732192404396,-0.16636225028594287
1765410151.604657,-9.692354787888517,-0.16978934102588036,0.39630748556958995,-0.14362758483031854,0.06823497424725997,-0.1618634143767083
1765410151.604907,-9.706855189106374,-0.1898153062952967,0.39858340627312105,-0.13942883369833933,0.06365010408857968,-0.1573598025623608
1765410151.605157,-9.722421005395205,-0.2175543752079667,0.4001580011602182,-0.13516769767560802,0.059296658223914306,-0.15283844586164258
1765410151.605407,-9.739142383135464,-0.2530943717202435,0.40128201178655626,-0.1307914868294735,0.05517210878896242,-0.14828369151840418
1765410151.605777,-9.75707548106806,-0.2962692769271359,0.40220534025226334,-0.12625132815619297,0.05126824481546864,-0.14367769041679646
1765410151.606027,-9.77621895091165,-0.3466531502743372,0.4031568733224964,-0.12150527450748307,0.04757224815071608,-0.1390011614987422
1765410151.606277,-9.796496419435062,-0.40356431308221585,0.40433050382191915,-0.11652123386525974,0.044067965778401996,-0.13423434786037125
1765410151.606527,-9.817746076745609,-0.46608115571823616,0.4058767005216915,-0.11127949476840532,0.04073727024496629,-0.12935807194350146
1765410151.60671,-9.839717316061702,-0.5330698402171234,0.40789728533992964,-0.10577463300215105,0.03756139291163667,-0.12435479859644723
1765410151.60696,-9.862073765127588,-0.6032227744780737,0.41044102195299376,-0.1000166274116192,0.03452213124556074,-0.11920962483252077
1765410151.60721,-9.884402054695451,-0.675105358000414,0.41349904131274634,-0.09403108424782056,0.031602861625449334,-0.11391113157062878
1765410151.60746,-9.90622589086018,-0.7472076688384556,0.41700084540512905,-0.08785854976013234,0.028789319146325012,-0.1084520496032566
1765410151.607718,-9.927025071530643,-0.8179978412959309,0.4208126797152143,-0.0815529578853632,0.026070131100975835,-0.10282970809437028
1765410151.607968,-9.946258992067742,-0.885974624490763,0.4247403268506331,-0.07517930665968751,0.02343711185754307,-0.09704625689623371
1765410151.608218,-9.963393997706481,-0.9497172764686581,0.4285379759069237,-0.06881069027838632,0.02088534236717488,-0.09110868878927404
1765410151.608468,-9.977933547304044,-1.0079310295146633,0.4319236700677847,-0.06252484217209131,0.018413064583249886,-0.08502872145491183
1765410151.608686,-9.989449483204439,-1.0594860606026344,0.4346001149990284,-0.05640037094737317,0.016021419506950265,-0.07882261019911695
1765410151.608886,-9.997612037034976,-1.103447830575332,0.43627816390181173,-0.0505128919879502,0.013714054125689308,-0.07251094485522991
1765410151.609086,-10.002215929300123,-1.1390971998189559,0.43669985439026715,-0.044931266426097204,0.011496627474979218,-0.06611845146607742
1765410151.609286,-10.003200129629429,-1.1659397289201037,0.4356584460641029,-0.03971415370260352,0.009376260422286908,-0.05967378978612494
1765410151.609486,-10.000659366125351,-1.1837045509576618,0.43301391621872215,-0.03490706801371627,0.007360984077290104,-0.05320932164574595
1765410151.60969,-9.994846136298136,-1.1923338129425003,0.42870330716035937,-0.03054010638107467,0.00545923449103883,-0.0467608216266664
1765410151.60994,-9.986162687074833,-1.1919639371476376,0.422746004680898,-0.026626486978427687,0.00367941828900188,-0.04036710349274223
1765410151.61019,-9.975143173607744,-1.1829000534729703,0.4152444740027156,-0.02316200145570341,0.002029547242171194,-0.03406953982278223
1765410151.61044,-9.962426974120806,-1.1655850951005673,0.40638112594696874,-0.020125445416889116,0.0005169179081946389,-0.02791145887701743
1765410151.610708,-9.948724858086756,-1.140565349825286,0.39641169011449234,-0.017480041962155052,-0.0008522010720299085,-0.021937411879954016
1765410151.610958,-9.934780255672864,-1.1084546838939793,0.38565488950057175,-0.01517580640879339,-0.0020729100440684896,-0.016192315860705398
1765410151.611208,-9.921328210933824,-1.0698999523487436,0.3744779150256958,-0.013152718274168996,-0.003142061344509517,-0.010720494594614499
1765410151.611458,-9.909054758862808,-1.0255499523923748,0.3632776130055347,-0.011344486047951494,-0.004058661288031326,-0.005564661781793463
1765410151.611695,-9.898559474114316,-0.9760295602574812,0.35245822956846395,-0.009682632098977764,-0.004824236736334486,-0.0007649045662945199
1765410151.611895,-9.890323766735051,-0.921919742918643,0.3424074585959633,-0.008100603153907841,-0.005443100078226905,0.0036422825755692027
1765410151.612095,-9.8846870964423,-0.8637435577795234,0.33347300134506175,-0.006537628969801669,-0.00592245477025817,0.007624893056694725
1765410151.612295,-9.881832637482903,-0.8019584294616062,0.3259417499046347,-0.004942099629172753,-0.006272304878163539,0.011156242763591197
1765410151.612495,-9.881783141568663,-0.7369556717962931,0.3200232179520435,-0.003274292657924409,-0.006505160271513485,0.014215762770001188
1765410151.61272,-9.884406967347212,-0.6690686093001935,0.3158383182633218,-0.0015083365276644931,-0.006635558866940792,0.01678974658813203
1765410151.61292,-9.889433558324518,-0.5985899782804796,0.313414275563139,0.0003666590039440918,-0.006679450452145737,0.01887200628076187
1765410151.61312,-9.896477010628024,-0.5257974702257291,0.3126862135899972,0.0023463338391828516,-0.006653496655249282,0.0204643546460768
1765410151.61332,-9.90506574408706,-0.4509841263922891,0.313505426286081,0.004411649908789362,-0.006574342126438722,0.02157682370856217
1765410151.61352,-9.914675823758673,-0.3744889940911408,0.3156535110753779,0.006530235185703923,-0.0064579119898702,0.022227561309652116
1765410151.613692,-9.924765346791641,-0.2967237131081485,0.3188607359785197,0.00865838982351671,-0.00631878997055378,0.02244240009732345
1765410151.613942,-9.93480747413714,-0.21819218371413457,0.32282654513526704,0.010743620156655592,-0.006169722483969026,0.022254134311265966
1765410151.614192,-9.944320033199933,-0.13950206564789563,0.3272401270835936,0.012727551570948082,-0.006021276487346461,0.02170154873563704
1765410151.614442,-9.952890131458755,-0.0613675765828144,0.33179945390336146,0.01454906086628215,-0.00588166166659819,0.02082823024253072
1765410151.614681,-9.960192833613352,0.015397152854397517,0.336227875654197,0.016147462335421706,-0.005756715110972521,0.019681185140573064
1765410151.614881,-9.96600344170607,0.08989516048659606,0.34028782725439727,0.017465581987457186,-0.005650037363781911,0.018309306412160435
1765410151.615081,-9.97020313882578,0.16117446088953563,0.34379127662373243,0.018452563515534797,-0.0055632611283139375,0.016761777798012897
1765410151.615281,-9.972777855651666,0.22826502555182115,0.3466063753393187,0.019066269432718417,-0.00549642764100991,0.015086538751178227
1765410151.615481,-9.973810478615034,0.2902212092974168,0.3486597634705359,0.019275171218412115,-0.005448439615321448,0.013328937155680103
1765410151.615706,-9.973467058015032,0.346164641075795,0.3499344090208618,0.01905966004623783,-0.005417551909524846,0.011530657731708471
1765410151.615906,-9.971978298019769,0.39532297136022493,0.35046355000584123,0.01841274904569678,-0.0054018521864451965,0.00972895339176559
1765410151.616106,-9.969617983305257,0.43706149975331304,0.3503217499585515,0.017340173802432107,-0.00539967970573471,0.007956157248848237
1765410151.616306,-9.966679997499432,0.4709064789590003,0.3496140232898324,0.015859927730813166,-0.005409938344032737,0.006239434278856743
1765410151.616506,-9.963455409762751,0.49655990941774775,0.34846370518806963,0.014001294468439158,-0.005432278722111638,0.004600737899715769
1765410151.616719,-9.960210993754936,0.5139058811571421,0.34699965963796997,0.011803462620570367,-0.005467143274269797,0.0030569462011545753
1765410151.616919,-9.957170565075588,0.523008606455731,0.34534367418563755,0.009313827769677006,-0.005515679496490002,0.0016201497402573576
1765410151.617119,-9.954500585527057,0.5241027045225574,0.34359926713089656,0.0065860977364681625,-0.005579533540354755,0.00029805222728562433
1765410151.617319,-9.9523014092476,0.5175769303426618,0.34184329808238695,0.003678315430806176,-0.0056605456957807216,-0.0009055575740162219
1765410151.617519,-9.950605152601861,0.5039529492790883,0.34012152973056003,0.000650899996613082,-0.005760382221367215,-0.0019902943426243704
1765410151.617719,-9.949380421100775,0.4838607801833536,0.3384486991965063,-0.0024352132935843967,-0.00588014981634742,-0.0029586434934491352
1765410151.617919,-9.948543225059757,0.458012398679436,0.33681295353122365,-0.005520274490209334,-0.006020044673591366,-0.0038154202751600214
1765410151.618119,-9.947972642920213,0.4271749494361969,0.33518389870530485,-0.008547219482287314,-0.006179084115278706,-0.00456723572606806
1765410151.618319,-9.947529279010007,0.39214499114982243,0.3335230876827094,-0.011462942947958915,-0.006354954920613675,-0.005221986604862795
1765410151.618519,-9.947074289190088,0.3537249919377532,0.3317954994762875,-0.014219332608392478,-0.006543993489592504,-0.00578838502589131
1765410151.618711,-9.946486708137245,0.31270291604577277,0.32998038924169665,-0.016774067964478,-0.006741296691814595,-0.006275540451906098
1765410151.618911,-9.945677073019786,0.26983538188490086,0.32807986050142324,-0.01909119655411607,-0.006940952580220882,-0.006692602043727661
1765410151.619111,-9.944595926822293,0.22583461275857367,0.326123755328777,-0.02114150440712697,-0.007136374653693505,-0.007048460727726219
1765410151.619311,-9.943236605601648,0.18135918771665444,0.32417006160475476,-0.022902697057657937,-0.00732071677601956,-0.007351498983199863
1765410151.619511,-9.941632586289918,0.13700840732504013,0.32230090010759566,-0.024359407591497018,-0.0074873357183632555,-0.007609368390333016
1765410151.619702,-9.939850402994262,0.09331996303133873,0.32061500457132275,-0.02550305076684139,-0.007630258309625391,-0.007828775404234439
1765410151.619902,-9.937979589063753,0.05077052765511276,0.31921814318147645,-0.026331545664298083,-0.007744607118625353,-0.008015264279681415
1765410151.620102,-9.936121214995307,0.009778775092356133,0.3182129895170674,-0.02684893102982686,-0.007826944317875546,-0.008172998343604451
1765410151.620302,-9.934376404773431,-0.029289870435872552,0.3176896047206718,-0.027064895965178457,-0.007875503403779323,-0.00830455305281038
1765410151.620502,-9.932835853991039,-0.06611769741025718,0.3177172148831175,-0.02699424423048217,-0.007890289387976033,-0.008410745391317274
1765410151.620704,-9.931571038456353,-0.10042943764549578,0.3183376728848839,-0.026656305280991017,-0.007873040798889095,-0.00849053311186443
1765410151.620954,-9.930627625893168,-0.1319881773987624,0.3195609823232981,-0.02607430132637438,-0.007827060530203886,-0.008541019708873254
1765410151.621204,-9.930021516036994,-0.16059301582127936,0.32136330995322426,-0.02527467784170899,-0.007756932554385372,-0.008557592424509658
1765410151.621454,-9.92973775479929,-0.18607867986367294,0.3236877194216609,-0.024286404857333875,-0.007668146184338436,-0.008534203137050816
1765410151.6217,-9.929732261734472,-0.20831704130123987,0.3264474047571761,-0.023140256822858994,-0.007566653778197374,-0.008463783152553866
1765410151.6219,-9.929936026036463,-0.22722024048836253,0.3295307908900029,-0.021868078272243074,-0.007458395688291248,-0.008338767584305037
1765410151.6221,-9.93026127086181,-0.2427448358509958,0.3328077886089776,-0.02050204146291461,-0.007348835390805187,-0.008151692552958925
1765410151.6223,-9.93060901704492,-0.254896151359742,0.33613671760537983,-0.019073903112867895,-0.007242552781402703,-0.007895818102180504
1765410151.6225,-9.93087743307949,-0.2637319057091828,0.3393716682965726,-0.01761427098809294,-0.0071429409621335165,-0.0075657238307357206
1765410151.622759,-9.930970336381103,-0.2693642864313683,0.3423701306653669,-0.01615189552739821,-0.007052039415715387,-0.0071578254158234855
1765410151.623009,-9.930805217828372,-0.27195981536573466,0.34500057837058296,-0.01471300556231766,-0.006970515620756488,-0.006670768996118926
1765410151.623259,-9.930320193487919,-0.27173658906214615,0.3471495198797626,-0.013320710532674196,-0.006897785096711474,-0.006105675582863933
1765410151.623509,-9.929479349195855,-0.268958738829239,0.3487274359995384,-0.011994493685647341,-0.0068322445080648345,-0.005466226312127515
1765410151.623727,-9.928276034106258,-0.26392821696221835,0.34967302711295045,-0.01074981969507386,-0.006771585471561483,-0.004758596793405234
1765410151.623927,-9.926733790046077,-0.2569742738362619,0.3499553225945989,-0.009597875868594686,-0.006713154733762328,-0.0039912606831855
1765410151.624127,-9.924904832233898,-0.24844123399367302,0.3495735415500175,-0.008545461597989456,-0.00665432653932448,-0.003174687748330632
1765410151.624327,-9.922866330785618,-0.2386753378063666,0.34855506406939224,-0.007595038338667723,-0.006592854416867101,-0.00232096280284924
1765410151.624527,-9.920715025272775,-0.228011394766301,0.3469521630393766,-0.006744950611374439,-0.0065271720436885115,-0.0014433527025153937
1765410151.624768,-9.918560750989222,-0.21675980561192332,0.3448380418552374,-0.0059898235140810885,-0.006456616675310495,-0.000555850193827939
1765410151.624968,-9.916519304585258,-0.20519430819459186,0.3423024077876937,-0.005321131911932276,-0.006381554886959438,0.00032727635772431283
1765410151.625168,-9.914704961884674,-0.19354075445480878,0.3394466356487318,-0.004727922338996266,-0.006303399301710401,0.001191902812540645
1765410151.625368,-9.913223001557386,-0.18196738546513366,0.3363786179660472,-0.004197654724464516,-0.006224515315153483,0.0020244242916682893
1765410151.625568,-9.912162678027862,-0.1705773624694042,0.33320747508220727,-0.0037171207628192322,-0.006148027526192187,0.002812083189928355
1765410151.625745,-9.911591134037067,-0.15940455930695735,0.330038353032143,-0.0032733898168612035,-0.006077546749271947,0.0035432556137394745
1765410151.625945,-9.91154880713708,-0.14841361791082458,0.32696768573812984,-0.0028547303464689167,-0.006016848742044368,0.0042077011860925774
1765410151.626145,-9.912046959396669,-0.13750493067494757,0.3240794862027515,-0.0024514532248716436,-0.005969540144803762,0.00479677535307048
1765410151.626345,-9.913067856432674,-0.1265246814533421,0.32144317909301934,-0.0020566229334380935,-0.0059387421090764305,0.005303598088766216
1765410151.626545,-9.914567737682214,-0.1152795698136445,0.3191131110933561,-0.0016665864152456454,-0.00592681283637617,0.005723170665699542
1765410151.626697,-9.916482234415856,-0.10355542811536735,0.3171294584573127,-0.001281279653209746,-0.005935125541560276,0.006052431182422245
1765410151.626897,-9.91873352991291,-0.09113853889778444,0.3155200519602609,-0.0009042871353559581,-0.00596391850645466,0.006290239310585805
1765410151.627097,-9.92123834039074,-0.07783806164808671,0.31430262332120484,-0.0005426468579786882,-0.006012231784821162,0.006437284730752482
1765410151.627297,-9.923915688251745,-0.06350771852049636,0.31348704322245835,-0.00020641333718101647,-0.0060779377363753195,0.0064959245719987384
1765410151.627497,-9.926693510586373,-0.048064878289982196,0.3130772717550583,9.198873229573458e-05,-0.00615786290495955,0.006469968834468292
1765410151.627734,-9.929513417393903,-0.03150538851455186,0.31307291496393286,0.00033857279486740696,-0.006247989426546642,0.006364440813020613
1765410151.627934,-9.932333237412992,-0.013912869848015055,0.313470331022288,0.0005187065991902355,-0.006343716672115448,0.006185337063885672
1765410151.628134,-9.935127248452677,0.004538319427847323,0.31426317366466316,0.000618079431738854,-0.006440160852569984,0.005939401108494817
1765410151.628334,-9.93788424037245,0.023586657621323816,0.31544226581866247,0.0006236620826848718,-0.0065324723154057416,0.005633913532277846
1765410151.628534,-9.94060384462053,0.0428932008869262,0.3169948003280171,0.0005246027312110884,-0.006616152753888108,0.005276493645322387
1765410151.62867,-9.943291781993855,0.0620566158384569,0.31890296641343596,0.00031300758628095246,-0.006687353477695985,0.004874905941755595
1765410151.62887,-9.94595474664797,0.08063225000745788,0.3211421844016888,-1.5438025906708887e-05,-0.0067431332297479525,0.004436867180473011
1765410151.62907,-9.94859559708594,0.09815380354565817,0.3236792388017139,-0.00046104523018383064,-0.006781653921907548,0.003969855221528005
1765410151.62927,-9.951209394537779,0.11415621010278725,0.3264706589324683,-0.0010199198034489055,-0.006802295772835804,0.0034809267387001536
1765410151.62947,-9.953780605478864,0.12819852215385388,0.3294616271209328,-0.0016839929087444283,-0.006805679108170332,0.002976555618075355
1765410151.629763,-9.95628154600893,0.13988578149342937,0.33258558477568273,-0.0024412783177844323,-0.006793589710791107,0.0024625063464214433
1765410151.629963,-9.958672022284,0.14888894974472278,0.3357646610306147,-0.003276338793817852,-0.0067688174075315735,0.001943756729593264
1765410151.630163,-9.960900109277375,0.1549619708158905,0.33891099772928274,-0.0041709356650972374,-0.006734928973528546,0.001424480764712801
1765410151.630363,-9.962903993707473,0.15795500214456681,0.3419289110936144,-0.005104825009800145,-0.006696002579232097,0.000908094488535736
1765410151.630563,-9.964614755780664,0.1578229033560346,0.34471772264869704,-0.006056651502923536,-0.0066563514363945225,0.0003973571904582625
1765410151.630678,-9.965959936106815,0.15462829758538763,0.3471751190455747,-0.0070048818289720205,-0.006620259414657855,-0.0001054874973570187
1765410151.630878,-9.966867714016393,0.14853887461201767,0.34920096439127074,-0.007928717202790276,-0.006591742500729933,-0.0005985475835060186
1765410151.631078,-9.967271454645875,0.13981894264436054,0.35070147010385205,-0.008808928874431843,-0.00657434155396129,-0.0010801088499909125
1765410151.631278,-9.967114324066744,0.12881549674644296,0.3515935955653701,-0.00962857072451838,-0.00657094816264009,-0.0015484601454418658
1765410151.631478,-9.966353726393248,0.11593936315907402,0.351809583520704,-0.010373537932679883,-0.006583665842388673,-0.002001727044603659
1765410151.631705,-9.964965425723646,0.10164242061093313,0.35130152738501713,-0.011032956383878864,-0.006613710499722833,-0.002437727401070474
1765410151.631905,-9.962947231060808,0.08639242992393108,0.3500457525852683,-0.011599399387121356,-0.006661356039756549,-0.0028538664423110576
1765410151.632105,-9.960322034871819,0.07064740038759734,0.3480466829585964,-0.012068934662317645,-0.0067259318078157805,-0.003247088208682169
1765410151.632305,-9.957139901084984,0.05483150244562812,0.3453398217577473,-0.012441006798705807,-0.006805875030721144,-0.0036138930216720543
1765410151.632505,-9.953478814048996,0.03931429140871232,0.3419933959079482,-0.012718162030295542,-0.0068988333201118615,-0.003950420409960383
1765410151.632769,-9.949443618837217,0.02439458288719467,0.3381080751931014,-0.012905627556743666,-0.007001804858213011,-0.00425258824323277
1765410151.632969,-9.945162713939212,0.010289904434256083,0.33381420038971504,-0.013010768515324614,-0.007111302774484261,-0.004516274049562991
1765410151.633169,-9.940782307696924,-0.0028678851781424536,0.3292662851052107,-0.013042459112407742,-0.007223535269183288,-0.004737522226835526
1765410151.633369,-9.936458441061601,-0.015030563526059164,0.32463504654164066,-0.013010415456258842,-0.00733459843704406,-0.004912758644148613
1765410151.633569,-9.932347342206683,-0.026225339062347232,0.32009762286916277,-0.01292454273800705,-0.007440678769274315,-0.005038992318229902
1765410151.633746,-9.92859494953608,-0.036541303206843165,0.3158268631676242,-0.012794346688126967,-0.007538256102159114,-0.005113985696509269
1765410151.633946,-9.92532663167978,-0.04611187644958786,0.31198068160501263,-0.012628449687711443,-0.007624289684118799,-0.005136382112950228
1765410151.634146,-9.922638214048824,-0.05509484773832389,0.30869249575216484,-0.012434240222303815,-0.007696366486358385,-0.005105787623266326
1765410151.634346,-9.920589335342495,-0.06365162921216198,0.30606370607617844,-0.012217673571672364,-0.007752795503949569,-0.005022808972993669
1765410151.634546,-9.919199903285788,-0.07192726413243923,0.3041589804647478,-0.011983228778978448,-0.007792642021626834,-0.0048890483506789754
1765410151.634761,-9.91845005310666,-0.08003266283299892,0.3030047813423831,-0.011734009644565203,-0.007815705486884266,-0.0047070535338882774
1765410151.634961,-9.918283609656399,-0.08803048653462736,0.3025911701662662,-0.011471961055288497,-0.007822450460985127,-0.004480224970229322
1765410151.635161,-9.918614678034906,-0.09592589924183388,0.30287651953574474,-0.011198163511286703,-0.007813903668366352,-0.004212689424172284
1765410151.635361,-9.919336676176822,-0.10366296071159413,0.3037944354673477,-0.010913168303166108,-0.007791533020646904,-0.003909156892633069
1765410151.635561,-9.92033289829678,-0.1111268397061538,0.3052620221099725,-0.010617338775295441,-0.007757124729623491,-0.003574777581522536
1765410151.635838,-9.921487563875548,-0.11815148031446375,0.3071885930332498,-0.010311166611521271,-0.007712669800476299,-0.0032150090402185945
1765410151.636038,-9.922696235760785,-0.12453193389782909,0.3094839115011106,-0.009995535752817261,-0.007660262633920888,-0.0028354959283170044
1765410151.636238,-9.923874483754588,-0.13004023751857782,0.3120649939040335,-0.009671911521120307,-0.007602007307491488,-0.0024419621077859657
1765410151.636438,-9.924963814582373,-0.13444345631495155,0.3148606274841656,-0.009342440655829376,-0.007539926622016394,-0.002040116941114451
1765410151.636638,-9.925934248172252,-0.13752234391250723,0.317813160670214,-0.009009959051503562,-0.007475875452048373,-0.0016355795256482119
1765410151.63676,-9.926783386022345,-0.1390890493384307,0.3208776236131316,-0.00867791472866037,-0.0074114670191579015,-0.001233821537147977
1765410151.63696,-9.927532227215279,-0.13900242956088357,0.32401856487002734,-0.008350221120498654,-0.007348021844856602,-0.0008401228071050413
1765410151.63716,-9.92821834414148,-0.13717979134816985,0.3272051822267879,-0.008031060114976467,-0.007286544580663802,-0.0004595295494805326
1765410151.63736,-9.928887421298437,-0.13360422239938674,0.3304055698651603,-0.007724656879356846,-0.00722772867981476,-9.680729107797841e-05
1765410151.63756,-9.929584495377602,-0.1283270375716655,0.3335811600975248,-0.007435050025687082,-0.007171985943478335,0.0002436129701146673
1765410151.637731,-9.93034627824938,-0.12146526995743925,0.3366824737479167,-0.007165880352612288,-0.007119496915504243,0.0005576918296085205
1765410151.637931,-9.931195622915336,-0.1131945805954225,0.3396470377496658,-0.006920217800522518,-0.0070702781744239164,0.000841837884118389
1765410151.638131,-9.932138675413139,-0.10373839236061279,0.34239991965159405,-0.006700439256873163,-0.00702426285972443,0.0010929618390261898
1765410151.638331,-9.933164735438426,-0.0933543929848572,0.3448568691091135,-0.0065081614452572505,-0.006981388917317381,0.0013085272319753793
1765410151.638531,-9.934248410566807,-0.0823197343187112,0.34692958290537135,-0.006344226244292536,-0.0069416849378532855,0.0014865938196761586
1765410151.63876,-9.935353350835468,-0.0709162435127157,0.3485322433396266,-0.006208732241758313,-0.006905339600171285,0.0016258457776231364
1765410151.63896,-9.936436750305488,-0.05941676447093158,0.3495883597525665,-0.006101105822072115,-0.006872740785863424,0.0017255961471755836
1765410151.63916,-9.93745387316557,-0.048073444545543215,0.35003705786741135,-0.00602020583285881,-0.006844473933504629,0.0017857632923579266
1765410151.63936,-9.93836201682378,-0.03710849586674266,0.3498382020408879,-0.005964456061753266,-0.0068212752650092965,0.0018068226774186798
1765410151.63956,-9.939123546270473,-0.02670775883029392,0.3489760354022741,-0.005931998496703834,-0.00680394402217034,0.001789744330847402
1765410151.639749,-9.939707933139598,-0.017017238828005096,0.34746131918946943,-0.00592085818473651,-0.00679322643369794,0.0017359290161344
1765410151.639949,-9.940092995010513,-0.008142615257453186,0.34533211834507,-0.005929109044163401,-0.006789689171047868,0.001647152492957614
1765410151.640149,-9.940265601805812,-0.0001515221180147685,0.3426533498279091,-0.005955030277096284,-0.006793600921991957,0.0015255199674223275
1765410151.640349,-9.940222015024679,0.0069218145686907,0.33951508672425057,-0.005997244436216443,-0.006804839260181167,0.0013734275894454956
1765410151.640549,-9.939967898459843,0.013070197903569386,0.33602953950566883,-0.006054829202427672,-0.006822836560262318,0.001193528163306267
1765410151.640778,-9.939517970815082,0.018306080408522916,0.3323266620261805,-0.006127394471713463,-0.0068465722644946644,0.0009887022494288276
1765410151.640978,-9.938895271317813,0.022653934081389278,0.3285484487327202,-0.0062151144416470495,-0.0068746104313900935,0.000762038530921661
1765410151.641178,-9.938130079259384,0.026143060971518306,0.32484218184541636,-0.006318702347018645,-0.006905174389921982,0.0005168255695772967
1765410151.641378,-9.93725861493284,0.028801466094378204,0.3213530673790688,-0.006439315408100946,-0.006936246542402555,0.00025655233264804074
1765410151.641578,-9.936321647200419,0.030651323922428527,0.31821676435645274,-0.006578381004539442,-0.006965681020532953,-1.5089028807019257e-05
1765410151.641762,-9.935363021978377,0.031706420792063976,0.31555226407991543,-0.006737342737670829,-0.0069913191341662,-0.0002942055013303967
1765410151.641962,-9.934428023320761,0.031971759200371465,0.3134555049406768,-0.006917337307106825,-0.007011100355022053,-0.000576716564821726
1765410151.642162,-9.933561500694173,0.03144528961078361,0.3119940834034552,-0.007118829596020455,-0.007023163362724384,-0.0008583828604007983
1765410151.642362,-9.93280584561025,0.030121496960832092,0.31120345197719174,-0.0073412502359852605,-0.007025933575548655,-0.0011348534783315303
1765410151.642562,-9.932199085567534,0.027996345856672104,0.31108501710457087,-0.007582689946171729,-0.007018196717423305,-0.0014017344443645193
1765410151.642804,-9.931773444028781,0.025072942751805476,0.31160644651055075,-0.00783970286436981,-0.006999159849939758,-0.0016546795888648742
1765410151.643004,-9.931554595587905,0.021367230473169272,0.3127042197820807,-0.008107258000553404,-0.006968499341432671,-0.0018895021708833905
1765410151.643204,-9.931561589005627,0.016913060716556207,0.31428813253500515,-0.0083788583682208,-0.0069263920215072204,-0.0021023013794204135
1765410151.643404,-9.9318071914518,0.011766055587679172,0.31624725941632503,-0.008646825002266656,-0.006873526117472982,-0.0022895935826671445
1765410151.643604,-9.93229831880505,0.006005762395635894,0.3184568166495546,-0.008902721377072913,-0.0068110925923236644,-0.0024484361850049775
1765410151.643816,-9.933036226243024,-0.0002642410641878229,0.32078536660901513,-0.009137876738770553,-0.00674076066765582,-0.002576533093778171
1765410151.644016,-9.934016189360074,-0.006918385736585075,0.3231018431371691,-0.009343957045353755,-0.006664640952214398,-0.002672313832990668
1765410151.644216,-9.93522648359956,-0.013813087171412726,0.32528195608523625,-0.009513529256930373,-0.0065852372597741,-0.0027349814120503917
1765410151.644416,-9.936646572258955,-0.02079221385695308,0.32721366777041055,-0.00964056731611763,-0.006505386247204049,-0.0027645264053684847
1765410151.644616,-9.938244603141392,-0.027693521906325097,0.3288016415252941,-0.009720855800578491,-0.0064281832139860004,-0.0027617068835799024
1765410151.644766,-9.939974625711343,-0.03435556052993963,0.32997081066382433,-0.009752259989270085,-0.006356891618637598,-0.002727996729552606
1765410151.644966,-9.941774228324853,-0.040624586457215846,0.33066937308109384,-0.009734847566847723,-0.006294830951073122,-0.002665508262746609
1765410151.645166,-9.943563330113376,-0.04636101603945392,0.33087147736291356,-0.009670863276941718,-0.006245233552251129,-0.002576897549170476
1765410151.645366,-9.945244619127731,-0.05144493180779859,0.33057967798980015,-0.009564569239748083,-0.006211061342906357,-0.002465261048126655
1765410151.645566,-9.946705820765144,-0.055780201616390315,0.3298270224600535,-0.00942196981523613,-0.006194781439318889,-0.002334030406050789
1765410151.645834,-9.947823796623496,-0.05929689767434527,0.32867848273856726,-0.009250443669812444,-0.006198111176519784,-0.002186869389601199
1765410151.646034,-9.94847040729642,-0.06195192982924698,0.3272314084088239,-0.009058309337506013,-0.006221752433697454,-0.0020275745066572
1765410151.646234,-9.948520004614219,-0.0637280819284216,0.3256147318194704,-0.008854353733004777,-0.006265141275568231,-0.0018599797268230981
1765410151.646434,-9.947858259675487,-0.06463185001591412,0.3239866794298378,-0.008647354695619986,-0.006326242552393781,-0.0016878659758616033
1765410151.646634,-9.946391784793965,-0.0646905448121042,0.32253068507964466,-0.00844562828139244,-0.006401419331093136,-0.0015148766805259228
1765410151.646757,-9.944057747747474,-0.06394905818240833,0.32144915786082784,-0.008256628421756059,-0.006485402976805731,-0.001344440056348372
1765410151.646957,-9.940832485382257,-0.062466589103016334,0.32095482740319614,-0.008086619792250426,-0.006571381580467577,-0.001179697048982915
1765410151.647157,-9.936738053275702,-0.0603135510155674,0.32125957654560217,-0.007940435310908411,-0.006651212785725094,-0.0010234331968003508
1765410151.647357,-9.931845784572586,-0.05756884983828179,0.3225610011164311,-0.007821320959058038,-0.0067157539272217,-0.0008780153352945722
1765410151.647557,-9.926276360239227,-0.05431767877520342,0.3250274524107306,-0.007730865728676473,-0.006755291278521924,-0.0007453387150128267
1765410151.647726,-9.920196501382964,-0.05064987235472102,0.32878287148643387,-0.007669014258070814,-0.006760043044709518,-0.0006267928474531409
1765410151.647976,-9.91381283259278,-0.04665872478444976,0.3338929831924752,-0.007634162339928031,-0.006720706657059767,-0.0005232530249770535
1765410151.648226,-9.907363475945374,-0.042440085333306975,0.34035421571818086,-0.007623337188182008,-0.006629018333932299,-0.0004351004456931295
1765410151.648476,-9.901107637557224,-0.038091520674590505,0.34808624605856076,-0.0076324612902977955,-0.006478290452138064,-0.0003622700703093692
1765410151.648714,-9.895313166433722,-0.03371133623821203,0.35692865845032434,-0.00765668999351322,-0.006263889150842146,-0.00030432351888928756
1765410151.648914,-9.890241989573209,-0.029397253752128098,0.36664196651163716,-0.0076908014173070844,-0.005983611896208888,-0.000260544460861586
1765410151.649114,-9.88613348962579,-0.02524457293073457,0.3769131295896458,-0.007729606663079924,-0.005637925488372614,-0.00023005372906600595
1765410151.649314,-9.883186310656034,-0.021343704712522255,0.38736559414193006,-0.0077683416101934286,-0.005230030700199637,-0.00021193722756080593
1765410151.649514,-9.881539725840303,-0.017777038710698675,0.3975737352787223,-0.007803001252309288,-0.00476572960550857,-0.00020537110153837415
1765410151.649725,-9.881256434482696,-0.014615221014054375,0.4070813374908982,-0.007830585333775326,-0.00425308620033296,-0.0002097202574180395
1765410151.649925,-9.88230929237624,-0.011913127408971639,0.41542352305019853,-0.007849238985455064,-0.003701892681583619,-0.00022458331841112265
1765410151.650125,-9.884574771454336,-0.009706184208475653,0.42215138786842776,-0.007858288565785557,-0.0031229826984944266,-0.00024976116582895374
1765410151.650325,-9.88783548926875,-0.0080081418176958,0.42685834261875455,-0.00785818462758898,-0.002527463460124915,-0.00028513974328925204
1765410151.650525,-9.89179275968807,-0.006811520408424702,0.42920645695883447,-0.007850369273338905,-0.0019259614995114475,-0.00033050496263282287
1765410151.650706,-9.896088340145035,-0.006091206629641832,0.42895017978442185,-0.007837085760113563,-0.0013279817448842417,-0.0003853407370661676
1765410151.650906,-9.900333266713272,-0.005810262975183589,0.42595456980172164,-0.007821145255870151,-0.0007414579760766599,-0.0004486749084067909
1765410151.651106,-9.904141098970953,-0.0059259289399670526,0.420206236505255,-0.007805663282873183,-0.0001725273322084611,-0.0005190148025459339
1765410151.651306,-9.907162539947414,-0.00639391551834217,0.41181693049066304,-0.007793783871004531,0.00037448735797919686,-0.0005943707844584045
1765410151.651506,-9.909117895831168,-0.007170333910403654,0.4010207157707495,-0.007788421101685512,0.000896930323896576,-0.0006723350633209161
1765410151.651695,-9.90982348286933,-0.008212073903728703,0.3881652322102472,-0.007792050699529557,0.0013935429222258525,-0.0007501802207173508
1765410151.651895,-9.909208501088413,-0.009477081939641465,0.37369667144082747,-0.007806569344737213,0.0018641073460042156,-0.0008249628553129457
1765410151.652095,-9.907320379426203,-0.010925248259334141,0.3581382457421828,-0.007833217791578034,0.0023090494106351965,-0.0008936442232692027
1765410151.652295,-9.904318662444869,-0.012519192763573071,0.3420632381668191,-0.00787255290625749,0.0027290593871993865,-0.0009532447931223161
1765410151.652495,-9.900459180127076,-0.014223690808662886,0.3260648730867993,-0.007924455134205288,0.003124781730493765,-0.0010010216885612568
1765410151.6527,-9.896070998842852,-0.01600353626006414,0.31072541967964823,-0.007988161494255023,0.0034965925552922134,-0.0010346255546694009
1765410151.6529,-9.8915288147002,-0.01782117980644391,0.2965866448727719,-0.008062314366273356,0.003844453584280184,-0.0010521983545600667
1765410151.6531,-9.88722352130104,-0.019635765698541672,0.2841235652968981,-0.00814501651563126,0.00416782410980146,-0.0010524163977287024
1765410151.6533,-9.883533672997624,-0.02140394178482917,0.27372319512430326,-0.008233888050352625,0.00446562410240489,-0.0010345180302463782
1765410151.6535,-9.880800221218959,-0.023081454766810998,0.2656693515288513,-0.008326130819321757,0.004736253982683306,-0.0009983467610678411
1765410151.653682,-9.879306233332077,-0.024624422152105526,0.260133860242463,-0.008418613714823147,0.004977678701200286,-0.0009444020913494372
1765410151.653882,-9.87926252901347,-0.025990180615062117,0.2571740532839053,-0.008507992220681201,0.005187577092487786,-0.000873864854986581
1765410151.654082,-9.8807994394485,-0.027138544037621476,0.2567361670927894,-0.008590866833017597,0.005363547685270644,-0.0007885744985317725
1765410151.654282,-9.88396434183268,-0.0280342232125016,0.25866399867741585,-0.008663972512271351,0.005503353266555437,-0.0006909658591873747
1765410151.654482,-9.888724388984961,-0.02865021697518123,0.2627121064167663,-0.008724381233738162,0.005605181171242751,-0.0005839900001602127
1765410151.654741,-9.894973860846154,-0.028971113560887576,0.2685629366732822,-0.008769695994987387,0.005667894513553673,-0.0004710336403958532
1765410151.654941,-9.902545507341683,-0.028995185999409864,0.27584715707546426,-0.00879821771910007,0.005691247007420505,-0.00035582886600989675
1765410151.655141,-9.911224973796601,-0.02873485522746599,0.2841660163488044,-0.008809072712466488,0.005676028234635469,-0.00024233226742737042
1765410151.655341,-9.920767034671558,-0.028215846099007527,0.2931140425628233,-0.00880229206441865,0.005624104626179324,-0.00013456100015198826
1765410151.655541,-9.930912086182913,-0.02747555778586578,0.30230020322518464,-0.00877883390717596,0.005538334435635369,-3.639604184662476e-05
1765410151.655699,-9.941401252029472,-0.02656077248532649,0.31136584112461124,-0.008740539800985995,0.005422360965629895,4.861561309570093e-05
1765410151.655899,-9.951988648894245,-0.025524369263695848,0.3199981577935916,-0.008690022847501724,0.005280313553987576,0.00011742366604125603
1765410151.656099,-9.962449927642899,-0.024420806715242133,0.3279386422108949,-0.008630495601093146,0.005116459539604756,0.00016758410304285775
1765410151.656299,-9.97258700165909,-0.023300868877168274,0.3349865090202477,-0.008565554590909871,0.0049348522989050465,0.00019732454495776261
1765410151.656499,-9.982229546643733,-0.022206920491804772,0.3409977569957216,-0.008498942536160526,0.004739014781091341,0.00020558517441479946
1765410151.656738,-9.991234187012713,-0.021169947114288427,0.34588081344593424,-0.00843430970131956,0.004531688564301612,0.00019204105816457897
1765410151.656938,-9.999482320950206,-0.020208870287888547,0.3495899395351387,-0.008374993304357287,0.004314669091565734,0.00015709247991832587
1765410151.657138,-10.006877410535635,-0.01933169235706749,0.35211766850829185,-0.008323830292693981,0.004088740724788783,0.00010181061389382587
1765410151.657338,-10.01334236140571,-0.018537642944391062,0.35348748273498665,-0.008283015977077923,0.00385371874993142,2.784669366831331e-05
1765410151.657538,-10.018817423940567,-0.01781974439761108,0.3537476562086412,-0.00825401774300253,0.003608596614687717,-6.266926048168041e-05
1765410151.657675,-10.023258921832761,-0.017167622622579818,0.35296674967128494,-0.008237546648827913,0.0033517857155507757,-0.00016721719914179598
1765410151.657875,-10.026638995966534,-0.016570523031516477,0.3512307781263616,-0.008233581001668629,0.0030814233422605743,-0.00028295947911480225
1765410151.658075,-10.028946340504266,-0.016020291184883653,0.3486416720685544,-0.008241429748570664,0.0027957123944254516,-0.00040680998931303856
1765410151.658275,-10.030187618085703,-0.01551379283417738,0.34531635618842904,-0.008259823328946179,0.0024932471634362035,-0.0005355156280461538
1765410151.658475,-10.03038902031996,-0.0150541787139567,0.3413856373330624,-0.008287023534630933,0.0021732794339028665,-0.0006657558561677804
1765410151.65874,-10.029597426744374,-0.01465069046327732,0.33699223387564736,-0.008320946477501,0.0018358919941325747,-0.0007942528872198772
1765410151.65894,-10.027880785659221,-0.014317225457003382,0.33228765677864275,-0.008359291693819123,0.0014820670113153188,-0.0009178790289017156
1765410151.65914,-10.025327511422903,-0.014070287225496263,0.3274280087048248,-0.00839966878463288,0.0011136544965309268,-0.0010337533758827454
1765410151.65934,-10.022044727770076,-0.013926971492902715,0.32256887432485487,-0.00843971421487363,0.0007332559269944873,-0.001139331306274736
1765410151.65954,-10.018155170233447,-0.013903312799571615,0.31785942675851203,-0.00847719446003522,0.0003440428808819199,-0.0012324953713165377
1765410151.659738,-10.01379268451462,-0.014012935116240223,0.31343595686467357,-0.008510094850823088,-5.046457983969439e-05,-0.0013116501458130905
1765410151.659938,-10.00909655218946,-0.01426581045397458,0.30941533512681857,-0.008536694712345708,-0.00044662990173601196,-0.001375812019091417
1765410151.660138,-10.004205178331453,-0.014667122813515189,0.3058892480660497,-0.00855562890156187,-0.0008409118584500637,-0.0014246773012993655
1765410151.660338,-9.999249836465891,-0.015216567321783123,0.30292017698276646,-0.008565934262775281,-0.0012300325633559552,-0.0014586540348937623
1765410151.660538,-9.99434913026663,-0.015908547639336284,0.30053987437534146,-0.008567078072644016,-0.0016110898537073247,-0.0014788522664258203
1765410151.660723,-9.989604592982085,-0.0167334884476807,0.29875053547895974,-0.00855896602463785,-0.0019816138287807776,-0.001487035918794924
1765410151.660923,-9.98509751208083,-0.017679998005406646,0.29752819181541945,-0.008541929866247668,-0.0023395764923722306,-0.0014855403328431767
1765410151.661123,-9.980886874944565,-0.01873721902112021,0.29682748623441607,-0.008516696858884865,-0.002683369536379511,-0.0014771544125729839
1765410151.661323,-9.977008389857204,-0.019896630486781065,0.29658709367331754,-0.008484342535904969,-0.0030117659074216734,-0.0014649617515423699
1765410151.661523,-9.973474657765541,-0.021152829489742387,0.2967353447898968,-0.008446226133315438,-0.00332387552648587,-0.0014521369642250671
1765410151.661663,-9.970276525962046,-0.02250325693652376,0.297195755868941,-0.008403907681617624,-0.0036190996692710294,-0.001441703687841805
1765410151.661863,-9.96738546084189,-0.023947171866556042,0.2978921544024642,-0.00835904778022305,-0.0038970863483735983,-0.0014362765691670698
1765410151.662063,-9.964756612845628,-0.02548423940197969,0.29875307373637394,-0.008313293884127814,-0.004157687766962977,-0.0014378234895154618
1765410151.662263,-9.962332242885116,-0.02711292222776319,0.29971516079208615,-0.008268160133659497,-0.004400917007109271,-0.0014474874881563414
1765410151.662463,-9.960045357716302,-0.02882870705556232,0.3007255253170062,-0.008224912319281212,-0.004626897092891687,-0.0014654966758639216
1765410151.662725,-9.957823665693759,-0.03062227374052416,0.30174321692418493,-0.008184474474073621,-0.004835795694413746,-0.0014911704445210064
1765410151.663058,-9.95559409631425,-0.032477979937673464,0.3027401669788038,-0.008147375788665057,-0.005027743866613756,-0.0015230126414088677
1765410151.663392,-9.953287957927664,-0.034373205914294123,0.30370181456268813,-0.008113753758743127,-0.0052027463721133205,-0.0015588745939962107
1765410151.663714,-9.950846423756678,-0.03627892519691291,0.30462733925690383,-0.008083420642797358,-0.005360601464823763,-0.001596170853009278
1765410151.6668,-9.94822568198351,-0.038161369602747214,0.30552918567557236,-0.00805598563229668,-0.005500852561139544,-0.001632130559116031
1765410151.668766,-9.945400915236224,-0.039984184074634055,0.30643151556461357,-0.008031008658068372,-0.005622787556379878,-0.0016640629644111996
1765410151.671683,-9.94236833162346,-0.04171037987576398,0.30736737231425865,-0.00800815151540153,-0.0057254874823914415,-0.0016896093789004983
1765410151.673739,-9.939144794084557,-0.04330373086974105,0.30837465684069176,-0.007987293820861842,-0.005807913812393946,-0.0017069522518087712
1765410151.676793,-9.935765153169598,-0.0447297062775579,0.3094913706259054,-0.00796859317328843,-0.005869017628723139,-0.001714960191417311
1765410151.678834,-9.932277947283948,-0.04595625712582235,0.3107507904953149,-0.007952483433475608,-0.005907853230779948,-0.0017132629759745194
1765410151.681726,-9.928740397210149,-0.046954680018694954,0.31217720929994214,-0.007939616438595413,-0.005923681809766964,-0.0017022632311718892
1765410151.683744,-9.92521351575347,-0.04770051539969803,0.31378268412042837,-0.007930759330034521,-0.0059160556001984265,-0.0016830938166016746
1765410151.68677,-9.921757869000176,-0.04817424013040287,0.31556501621756844,-0.007926663373500335,-0.005884876349680261,-0.0016575244631257683
1765410151.688674,-9.91843027364198,-0.048361575198152755,0.31750703590743345,-0.007927922456663175,-0.005830422471460602,-0.0016278168455004095
1765410151.691742,-9.915281560608113,-0.048253521237305606,0.3195771936514547,-0.007934840934731052,-0.005753339383853044,-0.0015965312515620834
1765410151.692242,-9.912355429645764,-0.04784648441939483,0.32173139736533424,-0.007947330095393633,-0.005654591039614355,-0.0015663005112584942
1765410151.696764,-9.909688279486078,-0.04714279110026502,0.3239159026189267,-0.007964848808379868,-0.0055353781007553325,-0.0015396004337295867
1765410151.697778,-9.907309715556405,-0.046151531297027135,0.326070892399821,-0.007986396860736367,-0.005397037212647058,-0.0015185504524859053
1765410151.701719,-9.905243336231461,-0.04488932281590095,0.3281343226400749,-0.008010560831798644,-0.005240943204870278,-0.0015047689385788154
1765410151.703741,-9.903507477183865,-0.04338055680060637,0.3300457063348652,-0.008035604929799385,-0.005068438428515321,-0.0014992900806128767
1765410151.704717,-9.90211574794609,-0.041657004658707364,0.3317496141700043,-0.00805959506478338,-0.004880808396372757,-0.0015025343946808043
1765410151.70872,-9.901077254793574,-0.03975704297706121,0.3331986458906406,-0.008080543328389313,-0.004679311228779162,-0.0015143207049066996
1765410151.711704,-9.900396375517285,-0.037724836662462506,0.334355554246035,-0.008096560264971096,-0.004465254408082957,-0.00153391258032574
1765410151.713684,-9.900071982770845,-0.035609571669500885,0.3351942685168238,-0.008106002857363912,-0.004240101590464033,-0.0015600983957165466
1765410151.71471,-9.900096176829283,-0.03346453742314268,0.3356998027493819,-0.008107607061892572,-0.0040055882583947995,-0.0015913041917645756
1765410151.71871,-9.90045280702757,-0.03134579872490429,0.33586728719345516,-0.008100594933036838,-0.0037638264092311005,-0.0016257323166556773
1765410151.721755,-9.901116207726139,-0.029310388548448685,0.3357004879349383,-0.008084747565396217,-0.0035173810625870497,-0.0016615119709296117
1765410151.723709,-9.902050601786586,-0.027414228845977166,0.3352102047855029,-0.008060436624270985,-0.0032693040862419617,-0.0016968451768560018
1765410151.726703,-9.90321056828555,-0.025710134717511747,0.33441293222719143,-0.008028610382438425,-0.0030231154666618227,-0.001730133881882113
1765410151.728746,-9.904542834243621,-0.024246157580399923,0.3333300718640714,-0.007990735569445864,-0.0027827279180704717,-0.0017600785488279893
1765410151.731728,-9.905989378163433,-0.023064261686910392,0.331987717761233,-0.00794870238240858,-0.0025523156914652656,-0.0017857437694960116
1765410151.73367,-9.907491482717953,-0.022199135886640506,0.33041673651074727,-0.007904703621374944,-0.0023361338441201885,-0.0018065911319097101
1765410151.736736,-9.908994148219032,-0.021676960933257248,0.3286527715047929,-0.007861098257571945,-0.002138301192753294,-0.0018224824696935515
1765410151.738708,-9.910450267223466,-0.021514125227387097,0.32673590802917624,-0.007820265868973041,-0.0019625659462008315,-0.001833656829404172
1765410151.741675,-9.91182402794875,-0.021716068772073355,0.32470981980844865,-0.007784454149252447,-0.001812075132582626,-0.0018406831772874608
1765410151.743674,-9.913093065688745,-0.022276539142391808,0.32262022324123524,-0.007755619890383885,-0.0016891688221491656,-0.0018443909849984537
1765410151.746717,-9.914249014469888,-0.023177522727576387,0.32051255595588407,-0.007735266291036515,-0.0015952193741468918,-0.0018457844317875801
1765410151.748672,-9.915296385895566,-0.024389972516747606,0.31842901758784403,-0.0077242860298116205,-0.0015305330916111132,-0.001845951561486272
1765410151.75199,-9.916250004061197,-0.025875249437016926,0.3164053202688765,-0.007722827036427041,-0.0014943256287412946,-0.0018459829996264603
1765410151.753808,-9.917131453293916,-0.02758702522868411,0.3144676214340431,-0.0077302016242810105,-0.0014847751395213275,-0.001846912357286983
1765410151.756758,-9.917965156975189,-0.029473350014482886,0.31263017532739645,-0.007744857394847259,-0.001499150233916856,-0.0018496829018674037
1765410151.758725,-9.918774764283594,-0.03147869976125142,0.3108941760549873,-0.007764421732668196,-0.0015340028301709557,-0.0018551369512182201
1765410151.760752,-9.919580380322296,-0.033546013023837494,0.309248005403689,-0.007785823637601945,-0.0015854095044226916,-0.0018640206410828304
1765410151.763747,-9.920396869410228,-0.03561883036104918,0.3076687724238929,-0.007805488324294918,-0.0016492417116878598,-0.0018769984692579718
1765410151.766736,-9.92123317276538,-0.037643545571487906,0.30612483127817347,-0.007819591427826808,-0.001721445965219251,-0.0018946754212668762
1765410151.768723,-9.922092440689912,-0.039571557498915805,0.3045789187998109,-0.00782435122097641,-0.0017983165802274808,-0.0019176237890859656
1765410151.771706,-9.922972800876176,-0.04136099844010058,0.30299161994211465,-0.007816330263223304,-0.00187674339855075,-0.0019464058118189706
1765410151.773678,-9.923868724234104,-0.042977819197590264,0.30132504585496356,-0.007792714271564632,-0.0019544162578426748,-0.00198157768797625
1765410151.776703,-9.924773067880691,-0.044396227004488406,0.2995467912826474,-0.007751537767314767,-0.00202996955302205,-0.002023662000110623
1765410151.778664,-9.925679772248564,-0.04559862548942398,0.2976341950980453,-0.007691833764621308,-0.0021030555141455676,-0.002073084642391565
1765410151.781743,-9.926586855271392,-0.04657520936241964,0.29557860649656825,-0.007613696258269048,-0.002174343522867082,-0.002130083824823396
1765410151.783699,-9.927499059378373,-0.04732324967916386,0.29338901845504844,-0.007518255933390239,-0.0022454522444695316,-0.002194607441208829
1765410151.786732,-9.9284295316328,-0.04784598331052298,0.29109434404557977,-0.007407578893220286,-0.0023188273558102184,-0.002266218228622689
1765410151.788737,-9.929400218423432,-0.04815104251498019,0.2887438097441768,-0.0072845046958908395,-0.0023975786955721143,-0.002344023059600949
1765410151.791732,-9.93044102077217,-0.04824857833590618,0.28640530458866986,-0.0071524434517253425,-0.0024852896039770428,-0.0024266360558456313
1765410151.793701,-9.931588030520167,-0.04814949316953758,0.2841619249251105,-0.007015151992806057,-0.002585810831413445,-0.0025121805774739494
1765410151.794758,-9.932881255130534,-0.04786426682116618,0.2821072241652701,-0.006876507210282926,-0.0027030511752017057,-0.0025983356067216514
1765410151.798725,-9.93436208118979,-0.04740265398460276,0.28033967845372426,-0.006740292406251719,-0.0028407760327814435,-0.002682434028993769
1765410151.801681,-9.936070433183628,-0.04677419135266089,0.2789566850821362,-0.0066100106138594775,-0.0030024242849975256,-0.0027616174136902293
1765410151.803698,-9.938041408431452,-0.04598919742665372,0.27804824860412375,-0.006488736421242889,-0.0031909533052871925,-0.0028330418993797388
1765410151.806735,-9.940301251206183,-0.04505989812443457,0.2776905046755443,-0.00637901389683577,-0.0034087192786197485,-0.0028941165318280876
1765410151.80872,-9.942862795213024,-0.04400143398435383,0.2779393477316526,-0.00628280290238709,-0.003657395372939299,-0.0029427454046047482
1765410151.811715,-9.94572082744119,-0.042832666577623905,0.2788246106440449,-0.006201470416442178,-0.003937926524822392,-0.002977542858647378
1765410151.812215,-9.948848095829073,-0.04157677223472097,0.2803454163999255,-0.0061358182190442544,-0.0042505166376114595,-0.002997996271377492
1765410151.816791,-9.952192729728178,-0.040261565341804514,0.2824673188578011,-0.006086134234644791,-0.004594638046368278,-0.003004558699211335
1765410151.818774,-9.955677567519992,-0.03891943048719505,0.2851215992931693,-0.006052253967938706,-0.004969044789187658,-0.002998659847832592
1765410151.821755,-9.959201473160253,-0.037586774714852354,0.28820678637273295,-0.006033621746568028,-0.005371768069578894,-0.00298262916772967
1765410151.823823,-9.962642465717616,-0.03630303495120028,0.29159233392168366,-0.006029345987811475,-0.005800079225844284,-0.002959532346716072
1765410151.826743,-9.965862405149682,-0.03510939323301003,0.2951243271624045,-0.006038244676384936,-0.006250418647897822,-0.0029329331046981403
1765410151.82873,-9.968712885996638,-0.03404738854625599,0.2986328993403192,-0.006058877345051901,-0.006718302187331174,-0.002906603586828756
1765410151.831726,-9.971041892862305,-0.03315755384633972,0.30194083061441895,-0.006089561665112283,-0.007198227557748601,-0.00288421498081037
1765410151.832226,-9.972700861235943,-0.032478066528714364,0.30487281351715184,-0.006128377166158797,-0.007683610164960407,-0.0028690422895058295
1765410151.836755,-9.973552039654546,-0.03204325369601047,0.3072650528621856,-0.006173163482437177,-0.008166776157882995,-0.0028637125193134985
1765410151.838703,-9.97347618036469,-0.03188177691714327,0.3089749584685575,-0.006221524296909156,-0.008639030132452874,-0.0028700157780736217
1765410151.841815,-9.972380468125474,-0.032014500401926674,0.30989061833699055,-0.006270849733049304,-0.00909080451773251,-0.0028887884037977507
1765410151.843768,-9.970206385569886,-0.03245229163733103,0.30993961911210355,-0.006318367054282613,-0.009511894502617699,-0.0029198705462981627
1765410151.846818,-9.966937026021604,-0.03319410910843938,0.3090966164778694,-0.006361221716561957,-0.009891782758935937,-0.0029621378975096323
1765410151.848716,-9.962603170369382,-0.034225656495479144,0.30738884202592476,-0.006396582585165144,-0.010220054546475453,-0.0030136047751589093
1765410151.85185,-9.957287300261642,-0.03551876900885368,0.3048986644789211,-0.00642176180239466,-0.010486894966843725,-0.00307159062818372
1765410151.85387,-9.951124782182164,-0.037031668881355326,0.30176258183120797,-0.006434341494385605,-0.010683648965578343,-0.003132935909305761
1765410151.854823,-9.944301717501926,-0.038710267630827536,0.2981664383991346,-0.006432302234727555,-0.010803411825787408,-0.003194249730140187
1765410151.858796,-9.937049242802416,-0.04049069919053787,0.2943369460694664,-0.006414148900777338,-0.010841605134669686,-0.003252171899363486
1765410151.861753,-9.929634326761889,-0.042303134182355075,0.29052975625528205,-0.006379027613713681,-0.01079648538836471,-0.0033036341492189043
1765410151.863714,-9.922347412274611,-0.04407662060744567,0.28701458786005507,-0.006326823533045509,-0.010669530887141988,-0.0033461069757785753
1765410151.866745,-9.915487567003222,-0.04574433256719657,0.28405829707760116,-0.006258225805895108,-0.010465654544270158,-0.0033778175816838747
1765410151.868694,-9.909346044906176,-0.047248394060982635,0.28190715942519967,-0.006174746550484975,-0.010193197232942725,-0.0033979211155494775
1765410151.871741,-9.904189350962369,-0.04854352008866008,0.28076994837945046,-0.006078686380956767,-0.009863674254794995,-0.003406604364249112
1765410151.873742,-9.900243066008427,-0.04959905113272934,0.28080349926177767,-0.00597304617305598,-0.009491276602049483,-0.003405101506178196
1765410151.876734,-9.897677699360342,-0.05039938539007261,0.2821021224364046,-0.005861389489195339,-0.00909216122320127,-0.00339560787136653
1765410151.877234,-9.89659760862632,-0.05094314492526963,0.28469151805747334,-0.0057476620540398505,-0.008683592373339462,-0.0033810905623638163
1765410151.881683,-9.897033714394736,-0.0512415281794872,0.28852713899850685,-0.005635976343296928,-0.00828301319930995,-0.0033650114097719033
1765410151.882183,-9.898940526032689,-0.05131622258656112,0.29349657852411143,-0.0055303722220094815,-0.00790712752335908,-0.0033509916273172955
1765410151.886731,-9.902197836323676,-0.05119712676807706,0.2994255006729117,-0.0054345680044574326,-0.007571056864037508,-0.0033424535785596156
1765410151.888733,-9.906617190936732,-0.05092010447871389,0.3060866862782444,-0.00535171900350939,-0.007287617394422838,-0.0033422744522088035
1765410151.891466,-9.911952893675949,-0.05052504550816034,0.3132118093265767,-0.0052842019425055654,-0.007066746694041966,-0.0033524845670332105
1765410151.893777,-9.917916957551995,-0.05005449819493968,0.320505531518462,-0.0052334432070541784,-0.00691510167520556,-0.0033740417078280444
1765410151.896737,-9.924197061562108,-0.049552980715412996,0.32766135710758915,-0.0051998061171173015,-0.006835841126286839,-0.003406709215921085
1765410151.898716,-9.930476217669723,-0.049066836249686864,0.33437844360113744,-0.005182546585573822,-0.0068285957722611385,-0.003449056164149618
1765410151.90168,-9.936452589822183,-0.04864428607787255,0.3403783413588352,-0.00517983874900703,-0.0068896167386198895,-0.0034985842161166713
1765410151.903707,-9.941857822699449,-0.04833523362198137,0.3454205301853855,-0.005188865737529576,-0.007012081950177339,-0.003551971759478111
1765410151.905799,-9.946472301015486,-0.04819041936005798,0.34931562083885354,-0.005205968626685634,-0.007186532279672229,-0.003605413489672002
1765410151.908769,-9.950135961540743,-0.04825971327392323,0.35193520099840037,-0.0052268472667389996,-0.007401408674185913,-0.0036550227100153785
1765410151.911717,-9.9527537033856,-0.048589578336749144,0.3532175803711649,-0.005246804909269792,-0.007643666976365312,-0.0036972555480488554
1765410151.913702,-9.954295080903076,-0.04921991870732003,0.3531690787833299,-0.005261021990971774,-0.007899451217230012,-0.0037293137308889147
1765410151.916761,-9.954788653036484,-0.05018054987355079,0.3518608864086552,-0.005264837121060829,-0.00815480277975104,-0.0037494860615604783
1765410151.918746,-9.9543119722149,-0.05148742433955689,0.34942189180630023,-0.005254010939715419,-0.008396374522477273,-0.003757395281732521
1765410151.921742,-9.952978695411197,-0.053138679912155685,0.3460282457843813,-0.005224952564465625,-0.008612112198513903,-0.0037541230544876547
1765410151.923877,-9.95092461300322,-0.05511073229916544,0.34189070223701923,-0.005174896151701909,-0.008791863369351885,-0.0037421917583948883
1765410151.925774,-9.9482943904711,-0.057355003643344234,0.33724081307587117,-0.005102022930962543,-0.0089278763551065,-0.0037253922905725375
1765410151.928712,-9.945230487540234,-0.05979620125203648,0.3323168845895281,-0.005005529002489574,-0.009015158299477608,-0.00370846536078243
1765410151.930763,-9.941865167215804,-0.06233304465711208,0.3273503882414992,-0.004885640299923688,-0.00905167119823403,-0.0036966662047692262
1765410151.933759,-9.938315867638538,-0.06484193754873648,0.3225533894857903,-0.004743575493998258,-0.00903835536631335,-0.0036952607145658302
1765410151.936791,-9.934683642424693,-0.06718349873818151,0.31810757369489967,-0.004581459070381562,-0.008978979706618106,-0.0037090083749761744
1765410151.938777,-9.931054039275757,-0.06921136088946547,0.31415558457357645,-0.0044021918275006025,-0.00887982786317133,-0.0037416844658869526
1765410151.940845,-9.927499694977051,-0.07078236251882383,0.3107954719760009,-0.00420929138335742,-0.00874923982556267,-0.0037956859770253396
1765410151.943765,-9.924083930237112,-0.07176717680928894,0.308078848340441,-0.004006716539219514,-0.008597039698220935,-0.003871757492199143
1765410151.946802,-9.920864625139131,-0.07206039940715767,0.30601286195312505,-0.0037986864761990202,-0.008433891604745045,-0.00396886576437094
1765410151.95035,-9.917897686605716,-0.07158904599215607,0.3045655373029954,-0.0035895030489669294,-0.008270635533108169,-0.004084241861081858
1765410151.951768,-9.915239546530342,-0.0703183696265845,0.3036736206607666,-0.0033833847279770924,-0.008117659712966137,-0.004213594095627787
1765410151.952268,-9.912948339739094,-0.06825413439474662,0.3032518631074325,-0.003184322030718403,-0.00798436185980009,-0.0043514732621661775
1765410151.956706,-9.911083655205623,-0.06544110721086646,0.3032026644375379,-0.00299596287025952,-0.007878737150439422,-0.004491748563804592
1765410151.958683,-9.909704968795142,-0.06195837354168486,0.3034251426658297,-0.0028215308795206057,-0.007807109493482163,-0.004628135189359876
1765410151.961698,-9.908868976583673,-0.05791274035311951,0.30382287509720635,-0.0026637721332634237,-0.0077740016207034435,-0.004754708860924549
1765410151.963692,-9.908626055273407,-0.05343163081997907,0.3043097096093815,-0.0025249190554075883,-0.007782124728513596,-0.004866350931759346
1765410151.967777,-9.909016088275047,-0.0486564885220014,0.30481324080437583,-0.00240665797099285,-0.00783245998880277,-0.004959086055073749
1765410151.968724,-9.910063993575058,-0.04373707974985893,0.30527589827956175,-0.002310090298644607,-0.007924399112529512,-0.005030295849135764
1765410151.97173,-9.911775436065668,-0.03882654756110797,0.3056541005561435,-0.0022356855538744223,-0.00805590895907311,-0.005078810534767448
