time,acc_x_g,acc_y_g,acc_z_g,gyro_x_rad_s,gyro_y_rad_s,gyro_z_rad_s
1765408470.81995,-7.622329841067278,-3.202501852145039,5.72037698878853,-0.00976677583011534,-0.010281251849878577,-0.002036723069978186
1765408470.82015,-7.6754761411032435,-3.2053825835754868,5.70115099697634,-0.010065344374438354,-0.010730991539484355,-0.0026133299527060136
1765408470.82035,-7.726074405937034,-3.207533200201485,5.679948946751383,-0.01036247275280614,-0.01123524769306609,-0.0032431605124570344
1765408470.82055,-7.771701924803779,-3.208648736543024,5.65528527990102,-0.010623323001873398,-0.011800097158898685,-0.003927475425377225
1765408470.820755,-7.8100503898781,-3.2084652189213414,5.625940987636454,-0.010807905110573786,-0.012421808045157108,-0.004662050133554346
1765408470.821005,-7.83901434817654,-3.2067814395492276,5.5910449280784125,-0.010871805358000189,-0.013085280551788423,-0.005436003454616152
1765408470.821255,-7.8567790989573565,-3.203477953008034,5.550135559403705,-0.010767280014337023,-0.01376331994065651,-0.006231037485369093
1765408470.821505,-7.861903831293257,-3.198531600653794,5.503198122012782,-0.010444703868598306,-0.014416849130303581,-0.007021173797184638
1765408470.82174,-7.853393956166095,-3.192023806314326,5.450672853240564,-0.009854332484123794,-0.014996093921476269,-0.007773028756844998
1765408470.82199,-7.8307555182943585,-3.184141104309176,5.393431095711144,-0.008948305107976198,-0.015442689704460371,-0.00844661914109618
1765408470.82224,-7.794024802103953,-3.1751670687272697,5.332718425270835,-0.007682778297250238,-0.01569256668850866,-0.008996630087577232
1765408470.82249,-7.74376788631239,-3.165466025775448,5.270067089825171,-0.006020041413697205,-0.01567938317354189,-0.00937402346790866
1765408470.822741,-7.68104770797751,-3.155460347218681,5.207183554251202,-0.003930436365735618,-0.015338211278301343,-0.009527836071736375
1765408470.822941,-7.607359720837784,-3.1456042493374494,5.145820019809495,-0.0013938972214583456,-0.01460915189656105,-0.009407025701548943
1765408470.823141,-7.524540910110137,-3.1363574067734636,5.087640904728161,0.001599056412648193,-0.01344057078344108,-0.008962261531715166
1765408470.823341,-7.4346601264803835,-3.1281611766660973,5.034096277509029,0.005046996181080272,-0.01179169970546852,-0.008147600609920631
1765408470.823541,-7.339899838004105,-3.12141913434248,4.9863140556380845,0.008937989752722137,-0.00963442263025653,-0.006922024706813424
1765408470.823695,-7.242440095033586,-3.1164825758460535,4.945021260610068,0.01325070707692032,-0.00695415377370633,-0.0052508241635552694
1765408470.823945,-7.144354702632227,-3.113641042012354,4.910501738830807,0.017956117373035783,-0.003749801193568975,-0.0031068153111618803
1765408470.824195,-7.04752750725855,-3.1131175851135104,4.882593892849084,0.023019603534059296,-3.288827655118906e-05,-0.00047137591556397035
1765408470.824445,-6.953593745680703,-3.1150680309554972,4.860727744091221,0.02840328870663483,0.004174027634456335,0.002664718978733559
1765408470.824793,-6.863908193852312,-3.1195829282075507,4.843996630804375,0.03406836313757071,0.008839444651268192,0.006300686683689968
1765408470.825043,-6.77953902822036,-3.1266907655861904,4.8312554316724405,0.03997721184909289,0.013925278697745874,0.010425395651122642
1765408470.825293,-6.701284171773894,-3.1363616801948626,4.821234744813488,0.04609517695430524,0.01938925360349983,0.015017355175510802
1765408470.825543,-6.629705382325918,-3.1485118108251964,4.8126593594297455,0.052391843738815475,0.025187108378904977,0.0200450998536406
1765408470.82569,-6.565174410944333,-3.1630089503731056,4.804359962396608,0.05884180773941059,0.031274481986908784,0.025468012789125388
1765408470.82589,-6.507925347637301,-3.1796800988208,4.795369150546115,0.06542494463839782,0.03760841001582796,0.031237598735058096
1765408470.82609,-6.458107737104981,-3.198321347066706,4.784995660542251,0.07212625381380602,0.04414841846753935,0.037299179114847446
1765408470.82629,-6.415835749535971,-3.218710458186696,4.772873341799494,0.07893537588481041,0.05085722795287473,0.04359392972300726
1765408470.82649,-6.381229237608641,-3.240622209026261,4.758983381288458,0.0858458942637477,0.05770109763107755,0.05006111925684905
1765408470.826785,-6.354443080584629,-3.2638456125874997,4.743649877305372,0.09285452264907786,0.06464984431014538,0.05664035659232407
1765408470.827035,-6.3356822574718965,-3.288200839019456,4.727510352128816,0.09996026264340392,0.07167656938028963,0.06327365012721689
1765408470.827285,-6.32520159355805,-3.313552854403046,4.711464070439846,0.10716359852711278,0.07875712371827871,0.0699071322714967
1765408470.827535,-6.323290639512668,-3.3398190615634773,4.696601904365625,0.11446577998843095,0.0858693464753829,0.07649237826386615
1765408470.827767,-6.330245383149015,-3.366969290747506,4.684122188904652,0.12186821807838116,0.0929921275047085,0.0829873119399055
1765408470.828017,-6.346329419734014,-3.395017690456358,4.675237729175845,0.12937198113756268,0.10010436083392049,0.08935672529726854
1765408470.828267,-6.371727766519561,-3.4240070067861943,4.671079552275704,0.13697733946897792,0.10718387527709496,0.0955724536796804
1765408470.828517,-6.406496871023209,-3.4539864347772298,4.672603095697382,0.14468328947249223,0.11420644646574485,0.10161325983855188
1765408470.828684,-6.450515064333114,-3.4849848984602136,4.680502926157222,0.15248699766984392,0.12114500604111511,0.10746449352115026
1765408470.828934,-6.5034389194875315,-3.5169823512864666,4.695142963026133,0.16038313584836172,0.12796915793704414,0.11311760255704839
1765408470.829184,-6.564671856646179,-3.549882226143537,4.716509449369656,0.1683631189738575,0.13464508743168493,0.11856956692028593
1765408470.829434,-6.633350732982966,-3.5834881164205106,4.7441924365799135,0.1764142976568254,0.1411359168464696,0.12382230805211454
1765408470.829683,-6.708353907518008,-3.617487074952463,4.777398676981199,0.1845191858597203,0.14740252704641948,0.12888210284011176
1765408470.829933,-6.788331460035313,-3.6514409537901513,4.814995825929871,0.1926548122864179,0.15340481974321676,0.13375901478673777
1765408470.830183,-6.871755996774768,-3.684786447791495,4.855585216964692,0.2007922730533357,0.15910334321403236,0.13846634330334828
1765408470.830433,-6.956990975768999,-3.716844073724207,4.897597828223378,0.20889655019026807,0.1644611607822231,0.14302008083594864
1765408470.830694,-7.042372385379644,-3.7468358630139282,4.939405698783721,0.21692665584523654,0.16944582528635738,0.14743835702375127
1765408470.830944,-7.126298783472822,-3.773910730477961,4.979439991327153,0.22483615437879606,0.17403133301011156,0.15174084672868712
1765408470.831194,-7.207324055111583,-3.7971755935478297,5.016307157383557,0.23257408532665605,0.178199946188871,0.15594813096165389
1765408470.831444,-7.284246389349607,-3.815730012634071,5.0488949600129684,0.24008626402858044,0.18194377738763812,0.1600810215240936
1765408470.831716,-7.356185754115364,-3.8287024784274064,5.076459755856848,0.24731690191806086,0.18526603089995847,0.16415987853880698
1765408470.831966,-7.4226412057306,-3.8352868168972987,5.098686383966552,0.2542104808764195,0.18818181334103676,0.16820395717226327
1765408470.832216,-7.483519806972658,-3.8347770519119635,5.115713551207119,0.260713817171647,0.1907184545094419,0.1722308171983469
1765408470.832466,-7.539131329573083,-3.8265988027556057,5.128120898976237,0.2667782358997432,0.1929153078920752,0.17625582191723682
1765408470.832812,-7.590146779966604,-3.8103354910059406,5.1368780922603845,0.2723617500271583,0.19482303037292145,0.18029174581810273
1765408470.833062,-7.637522992416641,-3.7857483496499227,5.143260339857102,0.2774311178948766,0.1965023777990397,0.1843485022957249
1765408470.833312,-7.682399220009286,-3.7527900066613498,5.14873814081447,0.2819636444584039,0.1980225853802619,0.18843298744350878
1765408470.833562,-7.725974393318092,-3.7116118274091403,5.154851225933467,0.28594858906718773,0.1994594136057395,0.1925490121162478
1765408470.833744,-7.769375206783171,-3.662565151422211,5.163077197942898,0.2893880489281961,0.20089293196373567,0.1966972723053938
1765408470.833994,-7.813525337986081,-3.6061961928744726,5.174704488181766,0.29229721222493255,0.2024051010331201,0.20087530270939924
1765408470.834244,-7.859025359112591,-3.543234030292841,5.190717901612755,0.2947039192110353,0.20407721496534031,0.20507737856331754
1765408470.834494,-7.906052142097249,-3.4745712376083744,5.211704222347864,0.296647522713879,0.20598728044426523,0.20929436886705907
1765408470.834859,-7.954286226784518,-3.4012374276307566,5.23778512183823,0.29817709264271136,0.20820742046627871,0.213513580777524
1765408470.835192,-8.00287490247633,-3.3243669115249563,5.268583612605285,0.2993490636474401,0.21080139465293077,0.2177186546823582
1765408470.835526,-8.050436391345986,-3.2451623911155645,5.30322727759658,0.3002244811437362,0.2138223251925545,0.22188956971181445
1765408470.835803,-8.095106843663546,-3.164856951682078,5.340387479416555,0.3008660460606128,0.21731070363830632,0.22600280559276725
1765408470.836053,-8.134628756313498,-3.0846766621095627,5.378351206271516,0.3013351770799625,0.22129272460755364,0.23003168576475014
1765408470.836303,-8.166477565422102,-3.0058059129094263,5.415121586843087,0.30168929828920343,0.22577897133770372,0.23394690402516227
1765408470.836553,-8.18802088085733,-2.9293572681562154,5.4485421292343315,0.3019795299900157,0.2307634944704392,0.23771721611563937
1765408470.836878,-8.196701035362025,-2.8563469966072486,5.476437180475984,0.3022489182872635,0.23622336867856406,0.24131026217818577
1765408470.837128,-8.190227812624872,-2.787676585343991,5.496758559646503,0.3025312834924857,0.24211884095881703,0.24469348042202047
1765408470.837378,-8.16676631636,-2.7241197195881037,5.5077273159515805,0.3028506984190886,0.24839417881466158,0.24783507812645228
1765408470.837628,-8.125105051896874,-2.666313734054683,5.5079597995451115,0.30322153944344543,0.2549792957651126,0.25070503826037366
1765408470.837756,-8.06479080730214,-2.6147543422776405,5.496568462567083,0.3036490067935554,0.261792182137296,0.2532761504348785
1765408470.838006,-7.986219973728614,-2.56979236499758,5.473230669591196,0.30412999200728746,0.2687420937423495,0.2555250579973152
1765408470.838256,-7.890680405854234,-2.53163132292978,5.438222856052446,0.3046541692263591,0.2757333570269682,0.2574333077349933
1765408470.838506,-7.780342330654779,-2.5003252863998684,5.392420588102398,0.3052051974137297,0.28266956727609965,0.2589883776210027
1765408470.838701,-7.658199726207138,-2.4757771073661754,5.337266316390617,0.305761945939594,0.28945791290009837,0.2601846440583359
1765408470.838951,-7.527965260623082,-2.4577377484476406,5.274707029991434,0.30629968970275173,0.29601335927954536,0.26102423385185075
1765408470.839201,-7.393923479802652,-2.445807670208976,5.207104926638593,0.306791245704814,0.3022624599603665,0.2615176914411746
1765408470.839451,-7.260748942069011,-2.4394411579359105,5.137125402343464,0.30720803390564516,0.3081466127853721,0.2616843878589885
1765408470.83975,-7.133298141830098,-2.4379542462623447,5.067607640862516,0.3075210482884189,0.313624629654239,0.26155261209129743
1765408470.84,-7.016385811484826,-2.4405368224141655,5.0014240575612225,0.30770172863771345,0.31867453751838576,0.2611593176255366
1765408470.84025,-6.914556752029145,-2.446269686138997,4.941335540606158,0.3077227335686496,0.32329456779907373,0.2605495347665316
1765408470.8405,-6.831863440464168,-2.4541475559922317,4.889849013840829,0.3075586294085438,0.32750330847167497,0.2597754821951558
1765408470.840719,-6.7716586661387295,-2.463108854187584,4.849082940787652,0.30718652354526715,0.33133899280531864,0.25889540794150384
1765408470.841052,-6.736413235851915,-2.4720724927868947,4.820646959198963,0.30658668092820884,0.3348579106806833,0.2579721702021849
1765408470.841386,-6.727570974831052,-2.4799809883046766,4.805544062152709,0.3057431640365091,0.33813197332641426,0.25707155126686043
1765408470.841734,-6.745454024833353,-2.4858481854590484,4.804104979700098,0.3046445247412477,0.34124552552772597,0.2562602979036669
1765408470.841984,-6.789228789938237,-2.4888087862180592,4.815962480374943,0.30328455113390757,0.344291548421001,0.255603907960983
1765408470.842234,-6.8569377630660755,-2.4881660438922286,4.840069210044331,0.30166304050503273,0.34736742129041764,0.25516423347963213
1765408470.842484,-6.945597178001574,-2.48343378407669,4.874758866658498,0.29978653843062036,0.35057043450098097,0.2549970236535773
1765408470.842716,-7.051355981650718,-2.4743693846847306,4.917847751739481,0.2976689579459883,0.35399328442844186,0.25514955757204166
1765408470.842966,-7.1697074819908755,-2.4609949795225674,4.9667710782823224,0.29533197800153116,0.3577198168329175,0.25565850721837413
1765408470.843216,-7.29574062451103,-2.4436045315434023,5.018745199663435,0.29280512288431826,0.36182128512451756,0.2565481433369506
1765408470.843466,-7.4244135208119335,-2.4227548165841624,5.070943689613956,0.29012544324796313,0.36635334274720394,0.25782897309499503
1765408470.843731,-7.550828679241156,-2.3992393064362467,5.1206729166407845,0.2873367483520071,0.37135391064314205,0.2594968848610395
1765408470.843981,-7.670488362477687,-2.374045529718276,5.165531906589648,0.2844883751807162,0.3768419793289336,0.26153286596568415
1765408470.844231,-7.779509819410983,-2.3482983362641563,5.203541855201772,0.2816335243779638,0.38281734185608063,0.26390334833736595
1765408470.844481,-7.8747835458610345,-2.323193176871014,5.233232919188793,0.27882724202495485,0.38926121672532576,0.26656121838595986
1765408470.844717,-7.9540632454279105,-2.2999247349032927,5.25368052362466,0.2761241715375225,0.3961377045064786,0.26944749618690167
1765408470.844967,-8.015983758624952,-2.2796167982319835,5.264490114148329,0.27357623417164556,0.4033960121250051,0.2724936477752105
1765408470.845217,-8.06001172848843,-2.263259117093072,5.265736276991901,0.2712304160117861,0.41097335602296736,0.27562445077703446
1765408470.845467,-8.086340836606455,-2.2516562835719665,5.257867256641135,0.26912683961127143,0.41879841770529813,0.27876129018325724
1765408470.845768,-8.095747354163654,-2.2453924124883886,5.24158813822888,0.26729727349628146,0.4267951810988018,0.28182571604300016
1765408470.846018,-8.089423136975993,-2.2448134920935265,5.217736276253318,0.2657641810901368,0.4348869311508217,0.28474305133261796
1765408470.846268,-8.068804077066913,-2.25002681950987,5.187162657578501,0.26454034324300113,0.4430001428827061,0.2874458094042282
1765408470.846518,-8.035412915432579,-2.2609145438668543,5.150633098104434,0.2636290239783937,0.45106797041347185,0.28987668331323874
1765408470.846734,-7.9907344211379865,-2.2771568473972272,5.108762049786094,0.2630245995082664,0.4590330837586731,0.2919909113019187
1765408470.847067,-7.936136765864462,-2.2982601958858693,5.061988268714183,0.26271353728856134,0.46684967751778195,0.29375789335774527
1765408470.847401,-7.872846434005262,-2.3235872054866915,5.010596438335935,0.26267559332004886,0.4744845421475417,0.2951620086578997
1765408470.8478,-7.801977129328888,-2.35238625070584,4.954783218518056,0.2628850951456772,0.48191713784955265,0.296202639560104
1765408470.84805,-7.7246062529176855,-2.3838200738930775,4.894759844865183,0.26331219976578196,0.4891386823645574,0.2968934416169779
1765408470.8483,-7.641885108765718,-2.4169928764421105,4.830876005767108,0.2639240563474335,0.49615037207539964,0.297260928417136
1765408470.84855,-7.5551621296124045,-2.4509749393426095,4.763743266219484,0.26468584794427436,0.5029609628114248,0.2973424799534502
1765408470.848759,-7.4660947923093675,-2.4848234336145416,4.694334061568459,0.2655617192813884,0.5095840050031128,0.29718393116548447
1765408470.849009,-7.376727218281651,-2.5175982878055634,4.624035669442539,0.2665156165185904,0.5160350565998775,0.2968369395638915
1765408470.849259,-7.289515972318093,-2.548372890006406,4.554646164298752,0.2675120747599409,0.5223291991482613,0.2963563529437154
1765408470.849509,-7.207294018122909,-2.57624080257358,4.48830837844972,0.26851698870374197,0.5284791561677065,0.29579778949835306
1765408470.849718,-7.133170428294134,-2.6003211397768933,4.42738622553152,0.26949838648791447,0.5344942460267645,0.29521559766235456
1765408470.849968,-7.07037119674602,-2.6197661500923632,4.3742951408444055,0.27042720250216434,0.5403802925898256,0.29466128561808497
1765408470.850218,-7.022034749721847,-2.6337742284276935,4.331305267527428,0.27127802716967975,0.546140485806663,0.2941824204814076
1765408470.850468,-6.990983375159495,-2.641610053902902,4.300341115499113,0.272029806201099,0.5517770523125088,0.29382192330201984
1765408470.850741,-6.979496446828285,-2.6426315989060787,4.282802376359043,0.2726664580085768,0.557293472427601,0.2936176445558477
1765408470.850991,-6.989111555000708,-2.636322289245492,4.279426937165531,0.2731773685447453,0.5626968856971383,0.2936020935001575
1765408470.851241,-7.020475683329086,-2.6223258292936706,4.290210891761181,0.2735577164249546,0.5680003012409945,0.2938022051972439
1765408470.851491,-7.073261355730627,-2.6004807401902306,4.314393166095868,0.2738085843400674,0.573224281342648,0.29423905459390715
1765408470.852013,-7.146153510461389,-2.570851203373329,4.350504276129647,0.27393681821287924,0.5783978500620202,0.29492746242358064
1765408470.852263,-7.236903725408884,-2.5337504851956827,4.396470139979943,0.2739546028645182,0.5835584423964444,0.295875480001021
1765408470.852513,-7.342441542449625,-2.4897532221445955,4.449755031970873,0.2738787465743243,0.5887507599688631,0.2970837865870928
1765408470.852763,-7.459029236503831,-2.4396931673746893,4.5075250705655705,0.2737297067523619,0.5940244844543312,0.2985450749001096
1765408470.853452,-7.582446174791169,-2.3846437490592645,4.566815294308985,0.2735304198708354,0.5994309475543294,0.300243528026075
1765408470.853702,-7.708190774600029,-2.3258803842057456,4.624687603418358,0.2733050063798022,0.6050190394024683,0.302154507514632
1765408470.853952,-7.831690803543421,-2.2648261614904013,4.678371728489123,0.27307742160085413,0.610830795012737,0.3042445834211031
1765408470.854202,-7.948515489338358,-2.2029856595346073,4.725386128882572,0.2728701331743652,0.6168971873014815,0.3064720294438436
1765408470.853728,-8.05458473144403,-2.1418740476295,4.7636398365995385,0.2727029155428779,0.6232346719776659,0.3087878612516775
1765408470.854061,-8.146370457632715,-2.0829492327012757,4.791518375317484,0.2725918425595407,0.6298429767908291,0.3111374195980669
1765408470.854395,-8.22108226293096,-2.0275535582886084,4.807955583351368,0.2725485273086262,0.63670448790049,0.31346242000995334
1765408470.854771,-8.276825234736886,-1.9768690564464848,4.81248904939155,0.27257962145646786,0.6437853582767753,0.31570333287641045
1765408470.855021,-8.312715121245756,-1.931887443775296,4.805292607097534,0.2726865651034104,0.651038197936767,0.3178019327194367
1765408470.855271,-8.328936954039593,-1.8933937527441167,4.787177544499421,0.27286557530552785,0.6584059779150878,0.3197038587206195
1765408470.855521,-8.32673795514303,-1.8619610155224475,4.759555689047163,0.273107866157779,0.665826637128551,0.32136104335133925
1765408470.855742,-8.308352112429677,-1.837952640662883,4.724361229055221,0.27340009538617593,0.6732378333529409,0.3227338795340788
1765408470.855992,-8.276859729960425,-1.8215288858541792,4.683932139240883,0.2737250258225875,0.680581316684781,0.32379301182046305
1765408470.856242,-8.235989369823654,-1.8126541372050697,4.640855459344609,0.2740623723800664,0.687806515488998,0.32452066189550755
1765408470.856492,-8.189872726880813,-1.8111025632175508,4.597784080673111,0.27438978318386875,0.694873098060986,0.32491143543156153
1765408470.856765,-8.142766764645742,-1.8164610307820261,4.557236977430141,0.27468389045643743,0.7017524738223687,0.32497260160349406
1765408470.857015,-8.098762471257137,-1.828129822725796,4.521399697119162,0.27492136624165153,0.708428365954599,0.32472387896658644
1765408470.857265,-8.061504775908777,-1.8453234741161517,4.491946318778577,0.27507992148774846,0.7148966674708765,0.32419678691561465
1765408470.857515,-8.033951504909055,-1.8670755357208129,4.469906565743238,0.27513918717438357,0.721164769467182,0.3234336173084646
1765408470.857766,-8.018198705083382,-1.8922516958282956,4.455600166269914,0.275081415120509,0.7272504590649363,0.32248604844011813
1765408470.858016,-8.015393829413837,-1.9195749904284893,4.448653013297258,0.27489194277053625,0.7331803931962795,0.32141338608639153
1765408470.858266,-8.025747320313675,-1.9476648535727774,4.448097037074697,0.27455939199474466,0.7389881189111459,0.3202804032525042
1765408470.858516,-8.048638951608774,-1.9750891683606306,4.452541547770373,0.2740756192359099,0.7447116319366208,0.3191547775644955
1765408470.858835,-8.082800846004629,-2.000426199705002,4.460391602495786,0.2734354854528837,0.7503905024600518,0.31810418456800793
1765408470.859085,-8.126547546383353,-2.022331893422021,4.470080822226008,0.27263654441921104,0.7560626373462837,0.31719317288862275
1765408470.859335,-8.17801744801141,-2.039607433389045,4.480283603490294,0.2716787496048845,0.7617608257530741,0.31648000641811475
1765408470.859585,-8.23539045042062,-2.051261787608554,4.490075625596542,0.2705642603575659,0.7675093474956557,0.3160137032429559
1765408470.859685,-8.297053446049546,-2.056564127153704,4.4990209529425504,0.2692973916689828,0.773321062164441,0.3158315195808997
1765408470.860018,-8.361696325309135,-2.055081674621906,4.5071763725577565,0.26788470416733273,0.779195461921815,0.3159571063316841
1765408470.860352,-8.428333612793514,-2.0466998830475913,4.515016291899573,0.26633519036359055,0.7851181085397456,0.3163995079276802
1765408470.860728,-8.496258088804021,-2.0316236793846656,4.523292909453093,0.2646604973551416,0.791061687254309,0.31715308983309154
1765408470.860978,-8.564941566992214,-2.0103603719283596,4.5328552387521555,0.26287513356969366,0.7969886472139648,0.31819838259888755
1765408470.861228,-8.633903990631778,-1.9836862204936954,4.54445524920056,0.2609966205097565,0.8028551305147276,0.31950373131094856
1765408470.861478,-8.702574864354519,-1.9525993475415433,4.558568850725479,0.2590455551374728,0.8086156838337745,0.32102756060717236
1765408470.861687,-8.770170479035933,-1.9182618630682455,4.575254611713257,0.2570455437549339,0.8142281464180382,0.3227210239912522
1765408470.861937,-8.835606516098716,-1.8819343609488062,4.594065759518366,0.2550229631863656,0.8196581302557348,0.3245308055740508
1765408470.862187,-8.897459395041313,-1.8449066298991093,4.614022556538634,0.25300650795973073,0.8248826334745528,0.32640187254448694
1765408470.862437,-8.9539828291449,-1.8084292097019055,4.633644286612324,0.2510264982322597,0.8298925215157313,0.32828002288591224
1765408470.862692,-9.003179681237789,-1.773650841055563,4.651034991371442,0.24911395580749943,0.8346938146439372,0.3301141264075973
1765408470.862942,-9.042923324466535,-1.7415668163198363,4.664015149208385,0.2472994961985246,0.839307848356306,0.33185800894627193
1765408470.863192,-9.071116956550934,-1.7129827961470405,4.670290316076853,0.24561211117884782,0.8437703736855305,0.3334719593129965
1765408470.863442,-9.085874375378207,-1.688497457337199,4.667645024172702,0.24407791756906758,0.8481295935891232,0.3349238328092651
1765408470.863768,-9.085703054034349,-1.6685048982123842,4.654146522213842,0.24271893936029354,0.8524431115652765,0.33618970375009133
1765408470.864018,-9.069670640384789,-1.6532143339232552,4.628340436691904,0.2415519895836029,0.8567738581270276,0.33725402011327976
1765408470.864268,-9.037538537863682,-1.6426814622757209,4.589419925243619,0.24058772144658053,0.8611852037706411,0.33810925089529964
1765408470.864518,-8.989849797087173,-1.6368441522727712,4.537350517433628,0.23982991377866214,0.8657355821435972,0.33875507407592303
1765408470.864762,-8.927962499695667,-1.6355550904824037,4.472934385966785,0.23927504977548086,0.8704730266864993,0.33919720835714445
1765408470.865012,-8.854024114753646,-1.6386053045317373,4.397801767272711,0.23891225054602103,0.8754301089704929,0.3394460352729894
1765408470.865262,-8.770887041864535,-1.6457347413650087,4.314325159857145,0.23872362246388013,0.8806198513685235,0.3395151846166791
1765408470.865512,-8.681970567058062,-1.6566291648631621,4.225462903101543,0.2386850454268941,0.8860331987854054,0.3394202578257175
1765408470.865765,-8.591079223843877,-1.6709060189469997,4.1345493107197395,0.2387673702674376,0.8916385129666641,0.3391778361529824
1765408470.866098,-8.502191217959831,-1.6880945608759488,4.045055083593425,0.2389379383821904,0.8973833096175501,0.33880486498612755
1765408470.866432,-8.419232545253596,-1.7076166508122235,3.960343163784564,0.23916230772912406,0.9031981538219177,0.3383184325967857
1765408470.866743,-8.345853006834117,-1.728773991287025,3.883442931604902,0.2394060609025242,0.9090023223015457,0.33773589016344796
1765408470.866993,-8.285220079676996,-1.7507459883697358,3.816861258868792,0.239636567438705,0.9147105827161214,0.3370752097941621
1765408470.867243,-8.239845445085855,-1.7726005790062154,3.762443049658361,0.23982457256681985,0.9202402875314487,0.33635545381401444
1765408470.867493,-8.211456747701817,-1.793318723459894,3.721287718163449,0.23994549983939328,0.9255179823703711,0.3355972223038664
1765408470.867738,-8.20092440562271,-1.8118316976197832,3.693723758870647,0.23998039214453495,0.9304848925165516,0.33482295086408825
1765408470.867988,-8.208250340118648,-1.8270687890899202,3.6793417621375424,0.2399164654543041,0.9351009122071486,0.33405695521312107
1765408470.868238,-8.232621489092894,-1.8380118589300505,3.677084392071585,0.2397472912402495,0.9393469595565942,0.33332516715594357
1765408470.868488,-8.272524965172602,-1.8437528534749448,3.6853870632628167,0.23947264138763627,0.9432256830136293,0.33265455655696435
1765408470.868828,-8.325914172764453,-1.843550537100207,3.7023557399694798,0.2390980314442261,0.9467605328041713,0.3320722598462902
1765408470.869078,-8.390407806228605,-1.8368827629620061,3.725961807142984,0.2386340048781142,0.9499932430511032,0.3316044393630216
1765408470.869328,-8.463498248371414,-1.823490087194046,3.7542308066055567,0.2380952150905656,0.9529798690032477,0.3312749051195579
1765408470.869578,-8.542743851901832,-1.8034058994636477,3.7854017143963476,0.23749936721946824,0.9557856639722211,0.33110355895149507
1765408470.869889,-8.62592180831982,-1.7769683780950984,3.8180358573224686,0.23686607895721343,0.9584792149837951,0.33110476967491137
1765408470.870139,-8.711125020864733,-1.7448109814219057,3.8510610781087466,0.23621572705383306,0.9611263712354601,0.3312858448374661
1765408470.870389,-8.796796536043146,-1.7078306605174205,3.883748425235658,0.23556836047381305,0.9637845893622261,0.3316458058160716
1765408470.870639,-8.881705986053385,-1.6671359219664048,3.9156323091149297,0.2349427566737567,0.9664983451709955,0.3321746705736908
1765408470.870858,-8.964881078651555,-1.6239796633118486,3.946394987839556,0.23435566834274407,0.9692961658225533,0.33285339676310177
1765408470.871108,-9.045512020415183,-1.579683825899604,3.975739649297939,0.23382127476855416,0.9721896019801209,0.3336545556690292
1765408470.871358,-9.122848475895038,-1.535563884384243,4.003274952825222,0.233350828244131,0.9751741425305854,0.3345437117201924
1765408470.871608,-9.196107862175518,-1.4928607323343566,4.028429691671022,0.23295246699306765,0.9782317693280097,0.3354813832964714
1765408470.871759,-9.264410022425182,-1.4526857536591706,4.050409210489856,0.23263114972916038,0.9813346249756183,0.33642537690582713
1765408470.872009,-9.326747115487406,-1.4159822555231427,4.068196513581962,0.2323886634555535,0.9844491586475989,0.3373332417815732
1765408470.872259,-9.381991541065815,-1.383503647472061,4.080594708123525,0.23222367339695327,0.987540149811138,0.3381645981988362
1765408470.872509,-9.428940934792388,-1.3558066020472097,4.086305790462005,0.232131812165211,0.9905741739703164,0.3388831460085641
1765408470.872712,-9.466396672370331,-1.3332564746343716,4.084040355535375,0.23210582441646968,0.9935222728515911,0.3394582354258302
1765408470.873045,-9.4932688224828,-1.3160421880864055,4.072649100085291,0.23213578741646984,0.9963617115253209,0.33986594357859434
1765408470.873379,-9.508696107146156,-1.3041976459247049,4.051261061166774,0.23220943056036503,0.9990767354896513,0.34008963019153393
1765408470.873784,-9.512165987152473,-1.2976259534184835,4.019410188955652,0.23231258248820483,1.001658269409419,0.3401199630087882
1765408470.874034,-9.503618885626839,-1.2961218196231987,3.9771329384080474,0.23242976093308007,1.0041025935040278,0.3399544389201893
1765408470.874284,-9.483522129628449,-1.299387638096439,3.925022935449734,0.23254487303118357,1.006409178750578,0.3395964885855188
1765408470.874534,-9.452903302973493,-1.30704046177319,3.8642330860053162,0.2326419410394048,1.0085780178326387,0.33905432130826063
1765408470.874822,-9.413338668980202,-1.3186097685011156,3.79642206189999,0.23270575271509608,1.0106069403662425,0.33833971180859407
1765408470.875072,-9.366898446820121,-1.3335284391872535,3.723651131183899,0.23272235856550974,1.0124895165027885,0.3374669276819321
1765408470.875322,-9.316055194834705,-1.3511211467583608,3.6482454911775073,0.23267936738954853,1.0142141417815376,0.33645194556504615
1765408470.875572,-9.263564042526179,-1.3705953917999012,3.5726382165941435,0.2325660141860643,1.0157646831056295,0.3353120270525509
1765408470.875731,-9.212325043458089,-1.3910406773145854,3.4992147998931498,0.2323730079557167,1.0171227005851426,0.33406564551394746
1765408470.875981,-9.165238793438304,-1.4114404292309422,3.4301737463795328,0.23209221508531688,1.0182708897670356,0.33273268443459947
1765408470.876231,-9.125065497326808,-1.4306990706315077,3.367413987908714,0.23171626921082206,1.0191971269273898,0.33133477361146846
1765408470.876481,-9.09429443034647,-1.4476836704201705,3.312453424578924,0.23123820172854148,1.0198983790815872,0.32989560114654476
1765408470.876765,-9.075027249954031,-1.4612768069878326,3.2663778347744614,0.23065117693642828,1.0203837671823308,0.32844104867424945
1765408470.877015,-9.068877344663708,-1.4704355644300122,3.2298185254644975,0.22994841136686134,1.020676236935356,0.32699904723734313
1765408470.877265,-9.076888339859027,-1.4742512533419962,3.202958445671482,0.22912333859888984,1.0208125275312017,0.3255991200465153
1765408470.877515,-9.099476097512921,-1.4720052537497106,3.185565462707672,0.2281700259894502,1.0208413405896137,0.324271629108727
1765408470.87768,-9.136398772612985,-1.4632175115850206,3.1770471919091663,0.22708378691853146,1.0208197817277314,0.32304675857997694
1765408470.87793,-9.186758580865837,-1.4476847689878707,3.1765177537625577,0.22586190920675803,1.0208083313775782,0.32195326608661595
1765408470.87818,-9.249037015546262,-1.4255052742908307,3.1828660624196057,0.22450443197194392,1.020864819637039,0.3210170394984757
1765408470.87843,-9.321162752517578,-1.3970862470060028,3.194817351168525,0.22301490554334275,1.0210380773759924,0.3202595227731256
1765408470.878661,-9.400609047521455,-1.3631309745984408,3.2109830053442003,0.22140105663317317,1.0213620618236905,0.31969612186217417
1765408470.878994,-9.484515235960185,-1.32460451565786,3.2298976615301904,0.21967528746537426,1.0218512975513685,0.31933475642847103
1765408470.879328,-9.569824964373277,-1.282679851521709,3.250046711100367,0.21785496555271813,1.0224983987987268,0.3191747525740576
1765408470.879767,-9.653432442254296,-1.2386690460089125,3.269890825729804,0.2159624727578868,1.023274182914715,0.3192062524926112
1765408470.880017,-9.732327698130966,-1.1939461939834806,3.2878951620458294,0.21402496393951412,1.0241304536242568,0.319410259112992
1765408470.880267,-9.803732287195054,-1.149870467598437,3.302568610460444,0.21207376814082943,1.0250050504372699,0.31975935951406104
1765408470.880517,-9.865217619300592,-1.10771782205205,3.3125137223846983,0.21014338129153767,1.0258283828564227,0.3202190878374675
1765408470.880691,-9.914799048142697,-1.0686283566797148,3.316482758795579,0.2082700492919131,1.0265304889980806,0.32074980112246004
1765408470.880941,-9.951000820557622,-1.033573088216188,3.3134321382896714,0.206490006907534,1.0270476949880227,0.32130886998876645
1765408470.881191,-9.97289070160362,-1.0033398192049396,3.3025687365624044,0.2048375084198194,1.0273281583157845,0.3218529582732515
1765408470.881441,-9.980087903599468,-0.9785341190170511,3.2833867554050933,0.20334284615566905,1.027335853775406,0.3223401916778788
1765408470.881725,-9.972751471201379,-0.959589441115397,3.255698988942324,0.2020305745262236,1.0270527916360235,0.3227320716057038
1765408470.881975,-9.951556452953199,-0.9467805928234142,3.2196663867546236,0.2009181208249285,1.0264793994133656,0.32299503840760524
1765408470.882225,-9.91766232279645,-0.9402363620183177,3.1758246488357194,0.2000148920358834,1.0256330988550435,0.3231016150929517
1765408470.882475,-9.87267430466245,-0.9399486253775035,3.125100792780024,0.19932192230104642,1.0245452351336228,0.32303108676416775
1765408470.882708,-9.818595258702004,-0.9457760342299817,3.0688101438633963,0.1988320623547646,1.0232566754152708,0.32276970947062666
1765408470.882958,-9.75776409244893,-0.9574410798059151,3.008625010679135,0.19853067494151788,1.0218125558780249,0.3223104927474182
1765408470.883208,-9.692776470020418,-0.974520915892761,2.9465092525907877,0.1983967637153486,1.0202567939316756,0.3216526547559501
1765408470.883458,-9.626385713396825,-0.9964346304731748,2.884618522894443,0.19840443529353433,1.0186270745330668,0.32080089479056356
1765408470.883792,-9.561386660276325,-1.022431661363531,2.825174316185706,0.19852457168043114,1.0169510205801913,0.3197646405719312
1765408470.884042,-9.500491327281923,-1.0515868679359341,2.770327976461753,0.19872656775665654,1.0152441152964407,0.3185573930692076
1765408470.884292,-9.446209353379754,-1.0828072067773913,2.7220340263745144,0.19897998288096,1.0135096558451213,0.3171962292168355
1765408470.884542,-9.400745971832336,-1.1148532673753955,2.6819488870389634,0.19925598654386187,1.011740648958727,0.31570146584601
1765408470.884771,-9.365925764770816,-1.1463765689575476,2.651363291809238,0.19952852892563802,1.009923211756456,0.31409644748964566
1765408470.885021,-9.343143812421367,-1.1759710908897165,2.631167698335266,0.19977520054217923,1.0080408005766208,0.31240738768173637
1765408470.885271,-9.33334005583953,-1.2022355186998812,2.621843068309183,0.19997775559248795,1.006078507142288,0.31066316689935375
1765408470.885521,-9.336990284275196,-1.223841403709596,2.623467534453039,0.20012229177990118,1.0040267353581538,0.3088949856375432
1765408470.88578,-9.354108406867784,-1.239601991972704,2.63573272450732,0.20019911923439482,1.0018837472665596,0.3071357996047365
1765408470.886113,-9.384257347575007,-1.2485369331747835,2.657967512577642,0.20020238927210507,0.9996567614863059,0.305419511658524
1765408470.886447,-9.426567822393,-1.2499290968286594,2.6891677725098715,0.20012957067562265,0.9973614589705514,0.3037799320995279
1765408470.886759,-9.479765316361638,-1.2433704710943958,2.7280296281453085,0.19998086859464992,0.9950199149184631,0.3022495330220054
1765408470.887009,-9.542206548029428,-1.22879399404025,2.7729842468126717,0.19975868651652884,0.9926571578040488,0.3008580289734282
1765408470.887259,-9.611927224902816,-1.2064876456358935,2.822234270589023,0.19946721247492835,0.9902967482232797,0.2996308347409662
1765408470.887509,-9.686702086094629,-1.1770874576168917,2.87379284479713,0.19911215811745084,0.987955939056566,0.2985874881376174
1765408470.887779,-9.764116701684522,-1.1415479436397578,2.9255259387327692,0.19870063042109443,0.9856410989612507,0.29774017419756615
1765408470.888029,-9.841650041307156,-1.1010911768443998,2.9751999971410372,0.1982410997159864,0.9833441383085763,0.2970925244970809
1765408470.888279,-9.916767987047232,-1.0571382192155852,3.0205403507098234,0.1977434205754349,0.9810406399052589,0.2966388645517338
1765408470.888529,-9.987028976922673,-1.0112284158104108,3.0593076690445433,0.19721883560885678,0.9786902173374641,0.29636404243679637
1765408470.888778,-10.050201596409135,-0.9649334492452984,3.089396527533372,0.1966798642596241,0.9762392855394693,0.29624391672136435
1765408470.889028,-10.104389870021178,-0.9197739270428699,3.1089525934946454,0.19613998307645472,0.9736259999738959,0.29624652192459167
1765408470.889278,-10.148156801827893,-0.8771460372676763,3.116497032043794,0.19561304276340277,0.9707867301239805,0.2963338538344463
1765408470.889528,-10.180632220146563,-0.838264149772542,3.1110417478220023,0.19511242199340179,0.9676631848011347,0.2964641262498961
1765408470.889747,-10.201588767973785,-0.804122580582715,3.092178128626791,0.19464998087594024,0.9642092439543062,0.29659427375965913
1765408470.889997,-10.211471294568854,-0.7754767746261146,3.060125474826185,0.19423494530052454,0.9603966697176339,0.29668244532874133
1765408470.890247,-10.211370196494759,-0.7528415446342581,3.0157327282948976,0.19387290258651255,0.9562191158746486,0.29669026045959573
1765408470.890497,-10.202936974793978,-0.7365023738828458,2.960435284616237,0.193565083303119,0.9516941247024223,0.2965846637733043
1765408470.89078,-10.188248299964158,-0.7265355059757376,2.896173657237756,0.19330804306380067,0.9468629975255479,0.29633928324657344
1765408470.89103,-10.169631696506805,-0.7228331573578602,2.8252820187848853,0.1930937844925926,0.9417885457360363,0.2959352498887174
1765408470.89128,-10.149470731926499,-0.7251306733923297,2.750355010598125,0.19291030718832303,0.9365508410283628,0.2953614695760422
1765408470.89153,-10.130009721328841,-0.7330323098794498,2.6741022939922883,0.19274253229343943,0.9312412296426404,0.29461436583061984
1765408470.891683,-10.11317707063149,-0.7460322068502789,2.599200323420832,0.19257350011655197,0.9259550357286868,0.29369715266995977
1765408470.891933,-10.100442720281155,-0.7635280318707495,2.5281482903756953,0.19238569895828023,0.9207835310169342,0.29261874842246993
1765408470.892183,-10.092720019512804,-0.7848268432302327,2.4631325658283565,0.1921623768601119,0.9158058960521409,0.2913924854553281
1765408470.892433,-10.090317811331063,-0.8091450719204432,2.405904969852231,0.1918887106070002,0.9110820161224034,0.29003478799350835
1765408470.892843,-10.092945692159502,-0.8356061452808572,2.3576845500164274,0.19155273093831185,0.9066469597405993,0.28856397368253744
1765408470.893093,-10.099773293441073,-0.8632398590482381,2.319095757980005,0.1911459215208794,0.9025078179524437,0.28699929073298236
1765408470.893343,-10.109541003402255,-0.8909874382214178,2.29015423260108,0.1906634388252809,0.8986432709867803,0.2853602453008609
1765408470.893593,-10.120714152822234,-0.9177156387287646,2.2703052556038714,0.19010394912521628,0.8950058878835627,0.2836662141216101
1765408470.893815,-10.131666549013454,-0.9422422533599475,2.2585120342225005,0.1894691312341512,0.8915268368669717,0.2819362839335406
1765408470.894148,-10.140874147045485,-0.9633738316799132,2.2533830161242587,0.1887629295872421,0.8881224320370302,0.2801892268602941
1765408470.894482,-10.147096971160023,-0.9799543554597939,2.2533206074755037,0.18799065900275103,0.884701784354157,0.27844352215871326
1765408470.894793,-10.149528055597756,-0.9909215073840361,2.2566705032305547,0.18715807036090126,0.8811747815754877,0.2767173628990718
1765408470.895043,-10.147892308316033,-0.9953656694000903,2.2618537283330027,0.18627049400142576,0.8774597027732485,0.2750286212790087
1765408470.895293,-10.142484628686004,-0.9925862784564826,2.2674709022677466,0.18533217888115439,0.8734899332761242,0.2733947722763032
1765408470.895543,-10.134143637300792,-0.9821406598470326,2.2723754035686716,0.1843459240340959,0.8692193852770079,0.27183278381159465
1765408470.896852,-10.124164401853882,-0.9638816485796311,2.2757160220424817,0.1833130508350641,0.8646262799779717,0.27035897087549904
1765408470.897102,-10.114160855061618,-0.9379816414080597,2.2769514361668435,0.18223371045840522,0.8597149501915027,0.2689887878241094
1765408470.897352,-10.105895568095262,-0.9049415788726023,2.2758407331914134,0.18110748258702833,0.854515386198959,0.267736509943879
1765408470.897602,-10.10109891493415,-0.8655835332697733,2.2724161869713058,0.17993419573937358,0.8490804320117417,0.2666147485153205
1765408470.896895,-10.101299305021264,-0.8210255412951452,2.2669446198145082,0.17871486889521362,0.8434808062710276,0.2656337653920341
1765408470.897145,-10.107681595703617,-0.7726377923711802,2.2598813375576583,0.17745263790557536,0.8377983954886064,0.2648006004641658
1765408470.897395,-10.120985061587152,-0.721980656746525,2.251818127062944,0.1761535118876506,0.8321184951796268,0.26411808458493974
1765408470.897645,-10.141447628360996,-0.6707272415806103,2.2434263234185132,0.17482682296905355,0.8265218245431707,0.2635838688625937
1765408470.897706,-10.168798956309134,-0.6205757833931026,2.2353971333497924,0.17348527746015316,0.821077179442308,0.26318963908309917
1765408470.897956,-10.20230009902223,-0.5731594575793331,2.2283828685314853,0.17214456851638368,0.8158354981096186,0.2629206786577372
1765408470.898206,-10.240822095905024,-0.5299622196871135,2.2229438557282464,0.1708225700322366,0.810825913650757,0.2627559000138099
1765408470.898456,-10.282951412830952,-0.4922486567887424,2.2195061155741396,0.16953820395803795,0.8060541024288509,0.2626684138229937
1765408470.898767,-10.327108084704209,-0.4610137583855121,2.2183340149168917,0.16831013794801403,0.8015029507280449,0.26262665793424284
1765408470.899017,-10.371663462037418,-0.43695555813363174,2.2195202511125416,0.1671554969051769,0.7971352868585583,0.262596041976839
1765408470.899267,-10.415047721494076,-0.42047034402814,2.2229930234590594,0.16608875635345297,0.7928981941123209,0.2625409730635241
1765408470.899517,-10.455840498723003,-0.4116671756946222,2.2285367228788093,0.16512094562582408,0.7887282665801393,0.26242704518903615
1765408470.899703,-10.492839704350047,-0.41039622699936734,2.2358183217207435,0.16425923796372355,0.7845571303237525,0.262223139778632
1765408470.899953,-10.525104482698751,-0.4162843035719524,2.244409283655281,0.1635069488733689,0.7803166468586794,0.2619032132601746
1765408470.900203,-10.5519697749584,-0.42877108096491606,2.2537947608698934,0.16286391242341247,0.7759434185463533,0.2614476269260062
1765408470.900453,-10.573032609984601,-0.4471412641140959,2.263367906463539,0.1623271640346676,0.7713824483109641,0.2608439716439242
1765408470.900686,-10.58811394568012,-0.4705505146944579,2.272414486011894,0.1618918267645096,0.7665899813252903,0.2600874187430942
1765408470.900936,-10.597204187703186,-0.49804569640564883,2.2800985218386822,0.16155207705878014,0.761535628281296,0.25918066903549114
1765408470.901186,-10.600404267892674,-0.5285818234458138,2.285461577325365,0.1613020606598662,0.7562038472107446,0.2581335744339468
1765408470.901436,-10.597875625447855,-0.5610385865657439,2.287446063932927,0.16113664110085163,0.7505947849464887,0.25696248246983133
1765408470.901784,-10.589810348922175,-0.5942386421886848,2.2849476241699116,0.16105188956245312,0.7447244003301247,0.25568932632829844
1765408470.902034,-10.576427270399797,-0.6269686906362467,2.276895101688835,0.1610452628159645,0.7386237489185689,0.25434047943116767
1765408470.902284,-10.557992672382003,-0.6580035376250823,2.2623504647371337,0.16111545716468645,0.7323373197183205,0.25294541937002535
1765408470.902534,-10.534857993197875,-0.6861331631190953,2.2406160373772113,0.1612619609310911,0.7259203757841135,0.2515352763809677
1765408470.902696,-10.507503289831542,-0.7101930544102754,2.2113330301657093,0.1614843575044076,0.7194353548889196,0.2501413539708984
1765408470.902946,-10.476574462566703,-0.7290982229673378,2.1745546879081346,0.1617814623111542,0.712947523325853,0.2487937050999846
1765408470.903196,-10.44290387390993,-0.7418810422553022,2.1307804975288818,0.16215040640415224,0.7065202200736022,0.2475198350123261
1765408470.903446,-10.407507653675339,-0.7477320988372875,2.0809446557001605,0.16258579481674357,0.7002101393775367,0.24634358332500772
1765408470.903754,-10.371557935675643,-0.746041782463978,2.0263603114710955,0.16307906406374112,0.6940631424510497,0.2452842177372015
1765408470.904087,-10.336332970771496,-0.7364390144437315,1.9686281919862507,0.16361814276681086,0.6881110546788908,0.24435576022217073
1765408470.904421,-10.303151115007793,-0.7188230775795054,1.9095225118461858,0.16418748622020551,0.6823698009346226,0.24356656861178433
1765408470.904728,-10.27329595212871,-0.6933851388274304,1.8508686283058684,0.16476851313375257,0.676839063421139,0.24291920060374883
1765408470.904978,-10.247940119420589,-0.6606172544424534,1.7944263868411698,0.1653404245303708,0.6715034310514912,0.2424105727261808
1765408470.905228,-10.228075498842964,-0.6213077027373031,1.7417910697318268,0.16588133572229313,0.6663347993301004,0.24203238801194119
1765408470.905478,-10.214457196673171,-0.5765219494657862,1.6943207660340864,0.16636960845569093,0.6612956349451623,0.24177176433744108
1765408470.905746,-10.20756731747991,-0.5275685835632155,1.6530948181566902,0.16678523738046908,0.6563426556930104,0.241611978195923
1765408470.905996,-10.207601214365303,-0.4759499637759929,1.6189023585175693,0.16711112886730353,0.6514304671954656,0.2415332545810146
1765408470.906246,-10.214474074138627,-0.4232988421622408,1.5922532948056598,0.1673341188329185,0.6465147238824642,0.2415135695585038
1765408470.906496,-10.227841209103318,-0.3713046986097382,1.5733988243855368,0.1674456148622864,0.6415544583607066,0.2415294641195424
1765408470.906738,-10.247123572503309,-0.3216357607612416,1.5623478260075236,0.16744180981511095,0.6365133752911719,0.24155687463122966
1765408470.906988,-10.271531847560857,-0.27586350304792645,1.5588703563692834,0.16732348178482936,0.631360122910019,0.2415719652198748
1765408470.907238,-10.300086818653053,-0.2353955771467668,1.5624874308017802,0.16709545283488236,0.6260677784563775,0.24155192387345184
1765408470.907488,-10.331638109238519,-0.20142131711667294,1.5724532414435097,0.16676581908384996,0.6206129425818565,0.241475680142114
1765408470.907761,-10.364885887411797,-0.17487201489677298,1.5877398252470876,0.16634508565248124,0.614974897972206,0.24132451828320575
1765408470.908011,-10.398410472465983,-0.1563965022603564,1.6070352410029713,0.1658453408609047,0.6091352493894796,0.24108258202202465
1765408470.908261,-10.430713375295115,-0.14635130845701957,1.6287649799458255,0.16527958108244845,0.6030783268495948,0.24073728369631467
1765408470.908511,-10.460270668861828,-0.14480372260101498,1.65114220401178,0.16466124695383055,0.5967924076806821,0.2402796301249593
1765408470.908761,-10.485596478322417,-0.1515452647712371,1.6722460171480829,0.16400396493329553,0.5902715545909091,0.23970445769116064
1765408470.909011,-10.505311807034786,-0.16611230186656717,1.6901208906878504,0.1633214353648661,0.583517678068411,0.2390105500563082
1765408470.909261,-10.518212499564907,-0.18781026821806376,1.7028871624062465,0.16262738813388367,0.5765423803189567,0.23820061783251073
1765408470.909511,-10.523330089722378,-0.21573870336596,1.708852381271576,0.16193552924221957,0.5693682021679553,0.23728114485227675
1765408470.909729,-10.519980765994818,-0.248815951787281,1.7066144667314307,0.16125941059974191,0.5620290005288694,0.23626212195390245
1765408470.909979,-10.507800612114751,-0.2858040499160595,1.6951492048423413,0.16061217237284342,0.554569289204396,0.23515668394984132
1765408470.910229,-10.486768760072458,-0.3253353486694095,1.6738771539913209,0.16000613624264962,0.5470424956993072,0.23398065386663353
1765408470.910479,-10.45722249513413,-0.36594271197844885,1.642708675248678,0.15945226064299983,0.5395082437979252,0.2327519997982832
1765408470.910733,-10.419868036953673,-0.4060949757002272,1.6020684374898673,0.15895949646167454,0.5320289318843585,0.2314902251472527
1765408470.910983,-10.375787358130873,-0.4442388283306697,1.5529003033125177,0.15853410455812514,0.5246659710303821,0.2302157262197007
1765408470.911233,-10.326436704375181,-0.47884718203328674,1.4966508142883073,0.15817901608068455,0.5174760532123844,0.22894914826607157
1765408470.911483,-10.273628964715018,-0.5084725477944162,1.4352271769480847,0.15789332491683278,0.5105077796582977,0.22771076019254988
1765408470.9117,-10.219491147353468,-0.5318026694462947,1.3709251339824786,0.1576719890610426,0.5037989244012036,0.22651986643381267
1765408470.91195,-10.166390102439761,-0.5477153357108133,1.3063234752944493,0.15750578855399228,0.4973745330915473,0.22539428034602207
1765408470.9122,-10.116824028687814,-0.5553295414760776,1.244145487613729,0.1573815592965349,0.49124596555547734,0.2243498817168117
1765408470.91245,-10.073283548531192,-0.554050248909154,1.1870934694037,0.15728270387662696,0.4854109100873024,0.22340026819431125
1765408470.912696,-10.038092646434476,-0.5436038129040845,1.137668933495768,0.1571899638224153,0.4798543357051375,0.2225564961404693
1765408470.912946,-10.013244410652584,-0.5240612268263901,1.0979954071149844,0.15708241425423514,0.4745502805334193,0.2218268970016552
1765408470.913196,-10.000248116603883,-0.4958469638496312,1.0696611862429992,0.15693861866355874,0.46946428789647704,0.22121695024607377
1765408470.913446,-10.000003392412133,-0.45973198233198587,1.053597059772071,0.15673786594722217,0.46455622770863053,0.22072919114375616
1765408470.913672,-10.012715290922511,-0.4168101009787401,1.0500009445391871,0.15646140067596018,0.4597832240192693,0.22036313169636684
1765408470.913922,-10.037861029537435,-0.3684575492862236,1.058317906729358,0.156093550279247,0.4551024575996882,0.2201151813208299
1765408470.914172,-10.074214031456982,-0.3162763405697964,1.0772790913633485,0.15562265634468736,0.45047368566120544,0.2199785753716377
1765408470.914422,-10.119924123215783,-0.26202337804102144,1.1049968017208003,0.15504173164354884,0.4458613744300033,0.21994334935029006
1765408470.914718,-10.172646262215629,-0.20752899969366245,1.1391070850105076,0.15434878366115937,0.4412363651328332,0.21999642131025665
1765408470.914968,-10.229705313795174,-0.15461083617671323,1.1769466152631587,0.15354677221905416,0.43657700918603903,0.220121850061045
1765408470.915218,-10.288281106189363,-0.10499061317002675,1.2157471720389674,0.15264321047697613,0.431869728314616,0.22030131077061277
1765408470.915468,-10.345596247405851,-0.06022175974907792,1.252829038167595,0.15164947074742308,0.4271089785004135,0.22051477395527347
1765408470.915683,-10.399089520970998,-0.021633893453778773,1.285775269948115,0.1505799057197067,0.4222966228098284,0.2207413126507662
1765408470.915933,-10.446560040212681,0.009702962433470384,1.3125719460976732,0.14945093076356256,0.41744075656373697,0.22095992607047335
1765408470.916183,-10.486271026072798,0.032995056094805734,1.3317040914973595,0.14828022473966404,0.412554081788696,0.22115026727002704
1765408470.916433,-10.517006774717833,0.04772582672023731,1.3422024492148756,0.1470861867161811,0.40765198106542505,0.2212931896471151
1765408470.916755,-10.538081984590114,0.05364581223018829,1.3436423367595365,0.14588773424163665,0.40275047397220337,0.22137106928872002
1765408470.916955,-10.549308177986642,0.050756472702707556,1.336101313687106,0.1447044571552229,0.3978642456249086,0.22136790167771855
1765408470.917155,-10.550926137048284,0.03929239489736371,1.3200859053678466,0.1435570652653254,0.39300491839053037,0.22126920270142011
1765408470.917355,-10.543515562156808,0.019705507543774967,1.2964387708296916,0.1424680008609902,0.3881796931895904,0.22106176983511222
1765408470.917555,-10.527893864501241,-0.007346551622904377,1.2662370300434924,0.14146203741880425,0.38339042164539183,0.22073338203379222
1765408470.917714,-10.505015349331636,-0.04100796233945125,1.230690689049713,0.14056666666121595,0.3786331148726676,0.22027252339792294
1765408470.917964,-10.47588000110572,-0.08023037412038256,1.1910477789314367,0.13981209878792145,0.3738978809321327,0.2196681966203177
1765408470.918214,-10.441458145757592,-0.12378022733765859,1.148510665342201,0.13923076026322911,0.36916930433249756,0.21890985725745704
1765408470.918464,-10.402634712305485,-0.17025141381551273,1.1041668950793335,0.13885624810833574,0.3644272999873225,0.21798746796465246
1765408470.918665,-10.360175507199415,-0.21808627266186542,1.05893817838714,0.1387217707924868,0.3596484647360571,0.2168916571395434
1765408470.918915,-10.314717205376546,-0.2656070171547038,1.013551497862656,0.1388581681145751,0.35480790968431786,0.21561396841734384
1765408470.919165,-10.266781268896194,-0.3110587567811243,0.9685352495553923,0.13929165226023468,0.3498814926889126,0.21414718869369806
1765408470.919415,-10.216809200993346,-0.35266408527007154,0.9242404116502501,0.14004144397775178,0.3448482943869445,0.21248572871505667
1765408470.919769,-10.165213091811069,-0.3886876450435686,0.8808830400546782,0.1411174931471596,0.3396931116120579,0.21062601192076016
1765408470.920019,-10.11243239311468,-0.41750751918490847,0.8386009629159201,0.14251847822626976,0.33440869372905324,0.20856682249630915
1765408470.920269,-10.058986281920271,-0.43768923586084224,0.7975149516984474,0.14423027352687612,0.3289974305645319,0.20630957095821806
1765408470.920519,-10.005511660031859,-0.44805771125280497,0.7577836027219426,0.14622505002669364,0.3234722286895424,0.2038584396641217
1765408470.920744,-9.952780063950488,-0.4477623581763139,0.719642636915344,0.1484611311266034,0.3178563977119574,0.20122036689701642
1765408470.920994,-9.90169172662846,-0.43633059506105887,0.6834234528290113,0.1508836643507609,0.3121825049082407,0.19840482880601842
1765408470.921244,-9.85324985987058,-0.41370507598084655,0.6495509230315797,0.15342610408381496,0.3064903140934475,0.1954233988608766
1765408470.921494,-9.808521023789643,-0.3802603570703783,0.6185241257897164,0.15601243910086215,0.30082405492027886,0.19228910575446617
1765408470.921781,-9.768587843580427,-0.3367957826466524,0.5908849257866606,0.1585600447767916,0.2952293351001304,0.1890156540022486
1765408470.922031,-9.734499658868652,-0.2845033280074304,0.5671792895791503,0.16098298918698298,0.2897500100613463,0.18561659377005302
1765408470.922281,-9.707226328098345,-0.22491172324431502,0.547916454273886,0.16319557225907155,0.2844252871905746,0.18210452179980496
1765408470.922531,-9.687620348004483,-0.15981068482828273,0.533531513145366,0.16511583692322163,0.27928728503314176,0.17849037614062319
1765408470.922699,-9.676391650217512,-0.09116081234403552,0.5243566273752406,0.16666878168209262,0.2743592000934481,0.17478286975770788
1765408470.922949,-9.674097057196532,-0.020995567877114676,0.5206042217307498,0.167789041661481,0.2696541620178784,0.1709881006539063
1765408470.923199,-9.681142614982074,0.04867789423463474,0.52236221243846,0.16842288346629364,0.2651747868454937,0.16710937527736708
1765408470.923449,-9.697793307924885,0.11597228203228199,0.5295976156453707,0.16852945131166142,0.2609133692958035,0.1631472748413515
1765408470.923694,-9.72418285479457,0.17920191935407287,0.5421627259736255,0.16808128332872588,0.2568525938749018,0.15909997371506165
1765408470.923944,-9.76031718039351,0.23694779999786142,0.5597986869586193,0.16706417801254764,0.2529666020372364,0.15496379020754064
1765408470.924194,-9.806067899160782,0.28810282931678616,0.5821339083426786,0.1654765304671604,0.24922224255675285,0.15073391964785512
1765408470.924444,-9.861155236633355,0.33189605941019085,0.6086774791281313,0.1633282765250461,0.24558036236600655,0.1464052748311878
1765408470.924751,-9.925122558504432,0.3678964331776198,0.6388095552296359,0.1606395813376437,0.24199705303342006,0.14197334899784708
1765408470.924951,-9.997307425706962,0.3959978617822722,0.6717722770204776,0.1574393913667147,0.23842482682919142,0.1374350212233101
1765408470.925151,-10.07681683833871,0.416388409696574,0.7066663739589238,0.15376394045605396,0.2348137411102752,0.13278923410476687
1765408470.925351,-10.162515680272923,0.4295070281139313,0.7424589888179531,0.14965526819535818,0.2311125210081779,0.12803748834160453
1765408470.925551,-10.253035927346518,0.4359916514183953,0.7780063811633284,0.1451597779049326,0.2272697420341558,0.12318412389378489
1765408470.925698,-10.346810429989924,0.43662260803306663,0.8120920863780964,0.14032683911348282,0.2232351149567808,0.11823638876230913
1765408470.925948,-10.442130809897042,0.43226529780684425,0.8434785662880736,0.13520743387585493,0.2189608716787568,0.11320432351770388
1765408470.926198,-10.537225305635216,0.42381588360489814,0.8709687291074311,0.12985285881957076,0.21440320745081892,0.10810050623960639
1765408470.926448,-10.630349352312713,0.4121531628499579,0.8934723218537566,0.12431351096660959,0.2095237090894724,0.10293970621204747
1765408470.926722,-10.719879491740155,0.39809881131458646,0.910071137746438,0.11863778709289759,0.20429068485393193,0.0977384872199199
1765408470.926972,-10.804400463979036,0.38238700761510885,0.92007676614228,0.11287111383801039,0.19868029341167961,0.09251479025599492
1765408470.927222,-10.882776205427191,0.3656433370553829,0.9230752193130799,0.10705511796124025,0.1926773500179143,0.08728751645313329
1765408470.927472,-10.954197471324871,0.3483721563282677,0.9189536889840874,0.1012269568890326,0.18627569437474717,0.08207612003178481
1765408470.927706,-11.018201360794366,0.3309514359529237,0.9079058727740374,0.09541884984649213,0.1794780567592344,0.07690020394752627
1765408470.927906,-11.07466097821874,0.31363429946821647,0.8904143014097131,0.08965785665508187,0.17229544489313878,0.07177909679779004
1765408470.928106,-11.123746724221768,0.29655665913089885,0.8672110747573397,0.08396593208994953,0.16474615942692897,0.06673139371380578
1765408470.928306,-11.165863927006736,0.27975026892996524,0.8392217443473585,0.07836024863485125,0.1568546017272932,0.06177446839619455
1765408470.928506,-11.201574157128723,0.2631602604511652,0.8074997680175746,0.0728537522843439,0.1486500529489577,0.05692399189984947
1765408470.928728,-11.23150902986456,0.24666607584164343,0.7731600655689194,0.06745590731739909,0.14016557983754446,0.05219350902883193
1765408470.928978,-11.256285200354432,0.23010486264287916,0.7373191210645111,0.06217358790462166,0.1314371688521331,0.04759412352579023
1765408470.929228,-11.276427778408227,0.2132967036447699,0.7010461574742072,0.05701206983447737,0.12250312374015308,0.04313433863592785
1765408470.929478,-11.292307261188116,0.19607105624808532,0.6653265626520867,0.051976059228526106,0.11340370659811504,0.038820096503319884
1765408470.92973,-11.30409305400361,0.1782931497987971,0.6310364356369176,0.0470706761280711,0.10418097374109679,0.034655051916154846
1765408470.92993,-11.311725170062898,0.15988814876746274,0.5989263911919122,0.04230230031335102,0.09487875236082279,0.030641090655508022
1765408470.93013,-11.314904953365442,0.14086037960278777,0.569613225059019,0.037679189807163345,0.08554270835203193,0.026779059284456112
1765408470.93033,-11.313105468181712,0.12130523620412137,0.5435788126526656,0.03321180064221275,0.07622045705978038,0.02306962922447527
1765408470.93053,-11.305601891730783,0.10141223004832069,0.5211757553908923,0.028912768163876664,0.06696166259305729,0.01951419188545015
1765408470.930694,-11.291521205778388,0.08145858511376547,0.5026385206216967,0.024796549640537915,0.05781806466596805,0.016115675535726764
1765408470.930894,-11.269908765172252,0.06179372581923374,0.4880978255158855,0.02087876774283619,0.04884337523627022,0.012879181654900105
1765408470.931094,-11.239807592663121,0.04281606846552805,0.47759565857679265,0.017175328262339657,0.040093001721112645,0.009812357930943651
1765408470.931294,-11.20034505660795,0.024944485405187518,0.47109869840985286,0.013701408667395474,0.03162357129808966,0.006925460114257606
1765408470.931494,-11.150820912325248,0.008587186822316467,0.46850841603377447,0.010470425285575785,0.0234922459230471,0.004231100689999983
1765408470.93172,-11.090790281693309,-0.005889618421083045,0.469666522221601,0.00749308726270203,0.015755830441862274,0.0017437217341134187
1765408470.93192,-11.02013509865752,-0.018191591382232006,0.4743549447505284,0.004776634046154157,0.00846968913846699,-0.0005211559511883988
1765408470.93212,-10.939118191289165,-0.02812318137919733,0.4822905437444659,0.002324327915280431,0.0016865028364083164,-0.0025478659980503813
1765408470.93232,-10.84841549263645,-0.035609628396585456,0.49311610081710816,0.00013523839076182777,-0.004545080094028403,-0.004321683306645301
1765408470.93252,-10.749123455759324,-0.04071147770416411,0.506390209042297,-0.001795678369979166,-0.010181828854357025,-0.005830024726252252
1765408470.932681,-10.642740292260154,-0.04362912256306659,0.5215792475352642,-0.0034772273979040563,-0.015187281008279404,-0.007063687881650274
1765408470.932931,-10.531121176521566,-0.04469588169604681,0.5380546472742134,-0.004921389401735632,-0.019533000208618093,-0.00801801717255069
1765408470.933181,-10.416409126511002,-0.04435947523012454,0.5550981229818007,-0.0061425558564491495,-0.023199688958919114,-0.0086938757390291
1765408470.933431,-10.300944928261535,-0.04315283331145054,0.5719164832537403,-0.007156655052141797,-0.02617809936698684,-0.009098319755731244
1765408470.933758,-10.187161358231881,-0.04165580991551823,0.5876663913524536,-0.007980256900968642,-0.02846967807181618,-0.009244901650454539
1765408470.933958,-10.077469063282837,-0.04044997016114381,0.6014884714707102,-0.008629755940057991,-0.030086884781948927,-0.009153556023868461
1765408470.934158,-9.974143206364637,-0.04006961374150582,0.6125494045155621,-0.009120729658760495,-0.031053139649132554,-0.008850043675074946
1765408470.934358,-9.879220486274301,-0.040953569448469805,0.6200897043094545,-0.009467548047471354,-0.03140238068097976,-0.008364956376882206
1765408470.934558,-9.794414950378542,-0.04340347268362001,0.6234736047743593,-0.009683271019438309,-0.03117824483793018,-0.007732329754292463
1765408470.934723,-9.721058456349493,-0.04755444818318649,0.6222364166217116,-0.00977982095784495,-0.030432918435291213,-0.0069879723845434295
1765408470.934973,-9.660068360802585,-0.053362833430431036,0.6161243658918433,-0.009768370884156007,-0.02922572530371723,-0.006167679079784412
1765408470.935223,-9.61194160645831,-0.06061280284149994,0.6051223613523121,-0.009659857303828174,-0.027621530998332946,-0.005305530566462547
1765408470.935473,-9.576771407641449,-0.06894021715583984,0.5894660812726829,-0.009465517410786455,-0.02568904199509541,-0.004432469233640137
1765408470.935688,-9.554280803451062,-0.07786903750547405,0.5696360405268144,-0.009197360378751945,-0.023499074393739973,-0.003575276418511097
1765408470.935888,-9.543866827273442,-0.08685440242903468,0.5463329068639974,-0.00886850240641161,-0.021122855016491176,-0.002755981949924539
1765408470.936088,-9.544649811279697,-0.0953272044786552,0.5204352911401762,-0.008493316367802482,-0.01863039831462721,-0.0019916521943905236
1765408470.936288,-9.555523941551948,-0.10273682389152493,0.4929433413914121,-0.00808736652564562,-0.016088985009430845,-0.0012944636165184728
1765408470.936488,-9.575207038474863,-0.10859022472909804,0.4649132746032352,-0.00766711734781739,-0.01356176270446335,-0.0006719790902744232
1765408470.936752,-9.602289079748305,-0.11248604540150735,0.4373890121546484,-0.007249424125810125,-0.011106489869279949,-0.0001275779165185176
1765408470.936952,-9.63527977313031,-0.11414182348948011,0.4113371865695272,-0.006850834525195543,-0.008774441958677218,0.0003389839215432004
1765408470.937152,-9.672655473333215,-0.11341205452387686,0.38759110330895047,-0.006486756457601813,-0.006609494016944003,0.0007309039544222271
1765408470.937352,-9.712905224752665,-0.11029522418878307,0.366807899111267,-0.006170574105041399,-0.0046473977514694086,0.0010535882433775024
1765408470.937552,-9.754575043523143,-0.10492924054341986,0.34944124795275144,-0.005912810534387093,-0.0029152818615582254,0.0013138788397724073
1765408470.937722,-9.796308976506769,-0.09757610667473954,0.33572997078791433,-0.005720436065267669,-0.0014314106157519207,0.0015193022135344487
1765408470.937922,-9.836885214473956,-0.08859762356993071,0.3257014644941077,-0.005596408401971306,-0.0002052303013400156,0.0016773792311830522
1765408470.938122,-9.87524571499884,-0.07842443450565588,0.31918817571904773,-0.005539507901619472,0.0007622808443611137,0.0017950329672838006
1765408470.938322,-9.910518252388314,-0.06752117541905087,0.3158549390008769,-0.005544500896879645,0.0014779619200461927,0.0018781333994959295
1765408470.938522,-9.94203025042256,-0.05635098438009669,0.3152344359328399,-0.005602627351051652,0.001955541573607139,0.0019312164442144312
1765408470.938733,-9.96931408718017,-0.045342848492543365,0.31676751935135494,-0.0057023719067127296,0.002214477982562199,0.0019573973624761706
1765408470.938933,-9.992103985639954,-0.03486486426665692,0.31984518204688694,-0.0058304468621051585,0.002278628792679523,0.001958468573923038
1765408470.939133,-10.01032517718997,-0.025205434057898674,0.32384952078646667,-0.005972896325677492,0.002174825084452581,0.0019351444533276824
1765408470.939333,-10.024076461855751,-0.01656313289835151,0.3281915773960623,-0.006116224309018113,0.0019314296432178587,0.001887403079895942
1765408470.939533,-10.03360737527457,-0.009045001800881653,0.3323440881040752,-0.006248454570119925,0.0015769590700702013,0.0018148768032833526
1765408470.939776,-10.039291140991097,-0.0026725489737864094,0.3358672814471048,-0.006360041241838833,0.0011388413647584125,0.0017172494859114627
1765408470.939976,-10.041594783110781,0.002605540726899344,0.3384264022857551,-0.006444560526132312,0.0006423689890206643,0.001594619051797292
1765408470.940176,-10.041048131953778,0.006895471537808963,0.3398005547469841,-0.006499125351697536,0.00010989504215895205,0.0014477810745233204
1765408470.940376,-10.038213612891045,0.01033730605728308,0.33988337282913866,-0.006524483972099731,-0.0004396961276066479,0.0012783943114466594
1765408470.940576,-10.033658515166954,0.013083344298074152,0.33867675174893297,-0.0065247945261886105,-0.0009912376766181706,0.0010890110244085567
1765408470.940691,-10.027931022141566,0.015278256925812268,0.3362793499432139,-0.006507105208201185,-0.0015332722923059618,0.0008829862430068458
1765408470.940891,-10.02154073194857,0.017042782265994514,0.3328715957255412,-0.006480602242213895,-0.0020578344190319477,0.0006643023916946792
1765408470.941091,-10.014943728006301,0.018462217184873266,0.3286984140988613,-0.0064557069529954545,-0.0025600777331527737,0.00043734874294671457
1765408470.941291,-10.008531701415787,0.019580432961932938,0.3240502802272454,-0.006443108854772585,-0.0030377992531963683,0.00020668579752884238
1765408470.941491,-10.002624499218976,0.02039963810354432,0.3192431168914469,-0.006452818988525954,-0.0034909031769383516,-2.3184553436711407e-05
1765408470.941682,-9.99746569394762,0.020885497350436308,0.31459792964836414,-0.006493320415831719,-0.003920838654378511,-0.0002480263930078093
1765408470.941882,-9.993220906336278,0.02097654653651045,0.31042128460362334,-0.006570880348539074,-0.004330039159055375,-0.0004640401149019619
1765408470.942082,-9.989978523935939,0.02059630938309959,0.30698752400425555,-0.006689069608680396,-0.004721390400496497,-0.0006679852234790975
1765408470.942282,-9.987752460252526,0.01966635250304604,0.3045233807160894,-0.006848512185059264,-0.005097756902043286,-0.0008572513859343145
1765408470.942482,-9.9864868614805,0.01811876454424897,0.30319569154562154,-0.007046866033325365,-0.005461595713495046,-0.0010298800856101955
1765408470.942723,-9.986062938806167,0.01590700365186364,0.30310301073343743,-0.007279020305128846,-0.005814674975771574,-0.0011845444452632124
1765408470.942923,-9.986308152560031,0.01301444090223044,0.30427181490542426,-0.007537482968855887,-0.0061579020646222995,-0.0013204975742015226
1765408470.943123,-9.98700784060577,0.009460132674451848,0.30665765545552087,-0.007812921653716769,-0.006491257870746609,-0.0014374994552342176
1765408470.943323,-9.987919128870937,0.005301461441025045,0.31015113775437886,-0.008094808252019902,-0.006813827755891753,-0.0015357300962054073
1765408470.943523,-9.98878658433661,0.0006334065047767346,0.31458808840097763,-0.008372109447734559,-0.007123911274534973,-0.0016156947560235137
1765408470.943692,-9.989358681652677,-0.0044155791811442,0.3197628683810463,-0.008633966285158974,-0.007419184874805035,-0.0016781261093598153
1765408470.943892,-9.989403909257332,-0.009690792573591062,0.3254435688027745,-0.008870315995812745,-0.007696889782979111,-0.0017238872934506703
1765408470.944092,-9.988725232662691,-0.015020981162695861,0.33138769039006793,-0.00907242428468396,-0.007954021183170396,-0.0017538794325794634
1765408470.944292,-9.987171617681277,-0.020229672179135127,0.3373568306084944,-0.009233310916655095,-0.008187502155121923,-0.0017689592570541068
1765408470.944492,-9.984645519945836,-0.02514717073868806,0.343129045734153,-0.009348060677409288,-0.008394334748780862,-0.0017698759070072707
1765408470.944709,-9.9811057836135,-0.029622196975293946,0.3485080207844793,-0.009414013389281137,-0.008571727554639034,-0.0017572365389272365
1765408470.944909,-9.9765661128966,-0.03353209212360982,0.3533288163668214,-0.009430824582978847,-0.008717200939529808,-0.0017315051296682305
1765408470.945109,-9.971089911727221,-0.036790584459607964,0.35746053017672774,-0.009400390356584912,-0.008828669994760327,-0.0016930306802735418
1765408470.945309,-9.964782689434177,-0.039352321070108956,0.36080658875706395,-0.009326640075360477,-0.008904506173870563,-0.0016420952220498005
1765408470.945509,-9.957783377686534,-0.041213740991394646,0.36330353992307624,-0.009215215249071365,-0.008943582120061258,-0.0015789708176976536
1765408470.945733,-9.950255765186267,-0.04241034528972781,0.36491914308516377,-0.009073063905893854,-0.00894530666127686,-0.0015039763653378036
1765408470.945933,-9.942380836290901,-0.043010886203135125,0.36565029282116085,-0.008907982693324651,-0.008909656174403702,-0.0014175278476535804
1765408470.946133,-9.934350224693173,-0.04310928052356513,0.36552094574174626,-0.008728137789147876,-0.008837205673408661,-0.0013201800367729963
1765408470.946333,-9.926360496221147,-0.042815095027288766,0.36457988947597353,-0.008541595787021185,-0.008729160529983054,-0.0012126624124335673
1765408470.946533,-9.918607790478006,-0.04224337500907736,0.3628980859049955,-0.008355895444489132,-0.008587388872209884,-0.0010959134346682213
1765408470.946723,-9.91128254265147,-0.04150454284931291,0.36056550831852185,-0.008177686792626798,-0.008414454123992086,-0.000971113976302087
1765408470.946923,-9.904564346258324,-0.040695119742787486,0.35768764053553415,-0.008012457426642049,-0.00821364469972327,-0.0008397159455304066
1765408470.947123,-9.89861716810686,-0.03989005694822919,0.35438181073779007,-0.007864360331943853,-0.007988994051362726,-0.0007034591662025027
1765408470.947323,-9.893585017160936,-0.03913741178946783,0.35077334654188075,-0.0077361517343500835,-0.007745282271540457,-0.0005643688035348526
1765408470.947523,-9.889588044024705,-0.0384559007164633,0.3469914830766205,-0.007629237548298576,-0.007488011210467242,-0.0004247268201642703
1765408470.947714,-9.886719096809703,-0.03783551559788458,0.34316510677394785,-0.007543814090013841,-0.007223345330242551,-0.0002870143926291599
1765408470.947914,-9.885040898274807,-0.037241003971041624,0.33941852991243715,-0.007479078168280799,-0.006958008666326081,-0.0001538272731469317
1765408470.948114,-9.884584107487095,-0.03661771460718028,0.335867474524862,-0.0074334769893517555,-0.006699128167468905,-2.7771016362307873e-05
1765408470.948314,-9.885346592287773,-0.03589913531239759,0.33261547176230055,-0.007404967961988067,-0.006454019387619959,8.865410110625817e-05
1765408470.948514,-9.887294233449213,-0.035015353929625,0.32975095942351074,-0.007391259913780412,-0.006229920126777016,0.00019316849520844672
1765408470.948687,-9.890363362922878,-0.03390162692348896,0.32734525870081327,-0.007390012078546048,-0.006033686447443352,0.00028381991173362614
1765408470.948887,-9.894464539002975,-0.03250625945136183,0.32545133952878674,-0.007398978224943388,-0.005871472788415997,0.0003590716995936908
1765408470.949087,-9.899487079699165,-0.03079708602834119,0.3241031593960527,-0.007416097570868567,-0.0057484252330439155,0.0004178621269760501
1765408470.949287,-9.905303789333278,-0.028765981290474585,0.3233154982853564,-0.007439544683972434,-0.005668420861711384,0.0004596256327669012
1765408470.949487,-9.911775460916388,-0.026431055518931337,0.32308436264085216,-0.007467753412832327,-0.005633879820623199,0.0004842719079059758
1765408470.949676,-9.918754842195254,-0.023836503409953337,0.3233880212385393,-0.007499426296025711,-0.005645661179361872,0.0004921255912679236
1765408470.949876,-9.92608985815992,-0.021050370546813853,0.324188663515355,-0.007533534677784053,-0.0057030387877786744,0.0004838358537420156
1765408470.950076,-9.933626011326153,-0.018160653358156427,0.32543458027985533,-0.007569309363094383,-0.005803746376977218,0.00046026934743081694
1765408470.950276,-9.941207921415469,-0.015270154046784048,0.32706257157940083,-0.007606218979727957,-0.005944080115943975,0.00042240169488706687
1765408470.950476,-9.948679956369775,-0.012490471715155006,0.3290001162470436,-0.007643934284961798,-0.006119047570633422,0.0003712233830336514
1765408470.950673,-9.95588608791037,-0.009935496316653813,0.33116700002817345,-0.007682281307151637,-0.006322554044800679,0.00030767553783078385
1765408470.950873,-9.962669500708799,-0.00771478980449151,0.333476563373831,-0.007721191549428303,-0.006547620843868523,0.00023262691464261693
1765408470.951073,-9.968872761475463,-0.005927275145011033,0.33583707836421783,-0.00776065941532353,-0.00678663350492569,0.00014689475047527248
1765408470.951273,-9.97433928226095,-0.004655682293819452,0.33815376896536553,-0.007800714136593821,-0.007031619908014808,5.1302717664024526e-05
1765408470.951473,-9.978916537151692,-0.003962166936859353,0.34033180970037086,-0.007841407687075422,-0.007274556717771338,-5.323631920370338e-05
1765408470.95167,-9.982461200055802,-0.0038853857628321805,0.3422803924293626,-0.007882814594757662,-0.007507695031913961,-0.00016562625587474342
1765408470.95187,-9.984846029127388,-0.004439121339226759,0.34391757522261407,-0.007925036776904293,-0.007723883092000759,-0.00028449580048287606
1765408470.95207,-9.98596791731325,-0.005612388037594397,0.3451752495348764,-0.007968206731265321,-0.007916853139517002,-0.00040812238001044013
1765408470.95227,-9.9857562410616,-0.007370864302900956,0.3460035163280035,-0.008012483408045976,-0.00808143894797495,-0.0005343853535095338
1765408470.95247,-9.984180593637571,-0.009659462386292665,0.34637406778105495,-0.008058035122227407,-0.0082136999727056,-0.0006607593050777945
1765408470.95265,-9.98125707952209,-0.01240582190261823,0.34628243039781176,-0.008105003818420265,-0.008310942401424836,-0.0007843530021878849
1765408470.95285,-9.97705247054312,-0.015524485433715972,0.3457489121771873,-0.008153447058489966,-0.008371644511320081,-0.0009019932562478401
1765408470.95305,-9.97168573647536,-0.018921493253909148,0.3448180405591327,-0.008203259555025731,-0.008395311633163344,-0.0010103474264368884
1765408470.95325,-9.965326744228893,-0.022499115020492937,0.3435563823404178,-0.008254084386806818,-0.00838229751431912,-0.001106075132597799
1765408470.95345,-9.958192079034689,-0.02616039465059503,0.3420487639863488,-0.008305232313423882,-0.008333628316312644,-0.0011859986219757046
1765408470.953711,-9.950537933452031,-0.02981313387007147,0.340392965615916,-0.008355630949757721,-0.00825085723775249,-0.0012472806153176247
1765408470.953911,-9.942650092082353,-0.03337295768408578,0.33869312885782865,-0.008403820407116564,-0.008135969411634187,-0.0012875973306744645
1765408470.954111,-9.934831373303522,-0.03676524380590435,0.33705244231523823,-0.008448000376069884,-0.007991348317093083,-0.001305293472759814
1765408470.954311,-9.927387236924764,-0.03992589678057614,0.3355658217477274,-0.00848612261117107,-0.007819802873444645,-0.001299506945244765
1765408470.954511,-9.9206103631685,-0.04280110301808984,0.3343131015765338,-0.008516018342797232,-0.007624640397803521,-0.0012702543345623114
1765408470.954737,-9.914765009154486,-0.0453462941317581,0.3333530471652612,-0.008535551068667876,-0.007409759487497226,-0.0012184721294330977
1765408470.954937,-9.910072147226881,-0.047524619488164395,0.332718644868668,-0.008542784469608516,-0.007179730306795074,-0.0011460109659295835
1765408470.955137,-9.90669664952487,-0.04930530438825867,0.33241436979430994,-0.008536149114329452,-0.006939828038321692,-0.001055580525275762
1765408470.955337,-9.90473769347722,-0.05066231276243741,0.3324159436485763,-0.008514585047268888,-0.006695991536417912,-0.0009506433601320184
1765408470.955537,-9.90422310169652,-0.05157369061949992,0.33267253117923445,-0.008477637469136096,-0.006454696128131283,-0.0008352597971618203
1765408470.955701,-9.905107927104705,-0.052021817602656346,0.33311097487163427,-0.008425490939546122,-0.0062227513442901115,-0.0007138927300372578
1765408470.955901,-9.907277464895406,-0.051994575764361756,0.3336417552420284,-0.0083589402354972,-0.006007048017756216,-0.0005911866193615068
1765408470.956101,-9.91055471455382,-0.05148722560607869,0.3341664304314937,-0.008279308922874033,-0.0058142772680894435,-0.0004717370627077151
1765408470.956301,-9.91471184671146,-0.05050460813335028,0.33458599654580684,-0.008188336641436462,-0.005650633579706831,-0.00035986807241597296
1765408470.956501,-9.919484672629553,-0.04906319436380104,0.3348092398770924,-0.008088061186686965,-0.005521508883696676,-0.00025943601352751764
1765408470.956717,-9.924588866749394,-0.04719251345637169,0.3347601884093482,-0.007980720764069797,-0.005431189278385859,-0.0001736798748330141
1765408470.956917,-9.929736770432548,-0.044935627656672875,0.3343841137209771,-0.007868694690227203,-0.0053825744461528,-0.00010513300858057722
1765408470.957117,-9.934653706000255,-0.042348542847115256,0.33365176346618036,-0.0077544879561731095,-0.005376944490576606,-5.5601028054638695e-05
1765408470.957317,-9.939092728292534,-0.03949865268080775,0.3325615485390099,-0.007640749710524867,-0.005413799527843781,-2.61979133665507e-05
1765408470.957517,-9.942846811501703,-0.03646244272466157,0.33113953241933103,-0.007530303083290934,-0.00549079622892595,-1.742204004503309e-05
1765408470.957704,-9.945757732349632,-0.033322718633539715,0.32943731897207346,-0.007426158362097086,-0.005603800177676086,-2.924874618119433e-05
1765408470.957904,-9.947721235222962,-0.030165583374053798,0.3275280675219023,-0.007331484629146224,-0.005747060589405713,-6.121764639718635e-05
1765408470.958104,-9.94868834480385,-0.02707730233851513,0.32550086330004463,-0.007249524547907323,-0.005913499553666955,-0.00011250050933472272
1765408470.958304,-9.948663069401848,-0.024141126307223724,0.3234538666522415,-0.007183449829398064,-0.006095099142955906,-0.0001819452865306479
1765408470.958504,-9.94769730735944,-0.021434145178257202,0.3214871451571896,-0.007136167757403377,-0.006283365241866471,-0.00026809897400422936
1765408470.958691,-9.945884236571066,-0.019024304678393927,0.31969639781391856,-0.007110098921932248,-0.006469838461223057,-0.0003692147927224297
1765408470.958891,-9.943351428781478,-0.01696778451602708,0.3181684780795685,-0.007106951431773977,-0.006646608698649524,-0.00048325003310185503
1765408470.959091,-9.940254400943726,-0.015306977912130761,0.3169788998409844,-0.007127518088954589,-0.006806781187797053,-0.0006078624178121946
1765408470.959291,-9.936770698788449,-0.014069297750872026,0.3161908803449783,-0.0071715216818442245,-0.006944847327914577,-0.0007404143837349443
1765408470.959491,-9.933094204745975,-0.013266945061942944,0.3158551780546036,-0.007237530234379073,-0.00705693067068608,-0.000877993312761625
1765408470.95978,-9.929429197280175,-0.012897649098029863,0.3160099826094064,-0.007322958983044951,-0.007140899326239296,-0.0010174505541452668
1765408470.95998,-9.925983728894401,-0.012946274676280421,0.3166803685325281,-0.0074241692874786975,-0.007196355124033225,-0.0011554565690744202
1765408470.96018,-9.922962111527022,-0.01338709445060928,0.3178772317664628,-0.007536665934390744,-0.007224522035209408,-0.001288568224954208
1765408470.96038,-9.920556561729583,-0.014186443587025359,0.31959592918055724,-0.007655382060250709,-0.007228058041434477,-0.001413307719744017
1765408470.96058,-9.918938220679257,-0.015305449694844486,0.3218148938777071,-0.0077750260256272945,-0.007210809501706466,-0.0015262567180901888
1765408470.960815,-9.918247886801733,-0.016702567251229896,0.3244944529390937,-0.007890451782082633,-0.0071775232528519676,-0.0016241693314000786
1765408470.961015,-9.918587005918392,-0.018335686435675326,0.32757608125738014,-0.00799700940841232,-0.007133532004466909,-0.0017041025006803222
1765408470.961215,-9.920009683202672,-0.02016360195821525,0.33098233497152807,-0.008090837603465253,-0.007084429535368987,-0.001763555348098884
1765408470.961415,-9.92251655365812,-0.022146670774778547,0.33461769053239687,-0.008169072201421471,-0.007035751664951863,-0.0018006049604189277
1765408470.961615,-9.926051261499632,-0.024246610115903268,0.3383705599883166,-0.008229959478660816,-0.006992677848962138,-0.0018140275838730375
1765408470.961753,-9.930500083192248,-0.026425549142829293,0.3421167846495558,-0.008272876017477615,-0.006959764882877232,-0.0018033997046148177
1765408470.961953,-9.935694791404151,-0.02864456070629595,0.3457246525088963,-0.00829826559113368,-0.0069407159360152975,-0.001769178226175337
1765408470.962153,-9.941418213969328,-0.030861941684707878,0.3490609304811423,-0.008307507803088409,-0.006938179285327568,-0.0017127593028287353
1765408470.962353,-9.947411452994976,-0.03303153603342354,0.35199699425293624,-0.008302735373824695,-0.006953570527172201,-0.0016365117035609818
1765408470.962553,-9.953381770130978,-0.035101426091134445,0.3544142331417151,-0.008286619406747537,-0.0069869205624393,-0.001543776164437872
1765408470.962676,-9.959010637230875,-0.03701330468275983,0.3562083255162876,-0.008262144562292814,-0.007036760034317724,-0.0014388201800159645
1765408470.962876,-9.963962004642651,-0.03870276620405536,0.35729235810245924,-0.008232396442064346,-0.007100052783359649,-0.001326739015586624
1765408470.963076,-9.967891231050219,-0.04010067642272632,0.3575990466571929,-0.008200379403888715,-0.0071721894778361515,-0.001213297506315403
1765408470.963276,-9.970455348894935,-0.04113571365834873,0.35708257638931984,-0.008168874538422377,-0.007247051599200666,-0.0011047124212207437
1765408470.963476,-9.971325322927628,-0.04173805175352181,0.3557206399438445,-0.008140337650321098,-0.007317153110894686,-0.0010073808453145365
1765408470.963679,-9.970200574879133,-0.04184396273305776,0.35351693482685376,-0.008116830362417445,-0.007373861173987339,-0.0009275644865990095
1765408470.963879,-9.966825472840299,-0.041400950033685165,0.3505039269778572,-0.008099976352463508,-0.00740769300013269,-0.0008710422891444358
1765408470.964079,-9.961007086931373,-0.04037296178562415,0.34674546575431275,-0.008090937360229247,-0.00740868586288765,-0.0008427466219815086
1765408470.964279,-9.952633357579003,-0.03874526080698617,0.3423388506908686,-0.008090406377517317,-0.007366835471667941,-0.0008464044251961464
1765408470.964479,-9.941690627204723,-0.03652859762025797,0.3374159536827684,-0.008098616795521766,-0.007272588684274702,-0.0008842122654347965
1765408470.964697,-9.928279091235998,-0.03376240795493998,0.33214291795490164,-0.008115366333199973,-0.007117363256768345,-0.0009565778555412172
1765408470.964897,-9.912624294714073,-0.030516779296836372,0.32671787515919365,-0.008140053141026045,-0.006894057139635593,-0.0010619572948657452
1765408470.965097,-9.895082553692749,-0.026892867611740135,0.3213660617246106,-0.00817171947423379,-0.006597506151077751,-0.0011968095331360603
1765408470.965297,-9.876138211956915,-0.02302136012082244,0.31633171016762707,-0.008209098668487716,-0.006224852528389648,-0.0013556814042378009
1765408470.965497,-9.856391026853867,-0.019058595369797746,0.31186633301988215,-0.008250664830067363,-0.005775797450387131,-0.0015314288131357422
1765408470.965683,-9.836532757425195,-0.015180126660467183,0.30821360911664764,-0.00829468845573045,-0.005252723837188227,-0.0017155701997327098
1765408470.965883,-9.817313097610802,-0.01157179560902584,0.30559178443872337,-0.008339301775690155,-0.0046606852892427985,-0.0018987567658809552
1765408470.966083,-9.79949631392633,-0.008418668624337948,0.3041750022743865,-0.008382574986837922,-0.0040072612155411195,-0.002071333049923656
1765408470.966283,-9.783811341038081,-0.005892419699948706,0.3040752973525205,-0.008422600891691681,-0.003302280736909828,-0.0022239536772016987
1765408470.966483,-9.770899719535722,-0.004137929555468757,0.30532731651744865,-0.008457583136773677,-0.002557421619045467,-0.002348215103679161
1765408470.966779,-9.76126732538286,-0.0032601175018321985,0.30787812917484436,-0.008485923484942546,-0.0017856943839543854,-0.002437249870336497
1765408470.967029,-9.755246597346794,-0.0033124990300646296,0.3115845312238696,-0.008506305519080205,-0.0010008269170657183,-0.0024862161420460857
1765408470.967279,-9.752975151999046,-0.004289622363991522,0.31621976448558514,-0.008517773842129876,-0.00021657750336356808,-0.002492609688087194
1765408470.967529,-9.754394073036666,-0.006125760528759774,0.3214902190277646,-0.00851980767871702,0.0005539735074849272,-0.0024563458455775077
1765408470.967743,-9.759265411439506,-0.008701197243279923,0.32706039251630925,-0.008512384842458464,0.0012990831169189675,-0.002379607205125302
1765408470.967943,-9.76720482035653,-0.011855208030955442,0.33258213579004603,-0.00849602661587335,0.002008884789257927,-0.002266504921376665
1765408470.968143,-9.777723075627266,-0.01540270403689649,0.33772359924242706,-0.008471810647509062,0.002675755342948597,-0.0021226265381076603
1765408470.968343,-9.790270034478484,-0.019150919387082133,0.3421945824400783,-0.008441344055844848,0.0032944836352357255,-0.0019545334869445676
1765408470.968543,-9.804275744546251,-0.022913798449786554,0.34576646771569897,-0.008406700590171585,0.0038622367883888098,-0.0017692479375351743
1765408470.970222,-9.819184878761018,-0.026523782305763004,0.34828511657969674,-0.008370330939463303,0.004378338562026878,-0.0015737584782199595
1765408470.970422,-9.834482181603455,-0.029841756530929464,0.3496750103786226,-0.008334947653996887,0.004843897022616069,-0.0013745873315057782
1765408470.970622,-9.849708608748497,-0.03276514883004196,0.34993445096326226,-0.008303378188331427,0.005261346759801401,-0.0011774784464913075
1765408470.970822,-9.864470049425737,-0.03523270925583576,0.3491244055379947,-0.008278385383763302,0.005633990922067348,-0.0009872484698722165
1765408470.971022,-9.878441674707826,-0.03722444323588365,0.34735506485125056,-0.00826246911635379,0.005965616937305338,-0.0008077850383432794
1765408470.970275,-9.891370339061414,-0.038756968793209605,0.3447731660016835,-0.008257670771874693,0.006260215047019606,-0.0006421280297857299
1765408470.970475,-9.90307587278017,-0.039876393623979475,0.3415509908360393,-0.008265399389382498,0.006521782121885536,-0.0004925779583912626
1765408470.970675,-9.91345088026221,-0.04065074373664937,0.33787647935862775,-0.008286291734607563,0.006754173718820581,-0.00036082324811387837
1765408470.970875,-9.922458355175587,-0.04116233200475938,0.33394351568770264,-0.008320114793241903,0.006960972248468116,-0.0002481015281758101
1765408470.971075,-9.930126715517288,-0.041499233265589366,0.32994176986810575,-0.008365719906359908,0.007145352457339881,-0.00015538128774537623
1765408470.970716,-9.936542280394326,-0.04174554707719533,0.32604622724104965,-0.008421061151706617,0.007309941525438759,-8.350487420524944e-05
1765408470.970916,-9.941839552023994,-0.04197174786870076,0.3224073944057601,-0.008483291897024922,0.007456686968995703,-3.3223805720004594e-05
1765408470.971116,-9.946189889898916,-0.04222745033052744,0.3191435854633293,-0.00854894675654056,0.007586753183535853,-5.097084991316205e-06
1765408470.971316,-9.949789232915899,-0.04253828032717472,0.3163363048971828,-0.008614198892508591,0.007700464888685307,7.156911551070966e-07
1765408470.971516,-9.952845450652381,-0.0429066866807468,0.31402884948033916,-0.008675160527192381,0.00779730927842225,-1.5307844102087633e-05
1765408470.971751,-9.955565831458985,-0.043314971149060855,0.3122275655227574,-0.008728180530265306,0.007876000421130796,-5.186029313473062e-05
1765408470.971951,-9.958145288820717,-0.043728758396797095,0.3109051078266933,-0.008770096485072905,0.007934596793032893,-0.0001067021789940321
1765408470.972151,-9.960755997181499,-0.04410037473381916,0.3100052695258624,-0.008798416056097203,0.007970649984215114,-0.0001766588274249588
1765408470.972351,-9.963539099305848,-0.04437279471109333,0.30944903376459604,-0.008811421205646803,0.007981359310030437,-0.0002577112769186511
1765408470.972551,-9.966598822407407,-0.044484794738677065,0.3091414154832287,-0.00880820104491042,0.007963715740085848,-0.0003451839694100588
1765408470.97268,-9.969999057277253,-0.044376861206798575,0.3089786471191961,-0.008788626370702667,0.007914631741037502,-0.0004340361524052025
1765408470.97288,-9.973762336035337,-0.04399644420889426,0.30885528572385124,-0.008753283805983789,0.007831063281400765,-0.0005192417460938483
1765408470.97308,-9.977871055839476,-0.04330138499174626,0.3086707265555703,-0.008703388150873084,0.007710133701330117,-0.0005962031029121606
1765408470.97328,-9.982270709916731,-0.04226163324842957,0.30833460642794924,-0.0086406859646704,0.007549266966374855,-0.0006611222067983641
1765408470.97348,-9.986874989086878,-0.040860473351101996,0.30777097197427905,-0.00856735354576282,0.007346331450885804,-0.0007112710963323782
1765408470.973769,-9.99157283812843,-0.03909631030300748,0.30692160323315254,-0.008485883924869453,0.007099787742237303,-0.0007451466558810218
1765408470.973969,-9.996237467629296,-0.036984833771285426,0.3057489184627532,-0.008398955849901853,0.006808828419611665,-0.000762526015714823
1765408470.974169,-10.000736775502215,-0.034560355340054146,0.3042384124433121,-0.008309284338013546,0.006473494930642113,-0.0007644360406816892
1765408470.974369,-10.004944056999802,-0.031875275189794466,0.3024001978797053,-0.00821946245162214,0.0060947549383151755,-0.000753028591605539
1765408470.974569,-10.008747745231425,-0.028997696378820614,0.3002692636543964,-0.008131810564730425,0.0056745242073067146,-0.0007313465181110418
1765408470.974766,-10.012059175238491,-0.02600807136793545,0.2979042444519327,-0.008048249764875358,0.005215623750167813,-0.0007029901938363991
1765408470.975016,-10.01481768832631,-0.02299571731496421,0.29538454327217034,-0.007970213217822066,0.004721673066209387,-0.0006717329488727999
1765408470.975266,-10.0169926924061,-0.02005531688660117,0.2928057337415797,-0.007898606941701865,0.004196926806637588,-0.0006411541664568518
1765408470.975516,-10.018582633613574,-0.017282901552425928,0.29027345296424184,-0.007833828693280604,0.0036460655541323537,-0.0006143465759062011
1765408470.975848,-10.019611176170887,-0.014770839398029817,0.2878962832265107,-0.007775846889835822,0.003073959362702178,-0.0005937207927461906
1765408470.976048,-10.020121173510331,-0.012601975124099853,0.2857782632903829,-0.007724329803086318,0.0024854357497581954,-0.000580898138691264
1765408470.976248,-10.020167300958283,-0.010843804944445834,0.28401180568224194,-0.007678803097701061,0.0018850916268153314,-0.0005766691434513561
1765408470.976448,-10.019808479248796,-0.009543883790119338,0.28267192760749,-0.0076388073791122686,0.0012771819907574403,-0.0005810024324273477
1765408470.976648,-10.019101206914966,-0.008727363208523225,0.28181254166813,-0.0076040297017779404,0.0006655969210878734,-0.0005931047499906504
1765408470.976671,-10.018094505398693,-0.008396874414826061,0.28146502084890856,-0.007574392103302686,5.391012633905094e-05,-0.000611539773822142
1765408470.976871,-10.01682661232697,-0.008534326934978449,0.28163869176241335,-0.0075500915224962,-0.000554539786168118,-0.0006344026573918016
1765408470.977071,-10.015323195588211,-0.009103907814160454,0.2823226379630311,-0.0075315943596294815,-0.0011565765493892829,-0.0006595270632011164
1765408470.977271,-10.013596783142717,-0.010055680043257792,0.2834882138694399,-0.007519593183506554,-0.0017491450862536996,-0.0006846880201540516
1765408470.977471,-10.01164717186674,-0.011329465479282607,0.28509187244053236,-0.007514933667386038,-0.002329302307355131,-0.000707767081547215
1765408470.977708,-10.00946267894341,-0.012858857525466897,0.2870781903571845,-0.007518519795370217,-0.002894228963052833,-0.0007268634827947254
1765408470.977908,-10.007022120624034,-0.014575129393663342,0.2893830880417276,-0.007531206776343249,-0.0034412518256804123,-0.0007403560918167347
1765408470.978108,-10.004297248253273,-0.01641063969092723,0.2919370161479637,-0.007553693036349878,-0.003967867418043396,-0.0007469356641263314
1765408470.978308,-10.001255205628324,-0.01830132675810397,0.2946676424072432,-0.007586423090004667,-0.004471759098685811,-0.0007456298370402099
1765408470.978508,-9.997860733615893,-0.020188118386694293,0.29750182177033957,-0.007629511752714374,-0.004950801810261328,-0.0007358354798633956
1765408470.978734,-9.994078315222566,-0.022017457582317806,0.3003672157389733,-0.007682698315123659,-0.005403052808386733,-0.0007173608686336287
1765408470.980709,-9.989874765082467,-0.02374144939573768,0.3031941530554653,-0.0077453371637461865,-0.005826728816541167,-0.0006904709275805408
1765408470.982712,-9.98522263785008,-0.025318170179340963,0.30591797206531873,-0.007816427036070866,-0.006220171159049677,-0.0006559255404936855
1765408470.985757,-9.980104470852444,-0.02671237644734482,0.3084816527154975,-0.007894673235280416,-0.006581802990253249,-0.0006150016880917537
1765408470.986799,-9.974517551384725,-0.02789637711397375,0.31083839693230125,-0.00797856856004877,-0.006910084234068298,-0.0005694909043821841
1765408470.990789,-9.968478596316636,-0.02885055997389423,0.31295376192194513,-0.008066475693435798,-0.007203467868622815,-0.0005216621648051574
1765408470.992783,-9.962027481845933,-0.02956324883089721,0.31480687597746143,-0.008156698925520197,-0.007460360574461822,-0.0004741793549318175
1765408470.995792,-9.955229226109964,-0.03003006196432826,0.3163904458521265,-0.008247541339533853,-0.007679095629924386,-0.0004299674187006603
1765408470.997759,-9.948173843177058,-0.030253293801488192,0.31770972760793575,-0.00833734844993518,-0.007857930380663975,-0.00039203403922669777
1765408471.000687,-9.94097404004348,-0.030241734478222072,0.3187808921881901,-0.008424540164337552,-0.00799507748711374,-0.00036326826567115205
1765408471.002716,-9.933760760680599,-0.030010889279098524,0.31962903901426776,-0.008507633603580337,-0.00808877182170723,-0.00034624445687102924
1765408471.005688,-9.926676609521754,-0.029583160605360523,0.32028591220673847,-0.008585261048776249,-0.008137371092071811,-0.00034305535856239824
1765408471.008756,-9.91986752142783,-0.028987514828273397,0.3207874484928619,-0.008656187464880106,-0.008139488403318941,-0.00035518689173120847
1765408471.010687,-9.913473418883104,-0.028258445411345617,0.3211712962824418,-0.00871932948682215,-0.008094154116402833,-0.00038343764022888145
1765408471.013708,-9.907618637671787,-0.027434375286947255,0.3214741548548437,-0.00877377551205265,-0.008001000986864818,-0.0004278829905394824
1765408471.015728,-9.902402787141716,-0.02655575696488905,0.32172864527528094,-0.008818807402269506,-0.007860462412403601,-0.00048788600396032944
1765408471.017742,-9.897892823073533,-0.02566300471349482,0.3219598593295227,-0.008853927017729888,-0.007673968070590245,-0.0005621584775415075
1765408471.020698,-9.894117336562914,-0.024794219131988326,0.3221823304004796,-0.008878892759109028,-0.007444112485618099,-0.0006488710306351206
1765408471.022744,-9.891063984910208,-0.023982671909710176,0.32239826268678845,-0.008893771250714921,-0.007174762829269025,-0.000745800994219074
1765408471.025741,-9.888680599308037,-0.02325426743803034,0.3225974967066217,-0.008899006548700695,-0.006871068766731928,-0.0008504980982807075
1765408471.028694,-9.886880159087253,-0.022625469794276834,0.32275941948804004,-0.008895503094176664,-0.006539342560401171,-0.000960447754854007
1765408471.03069,-9.885549574741535,-0.022102174793560973,0.32285690216567964,-0.00888471020056137,-0.0061867914762194585,-0.0010732204206639236
1765408471.03267,-9.88456172198321,-0.021679676038752645,0.3228619222152798,-0.008868688983446074,-0.005821107750707392,-0.0011866048367294721
1765408471.03568,-9.883789356868695,-0.021343500300005033,0.3227517910662941,-0.00885014098287974,-0.005449953498231632,-0.0012987245417843565
1765408471.037721,-9.883118930446685,-0.021070762680645765,0.32251450226964906,-0.008832381440839398,-0.005080408171710104,-0.0014081314686923347
1765408471.040745,-9.882462347695286,-0.020831838264109177,0.3221520189351231,-0.008819246912793543,-0.004718457752103083,-0.001513865272244559
1765408471.041747,-9.88176520611284,-0.020592342601422873,0.3216809223176755,-0.008814935268255544,-0.00436859261064064,-0.0016154683121440494
1765408471.045825,-9.881010608000182,-0.020315442077122766,0.32113026519568133,-0.008823786474582342,-0.004033557584164671,-0.0017129533827974937
1765408471.046714,-9.880218225750514,-0.01996437349731145,0.32053686099195877,-0.008850024298341967,-0.003714278150418378,-0.0018067295199773379
1765408471.050775,-9.879439054069572,-0.019504909896993137,0.31993888276897164,-0.008897488478475239,-0.0034099718558748054,-0.0018974969305882315
1765408471.052686,-9.878747019799551,-0.018907502583164496,0.3193692199579283,-0.008969388567146087,-0.003118435490528613,-0.0019861253542316167
1765408471.055706,-9.87822892400577,-0.018148952346824603,0.31884995831479535,-0.009068102861463504,-0.002836473388475037,-0.0020735324814933876
1765408471.058701,-9.877974012004376,-0.01721363128064231,0.3183886867387124,-0.009195033712046193,-0.002560410871639831,-0.0021605806690034196
1765408471.060719,-9.878064208912331,-0.016094407833587072,0.31797677563457,-0.009350520679469716,-0.0022866307315290765,-0.0022480092970352315
1765408471.061784,-9.878565970762878,-0.014793451266053213,0.3175896319523009,-0.009533807684265877,-0.002012078899841388,-0.002336413901501906
1765408471.065664,-9.8795245366578,-0.01332296496572755,0.31718883070005444,-0.009743058184660876,-0.001734697567482992,-0.0024262710698367508
1765408471.06881,-9.880960860102913,-0.011705683202276376,0.3167256404669907,-0.009975413144693697,-0.0014537535636411838,-0.002517994064052768
1765408471.070743,-9.882870897705205,-0.009974843234397844,0.3161451454742381,-0.01022708994445339,-0.0011700383986259378,-0.002611994760326388
1765408471.071736,-9.885226726636215,-0.008173438549641133,0.31539037864838976,-0.010493523209541307,-0.0008859254962565004,-0.002708727028922763
1765408471.07575,-9.88797918504536,-0.006352766781542031,0.31440642859663964,-0.010769546663976596,-0.0006052786749394009,-0.0028086944408390623
1765408471.076789,-9.891061931436013,-0.004570389002700849,0.3131447492475635,-0.011049608668658463,-0.00033321582313845517,-0.002912416739475202
1765408471.080783,-9.894396721146292,-0.0028875516928949293,0.3115676792181746,-0.011328007512134641,-7.574728321301713e-05,-0.003020360139596491
1765408471.084036,-9.897899521892572,-0.0013660472237378078,0.3096528611312393,-0.01159912975863011,0.00016067170156693333,-0.0031328437773772036
1765408471.085761,-9.901487100177006,-6.458481226226864e-05,0.30739716850983106,-0.011857676478905288,0.000369620225115073,-0.0032499384367010954
1765408471.087754,-9.905083767848259,0.0009649893329239581,0.30481974622501834,-0.012098865489634422,0.0005451672631105412,-0.00337137505121358
1765408471.090724,-9.908627807259528,0.0016810381190387911,0.3019636247759238,-0.012318599941991235,0.0006822602623751508,-0.0034964804363845376
1765408471.093695,-9.912076776494068,0.00205445478629482,0.2988952589274405,-0.012513594378564521,0.0007770195822885171,-0.003624156335051787
1765408471.094195,-9.915410794594623,0.0020696602599200413,0.2957015869085606,-0.012681451419019316,0.0008269235985675653,-0.0037529138676781425
1765408471.097702,-9.918633154434183,0.0017244132565430268,0.2924847063156149,-0.012820687874153842,0.0008308773856040176,-0.003880967045721866
1765408471.100775,-9.921767986778283,0.0010288944816184342,0.2893545928608824,-0.012930716782629347,0.0007891657570445719,-0.004006376239517286
1765408471.103669,-9.924855044080616,4.557443734691384e-06,0.286420352018794,-0.013011797636848487,0.0007032993929215038,-0.004127219255052813
1765408471.105758,-9.92794211927873,-0.0013170366119838787,0.28378067344422375,-0.013064968846190664,0.0005757696429795189,-0.004241760538124887
1765408471.108704,-9.931076220364929,-0.0028955803010682363,0.28151464848213564,-0.013091975177096602,0.0004097358121968779,-0.004348592991202542
1765408471.109668,-9.934295033628963,-0.004683963014385115,0.27967447391720957,-0.013095199739194669,0.00020868193173100531,-0.004446740351879321
1765408471.112685,-9.937620017993693,-0.006630964314780651,0.27828127044335893,-0.013077605268077316,-2.390615520519879e-05,-0.004535722786388802
1765408471.115775,-9.941051796621176,-0.008684350034912601,0.27732441144986053,-0.013042683444661812,-0.0002847917765918421,-0.004615595895334312
1765408471.116777,-9.944567903108709,-0.010793615522989077,0.276763989350434,-0.01299440529405392,-0.0005711350507815188,-0.004686970919063164
1765408471.120733,-9.948122712508656,-0.012911648291548915,0.27653567460928236,-0.012937162041906708,-0.0008805357836832727,-0.004751014530513489
1765408471.122757,-9.95164934405499,-0.014995016242816824,0.2765571107966891,-0.012875684707401542,-0.0012109909355608368,-0.004809416832808536
1765408471.125714,-9.955063221392635,-0.01700314669262614,0.2767350108948176,-0.01281493130420026,-0.0015607907765665952,-0.004864313436471484
1765408471.127765,-9.95826692829842,-0.01889705876856143,0.27697237001331154,-0.012759932706124907,-0.0019283749393732806,-0.004918154875031141
1765408471.130717,-9.961156170037851,-0.020638374193800532,0.27717563207916746,-0.012715594350957024,-0.0023121665676691717,-0.004973530090181846
1765408471.132733,-9.963626832418559,-0.022189054634349822,0.2772618557728972,-0.012686462754579917,-0.002710400884992904,-0.00503296290683688
1765408471.134739,-9.965582965268482,-0.023511908657592263,0.27716567557828486,-0.012676479753571872,-0.003120964491005888,-0.005098706038920664
1765408471.138678,-9.96694507178837,-0.024571683792256986,0.2768454725586884,-0.012688755760673045,-0.0035412649718446114,-0.0051725547979485234
1765408471.141751,-9.967657793412856,-0.025336624836704465,0.2762881429219057,-0.012725391479874532,-0.003968153421661507,-0.00525569495292401
1765408471.143663,-9.96769612161703,-0.02578053541223986,0.2755121448481884,-0.012787368618291984,-0.004397917732458669,-0.00534859197927982
1765408471.145706,-9.96706942244221,-0.0258853286232412,0.27456867362448584,-0.012874520691853044,-0.004826351561214639,-0.005450926908063683
1765408471.148712,-9.965822701397066,-0.02564373731138037,0.27354073015644736,-0.012985587471677279,-0.0052488930848946964,-0.005561586174066147
1765408471.150703,-9.964034837762307,-0.025061523851144324,0.2725398388081205,-0.013118348644208208,-0.005660826611831223,-0.0056787143634246156
1765408471.152732,-9.96181401602677,-0.024158491511343836,0.2717004074091451,-0.013269822644485242,-0.006057541702708848,-0.005799835871780217
1765408471.155724,-9.959290955898878,-0.022967946653393495,0.27117191766442406,-0.013436508220272703,-0.00643483692655563,-0.0059220436928150225
1765408471.157729,-9.956610566477226,-0.02153480069032134,0.27110911588374353,-0.01361464278837009,-0.006789239805253013,-0.00604224311851667
1765408471.160729,-9.953922572131347,-0.01991288155840347,0.271660488086953,-0.01380045405873209,-0.00711830235184237,-0.006157429396277671
1765408471.162814,-9.951371805245055,-0.0181619801367326,0.27295583308754584,-0.013990388292617272,-0.0074208288817396665,-0.006264974620802905
1765408471.165882,-9.949089109522797,-0.016344744397562203,0.27509432602329836,-0.014181307400834196,-0.007696996899914693,-0.006362898708022906
1765408471.167805,-9.947183765189903,-0.014523139461903829,0.2781345450074087,-0.014370654493079388,-0.007948341927950114,-0.006450097582975742
1765408471.168725,-9.945737965086051,-0.012754222088847394,0.28208753093024314,-0.014556590389917813,-0.008177596189303782,-0.006526497623018747
1765408471.173736,-9.94480342936075,-0.011085500861599266,0.28691348679821094,-0.014738101624943939,-0.008388396607506355,-0.006593104558520567
1765408471.175755,-9.944399960678805,-0.009550812222520385,0.29252235974650875,-0.01491507601675275,-0.008584898428468293,-0.00665192549658281
1765408471.178721,-9.94451556096794,-0.008167913450142677,0.29877809792855603,-0.015088337611654953,-0.008771338817026155,-0.006705766104366909
1765408471.181764,-9.945107594877115,-0.006938596877605829,0.3055057966575396,-0.015259630026457518,-0.008951594084110753,-0.0067579316213618856
1765408471.182765,-9.946104519619894,-0.005851281222979586,0.31250057852830626,-0.01543153691398186,-0.009128772423757321,-0.006811876019594387
1765408471.188107,-9.947408010377396,-0.004885288224855353,0.3195371909234524,-0.01560733160312872,-0.009304879999700337,-0.006870842249327968
1765408471.188607,-9.948895709160643,-0.004015795022390047,0.32637978166194753,-0.015790755010398064,-0.009480586355576269,-0.0069375254880581355
1765408471.19069,-9.950424982152557,-0.0032187293882882046,0.3327916886168755,-0.015985729585734312,-0.009655097914033944,-0.007013784139874509
1765408471.191737,-9.951837915697965,-0.00247522621113005,0.3385451807101179,-0.016196024192062244,-0.00982613544724595,-0.007100426888033078
1765408471.194735,-9.952967581372688,-0.0017753113239907142,0.34343110950001293,-0.0164248888887594,-0.00999000826808534,-0.007197111458653952
1765408471.198746,-9.953645583536659,-0.001120263887119289,0.3472685174029476,-0.016674681935087764,-0.010141781406281955,-0.007302386947483489
1765408471.200698,-9.953710953961242,-0.0005230393817684507,0.34991424846086405,-0.016946518400358365,-0.01027553592085174,-0.007413888682717118
1765408471.203671,-9.953020288806284,-6.548257360163224e-06,0.3512723146709682,-0.017239980229466913,-0.010384722021349305,-0.007528660756592452
1765408471.205638,-9.951458554485804,0.00039963334677068003,0.3513022566549772,-0.01755293305224212,-0.010462597936523498,-0.007643553847919016
1765408471.207658,-9.94894947009891,0.0006629128700296976,0.3500253269325685,-0.017881486985605856,-0.01050273610875616,-0.007755637123638038
1765408471.208686,-9.94546413101121,0.0007505130437144154,0.3475272827947353,-0.01822011858031437,-0.010499565840808417,-0.007862572749879938
1765408471.212701,-9.941026666056109,0.0006310800422889693,0.3439568824622659,-0.018561948506847507,-0.010448910329167966,-0.007962919978967626
1765408471.213681,-9.93571605688509,0.0002757027777188765,0.3395196063228126,-0.018899153002657276,-0.010348467769166267,-0.008056350880410349
1765408471.217693,-9.929663623083865,-0.0003404376947951167,0.3344665216864292,-0.019223478915646287,-0.010198183957003526,-0.008143764449286614
1765408471.22084,-9.92304611469747,-0.0012348841786116586,0.32907865324468577,-0.01952682953637212,-0.010000470113171175,-0.008227282069554118
1765408471.222713,-9.916074949689861,-0.0024132977256571897,0.3236478538698557,-0.01980188561720172,-0.009760233678860777,-0.008310105980711314
1765408471.225692,-9.90898278874765,-0.003864583553835127,0.31845591141029433,-0.020042718800800326,-0.009484707563883367,-0.008396235535145008
1765408471.228715,-9.90200905780918,-0.005557327867393631,0.3137541577226186,-0.020245344925508245,-0.009183080276876133,-0.008490064448479478
1765408471.230712,-9.895386004334114,-0.007438791981156816,0.3097458784104715,-0.02040815916067865,-0.008865944926407632,-0.00859591139047968
1765408471.233663,-9.889326504238921,-0.009436977357934192,0.30657335254683293,-0.02053219915094751,-0.008544603459863779,-0.008717549061167652
1765408471.235758,-9.88401441232273,-0.011465616256135767,0.3043106517339066,-0.020621196076696074,-0.00823028518462125,-0.008857789921352275
1765408471.23767,-9.879597945691083,-0.013431551973310344,0.3029626579657574,-0.0206813926337218,-0.007933357659781053,-0.009018170251848196
1765408471.240724,-9.876186332249848,-0.015243723905169397,0.3024701496122297,-0.020721128497677786,-0.007662612622495938,-0.009198759272646215
1765408471.242756,-9.873849630531307,-0.01682267661703952,0.3027202059025596,-0.02075021845472048,-0.007424697420626459,-0.009398109641505099
1765408471.245695,-9.872621313794177,-0.018109174760986065,0.3035607040133063,-0.020779176800505013,-0.0072237405129764246,-0.0096133553459647
1765408471.247762,-9.872503064122823,-0.01907036438274667,0.30481747711544527,-0.020818369486251414,-0.0070611961620176975,-0.009840447506897686
1765408471.250691,-9.873471195916695,-0.019702237921035617,0.30631266858800965,-0.020877192482267232,-0.006935912307574962,-0.010074498695421485
1765408471.252754,-9.875484011961229,-0.020027968369487514,0.30788267807587877,-0.020963370723864436,-0.006844407288428684,-0.010310189175851804
1765408471.255695,-9.878489117949192,-0.020092720863021104,0.30939379544862317,-0.021082445325727353,-0.0067813258353851815,-0.010542181087680768
1765408471.257747,-9.882429509047155,-0.019956417870366023,0.31075354735026717,-0.021237477738468864,-0.006740033092451014,-0.010765491527875022
1765408471.260695,-9.887247406961398,-0.01968625668517725,0.3119163855766061,-0.02142896401988152,-0.006713296437480175,-0.010975791422634816
1765408471.262702,-9.892885399727486,-0.019350408489283828,0.31288350926914915,-0.021654931830564623,-0.006693997313654025,-0.011169618871986649
1765408471.265688,-9.89928509706809,-0.019013475099653135,0.3136976548418727,-0.021911188679709336,-0.006675811569209427,-0.011344514412966921
1765408471.266695,-9.90638393466274,-0.01873344896131455,0.31443411212648054,-0.02219169563723747,-0.00665380209405808,-0.011499093314134767
1765408471.270671,-9.914110912646567,-0.01855960033910064,0.3151891885269345,-0.02248904618743661,-0.006624881854005946,-0.011633066219159818
1765408471.272719,-9.922382064146685,-0.018530955462146594,0.3160672372005964,-0.022795027660836055,-0.006588120752124071,-0.011747212746730273
1765408471.275705,-9.931096330223404,-0.018675371703169085,0.31716726457613464,-0.023101233137260233,-0.006544878928480717,-0.011843312333773373
1765408471.277738,-9.940132241814725,-0.0190091935663066,0.31856992256368927,-0.023399682195102394,-0.006498754549982907,-0.011924041940321664
1765408471.278744,-9.949345552324193,-0.019537174257701233,0.32032550147382527,-0.023683405218209278,-0.006455343922428628,-0.011992851306549536
1765408471.282709,-9.958567992341777,-0.020252274865335467,0.32244366200947394,-0.023946946915717398,-0.0064218285716299926,-0.012053818195717948
1765408471.285714,-9.967607595952586,-0.021135346423463774,0.324886026421321,-0.024186746023125046,-0.006406421307195682,-0.012111475831615502
1765408471.287747,-9.97625120163256,-0.02215523090064635,0.32756292376647106,-0.024401349412449796,-0.006417713563989365,-0.012170602999132812
1765408471.290712,-9.984269537446426,-0.02326997839550701,0.3303352736128927,-0.02459142519568374,-0.006463970230973321,-0.012235976294804
1765408471.292005,-9.991424996172805,-0.024429506571538542,0.33302207466917705,-0.024759557327956823,-0.0065524229062511,-0.01231209722571366
1765408471.295639,-9.997482072143038,-0.025579422451303464,0.33541355209361284,-0.02490983452935695,-0.0066886209087092365,-0.012402914954668975
1765408471.297718,-10.002220298101651,-0.026665338060800958,0.3372894839668716,-0.02504728180787263,-0.006875905395648492,-0.012511564570801445
1765408471.300749,-10.005449030276724,-0.027637048579479268,0.33844122486102235,-0.025177213023977577,-0.007115067091121808,-0.012640136559762538
1765408471.302723,-10.007022660722454,-0.028452251994214688,0.33869475787465425,-0.02530459904788033,-0.0074042291687872455,-0.012789493969040597
1765408471.305658,-10.006854287941822,-0.029079758536723236,0.33793148285423763,-0.025433542839776196,-0.007738967465074691,-0.01295916038286739
1765408471.307664,-10.004925879524361,-0.029502134311319653,0.33610375123493413,-0.025566931032823884,-0.008112647932934139,-0.013147307305822205
1765408471.310678,-10.001293388656924,-0.02971744769005748,0.33324306886969546,-0.02570629909801,-0.008516933762701372,-0.013350864972423866
1765408471.312683,-9.996085869500375,-0.029739516848827866,0.329459918081632,-0.025851912777978374,-0.008942397799325888,-0.013565760442398092
1765408471.313715,-9.98949830689571,-0.029596152741669268,0.3249351530196614,-0.026003036084452143,-0.009379171082904399,-0.013787255526537796
1765408471.316723,-9.981778680309532,-0.02932545160618727,0.3199039899843555,-0.026158326998213147,-0.009817560488327534,-0.014010329681516831
1765408471.32066,-9.973210586815272,-0.028970931482909072,0.31463464209300146,-0.026316280317630357,-0.010248573441786405,-0.014230044528897158
1765408471.323633,-9.964093300565581,-0.028576777692659785,0.3094043212285844,-0.02647562976926673,-0.010664301164685492,-0.01444184116136389
1765408471.325637,-9.954721410509322,-0.0281843564829007,0.30447553754265877,-0.026635632848602635,-0.011058140158538376,-0.014641750539203031
1765408471.326711,-9.945366267297533,-0.02783053851924977,0.30007548167805786,-0.02679619005316597,-0.011424865296263553,-0.01482652542720126
1765408471.330687,-9.936261264818631,-0.02754765263710183,0.2963807197677879,-0.026957787775339873,-0.01176058838595608,-0.014993716082720135
1765408471.331764,-9.927592265358998,-0.027364470178309726,0.29350834212326554,-0.027121291583938993,-0.012062637694958736,-0.015141709460914176
1765408471.335687,-9.91949345780897,-0.02730759087524508,0.2915134193087982,-0.027287645450223386,-0.012329387460484125,-0.015269741735182299
1765408471.337678,-9.9120481721202,-0.02740279234591583,0.2903917899533076,-0.02745754648945677,-0.012560063223615714,-0.015377886014603933
1765408471.341647,-9.905293926801106,-0.027676097480106934,0.29008706913121707,-0.027631162080348385,-0.012754548878886487,-0.015467015891526175
1765408471.34365,-9.899230996799663,-0.028154357570464427,0.2905009433963995,-0.02780794153518359,-0.0129132168992573,-0.015538749314657851
1765408471.345698,-9.893833683180155,-0.02886506344329422,0.2915058772433493,-0.027986555914852995,-0.01303679188487098,-0.015595379338920768
1765408471.346655,-9.889063185496044,-0.02983507871439424,0.2929592599752895,-0.028164980606973228,-0.013126247332314682,-0.015639793396066578
1765408471.350747,-9.884880707964614,-0.03108819728541047,0.2947179213026471,-0.028340713349835574,-0.013182733292071053,-0.015675374144690987
1765408471.353652,-9.881259269967785,-0.032641794804693425,0.29665180771883276,-0.028511094777051882,-0.013207535269223285,-0.015705870207854685
1765408471.355653,-9.878192635469212,-0.03450315351242082,0.29865539705529204,-0.02867367607765232,-0.013202066596837135,-0.01573522909649027
1765408471.3587,-9.87569997314909,-0.03666611200451676,0.3006554431282321,-0.028826568526803837,-0.013167896489082412,-0.015767397782643997
1765408471.360684,-9.873825523232469,-0.03910851002238045,0.3026142381759418,-0.02896871598952792,-0.013106813061920372,-0.015806112675783884
1765408471.361751,-9.87263354386686,-0.041790616429198534,0.3045285247467762,-0.029100049778993647,-0.013020912183705711,-0.015854709205290304
1765408471.365695,-9.872199657959271,-0.0446545424970932,0.3064248420803137,-0.02922150843030756,-0.012912690877722566,-0.015915975569631466
1765408471.367714,-9.872600093561708,-0.04762465298448931,0.30835222156348113,-0.029334927160447857,-0.012785114969549637,-0.01599205951559447
1765408471.370756,-9.873900284407352,-0.05060914824937647,0.3103731081492036,-0.029442819268058543,-0.012641630661254366,-0.016084420509684484
1765408471.37371,-9.876144078244886,-0.05350311729029957,0.3125534903952646,-0.029548083671644614,-0.012486099823531414,-0.01619381016138871
1765408471.3757,-9.879344465730508,-0.056193241552706184,0.3149533263268971,-0.029653680342874036,-0.012322656270266122,-0.016320264430412977
1765408471.378696,-9.883476336559088,-0.058563947230572434,0.3176181803550062,-0.02976231872397759,-0.012155502279917501,-0.016463099738666893
1765408471.380754,-9.888471452723183,-0.06050440233558163,0.3205725656142563,-0.02987620239120102,-0.011988687648504828,-0.016620916386971666
1765408471.382714,-9.894215752219182,-0.06191557074900422,0.32381507749400595,-0.029996866132236153,-0.011825927409169688,-0.016791621947087516
1765408471.385731,-9.900549191748693,-0.06271656522530586,0.327315167634667,-0.03012512944855441,-0.011670505921491792,-0.016972490827458324
1765408471.387736,-9.9072684094938,-0.06284965553706676,0.3310113707607153,-0.030261173374081858,-0.011525284172854774,-0.017160271610518966
1765408471.392134,-9.91413250506159,-0.0622834550968513,0.33481105261706506,-0.03040472757829577,-0.011392790757897321,-0.017351342960568797
1765408471.392809,-9.920872261695488,-0.06101409012842012,0.3385922888059652,-0.03055533642300045,-0.011275352947916052,-0.017541907528493626
1765408471.395693,-9.927202998084738,-0.05906453527695412,0.34220883077169134,-0.030712659913581238,-0.01117521833238859,-0.017728205598274337
1765408471.398721,-9.932840633730676,-0.056482617478416854,0.3454986531826995,-0.030876760352278897,-0.011094627349739226,-0.017906727833158716
1765408471.400653,-9.937519646754142,-0.05333827635009919,0.34829545233238873,-0.031048328022993132,-0.011035818042565803,-0.018074409309684507
1765408471.401699,-9.941011007351756,-0.04972054077147144,0.35044155925954107,-0.031228807880752236,-0.011000967739531043,-0.018228791882958367
1765408471.403716,-9.943138162731914,-0.045734499757943144,0.35180053073140377,-0.03142040309521035,-0.010992090126375576,-0.018368145635177257
1765408471.40772,-9.943789407565225,-0.04149836666182132,0.3522678325633802,-0.0316259510137044,-0.011010905510241814,-0.018491545559371183
1765408471.410694,-9.942925263705584,-0.03714046576538306,0.35177822779950446,-0.03184869027056699,-0.011058695315189914,-0.018598909523694696
1765408471.412735,-9.940580068529098,-0.03279565848399488,0.3503089978084252,-0.032091956163268064,-0.011136151449528987,-0.018691010093485425
1765408471.415709,-9.93685799994649,-0.028600681424068974,0.34787912816415967,-0.032358847963611465,-0.011243239135550583,-0.018769466356474643
1765408471.418695,-9.931924812297432,-0.024688302550992584,0.34454560430428666,-0.03265190809473393,-0.011379096751406874,-0.018836708646028624
1765408471.420701,-9.925996975026031,-0.021180899506128444,0.3403983149487309,-0.032972844985760384,-0.011541988393575377,-0.018895904611250007
1765408471.423719,-9.91932956965311,-0.01818453383146682,0.33555464593498224,-0.03332232196355234,-0.01172931085902012,-0.018950844495629483
1765408471.424219,-9.912203718249959,-0.01578446800719923,0.3301541970581926,-0.03369982586655749,-0.011937651001748057,-0.019005798324613046
1765408471.427701,-9.904913965901637,-0.014042401331029053,0.32435362890510216,-0.03410362412384326,-0.01216289320027287,-0.01906536556306423
1765408471.43068,-9.897755826103598,-0.012994971069688391,0.318321323914029,-0.034530816503742054,-0.012400378532336954,-0.019134330444715894
1765408471.433673,-9.89101337496023,-0.012652813879907267,0.3122311699089694,-0.03497748212994232,-0.012645111702263227,-0.019217517324501728
1765408471.435674,-9.884946602358195,-0.012999835443025704,0.3062547616569804,-0.03543891170952226,-0.012892004952720412,-0.019319624807284497
1765408471.437835,-9.879778636382857,-0.013992963172047353,0.300552090717063,-0.03590990288694694,-0.013136146631639315,-0.01944501764281282
1765408471.440694,-9.875683801758985,-0.015563088433074232,0.2952619461011884,-0.03638508820529724,-0.013373084023573891,-0.019597473208977072
1765408471.443675,-9.87277809386501,-0.01761785089168846,0.2904938687748579,-0.03685926329053043,-0.013599109097466278,-0.019779906797354207
1765408471.445719,-9.871113644413313,-0.0200464348080881,0.2863232032981096,-0.037327686651978075,-0.013811529107621972,-0.019994122135527172
