time,acc_x_g,acc_y_g,acc_z_g,gyro_x_rad_s,gyro_y_rad_s,gyro_z_rad_s
1765407989.684956,-7.790530,3.368005,-4.948589,-0.007789,-0.008094,-0.001069
1765407989.685156,-7.881395,3.332137,-4.855332,-0.009316,-0.009010,-0.003360
1765407989.685356,-7.856885,3.364419,-4.887613,-0.007789,-0.008705,-0.002138
1765407989.685556,-7.826398,3.382353,-4.919894,-0.007025,-0.004429,-0.000611
1765407989.685754,-7.816833,3.365016,-4.855332,-0.007178,-0.007178,-0.000611
1765407989.686004,-7.853897,3.324964,-4.829029,-0.010843,-0.007789,-0.000305
1765407989.686254,-7.852103,3.354256,-4.890004,-0.010690,-0.005803,-0.002596
1765407989.686504,-7.826398,3.394309,-4.931252,-0.009621,-0.003971,-0.001069
1765407989.686754,-7.770204,3.339909,-4.964131,-0.008552,-0.006414,-0.001222
1765407989.686954,-7.724771,3.350071,-4.928861,-0.007025,-0.006414,-0.000611
1765407989.687154,-7.645265,3.445719,-5.011955,-0.005345,-0.006720,-0.003207
1765407989.687354,-7.580104,3.657341,-5.129124,-0.008858,-0.009316,-0.004581
1765407989.687554,-7.495217,3.836681,-5.199067,-0.008858,-0.007789,-0.004581
1765407989.687795,-7.608799,3.846245,-5.014347,-0.016035,-0.002596,-0.002138
1765407989.688045,-7.670970,3.870157,-4.898971,-0.022449,-0.002596,-0.004429
1765407989.688295,-7.538259,3.969392,-5.014945,-0.024435,0.001833,-0.010690
1765407989.688545,-7.279411,4.020205,-5.286943,-0.031001,0.002443,-0.009774
1765407989.688744,-7.381635,4.094930,-5.021521,-0.035888,0.000000,-0.015119
1765407989.688994,-7.413916,4.161884,-4.854136,-0.037110,0.005345,-0.017562
1765407989.689244,-7.256097,4.104495,-5.043638,-0.046578,0.002443,-0.016493
1765407989.689494,-7.227402,4.191176,-5.054399,-0.047647,-0.002902,-0.020311
1765407989.689763,-7.229794,4.386657,-4.983859,-0.054520,-0.004276,-0.023824
1765407989.690013,-7.193926,4.529531,-4.946198,-0.067348,-0.004276,-0.025504
1765407989.690263,-7.193926,4.529531,-4.946198,-0.067348,-0.014050,-0.025504
1765407989.690513,-7.082735,4.285628,-5.011955,-0.085979,-0.012523,-0.024435
1765407989.690752,-6.869918,3.814562,-5.112386,-0.097128,-0.017868,-0.030543
1765407989.691002,-7.018172,3.953849,-5.043041,-0.107360,-0.015730,-0.047189
1765407989.691252,-6.996652,4.217479,-5.099234,-0.115301,-0.015730,-0.050244
1765407989.691502,-6.932089,4.362744,-4.928264,-0.121104,-0.019548,-0.053145
1765407989.691755,-6.985891,4.292204,-4.858919,-0.129809,-0.023976,-0.053298
1765407989.692005,-6.898015,4.019010,-4.802725,-0.138514,-0.032223,-0.057727
1765407989.692255,-6.826279,3.845050,-5.258846,-0.143553,-0.044135,-0.068570
1765407989.692505,-6.604494,3.873146,-5.384982,-0.151342,-0.044135,-0.081092
1765407989.692751,-6.604494,3.873146,-5.384982,-0.151342,-0.043677,-0.081092
1765407989.693001,-6.459827,3.998684,-5.256455,-0.157451,-0.046884,-0.095295
1765407989.693251,-6.794595,4.126016,-4.983859,-0.166614,-0.049633,-0.099113
1765407989.693501,-6.921329,3.920372,-4.946198,-0.164017,-0.061850,-0.099113
1765407989.693755,-6.956001,3.867168,-5.278574,-0.178067,-0.069180,-0.116828
1765407989.694088,-6.623624,4.029770,-5.558344,-0.186467,-0.070860,-0.122631
1765407989.694422,-6.861548,4.187589,-5.050214,-0.186925,-0.065363,-0.116675
1765407989.694727,-7.033715,3.834887,-4.744141,-0.196546,-0.065363,-0.115301
1765407989.694977,-7.033715,3.834887,-4.744141,-0.196546,-0.078191,-0.115301
1765407989.695227,-6.999043,3.855810,-5.254662,-0.205556,-0.089492,-0.131336
1765407989.695477,-7.050454,3.857604,-5.164992,-0.214719,-0.092852,-0.129351
1765407989.695745,-7.024150,3.648971,-5.203252,-0.225257,-0.094379,-0.132558
1765407989.695995,-6.861548,3.599952,-5.598398,-0.231823,-0.095142,-0.139735
1765407989.696245,-6.808942,3.463653,-5.564322,-0.239306,-0.104000,-0.145844
1765407989.696495,-7.128167,3.500119,-5.203252,-0.240528,-0.116828,-0.157603
1765407989.696784,-7.519727,4.040530,-4.796747,-0.254120,-0.112399,-0.167530
1765407989.697117,-7.017574,3.731467,-5.623505,-0.263588,-0.126296,-0.164323
1765407989.697451,-6.563844,3.727881,-5.972023,-0.273668,-0.126296,-0.174707
1765407989.697733,-6.894428,3.798421,-5.683883,-0.273668,-0.124311,-0.174707
1765407989.697983,-7.040888,4.033954,-5.484217,-0.298102,-0.121562,-0.185703
1765407989.698233,-7.399569,4.332855,-5.077714,-0.314748,-0.116828,-0.191812
1765407989.698483,-7.407340,4.148732,-4.995815,-0.324217,-0.120188,-0.189063
1765407989.698752,-6.922524,3.647776,-5.771162,-0.332463,-0.120188,-0.187383
1765407989.699002,-7.214251,3.852821,-5.325202,-0.345292,-0.126296,-0.204487
1765407989.699252,-7.370277,3.879722,-4.888809,-0.353080,-0.114995,-0.201586
1765407989.699502,-7.092299,3.580822,-5.345528,-0.377820,-0.124617,-0.213192
1765407989.699805,-7.160449,3.922764,-5.457914,-0.379042,-0.135307,-0.219453
1765407989.700138,-6.889048,3.607125,-5.827354,-0.387594,-0.125686,-0.216094
1765407989.700472,-7.091104,3.758369,-5.211620,-0.391259,-0.133932,-0.226478
1765407989.700736,-7.461740,3.607125,-4.851745,-0.412181,-0.125227,-0.229380
1765407989.700986,-7.908296,3.254423,-4.374701,-0.421650,-0.144775,-0.237168
1765407989.701236,-7.911285,3.347680,-4.369320,-0.421650,-0.125991,-0.237168
1765407989.701486,-7.557387,3.302247,-4.837398,-0.433867,-0.135459,-0.252745
1765407989.701800,-7.656024,3.873744,-4.392634,-0.444710,-0.135918,-0.257327
1765407989.702133,-7.250118,3.046987,-5.045432,-0.460592,-0.153938,-0.248164
1765407989.702467,-7.686512,3.055356,-4.670014,-0.459218,-0.150120,-0.257327
1765407989.702816,-7.956718,3.036226,-4.399808,-0.466701,-0.158214,-0.270461
1765407989.703066,-7.611190,3.180894,-4.508608,-0.473726,-0.158825,-0.276569
1765407989.703316,-7.370874,3.008130,-5.569105,-0.487012,-0.166614,-0.284969
1765407989.703566,-7.015781,3.569464,-5.395743,-0.481973,-0.167988,-0.299019
1765407989.703738,-6.477761,3.139646,-5.693447,-0.500910,-0.167988,-0.287718
1765407989.704071,-7.239358,3.310616,-4.728598,-0.499993,-0.194102,-0.304364
1765407989.704405,-7.211859,2.983022,-5.031085,-0.514043,-0.170584,-0.312152
1765407989.704804,-7.662003,3.568866,-4.720229,-0.514654,-0.202044,-0.322537
1765407989.705054,-7.201099,3.196437,-5.452534,-0.527024,-0.209679,-0.315054
1765407989.705304,-7.939980,3.314203,-4.509803,-0.530689,-0.209679,-0.321315
1765407989.705554,-8.549736,3.214968,-4.849354,-0.529315,-0.186925,-0.324980
1765407989.705769,-7.162242,2.621951,-5.389167,-0.545655,-0.201127,-0.339183
1765407989.706019,-7.093495,3.481587,-5.361071,-0.545655,-0.194408,-0.339183
1765407989.706269,-7.274031,3.401482,-5.992347,-0.565356,-0.184939,-0.351858
1765407989.706519,-6.837637,2.782161,-5.975609,-0.580475,-0.192881,-0.361480
1765407989.706734,-7.819822,3.290292,-5.204447,-0.587958,-0.194713,-0.379653
1765407989.707067,-8.037421,3.399091,-4.780009,-0.582613,-0.175929,-0.378126
1765407989.707401,-7.415112,3.072692,-5.826757,-0.614989,-0.156076,-0.387899
1765407989.707789,-8.116928,3.747010,-5.154232,-0.620486,-0.179594,-0.406531
1765407989.708039,-7.560377,3.328551,-5.891917,-0.627206,-0.148593,-0.388663
1765407989.708289,-7.707436,2.890961,-4.929459,-0.632245,-0.161574,-0.411418
1765407989.708539,-8.043997,3.505499,-4.330463,-0.653473,-0.131489,-0.430202
1765407989.708785,-8.150406,3.290292,-4.750119,-0.664774,-0.147829,-0.442266
1765407989.709118,-7.112625,3.191056,-5.206241,-0.658055,-0.163406,-0.439518
1765407989.709452,-7.493423,3.702774,-5.343734,-0.688445,-0.184329,-0.460592
1765407989.709799,-8.446915,4.047106,-4.106886,-0.696386,-0.190895,-0.458454
1765407989.710049,-7.795312,3.424198,-5.103419,-0.698983,-0.189826,-0.448222
1765407989.710299,-6.791008,3.060736,-6.150167,-0.733649,-0.189826,-0.472962
1765407989.710549,-6.464610,3.975968,-6.524390,-0.733649,-0.172569,-0.472962
1765407989.710764,-6.833452,3.247250,-5.146460,-0.749226,-0.183870,-0.470061
1765407989.711097,-7.398373,3.474414,-5.037661,-0.735329,-0.168446,-0.482736
1765407989.711431,-6.984695,2.813845,-5.609755,-0.749990,-0.179747,-0.494648
1765407989.712448,-7.496412,3.284313,-4.815877,-0.722348,-0.179747,-0.501215
1765407989.712698,-7.496412,3.284313,-4.815877,-0.722348,-0.178984,-0.501215
1765407989.712948,-8.064322,3.701578,-4.809899,-0.749532,-0.189674,-0.523664
1765407989.713198,-8.401482,3.413438,-4.709468,-0.758542,-0.160658,-0.510989
1765407989.712807,-8.244260,2.192730,-5.196676,-0.762818,-0.186008,-0.520457
1765407989.713140,-8.442132,3.049976,-4.890004,-0.765414,-0.167224,-0.554360
1765407989.713474,-8.442132,3.049976,-4.890004,-0.765414,-0.155618,-0.554360
1765407989.713855,-8.095408,3.950263,-5.162601,-0.774424,-0.169057,-0.544128
1765407989.714105,-7.624341,3.690219,-5.661166,-0.809549,-0.169057,-0.556040
1765407989.714355,-7.524509,3.515064,-5.497369,-0.801455,-0.160199,-0.553902
1765407989.714605,-6.711501,2.740315,-6.664872,-0.820087,-0.155160,-0.555582
1765407989.714818,-7.818028,3.198230,-5.518889,-0.826806,-0.190285,-0.596968
1765407989.715151,-8.240075,3.717120,-4.993424,-0.846354,-0.171500,-0.605826
1765407989.715485,-7.816833,3.715925,-5.832137,-0.855364,-0.171500,-0.607200
1765407989.715989,-8.006336,3.876136,-5.552367,-0.872010,-0.169668,-0.615905
1765407989.716239,-7.757651,3.348278,-5.570301,-0.872468,-0.166003,-0.618196
1765407989.716489,-8.245455,3.421807,-4.149330,-0.869261,-0.181732,-0.629497
1765407989.716739,-8.332136,3.626255,-4.747727,-0.874301,-0.190132,-0.638660
1765407989.716894,-7.676948,3.762553,-4.701099,-0.905608,-0.180358,-0.653931
1765407989.717227,-7.676948,3.762553,-4.701099,-0.905608,-0.179442,-0.653931
1765407989.717561,-5.853658,3.240674,-7.411525,-0.908815,-0.212123,-0.648892
1765407989.717879,-6.003108,3.207795,-5.858440,-0.899041,-0.212123,-0.653473
1765407989.718129,-6.003108,3.207795,-5.858440,-0.899041,-0.201127,-0.653473
1765407989.718379,-6.862744,4.250358,-5.948110,-0.934624,-0.207083,-0.686154
1765407989.718629,-6.602701,3.898852,-6.395862,-0.955699,-0.209221,-0.686154
1765407989.718811,-7.436632,3.274749,-5.093256,-0.958295,-0.237779,-0.680504
1765407989.719144,-8.232902,3.611908,-4.681970,-0.965167,-0.225409,-0.696539
1765407989.719478,-8.251433,3.500717,-4.943806,-0.976010,-0.243888,-0.704328
1765407989.719822,-7.983021,3.786465,-5.321616,-0.988991,-0.243124,-0.705549
1765407989.720072,-8.003346,3.928144,-6.098756,-0.996779,-0.258091,-0.714712
1765407989.720322,-8.195838,3.398493,-5.126732,-1.012356,-0.260534,-0.708909
1765407989.720572,-8.786465,3.448111,-5.364657,-0.978453,-0.280845,-0.718988
1765407989.720822,-9.544475,3.210784,-4.070420,-0.983340,-0.261298,-0.737773
1765407989.721155,-9.496053,4.298182,-5.357484,-0.979370,-0.253356,-0.756709
1765407989.721489,-9.683165,4.391439,-4.878048,-1.004873,-0.282372,-0.763734
1765407989.721867,-9.384863,4.239598,-5.290530,-0.986700,-0.270308,-0.748768
1765407989.722117,-9.010042,3.700382,-5.075920,-1.019534,-0.289245,-0.760985
1765407989.722367,-9.137971,4.241391,-4.952175,-1.012509,-0.275500,-0.763582
1765407989.722617,-8.847440,4.094930,-5.400526,-1.034806,-0.284205,-0.758236
1765407989.722805,-8.405068,4.044715,-5.384982,-1.045190,-0.274431,-0.765567
1765407989.723055,-8.413438,3.651363,-6.092778,-1.068403,-0.270613,-0.765720
1765407989.723305,-8.760161,3.846245,-4.890602,-1.072374,-0.271835,-0.779006
1765407989.723555,-8.110353,3.033237,-4.930655,-1.091922,-0.269392,-0.775493
1765407989.723825,-7.955523,3.262195,-5.124342,-1.100779,-0.297950,-0.803135
1765407989.724158,-7.791128,3.075083,-5.467479,-1.116662,-0.305891,-0.812298
1765407989.724492,-7.791128,3.075083,-5.467479,-1.116662,-0.305738,-0.812298
1765407989.724820,-7.513151,2.557986,-5.893710,-1.113149,-0.308640,-0.831235
1765407989.725070,-8.414035,3.073888,-5.553562,-1.103375,-0.323300,-0.846965
1765407989.725320,-9.157698,3.135461,-4.698111,-1.104750,-0.322079,-0.847576
1765407989.725570,-9.397416,3.760162,-4.344213,-1.108415,-0.317345,-0.854142
1765407989.725764,-9.530128,4.100908,-4.936632,-1.123534,-0.335976,-0.855822
1765407989.726097,-9.974891,4.104495,-3.436154,-1.134529,-0.315970,-0.846354
1765407989.726431,-9.726207,2.989000,-4.557627,-1.138195,-0.330631,-0.839634
1765407989.726850,-9.497249,3.723696,-4.043519,-1.166600,-0.358425,-0.878272
1765407989.727100,-9.374102,3.990913,-4.796747,-1.170265,-0.361785,-0.865291
1765407989.727350,-8.564083,3.662123,-4.881635,-1.178664,-0.372628,-0.854448
1765407989.727600,-8.372787,2.914873,-5.659373,-1.182788,-0.382402,-0.852615
1765407989.727836,-9.249162,3.492945,-4.393830,-1.216538,-0.382707,-0.881784
1765407989.728169,-8.793041,3.500717,-3.856408,-1.192562,-0.380569,-0.854295
1765407989.728503,-7.865852,2.399569,-5.687469,-1.240057,-0.380569,-0.862236
1765407989.728766,-9.655666,3.524629,-3.968196,-1.234100,-0.397673,-0.885296
1765407989.729016,-9.752509,2.693687,-4.230630,-1.239751,-0.370490,-0.858724
1765407989.729266,-9.313725,2.947752,-4.300573,-1.204168,-0.387899,-0.866054
1765407989.729516,-8.376373,2.403156,-5.417264,-1.219134,-0.352011,-0.872316
1765407989.729802,-9.854733,2.262673,-3.128885,-1.207833,-0.412487,-0.894612
1765407989.730135,-9.989837,2.704447,-3.638211,-1.209971,-0.402255,-0.905455
1765407989.730469,-9.888808,3.849832,-4.076996,-1.207833,-0.404087,-0.919810
1765407989.730742,-8.709349,3.060736,-4.496054,-1.223868,-0.389885,-0.895834
1765407989.730992,-9.140363,3.171329,-3.986728,-1.227076,-0.438907,-0.919199
1765407989.731242,-9.714250,2.864658,-4.081779,-1.236697,-0.422566,-0.907593
1765407989.731492,-9.714250,2.864658,-4.081779,-1.236697,-0.423635,-0.907593
1765407989.731814,-11.177067,3.501913,-2.285987,-1.259451,-0.439670,-0.921337
1765407989.732147,-11.218314,3.054161,-3.057747,-1.263880,-0.439670,-0.906066
1765407989.732481,-9.784193,2.456360,-3.952654,-1.283581,-0.437532,-0.918130
1765407989.732851,-8.456479,2.660210,-4.689143,-1.274570,-0.447917,-0.920421
1765407989.733101,-8.415829,2.893950,-4.242587,-1.284039,-0.481209,-0.914618
1765407989.733351,-9.754900,3.284313,-3.837876,-1.275792,-0.474795,-0.903622
1765407989.733601,-9.276661,2.266858,-3.939502,-1.280679,-0.474795,-0.898583
1765407989.733816,-9.079387,2.536465,-3.959827,-1.273043,-0.490678,-0.909120
1765407989.734149,-8.756575,3.347680,-5.013151,-1.277472,-0.513890,-0.914007
1765407989.734483,-8.107364,3.119321,-4.846962,-1.294423,-0.509003,-0.903622
1765407989.734818,-9.067430,3.392515,-4.632950,-1.299463,-0.543823,-0.907135
1765407989.735068,-10.307866,3.426590,-1.936872,-1.306946,-0.543823,-0.904386
1765407989.735318,-9.513988,2.871233,-3.428383,-1.302976,-0.501368,-0.881631
1765407989.735568,-8.146818,2.777379,-5.578072,-1.318858,-0.495106,-0.892474
1765407989.735864,-7.884983,2.100669,-5.416069,-1.341460,-0.515418,-0.896903
1765407989.736197,-8.320779,1.910569,-3.807388,-1.340544,-0.517861,-0.899041
1765407989.736531,-9.530128,1.861549,-3.949067,-1.325119,-0.517861,-0.902859
1765407989.736850,-8.986130,1.223099,-4.317311,-1.344362,-0.496939,-0.924392
1765407989.737100,-9.467957,1.696556,-3.739837,-1.336726,-0.503200,-0.936304
1765407989.737350,-9.788976,1.865136,-3.529412,-1.337795,-0.503200,-0.939969
1765407989.737600,-9.788976,1.865136,-3.529412,-1.337795,-0.530842,-0.939969
1765407989.737902,-10.462696,3.550932,-2.711621,-1.366811,-0.513127,-0.944856
1765407989.738235,-9.195958,2.646461,-2.760640,-1.366811,-0.524581,-0.944856
1765407989.738569,-8.014107,2.071975,-4.270085,-1.337948,-0.571159,-0.910800
1765407989.738823,-9.181610,2.902319,-2.945361,-1.333977,-0.571159,-0.935082
1765407989.739073,-9.181610,2.902319,-2.945361,-1.333977,-0.525191,-0.935082
1765407989.739323,-7.833571,2.916069,-5.587039,-1.332755,-0.549168,-0.895223
1765407989.739573,-8.972978,2.150884,-3.199426,-1.345278,-0.568410,-0.894001
1765407989.739818,-9.715446,2.291965,-2.717599,-1.333366,-0.552222,-0.889420
1765407989.740151,-9.499043,1.713295,-2.474892,-1.336268,-0.525497,-0.897361
1765407989.740485,-8.838473,2.685318,-3.672285,-1.339780,-0.530995,-0.898736
1765407989.740858,-9.359756,2.568747,-3.179101,-1.355663,-0.572839,-0.890794
1765407989.741108,-9.488282,2.116212,-2.606408,-1.333977,-0.572839,-0.874148
1765407989.741358,-9.438066,2.048661,-2.930416,-1.362840,-0.570395,-0.900415
1765407989.741608,-10.062768,2.574127,-2.232185,-1.375058,-0.570395,-0.911411
1765407989.741852,-8.599951,2.623147,-4.414155,-1.366353,-0.572381,-0.903164
1765407989.742185,-9.005260,2.465327,-3.915590,-1.387580,-0.610713,-0.914313
1765407989.742519,-9.416546,2.822214,-2.999760,-1.372614,-0.586278,-0.914465
1765407989.742760,-9.416546,2.822214,-2.999760,-1.372614,-0.567647,-0.914465
1765407989.743010,-8.760759,2.770205,-3.019488,-1.377807,-0.578031,-0.901484
1765407989.743260,-9.122428,3.029651,-3.419416,-1.393536,-0.589485,-0.908815
1765407989.743510,-9.066833,2.000239,-3.278933,-1.371392,-0.597273,-0.877508
1765407989.743781,-8.658535,1.358799,-3.298660,-1.368796,-0.610560,-0.891711
1765407989.744031,-8.658535,1.358799,-3.298660,-1.368796,-0.624152,-0.891711
1765407989.744281,-10.114776,2.987804,-1.952415,-1.364367,-0.598037,-0.904081
1765407989.744531,-9.439860,1.946437,-3.880320,-1.373378,-0.593761,-0.877966
1765407989.744760,-9.592299,2.520922,-2.318269,-1.384221,-0.603382,-0.908815
1765407989.745093,-9.345408,2.346365,-2.374462,-1.391704,-0.578031,-0.887129
1765407989.745427,-9.053083,2.590865,-3.648971,-1.391704,-0.587041,-0.887129
1765407989.745765,-9.152318,2.872429,-2.318269,-1.411862,-0.602924,-0.901179
1765407989.746015,-9.671208,3.703969,-1.561454,-1.428356,-0.596204,-0.886365
1765407989.746265,-8.704566,2.700263,-3.884504,-1.422705,-0.608422,-0.857197
1765407989.746515,-8.011716,2.251315,-3.329746,-1.453554,-0.608422,-0.859335
1765407989.746822,-9.366330,1.303204,-3.002152,-1.415986,-0.593914,-0.851699
1765407989.747155,-10.024508,0.707795,-1.500478,-1.406365,-0.602771,-0.869108
1765407989.747489,-10.340744,1.058106,-1.610473,-1.376127,-0.612851,-0.885602
1765407989.748034,-10.496173,1.724055,-1.247011,-1.375516,-0.600328,-0.908204
1765407989.748284,-10.377211,1.354017,-1.100550,-1.371698,-0.599870,-0.894612
1765407989.748534,-10.689859,1.692372,-1.387494,-1.373072,-0.626137,-0.906829
1765407989.748784,-11.440697,3.150406,-0.393352,-1.379792,-0.660193,-0.926072
1765407989.748848,-10.908655,2.969273,-0.367049,-1.378112,-0.647517,-0.887740
1765407989.749181,-9.958152,2.257293,-2.005021,-1.378112,-0.656680,-0.887740
1765407989.749515,-8.442132,2.221425,-2.712816,-1.415375,-0.644005,-0.891711
1765407989.749857,-8.963414,2.734338,-2.217838,-1.403616,-0.657291,-0.872010
1765407989.750107,-9.838593,2.220827,-1.889048,-1.411251,-0.670883,-0.847881
1765407989.750357,-10.658774,1.627809,-1.771281,-1.425149,-0.669966,-0.862847
1765407989.750607,-9.717837,1.740196,-1.891439,-1.418429,-0.619723,-0.858418
1765407989.750853,-9.043518,0.778336,-2.551410,-1.402852,-0.615905,-0.844216
1765407989.751186,-9.390841,0.720349,-1.226686,-1.418734,-0.651946,-0.881937
1765407989.751520,-10.075920,2.106049,-1.504065,-1.398729,-0.628428,-0.885602
1765407989.751784,-9.743543,1.831659,-1.953610,-1.366200,-0.614683,-0.842536
1765407989.752034,-8.901840,1.132831,-2.016379,-1.384526,-0.616516,-0.854906
1765407989.752284,-9.073409,1.825681,-1.321138,-1.396591,-0.605978,-0.879951
1765407989.752534,-8.576039,1.421569,-2.132951,-1.386359,-0.605673,-0.864985
1765407989.752806,-8.391319,1.869321,-2.166427,-1.376432,-0.641867,-0.869108
1765407989.753139,-9.170252,2.454567,-1.936274,-1.409419,-0.641867,-0.884380
1765407989.753473,-9.225250,2.598039,-1.924916,-1.402699,-0.609338,-0.863763
1765407989.753820,-9.441055,1.652319,-1.635581,-1.415986,-0.629344,-0.855669
1765407989.754070,-10.087874,1.645146,-0.766380,-1.420109,-0.650419,-0.855669
1765407989.754320,-10.766378,1.472979,-0.600191,-1.422552,-0.613309,-0.870941
1765407989.754570,-9.714250,1.162721,-0.640842,-1.406212,-0.613309,-0.862694
1765407989.754783,-8.479794,0.985174,-2.270445,-1.419498,-0.631482,-0.870788
1765407989.755116,-8.616690,1.892635,-1.418579,-1.423163,-0.645379,-0.878730
1765407989.755450,-9.424317,2.022955,-0.646222,-1.403768,-0.645532,-0.845590
1765407989.755795,-8.269966,0.674318,-2.380440,-1.392773,-0.640034,-0.841772
1765407989.756045,-7.846724,1.945839,-2.670970,-1.395980,-0.631482,-0.874912
1765407989.756295,-8.440936,2.320062,-1.996652,-1.370018,-0.626595,-0.837649
1765407989.756545,-9.146339,1.553084,-1.466403,-1.377043,-0.650266,-0.835816
1765407989.756815,-9.030965,2.225012,-1.066475,-1.384526,-0.624610,-0.860556
1765407989.757148,-7.720587,1.816117,-2.528694,-1.375363,-0.583834,-0.825432
1765407989.757482,-7.093495,1.551889,-3.715925,-1.368185,-0.617279,-0.825279
1765407989.757826,-8.617886,1.502271,-0.401124,-1.393231,-0.612545,-0.846812
1765407989.758076,-9.309540,1.027618,-0.303682,-1.373378,-0.579253,-0.833373
1765407989.758326,-8.990912,0.261239,-2.171808,-1.370782,-0.579253,-0.842383
1765407989.758576,-8.683642,1.017456,-1.565638,-1.383152,-0.591776,-0.874454
1765407989.758789,-10.248685,1.128646,0.384385,-1.396743,-0.582918,-0.877813
1765407989.759039,-9.638927,1.070660,-0.505739,-1.366200,-0.589027,-0.865291
1765407989.759289,-9.281443,1.227881,-1.027618,-1.388344,-0.572686,-0.898277
1765407989.759539,-9.560018,2.811453,-0.352702,-1.398118,-0.572686,-0.897208
1765407989.759824,-9.191773,2.358919,-0.752630,-1.377959,-0.573450,-0.849255
1765407989.760157,-9.631754,1.101148,-0.820779,-1.389566,-0.610713,-0.851393
1765407989.760491,-10.729315,1.578192,0.047824,-1.382388,-0.592997,-0.872468
1765407989.760856,-10.450740,2.010401,1.313964,-1.372614,-0.564592,-0.859335
1765407989.761106,-8.848636,1.428742,-1.588355,-1.373072,-0.564592,-0.842230
1765407989.761356,-9.108081,1.708512,-2.115016,-1.369713,-0.588416,-0.857197
1765407989.761606,-9.139167,1.156145,-0.023912,-1.369102,-0.557720,-0.842536
1765407989.761839,-9.063844,0.805834,-0.435198,-1.360702,-0.557720,-0.829860
1765407989.762172,-9.695719,1.221903,-0.193687,-1.360702,-0.561843,-0.829860
1765407989.762506,-9.601864,1.752750,0.316236,-1.372920,-0.563523,-0.853379
1765407989.762897,-9.667024,1.743185,-0.866212,-1.351539,-0.576046,-0.824668
1765407989.763147,-9.637732,1.535748,-0.170971,-1.375363,-0.587500,-0.842536
1765407989.763397,-9.201338,1.838833,0.223577,-1.400867,-0.563981,-0.850630
1765407989.763647,-9.201338,1.838833,0.223577,-1.400867,-0.565814,-0.850630
1765407989.763859,-8.634623,1.038976,-2.051650,-1.399492,-0.602924,-0.845743
1765407989.764109,-8.829507,1.740196,0.266619,-1.416444,-0.574061,-0.859487
1765407989.764359,-9.234217,1.737805,-0.225968,-1.381014,-0.529009,-0.835969
1765407989.764609,-8.564083,0.993544,-1.176470,-1.377348,-0.561385,-0.836122
1765407989.764799,-8.326159,1.041965,-1.377331,-1.373531,-0.573755,-0.848492
1765407989.765132,-9.420133,1.162123,0.404113,-1.346042,-0.560163,-0.832304
1765407989.765466,-7.419894,-0.072932,-1.938666,-1.330312,-0.540005,-0.822683
1765407989.765784,-7.374461,0.847680,-2.367288,-1.335046,-0.531300,-0.857197
1765407989.766034,-8.414035,0.835127,-0.584051,-1.325119,-0.531300,-0.844216
1765407989.766284,-8.444524,1.391678,-1.076040,-1.308168,-0.518777,-0.812756
1765407989.766534,-8.900644,0.667743,-0.447752,-1.325272,-0.536951,-0.820545
1765407989.766798,-8.460066,1.220708,-0.491989,-1.341307,-0.493732,-0.836122
1765407989.767131,-8.211381,1.899808,-1.255380,-1.310611,-0.499993,-0.803440
1765407989.767465,-8.492945,0.713175,-1.010282,-1.341307,-0.520152,-0.798554
1765407989.767829,-9.053083,0.961262,-0.270206,-1.348332,-0.506560,-0.821461
1765407989.768079,-8.778095,1.836442,-0.665949,-1.331534,-0.456927,-0.799012
1765407989.768329,-8.175513,1.114299,-1.443089,-1.327257,-0.494343,-0.765720
1765407989.768579,-9.915112,0.534433,0.879364,-1.350776,-0.497244,-0.785420
1765407989.768792,-10.566116,0.345528,1.651721,-1.311833,-0.455247,-0.778242
1765407989.769042,-9.047106,-0.416069,-0.459708,-1.309237,-0.444710,-0.773661
1765407989.769292,-9.553442,0.363462,0.053802,-1.295492,-0.478002,-0.795347
1765407989.769542,-10.579865,0.200861,1.969153,-1.301448,-0.462272,-0.793056
1765407989.769823,-10.763988,0.141081,1.276901,-1.272127,-0.454789,-0.777631
1765407989.770156,-9.477522,-0.055595,0.034672,-1.281901,-0.459065,-0.794736
1765407989.770490,-10.466881,0.053802,0.760402,-1.275487,-0.471283,-0.791071
1765407989.770792,-9.334647,1.135820,-0.418460,-1.268614,-0.452957,-0.791529
1765407989.771042,-9.855330,1.233261,0.694046,-1.283428,-0.466854,-0.771828
1765407989.771292,-9.071017,0.963654,-0.686274,-1.283581,-0.431118,-0.744645
1765407989.771542,-9.181013,0.099833,0.315638,-1.290758,-0.448070,-0.744645
1765407989.771774,-8.448709,0.285151,-0.760402,-1.278541,-0.418290,-0.749226
1765407989.772024,-8.487565,0.273792,-0.376614,-1.287551,-0.404698,-0.750295
1765407989.772274,-8.322572,0.887733,-0.621712,-1.269683,-0.404698,-0.736245
1765407989.772524,-9.326876,0.245098,0.204448,-1.287551,-0.428217,-0.738078
1765407989.772824,-9.968913,0.655189,1.089192,-1.268156,-0.400728,-0.738536
1765407989.773074,-8.834887,0.260641,-0.187111,-1.229214,-0.386983,-0.702801
1765407989.773324,-8.415231,-0.694644,-0.768771,-1.215622,-0.391870,-0.706313
1765407989.773574,-9.893590,-0.340746,1.041368,-1.211957,-0.376751,-0.726624
1765407989.773750,-10.895503,0.748446,2.362506,-1.172098,-0.376598,-0.710742
1765407989.774083,-10.310855,1.104735,0.818986,-1.171945,-0.365756,-0.689056
1765407989.774417,-8.891678,0.314443,-0.493783,-1.175305,-0.376293,-0.671952
1765407989.774792,-8.688426,-0.192492,0.055595,-1.173014,-0.359036,-0.681420
1765407989.775042,-8.648971,0.071736,-0.490196,-1.159728,-0.370490,-0.678824
1765407989.775292,-9.829626,0.590626,0.771760,-1.171792,-0.379042,-0.695470
1765407989.775542,-9.330462,0.674318,-0.276184,-1.177443,-0.351553,-0.682337
1765407989.775709,-9.444045,0.692850,0.727523,-1.166905,-0.350331,-0.669508
1765407989.775959,-8.384743,0.414873,-0.353898,-1.179886,-0.346513,-0.665385
1765407989.776209,-8.697990,0.754424,0.985174,-1.183399,-0.360410,-0.663400
1765407989.776459,-8.564083,0.147059,0.474653,-1.168432,-0.347430,-0.633773
1765407989.776815,-8.559898,-0.338355,-0.273792,-1.162018,-0.367435,-0.647670
1765407989.777148,-8.858798,0.089670,0.148254,-1.151786,-0.330631,-0.660651
1765407989.777482,-9.024389,0.607963,-0.114180,-1.126283,-0.329562,-0.641409
1765407989.777774,-8.968196,0.317432,0.841702,-1.122770,-0.328493,-0.625984
1765407989.778024,-8.916187,-0.203252,0.324008,-1.129337,-0.328493,-0.629191
1765407989.778274,-9.587517,-0.096246,1.046150,-1.108262,-0.312916,-0.628886
1765407989.778524,-8.468435,-0.054998,-0.518890,-1.094060,-0.312916,-0.618501
1765407989.778715,-8.468435,-0.054998,-0.518890,-1.094060,-0.324828,-0.618501
1765407989.778965,-8.413438,0.408895,-0.345528,-1.090089,-0.284969,-0.601855
1765407989.779215,-8.831300,0.069943,-0.642037,-1.089936,-0.296422,-0.590096
1765407989.779465,-10.197870,0.384385,0.578670,-1.098947,-0.290925,-0.613156
1765407989.779729,-10.379004,0.708991,0.643831,-1.101237,-0.256869,-0.610560
1765407989.779979,-10.379004,0.708991,0.643831,-1.101237,-0.245415,-0.610560
1765407989.780229,-9.065040,0.920014,0.294715,-1.101237,-0.258701,-0.576810
1765407989.780479,-10.037063,0.442372,0.823768,-1.120480,-0.258701,-0.571923
1765407989.780744,-10.186513,0.390961,0.745457,-1.097878,-0.265115,-0.561843
1765407989.781077,-9.778215,0.434003,0.432209,-1.089325,-0.265268,-0.562454
1765407989.781411,-10.215207,0.649211,0.994739,-1.065349,-0.262825,-0.550237
1765407989.781737,-10.153036,0.264228,1.120277,-1.038929,-0.263436,-0.540768
1765407989.781987,-9.607842,-0.245098,0.582257,-1.038624,-0.263436,-0.538936
1765407989.782237,-9.917501,0.487805,0.133907,-1.019687,-0.251066,-0.549626
1765407989.782487,-9.901362,0.662362,0.813008,-1.012662,-0.240986,-0.536187
1765407989.782712,-10.038258,0.295313,0.676710,-1.006706,-0.224646,-0.520305
1765407989.782962,-10.185316,-0.197274,0.816595,-0.995863,-0.253967,-0.522443
1765407989.783212,-10.235533,-0.147059,1.099952,-0.999681,-0.240681,-0.526260
1765407989.783462,-10.127929,0.108800,0.210426,-0.962876,-0.243888,-0.514196
1765407989.783760,-9.319702,-0.602582,0.126734,-0.983493,-0.250760,-0.517556
1765407989.784010,-10.284551,0.188905,0.972621,-0.965625,-0.250760,-0.523664
1765407989.784260,-10.601385,-0.291726,1.306193,-0.967763,-0.226936,-0.511752
1765407989.784510,-10.687468,0.111191,0.679101,-0.946994,-0.248622,-0.510072
1765407989.784844,-10.530846,0.651602,0.695241,-0.946994,-0.207236,-0.510072
1765407989.785177,-9.751313,-0.174558,0.429220,-0.926530,-0.214566,-0.482431
1765407989.785511,-10.917622,0.505141,0.910449,-0.925919,-0.227242,-0.501826
1765407989.785747,-10.917622,0.505141,0.910449,-0.925919,-0.205403,-0.501826
1765407989.785997,-9.320897,0.593018,-0.263032,-0.889114,-0.201280,-0.476475
1765407989.786247,-9.074604,0.575084,-0.726925,-0.880715,-0.222508,-0.457538
1765407989.786497,-9.730989,-0.038259,0.780727,-0.897666,-0.221591,-0.454331
1765407989.786784,-9.803921,-0.413678,0.429220,-0.863763,-0.214566,-0.447306
1765407989.787034,-9.637732,-0.697035,-0.397537,-0.854448,-0.219301,-0.452193
1765407989.787284,-9.858320,-0.149450,0.275586,-0.854295,-0.201127,-0.475100
1765407989.787534,-10.324006,0.431612,1.165710,-0.845437,-0.201127,-0.449291
1765407989.787844,-10.035867,0.344333,0.146461,-0.838260,-0.200822,-0.427300
1765407989.788094,-10.460305,0.022119,0.841702,-0.846354,-0.212887,-0.422413
1765407989.788344,-10.571496,-0.243902,0.670732,-0.836580,-0.203265,-0.409127
1765407989.788594,-11.068865,-0.405308,1.095170,-0.818407,-0.217926,-0.396757
1765407989.788756,-10.716761,-0.538020,1.309182,-0.819628,-0.212734,-0.412334
1765407989.789089,-10.053802,-0.095050,0.130320,-0.815200,-0.222660,-0.401186
1765407989.789423,-9.801530,-0.786107,0.795074,-0.789238,-0.222660,-0.388968
1765407989.789747,-10.088473,-0.386179,0.960067,-0.780991,-0.223882,-0.392175
1765407989.789997,-10.823768,0.026303,1.270325,-0.772439,-0.229685,-0.378889
1765407989.790247,-11.084408,-0.316834,1.663080,-0.751517,-0.225867,-0.355829
1765407989.790497,-11.084408,-0.316834,1.663080,-0.751517,-0.235336,-0.355829
1765407989.790724,-11.220706,-0.695839,1.945241,-0.719141,-0.248775,-0.354913
1765407989.791057,-10.483022,-0.943926,1.207556,-0.697150,-0.239001,-0.346666
1765407989.791391,-10.440577,-0.909852,0.658776,-0.665996,-0.235947,-0.349720
1765407989.791746,-10.015541,-0.514108,0.148254,-0.654695,-0.235947,-0.352469
1765407989.791996,-10.804638,0.045433,1.402439,-0.654695,-0.249997,-0.352469
1765407989.792246,-9.959349,-0.370038,-0.121353,-0.635453,-0.240681,-0.322231
1765407989.792496,-10.239119,-0.451937,0.206839,-0.618959,-0.268475,-0.321926
1765407989.792807,-9.062648,-0.492587,-0.656384,-0.596815,-0.224951,-0.308334
1765407989.793057,-9.994021,-0.288140,0.199067,-0.582155,-0.246484,-0.301004
1765407989.793307,-10.661166,-0.261836,0.964251,-0.584598,-0.226631,-0.299019
1765407989.793557,-10.471065,-0.477044,0.475849,-0.578031,-0.213956,-0.296881
1765407989.793727,-9.650884,-0.197872,-0.193687,-0.544739,-0.211359,-0.285885
1765407989.794060,-8.888090,-0.444763,-0.599593,-0.551917,-0.219453,-0.283900
1765407989.794394,-9.520563,0.057389,0.600191,-0.541074,-0.227395,-0.284816
1765407989.794871,-10.233141,0.026901,0.789694,-0.530842,-0.211207,-0.274278
1765407989.795121,-9.880439,-0.530846,0.393352,-0.525955,-0.221744,-0.265115
1765407989.795371,-9.806311,0.054998,-0.020325,-0.522443,-0.217315,-0.274126
1765407989.795621,-10.683882,0.011956,0.925394,-0.512974,-0.216704,-0.257174
1765407989.795782,-10.945718,0.002391,1.043759,-0.493274,-0.216704,-0.248011
1765407989.796032,-10.813007,-0.231946,1.182449,-0.500299,-0.211207,-0.249538
1765407989.796282,-10.089071,-0.240316,0.155428,-0.486554,-0.181580,-0.241292
1765407989.796532,-10.124939,-0.263032,-0.000598,-0.466396,-0.196699,-0.228769
1765407989.796779,-10.814800,-0.173362,0.954687,-0.459065,-0.193033,-0.225715
1765407989.797029,-10.875177,-0.240316,0.928383,-0.450208,-0.181122,-0.224646
1765407989.797279,-10.740075,-0.522477,1.168101,-0.436769,-0.170584,-0.216094
1765407989.797529,-9.851745,-0.516499,-0.050215,-0.417985,-0.186772,-0.217010
1765407989.797772,-10.391558,-0.463295,0.520086,-0.412945,-0.186772,-0.217010
1765407989.798105,-10.630080,-0.359278,0.655787,-0.390954,-0.183565,-0.218842
1765407989.798439,-10.645025,-0.209230,0.520684,-0.385303,-0.178067,-0.216399
1765407989.798760,-10.645025,-0.209230,0.520684,-0.385303,-0.162948,-0.216399
1765407989.799010,-9.976088,0.267814,0.077116,-0.366977,-0.170584,-0.201586
1765407989.799260,-10.188306,-0.427427,0.497370,-0.356134,-0.170584,-0.191506
1765407989.799510,-10.289334,-0.028694,0.059780,-0.343306,-0.154091,-0.202349
1765407989.799792,-10.376613,-0.114778,0.467480,-0.336739,-0.144928,-0.189216
1765407989.800042,-10.276181,-0.033477,0.521282,-0.323911,-0.135612,-0.188910
1765407989.800292,-10.331181,-0.064562,0.487207,-0.322842,-0.142332,-0.184481
1765407989.800542,-10.327594,-0.219990,0.473458,-0.317345,-0.142332,-0.185092
1765407989.800785,-10.502151,-0.016141,0.444165,-0.300393,-0.135154,-0.182191
1765407989.801035,-10.551768,-0.063367,0.840507,-0.293063,-0.132863,-0.171959
1765407989.801285,-10.271400,0.236729,0.349115,-0.286496,-0.124158,-0.171195
1765407989.801535,-10.093256,-0.236131,0.095648,-0.284969,-0.114995,-0.162948
1765407989.801800,-10.043041,-0.186514,0.132712,-0.270766,-0.114995,-0.166919
1765407989.802050,-10.106407,-0.093257,0.026303,-0.266185,-0.109650,-0.162796
1765407989.802300,-10.423241,0.126734,0.844691,-0.269239,-0.099113,-0.168599
1765407989.802550,-10.129124,0.164993,-0.076518,-0.262825,-0.089797,-0.159741
1765407989.802819,-10.129124,0.164993,-0.076518,-0.262825,-0.094837,-0.159741
1765407989.803069,-9.925274,-0.052606,0.136896,-0.236099,-0.082620,-0.151342
1765407989.803319,-10.346125,-0.514108,0.887135,-0.238696,-0.081245,-0.141721
1765407989.803569,-10.066953,-0.542802,0.129723,-0.220522,-0.083078,-0.144775
1765407989.803744,-9.912122,-0.683285,-0.140483,-0.212887,-0.083078,-0.139430
1765407989.803994,-9.912122,-0.683285,-0.140483,-0.212887,-0.064294,-0.139430
1765407989.804244,-10.170969,-0.728120,0.510521,-0.191201,-0.061392,-0.133474
1765407989.804494,-10.425632,-0.857245,0.938546,-0.182191,-0.062156,-0.127671
1765407989.804741,-9.882831,-0.810617,-0.099833,-0.171195,-0.065668,-0.122020
1765407989.804991,-9.928861,-0.936155,0.082496,-0.159130,-0.065668,-0.112857
1765407989.805241,-9.928861,-0.936155,0.082496,-0.159130,-0.057269,-0.112857
1765407989.805491,-10.224771,-0.945720,0.529651,-0.143095,-0.052840,-0.108429
1765407989.805727,-9.997009,-1.000717,0.146461,-0.137292,-0.046273,-0.103847
1765407989.805977,-10.020324,-0.783118,0.331181,-0.129351,-0.041997,-0.097433
1765407989.806227,-10.169774,-1.104735,0.621712,-0.120799,-0.037263,-0.079412
1765407989.806477,-10.131515,-1.254184,0.473458,-0.111483,-0.043830,-0.079107
1765407989.806817,-10.120754,-1.255380,0.291726,-0.101098,-0.030238,-0.076511
1765407989.807067,-9.715446,-1.346246,-0.239120,-0.092546,-0.030238,-0.064599
1765407989.807317,-9.907937,-1.323529,0.211621,-0.086896,-0.028100,-0.062003
1765407989.807567,-10.294117,-1.287661,0.844094,-0.081245,-0.021533,-0.055283
1765407989.807830,-10.281563,-1.288857,0.543998,-0.072082,-0.022449,-0.048869
1765407989.808080,-10.022716,-1.304400,0.114180,-0.071777,-0.025198,-0.042761
1765407989.808330,-9.878048,-1.315160,-0.116571,-0.059712,-0.022449,-0.035583
1765407989.808580,-9.878048,-1.315160,-0.116571,-0.059712,-0.019548,-0.035583
1765407989.808791,-10.340744,-1.398254,0.802845,-0.049480,-0.013744,-0.020769
1765407989.809041,-10.200860,-1.334888,0.590626,-0.039401,-0.010232,-0.015882
1765407989.809291,-9.771041,-1.257771,0.048422,-0.031307,-0.010843,-0.010079
1765407989.809541,-9.884026,-1.229077,0.170373,-0.022755,-0.018021,-0.003512
1765407989.809785,-9.884026,-1.229077,0.170373,-0.022755,-0.015424,-0.003512
1765407989.809985,-10.057388,-1.165710,0.390961,-0.011148,-0.010996,0.004429
1765407989.810185,-9.775824,-0.967240,0.056791,-0.007789,-0.001680,0.003971
1765407989.810385,-9.806311,-0.688666,0.090866,-0.005498,-0.004581,0.009468
1765407989.810585,-10.160210,-0.704208,0.729316,-0.001985,-0.004581,0.019395
1765407989.810759,-10.050214,-0.907460,0.503945,0.002291,-0.002596,0.025045
1765407989.811009,-9.983858,-0.805237,0.334768,0.001680,-0.006109,0.019242
1765407989.811259,-9.970109,-0.597800,0.432807,0.009621,-0.007483,0.018326
1765407989.811509,-10.043638,-0.301291,0.444763,0.011606,-0.003512,0.016493
1765407989.811764,-9.941415,0.020923,0.413678,0.010996,-0.003512,0.020769
1765407989.811964,-9.894786,-0.122549,0.396939,0.009774,-0.005192,0.027184
1765407989.812164,-10.015541,-0.091463,0.453132,0.010537,-0.015424,0.023213
1765407989.812364,-9.954566,-0.168580,0.304878,0.012523,-0.007636,0.025809
1765407989.812564,-9.715446,-0.258847,0.105811,0.016493,-0.002443,0.025198
1765407989.812757,-9.854136,-0.062171,0.363462,0.022297,-0.008552,0.016035
1765407989.812957,-9.940218,0.213415,0.436394,0.019395,-0.005040,0.014050
1765407989.813157,-9.851745,0.427427,0.230751,0.019242,-0.005345,0.016188
1765407989.813357,-9.797942,0.518890,0.276184,0.020769,-0.003360,0.015272
1765407989.813557,-9.833811,0.365256,0.281564,0.017562,-0.005956,0.019242
1765407989.813755,-10.010758,0.267814,0.405308,0.016493,-0.008094,0.017257
1765407989.813955,-10.030487,0.236729,0.417264,0.017868,-0.000305,0.010996
1765407989.814155,-9.806311,0.383190,0.147059,0.018021,0.002596,0.006720
1765407989.814355,-9.884026,0.504543,0.335964,0.016188,-0.006109,0.004276
1765407989.814555,-10.057388,0.563128,0.524868,0.012370,-0.003054,0.002291
1765407989.814830,-10.040051,0.530249,0.356289,0.010385,-0.007483,0.003360
1765407989.815030,-9.936033,0.535629,0.234338,0.009010,-0.003971,0.000458
1765407989.815230,-9.854136,0.622908,0.210426,0.008094,-0.009621,-0.000153
1765407989.815430,-10.009563,0.622310,0.353300,0.004734,-0.009621,0.000611
1765407989.815630,-10.086082,0.580464,0.438785,-0.001985,-0.008399,-0.003360
1765407989.815783,-10.032280,0.496174,0.390363,-0.001374,-0.006261,-0.001680
1765407989.815983,-9.872667,0.460904,0.193687,-0.004276,-0.008247,-0.003512
1765407989.816183,-9.925871,0.443568,0.280966,-0.009774,-0.009316,-0.008247
1765407989.816383,-10.026302,0.393352,0.340746,-0.012981,-0.009316,-0.006414
1765407989.816583,-10.106407,0.367647,0.435198,-0.015882,-0.010537,-0.004734
1765407989.816726,-9.994021,0.286944,0.351506,-0.015577,-0.008552,-0.007025
1765407989.816976,-9.898373,0.251674,0.273792,-0.015577,-0.004581,-0.007025
1765407989.817226,-9.860114,0.208034,0.230751,-0.023976,-0.006872,-0.010385
1765407989.817476,-9.949782,0.198470,0.301291,-0.023213,-0.006414,-0.009621
1765407989.817723,-10.004184,0.191296,0.346724,-0.027336,-0.006720,-0.011454
1765407989.817923,-9.885818,0.126136,0.221784,-0.027642,-0.004887,-0.011148
1765407989.818123,-9.827234,0.077714,0.176949,-0.031001,-0.005803,-0.010690
1765407989.818323,-9.922284,0.048422,0.311454,-0.030391,-0.007941,-0.011301
1765407989.818523,-10.151243,0.032281,0.563128,-0.029932,-0.012217,-0.011454
1765407989.818781,-10.089071,-0.086083,0.435198,-0.029932,-0.011148,-0.006261
1765407989.819031,-9.935436,-0.178144,0.196676,-0.028711,-0.003971,-0.007025
1765407989.819281,-9.944403,-0.161406,0.284553,-0.027947,-0.003971,-0.009010
1765407989.819531,-9.944403,-0.161406,0.284553,-0.027947,-0.010385,-0.009010
1765407989.819833,-10.065758,-0.135701,0.485414,-0.026420,-0.007178,-0.008858
1765407989.820033,-9.846962,-0.239120,0.170971,-0.022755,-0.004123,-0.004887
1765407989.820233,-9.781204,-0.345528,0.227762,-0.023213,-0.011148,-0.005498
1765407989.820433,-9.941415,-0.310258,0.361669,-0.019395,-0.011148,-0.010385
1765407989.820633,-10.069344,-0.252272,0.583453,-0.022755,-0.012370,-0.012981
1765407989.820767,-9.848756,-0.245098,0.218795,-0.019090,-0.005192,-0.009774
1765407989.820967,-9.723217,-0.289335,0.108800,-0.016188,-0.010079,-0.008399
1765407989.821167,-9.860114,-0.326399,0.330583,-0.012981,-0.007636,-0.007636
1765407989.821367,-10.053802,-0.379005,0.575084,-0.014203,-0.007636,-0.006720
1765407989.821567,-10.001194,-0.345528,0.393352,-0.010690,-0.004734,-0.007025
1765407989.821759,-9.765661,-0.239120,0.155428,-0.010385,-0.006109,-0.006720
1765407989.822009,-9.745336,-0.245098,0.233142,-0.009468,-0.006109,-0.004887
1765407989.822259,-9.910329,-0.277379,0.424438,-0.012217,-0.010385,-0.003054
1765407989.822509,-9.973696,-0.218795,0.369440,-0.007178,-0.004276,-0.000764
1765407989.822753,-9.825441,-0.276184,0.172166,-0.000611,-0.003512,0.001374
1765407989.822953,-9.797942,-0.329986,0.307867,-0.004581,-0.008247,0.001222
1765407989.823153,-10.045432,-0.277379,0.551172,-0.005803,-0.008247,-0.002443
1765407989.823353,-10.045432,-0.277379,0.551172,-0.005803,-0.005040,-0.002443
1765407989.823553,-9.946198,-0.084290,0.277379,-0.003360,-0.002902,-0.002138
1765407989.823722,-9.821257,-0.102822,0.237924,-0.005192,-0.003054,0.002749
1765407989.823922,-9.934838,-0.156624,0.380201,-0.003818,-0.006720,0.005803
1765407989.824122,-10.092059,-0.160808,0.521282,-0.001222,-0.008247,0.003207
1765407989.824322,-10.092059,-0.160808,0.521282,-0.001222,-0.001985,0.003207
1765407989.824522,-9.787780,-0.052606,0.180536,-0.002902,-0.006414,0.001985
1765407989.824825,-9.915709,-0.017934,0.340148,-0.004429,-0.006414,0.007178
1765407989.825025,-10.084887,-0.033477,0.552367,-0.003971,-0.009316,0.006567
1765407989.825225,-10.059779,-0.043639,0.414873,-0.003971,-0.004276,0.004734
1765407989.825425,-9.895982,-0.132712,0.181731,-0.002443,-0.005040,0.005651
1765407989.825625,-9.909132,-0.104017,0.319823,-0.004734,-0.007483,0.005803
1765407989.825841,-10.117765,-0.115973,0.514108,-0.005803,-0.008858,0.006720
1765407989.826041,-10.015541,-0.151243,0.367647,-0.003818,-0.003665,0.008858
1765407989.826241,-9.838593,-0.127929,0.178144,0.001069,-0.003665,0.006414
1765407989.826441,-9.797942,0.004782,0.159015,-0.000611,-0.001833,0.003971
1765407989.826641,-9.996411,0.053802,0.420851,0.000153,-0.005651,0.002291
1765407989.826778,-10.059181,0.063367,0.405906,0.001680,-0.005956,0.004276
1765407989.826945,-9.946198,0.087279,0.284553,0.000305,-0.003971,0.006414
1765407989.827111,-9.847560,0.104017,0.117169,0.000000,-0.005192,0.004734
1765407989.827278,-9.930654,0.065758,0.337757,-0.000916,-0.005345,0.002596
1765407989.827445,-10.124939,0.072932,0.570301,-0.002749,-0.010537,0.002749
1765407989.827611,-10.071137,0.072932,0.414873,-0.000764,-0.004734,0.000764
1765407989.827777,-9.916306,0.125538,0.277379,-0.001222,-0.004429,0.000764
1765407989.827977,-9.861309,0.154232,0.246891,-0.002749,-0.007025,0.003207
1765407989.828177,-9.913916,0.161406,0.319225,-0.003054,-0.010232,0.002596
1765407989.828377,-9.924676,0.145863,0.390363,-0.001527,-0.005651,0.001985
1765407989.828577,-9.861309,0.181133,0.285748,-0.003971,-0.006261,0.000611
1765407989.828763,-9.739358,0.222382,0.182927,-0.009163,-0.007636,-0.000916
1765407989.828963,-9.813485,0.193687,0.234338,-0.009316,-0.009468,-0.000458
1765407989.829163,-9.937828,0.137494,0.426231,-0.007789,-0.010385,-0.000458
1765407989.829363,-10.023911,0.108800,0.403515,-0.010079,-0.008247,-0.001069
1765407989.829563,-9.921089,0.166188,0.284553,-0.011301,-0.004276,-0.004123
1765407989.829772,-9.863102,0.194883,0.254663,-0.014966,-0.005651,-0.001680
1765407989.829972,-9.976088,0.144668,0.438785,-0.013134,-0.008094,-0.003665
1765407989.830172,-10.063366,0.077714,0.485414,-0.009468,-0.009621,-0.003512
1765407989.830372,-9.922284,-0.001196,0.314443,-0.012217,-0.001527,-0.001985
1765407989.830572,-9.794355,-0.011956,0.143472,-0.009621,-0.001527,-0.005803
1765407989.830826,-9.832017,0.043042,0.312649,-0.013439,-0.006720,-0.005040
1765407989.831076,-10.079505,0.031086,0.522477,-0.012828,-0.008094,-0.003054
1765407989.831326,-10.067551,-0.020325,0.428623,-0.012828,-0.005192,-0.003054
1765407989.831576,-9.933045,-0.038259,0.212817,-0.013134,-0.004276,-0.001985
1765407989.831775,-9.923481,-0.090268,0.319823,-0.012981,-0.005040,-0.005803
1765407989.831975,-10.047822,-0.093257,0.508130,-0.010996,-0.008705,-0.007025
1765407989.832175,-10.077712,0.020325,0.447154,-0.012370,-0.005192,-0.006567
1765407989.832375,-9.896580,-0.008369,0.211621,-0.010843,-0.000916,-0.007636
1765407989.832575,-9.783595,-0.038259,0.133907,-0.009621,-0.007636,-0.004123
1765407989.832770,-9.946198,-0.052009,0.406504,-0.010232,-0.008247,-0.006872
1765407989.832970,-10.040649,-0.042444,0.425634,-0.009468,-0.007178,-0.006567
1765407989.833170,-9.860114,-0.010760,0.133907,-0.010079,-0.002138,-0.004429
1765407989.833370,-9.766856,-0.045433,0.108800,-0.010385,-0.003665,-0.002291
1765407989.833570,-9.959349,-0.061573,0.420253,-0.012217,-0.012523,-0.004887
1765407989.833874,-10.104015,-0.055595,0.527260,-0.012217,-0.009774,-0.002902
1765407989.834074,-9.945600,-0.124342,0.293520,-0.011148,-0.005040,-0.003207
1765407989.834274,-9.732184,-0.124342,0.057389,-0.011759,-0.011148,-0.004276
1765407989.834474,-9.867885,-0.160210,0.324008,-0.011912,-0.011148,-0.002291
1765407989.834674,-10.057388,-0.163199,0.533238,-0.009316,-0.008247,-0.003054
1765407989.834910,-10.008368,-0.132114,0.380799,-0.009010,-0.008094,-0.002443
1765407989.835110,-9.823050,-0.124342,0.109397,-0.009927,-0.002291,0.000764
1765407989.835310,-9.765063,-0.155428,0.142874,-0.011301,-0.006261,-0.000153
1765407989.835510,-10.083690,-0.115973,0.522477,-0.006872,-0.012065,0.000000
1765407989.835710,-10.083690,-0.115973,0.522477,-0.006872,-0.007330,0.000000
1765407989.835787,-9.997009,-0.135103,0.309063,-0.006109,-0.007483,0.001680
1765407989.835987,-9.810495,-0.133309,0.144668,-0.009163,-0.005956,-0.000458
1765407989.836187,-9.907937,-0.136298,0.359278,-0.007330,-0.010843,-0.000611
1765407989.836387,-10.117167,-0.068149,0.504543,-0.003207,-0.009010,-0.002443
1765407989.836587,-10.117167,-0.068149,0.504543,-0.003207,-0.005956,-0.002443
1765407989.836897,-9.801530,-0.054998,0.123147,-0.006872,-0.008858,0.001374
1765407989.837097,-9.759683,-0.052606,0.227164,-0.007636,-0.008858,0.000458
1765407989.837297,-9.892395,-0.046628,0.359876,-0.007025,-0.007178,0.002596
1765407989.837497,-9.979673,-0.001196,0.432807,-0.005803,-0.008399,0.001985
1765407989.837697,-9.931850,0.016738,0.283357,-0.004581,-0.005345,0.002749
1765407989.837818,-9.808105,-0.020325,0.179340,-0.003054,-0.003360,0.003207
1765407989.838018,-9.862504,0.000000,0.286346,-0.008247,-0.005651,0.002291
1765407989.838218,-10.026900,0.017934,0.454328,-0.006109,-0.008094,0.000458
1765407989.838418,-10.041844,-0.014945,0.453132,-0.006109,-0.004581,-0.001527
1765407989.838618,-9.938425,-0.017336,0.251674,-0.005192,-0.005345,0.002138
1765407989.838824,-9.924676,0.045433,0.304878,-0.006872,-0.006414,0.001374
1765407989.839024,-10.011955,0.037064,0.425634,-0.008094,-0.006414,-0.000153
1765407989.839224,-10.075322,-0.003587,0.475849,-0.005956,-0.009316,-0.000305
1765407989.839424,-9.939023,0.010760,0.301291,-0.006720,-0.004429,0.003360
1765407989.839624,-9.810495,0.022716,0.144668,-0.005498,-0.004429,0.002443
1765407989.839832,-9.846962,0.054998,0.176949,-0.005498,-0.005192,0.002443
1765407989.840032,-10.032877,0.001196,0.474653,-0.008247,-0.008247,-0.001680
1765407989.840232,-10.102820,0.031683,0.468077,-0.006261,-0.009468,-0.000611
1765407989.840432,-9.987445,0.029890,0.276781,-0.008858,-0.005040,-0.001069
1765407989.840632,-9.890003,-0.003587,0.280966,-0.007483,-0.005345,-0.001833
1765407989.840774,-9.980869,-0.009565,0.408895,-0.010690,-0.007330,0.000764
1765407989.840974,-9.948587,0.066954,0.356887,-0.008858,-0.008094,-0.001680
1765407989.841174,-9.809898,0.054998,0.184122,-0.005803,-0.005498,-0.000305
1765407989.841374,-9.787182,0.007771,0.121353,-0.007483,-0.005956,-0.000458
1765407989.841574,-9.946198,0.039455,0.405308,-0.009621,-0.007483,-0.003512
1765407989.841891,-10.049019,0.015543,0.449546,-0.010079,-0.009927,-0.001374
1765407989.842091,-9.904350,-0.005978,0.293520,-0.012065,-0.003512,0.000305
1765407989.842291,-9.868484,0.000000,0.222382,-0.008858,-0.004887,-0.002596
1765407989.842491,-9.979673,-0.017934,0.370636,-0.011148,-0.010079,-0.001222
1765407989.842691,-10.095646,-0.022716,0.512912,-0.013134,-0.008399,-0.003360
1765407989.842783,-9.989837,-0.032281,0.339550,-0.009774,-0.003818,-0.002138
1765407989.842983,-9.791367,-0.040650,0.148254,-0.010690,-0.003971,-0.002443
1765407989.843183,-9.840983,-0.059182,0.308465,-0.012065,-0.009621,-0.000916
1765407989.843383,-10.032877,-0.065758,0.518890,-0.009010,-0.006414,-0.000458
1765407989.843583,-10.020324,-0.044237,0.425634,-0.010232,-0.006414,-0.000764
1765407989.843753,-9.819464,-0.074127,0.161406,-0.007330,-0.001985,-0.002902
1765407989.843953,-9.855929,-0.107604,0.271401,-0.006872,-0.011454,-0.001222
1765407989.844153,-10.096842,-0.053204,0.569106,-0.009163,-0.010996,-0.003054
1765407989.844353,-10.096842,-0.053204,0.569106,-0.009163,-0.005956,-0.003054
1765407989.844553,-9.857722,-0.041846,0.167384,-0.008858,-0.006567,-0.002443
1765407989.844778,-9.789574,-0.081301,0.190100,-0.007025,-0.006109,-0.001680
1765407989.844978,-9.995216,-0.076518,0.479436,-0.007941,-0.010079,-0.003971
1765407989.845178,-10.045432,-0.035868,0.431612,-0.006261,-0.008705,-0.001374
1765407989.845378,-9.869678,-0.007174,0.224175,-0.008858,-0.002749,-0.000764
1765407989.845578,-9.846962,-0.066954,0.222382,-0.006720,-0.004887,0.002902
1765407989.845724,-10.046627,-0.088474,0.471066,-0.010079,-0.010079,-0.001069
1765407989.845924,-10.130320,-0.078312,0.511717,-0.008094,-0.005040,-0.002596
1765407989.846124,-9.879243,-0.069345,0.223577,-0.005498,-0.003512,-0.000305
1765407989.846324,-9.795551,-0.021521,0.191894,-0.008094,-0.004734,0.001680
1765407989.846524,-9.969511,-0.020923,0.481827,-0.006109,-0.009010,0.000000
1765407989.846789,-10.068149,-0.074725,0.520684,-0.007330,-0.007789,-0.001833
1765407989.846989,-9.906742,-0.013152,0.255858,-0.007025,-0.007636,0.000611
1765407989.847189,-9.778812,-0.015543,0.077714,-0.008094,-0.004123,-0.000458
1765407989.847389,-9.814680,-0.050215,0.197274,-0.007941,-0.009774,-0.000611
1765407989.847589,-10.047822,-0.036466,0.521282,-0.007941,-0.010385,0.000153
1765407989.847753,-10.093853,-0.001196,0.490196,-0.007483,-0.006414,-0.000764
1765407989.847953,-9.919893,-0.007771,0.204448,-0.009468,-0.005803,0.001527
1765407989.848153,-9.904350,-0.015543,0.258250,-0.006720,-0.006261,0.000764
1765407989.848353,-10.059779,-0.041248,0.439383,-0.007789,-0.007636,0.001374
1765407989.848553,-10.157221,-0.049020,0.567910,-0.009468,-0.008705,-0.001527
1765407989.848792,-9.995216,-0.021521,0.337757,-0.008094,-0.005345,-0.000764
1765407989.848992,-9.812290,-0.004782,0.145863,-0.006567,-0.004276,-0.000611
1765407989.849192,-9.855330,0.002391,0.240316,-0.011454,-0.011301,-0.001833
1765407989.849392,-9.855330,0.002391,0.240316,-0.011454,-0.008705,-0.001833
1765407989.849592,-9.947392,0.001196,0.321616,-0.005345,-0.004276,0.000000
1765407989.849782,-9.852343,0.013152,0.252272,-0.008858,-0.004276,0.001069
1765407989.849982,-9.784791,-0.019130,0.173960,-0.005498,-0.003818,-0.001374
1765407989.850182,-9.925871,-0.002391,0.345528,-0.008247,-0.008094,-0.002138
1765407989.850382,-9.925871,-0.002391,0.345528,-0.008247,-0.009163,-0.002138
1765407989.850582,-9.990434,-0.029292,0.346724,-0.007483,-0.007330,0.000000
1765407989.850763,-9.600669,-0.194883,0.542802,-0.008247,-0.007330,-0.001833
1765407989.851013,-9.428502,0.174558,0.249880,-0.010843,-0.010996,-0.010843
1765407989.851263,-9.334049,0.459110,-0.178144,-0.011454,-0.002749,-0.002902
1765407989.851513,-9.647297,-0.037064,0.432807,-0.005345,-0.003207,0.012828
1765407989.851749,-9.872069,-0.239120,0.867408,-0.009621,0.015272,0.004123
1765407989.851949,-10.160808,-0.181133,1.013869,-0.013744,0.015272,-0.003971
1765407989.852149,-9.730989,-0.349115,-0.298900,-0.006720,0.006567,-0.005803
1765407989.852349,-9.734576,-0.179340,-0.086083,-0.001222,-0.005192,-0.005651
1765407989.852549,-10.082495,0.339550,0.786107,-0.005803,0.014355,-0.005192
1765407989.852819,-10.316833,0.457317,1.291846,-0.009163,0.014966,0.000000
1765407989.853019,-9.615016,-0.219990,0.084888,-0.015577,0.009010,0.007941
1765407989.853219,-9.524150,-0.665949,-0.239120,-0.008094,-0.007789,0.001833
1765407989.853419,-9.730392,-0.351506,0.203252,-0.004429,0.013286,-0.011301
1765407989.853619,-9.843375,0.407102,0.478240,-0.007483,0.013286,-0.013744
1765407989.853865,-9.843375,0.407102,0.478240,-0.007483,0.013592,-0.013744
1765407989.854065,-9.740554,-0.044835,0.192492,-0.009316,0.005956,0.008705
1765407989.854265,-10.060376,-0.454328,0.681492,-0.009316,0.007025,0.008705
1765407989.854465,-10.145264,-0.298900,0.652798,-0.006720,0.014966,-0.008094
1765407989.854665,-9.746531,-0.029292,0.072932,-0.007789,0.014966,-0.006720
1765407989.854872,-9.746531,-0.029292,0.072932,-0.007789,0.006720,-0.006720
1765407989.855072,-10.010161,0.124342,0.439981,-0.008858,0.001222,-0.000916
1765407989.855272,-10.211022,0.120756,0.699426,-0.008858,0.011301,-0.000153
1765407989.855472,-9.963533,-0.145863,0.292922,-0.007636,0.016035,0.004276
1765407989.855672,-9.813485,-0.301291,0.063367,-0.007941,0.007178,0.000153
1765407989.855787,-9.919296,-0.188905,0.324008,-0.008858,0.004429,-0.005498
1765407989.855987,-10.031085,0.061573,0.423242,-0.006567,0.013134,-0.007636
1765407989.856187,-9.832614,0.267814,0.174558,-0.008247,0.013134,-0.002596
1765407989.856387,-9.868484,0.205643,0.137494,-0.009468,0.010996,0.005192
1765407989.856587,-10.017335,-0.229555,0.295313,-0.006720,0.004734,0.007789
1765407989.856787,-10.216402,-0.382592,0.581659,-0.007636,0.004276,-0.001527
1765407989.856987,-10.077712,-0.126734,0.431612,-0.008094,0.010690,-0.009468
1765407989.857187,-9.819464,0.178742,0.078910,-0.006567,0.011454,-0.008705
1765407989.857387,-9.870276,0.240913,0.193687,-0.007941,0.001680,0.000000
1765407989.857587,-10.101027,0.058584,0.446557,-0.007483,0.004123,0.004734
1765407989.857801,-10.103418,-0.202056,0.408895,-0.007330,0.009316,0.004581
1765407989.858001,-9.887612,-0.237924,0.133907,-0.007025,0.007483,-0.003512
1765407989.858201,-9.840386,-0.059182,0.125538,-0.009163,0.003360,-0.005040
1765407989.858401,-9.840386,-0.059182,0.125538,-0.009163,0.002596,-0.005040
1765407989.858601,-10.099234,0.108202,0.479436,-0.006720,0.005651,-0.000764
1765407989.858866,-9.927666,0.000598,0.144668,-0.005956,0.006720,0.001985
1765407989.859066,-9.885221,-0.059780,0.083692,-0.007178,0.003818,-0.001680
1765407989.859266,-10.205045,-0.056193,0.557150,-0.007636,0.000611,-0.000611
1765407989.859466,-10.312051,-0.120756,0.606169,-0.007636,0.007178,-0.000611
1765407989.859666,-10.099234,-0.053204,0.269010,-0.006261,0.005498,-0.000611
1765407989.859801,-9.888210,0.083094,0.026303,-0.009468,0.003665,-0.003665
1765407989.860001,-9.867287,0.072334,0.242707,-0.010079,-0.002902,-0.002596
1765407989.860201,-10.051410,0.010163,0.404113,-0.009468,-0.002902,0.000764
1765407989.860401,-10.007771,-0.007174,0.289335,-0.010690,0.004123,0.001222
1765407989.860601,-9.967718,-0.046628,0.200263,-0.010079,0.003818,-0.000458
1765407989.860823,-10.093256,-0.038259,0.409493,-0.008858,-0.003818,-0.002291
1765407989.861023,-10.162600,0.005978,0.480033,-0.008705,-0.000305,0.000000
1765407989.861223,-9.971304,-0.010760,0.188307,-0.008705,-0.000305,-0.001833
1765407989.861423,-9.893590,-0.037064,0.131516,-0.010537,-0.002902,-0.001374
1765407989.861623,-9.998802,-0.019130,0.267217,-0.006872,-0.003665,-0.001985
1765407989.861940,-10.149448,0.056791,0.389766,-0.009316,-0.003971,-0.002443
1765407989.862140,-10.040649,-0.046628,0.357484,-0.010232,0.001680,0.001680
1765407989.862340,-9.913916,-0.149450,0.224175,-0.007636,-0.001069,0.000153
1765407989.862540,-10.064561,-0.082496,0.378407,-0.008247,-0.009621,-0.003971
1765407989.862740,-10.138689,-0.001196,0.422645,-0.008705,-0.005803,-0.002138
1765407989.862819,-9.912720,0.044237,0.161406,-0.006567,-0.001833,-0.002138
1765407989.863019,-9.832614,0.040650,0.160210,-0.006872,-0.002749,-0.001222
1765407989.863219,-9.934240,-0.096844,0.382592,-0.010385,-0.005956,0.000764
1765407989.863419,-10.094451,-0.098637,0.431014,-0.007330,-0.009163,0.000305
1765407989.863619,-9.971304,-0.066954,0.276781,-0.006261,-0.005192,-0.000916
1765407989.863835,-9.817072,-0.050215,0.141679,-0.006872,-0.003512,-0.001527
1765407989.864085,-9.901959,0.017934,0.318030,-0.009927,-0.012065,-0.001985
1765407989.864335,-10.111190,0.069345,0.496174,-0.009010,-0.009927,-0.001069
1765407989.864585,-9.976088,-0.008369,0.320421,-0.006872,-0.002902,0.000764
1765407989.865749,-9.794952,-0.107006,0.201459,-0.008399,-0.009316,0.003818
1765407989.868780,-9.911524,-0.174558,0.379005,-0.007025,-0.009316,-0.000153
1765407989.870751,-10.009563,-0.041248,0.431014,-0.007789,-0.009163,-0.001985
1765407989.872815,-9.933045,0.063367,0.305476,-0.006414,-0.006720,-0.002596
1765407989.875746,-9.811094,0.066954,0.219990,-0.007636,-0.003360,0.000458
1765407989.878752,-9.896580,-0.026303,0.334768,-0.009010,-0.005651,0.003818
1765407989.880725,-10.054996,-0.084290,0.564323,-0.009163,-0.006720,0.000153
1765407989.883825,-9.955761,-0.102822,0.285748,-0.010843,-0.002596,-0.002596
1765407989.885826,-9.702294,-0.016738,0.101626,-0.008094,-0.002443,-0.002291
1765407989.888802,-9.823050,0.043639,0.344333,-0.009010,-0.003665,-0.001374
1765407989.890798,-9.979673,0.013749,0.502152,-0.007941,-0.007941,0.001069
1765407989.893811,-9.857722,-0.009565,0.255858,-0.008399,-0.005803,0.002138
1765407989.895766,-9.748923,-0.015543,0.160210,-0.008094,-0.003971,0.001374
1765407989.898763,-9.879841,-0.064562,0.377810,-0.007941,-0.003054,-0.000611
1765407989.900747,-10.092059,-0.031086,0.569106,-0.007330,-0.003054,-0.002443
1765407989.903724,-10.092059,-0.031086,0.569106,-0.007330,-0.001527,-0.002443
1765407989.905783,-9.780606,-0.023314,0.185318,-0.011912,0.000305,0.000153
1765407989.908796,-9.862504,-0.009565,0.370636,-0.012828,-0.003818,0.000305
1765407989.910782,-10.060376,-0.022716,0.581062,-0.008552,0.000764,0.000458
1765407989.913764,-9.934240,-0.006576,0.337159,-0.006261,0.000764,-0.000458
1765407989.915720,-9.934240,-0.006576,0.337159,-0.006261,0.001985,-0.000458
1765407989.918751,-9.827832,-0.023314,0.356289,-0.007789,-0.001069,0.001985
1765407989.920745,-10.023313,-0.012554,0.538020,-0.008858,-0.005192,0.001069
1765407989.921730,-9.984456,-0.037661,0.365256,-0.009468,0.000458,0.001527
1765407989.925722,-9.782400,-0.001196,0.202056,-0.007636,0.000458,0.000916
1765407989.926775,-9.812290,-0.000598,0.243902,-0.007636,-0.003360,0.000000
1765407989.930745,-9.961740,-0.057389,0.484218,-0.010690,-0.004887,0.001527
1765407989.933801,-9.972500,-0.037064,0.432807,-0.008552,0.000000,0.001069
1765407989.935799,-9.808702,0.010163,0.174558,-0.008552,0.001069,-0.001069
1765407989.938827,-9.704685,-0.025108,0.168580,-0.009468,-0.000153,0.000458
1765407989.940788,-9.869080,-0.063367,0.341942,-0.008552,-0.002291,-0.001527
1765407989.943723,-10.015541,-0.011956,0.477044,-0.010079,0.004734,0.001527
1765407989.945804,-9.850550,-0.023314,0.206839,-0.011454,0.004734,-0.001527
1765407989.948721,-9.728598,-0.063965,0.131516,-0.011454,0.001985,-0.001527
1765407989.950774,-9.934838,-0.044237,0.417862,-0.011912,-0.002596,-0.000458
1765407989.952819,-10.071735,-0.032281,0.555954,-0.008858,-0.001069,-0.000305
1765407989.955749,-9.852941,-0.030488,0.224773,-0.008858,0.005651,-0.000916
1765407989.957817,-9.689142,-0.002391,0.102822,-0.009316,0.006567,-0.000305
1765407989.960861,-9.689142,-0.002391,0.102822,-0.009316,0.001527,-0.000305
1765407989.965516,-10.046627,-0.025108,0.429818,-0.014050,0.001680,0.001527
1765407989.966016,-10.034670,-0.035270,0.347920,-0.009774,0.006567,0.001222
1765407989.968745,-9.830821,-0.032281,0.137494,-0.009010,0.006261,0.001680
1765407989.970815,-9.849353,-0.001196,0.216404,-0.009316,0.003665,0.001985
1765407989.973796,-9.849353,-0.001196,0.216404,-0.009316,0.003665,0.001985
1765407989.975728,-10.113581,-0.099235,0.459110,-0.008399,0.005040,0.000611
1765407989.978741,-9.947392,-0.095648,0.223577,-0.007178,0.003207,0.000458
1765407989.980729,-9.890601,-0.080105,0.200861,-0.009621,0.003665,0.000000
1765407989.983742,-10.050214,-0.010760,0.453132,-0.007789,0.001985,-0.000305
1765407989.985730,-10.120754,0.041248,0.514108,-0.006261,0.002291,0.001069
1765407989.988806,-9.946198,0.057987,0.210426,-0.009468,0.004581,0.002596
1765407989.990821,-9.836799,-0.054998,0.058584,-0.011148,0.000764,0.003512
1765407989.993830,-9.983858,-0.109397,0.274988,-0.012065,0.001222,0.000916
1765407989.995771,-10.166784,-0.095648,0.508130,-0.007789,-0.003512,-0.000458
1765407989.998770,-10.074127,-0.041846,0.322812,-0.006720,0.001527,0.000458
1765407989.999783,-9.836202,0.013749,0.112386,-0.007483,0.002749,0.001069
1765407990.003781,-9.945002,0.021521,0.279770,-0.007941,-0.001680,-0.001222
1765407990.004809,-10.117167,-0.062769,0.495576,-0.012065,-0.003360,0.000153
1765407990.008757,-10.160210,-0.054400,0.451339,-0.010079,0.001680,-0.001222
1765407990.010762,-9.973696,0.007174,0.247489,-0.009468,0.002443,0.000000
1765407990.013758,-9.869678,0.026303,0.205643,-0.008705,0.000458,0.002291
1765407990.015736,-9.935436,0.024510,0.273195,-0.008094,-0.004887,0.002902
1765407990.018799,-10.052606,-0.003587,0.382592,-0.011148,-0.004887,0.002138
1765407990.020786,-9.945002,-0.054998,0.252869,-0.011759,0.002291,0.003207
1765407990.022804,-9.838593,-0.095050,0.131516,-0.010537,0.001222,0.002291
1765407990.025799,-9.991630,-0.064562,0.327594,-0.010537,-0.007178,-0.001222
1765407990.028798,-10.153036,-0.024510,0.466284,-0.008705,-0.009621,-0.000458
1765407990.029298,-10.176349,0.011956,0.503945,-0.008705,-0.009163,0.002749
1765407990.031732,-9.987445,0.068149,0.370038,-0.008399,-0.004276,0.001680
1765407990.035762,-9.899570,0.049020,0.216404,-0.008094,-0.009468,0.002749
1765407990.038791,-10.094451,-0.009565,0.426829,-0.007789,-0.015577,0.000000
1765407990.040786,-10.075322,-0.029890,0.367049,-0.009927,-0.010996,0.000458
1765407990.043831,-9.954566,0.007174,0.241511,-0.008247,-0.010537,0.000611
1765407990.045768,-9.781204,0.004185,0.085485,-0.007330,-0.009468,0.001374
1765407990.047871,-9.803921,-0.022716,0.090866,-0.010079,-0.016952,0.001374
1765407990.050717,-9.915112,-0.003587,0.208034,-0.010385,-0.016799,0.000458
1765407990.053812,-10.010758,0.011956,0.304878,-0.008552,-0.005498,0.001374
1765407990.055810,-9.868484,-0.043042,0.196078,-0.008399,0.000764,0.004887
1765407990.058739,-9.961142,-0.022716,0.343735,-0.010537,-0.005345,0.001527
1765407990.060745,-10.071735,-0.007174,0.402319,-0.013134,-0.005803,-0.000305
1765407990.063821,-10.048421,0.032281,0.405308,-0.009621,-0.004276,0.000305
1765407990.064321,-9.862504,0.021521,0.241511,-0.011301,-0.004429,0.001833
1765407990.066762,-9.778812,0.060976,0.200263,-0.012675,-0.001985,0.003665
1765407990.070781,-9.917501,0.014347,0.370038,-0.012065,-0.009927,0.003054
1765407990.073755,-10.044236,-0.087877,0.538618,-0.013744,-0.010996,0.002596
1765407990.074255,-10.051410,-0.147657,0.473458,-0.012675,-0.006720,0.000458
1765407990.076747,-9.821257,-0.117169,0.220588,-0.010385,-0.001069,-0.000458
1765407990.079829,-9.774031,-0.098039,0.197274,-0.007330,-0.007636,-0.000153
1765407990.083729,-9.931850,0.025108,0.490196,-0.008705,-0.009163,-0.001833
1765407990.085740,-10.050214,0.102822,0.529651,-0.009468,-0.009163,-0.000153
1765407990.088760,-9.858320,0.072932,0.252272,-0.008094,-0.007789,0.001985
1765407990.090728,-9.682567,-0.023912,0.054400,-0.011912,-0.011912,0.002596
1765407990.093769,-9.879841,-0.043042,0.332377,-0.012675,-0.011912,-0.000153
1765407990.095764,-9.989837,-0.058584,0.417264,-0.010232,-0.008094,0.001374
1765407990.098739,-9.838593,-0.033477,0.227762,-0.009468,-0.003054,0.000916
1765407990.100732,-9.659253,0.043042,0.095648,-0.015272,0.001222,-0.000916
1765407990.103724,-9.794355,-0.028694,0.377810,-0.014508,-0.002138,0.002291
1765407990.105762,-9.930654,-0.163797,0.456719,-0.010843,-0.004276,0.003665
1765407990.108757,-9.986250,-0.161406,0.459708,-0.010537,0.001222,0.001222
1765407990.109257,-9.803921,-0.079507,0.262434,-0.012217,0.002138,-0.002902
1765407990.113749,-9.803921,-0.079507,0.262434,-0.012217,-0.004123,-0.002902
1765407990.115729,-10.019128,0.162602,0.534433,-0.010232,-0.003512,0.000305
1765407990.118751,-9.938425,0.188307,0.353300,-0.012065,-0.003512,0.003971
1765407990.119251,-9.668818,0.016141,0.022716,-0.014661,-0.000916,0.004429
1765407990.123847,-9.677784,-0.137494,0.145863,-0.012981,0.001222,0.005192
1765407990.124347,-10.002390,-0.182927,0.521282,-0.012981,0.000764,0.002443
1765407990.128726,-10.052606,-0.156624,0.439981,-0.012981,0.007789,0.000458
1765407990.130767,-9.819464,-0.080105,0.145863,-0.011912,0.007789,0.000916
1765407990.133843,-9.729196,-0.014945,0.115973,-0.010843,0.001985,-0.000916
1765407990.135754,-9.994021,0.023314,0.558345,-0.010690,-0.000611,0.001680
1765407990.137801,-10.105211,0.053802,0.604974,-0.010232,0.001374,0.003360
1765407990.140820,-9.892395,-0.008369,0.303682,-0.013592,0.004276,0.005345
1765407990.143875,-9.801530,-0.005978,0.138690,-0.013592,-0.000916,0.002749
1765407990.145916,-9.982663,0.047226,0.497967,-0.011912,0.000000,-0.000305
1765407990.148000,-9.984456,0.069345,0.416069,-0.012523,0.002291,0.001680
1765407990.150836,-9.840983,0.096844,0.119560,-0.015119,0.002291,0.004276
1765407990.153877,-9.836202,-0.021521,0.117169,-0.015730,0.002291,0.006109
1765407990.155862,-10.061573,-0.222382,0.511119,-0.014508,-0.001374,0.006261
1765407990.156835,-10.162600,-0.219990,0.652200,-0.009927,0.002749,-0.000611
1765407990.161493,-9.849951,-0.127331,0.215806,-0.013744,0.003971,0.001833
1765407990.161993,-9.685556,0.029292,0.059780,-0.011606,0.000611,0.000916
1765407990.165767,-9.685556,0.029292,0.059780,-0.011606,-0.005192,0.000916
1765407990.168742,-10.049019,0.072334,0.442372,-0.010996,0.002138,0.006109
1765407990.170744,-9.813485,-0.096844,0.063965,-0.010079,0.005803,0.006872
1765407990.173789,-9.833811,-0.105213,0.137494,-0.014355,0.001069,-0.000305
1765407990.175803,-10.101624,0.068747,0.467480,-0.011148,-0.000458,-0.000916
1765407990.178768,-10.248685,0.029890,0.609756,-0.011759,0.001833,0.005192
1765407990.180820,-9.925871,0.044237,0.237327,-0.012217,0.001222,0.004734
1765407990.183785,-9.784193,0.057987,0.046031,-0.015119,0.003360,0.002902
1765407990.185727,-9.909132,-0.081301,0.243902,-0.015272,0.000305,0.005192
1765407990.188758,-10.153036,-0.106408,0.491392,-0.011301,-0.004123,0.005345
1765407990.190802,-10.005977,-0.170971,0.301889,-0.012217,0.002902,0.003818
1765407990.193726,-9.745934,-0.020923,-0.017934,-0.014508,-0.000458,-0.001527
1765407990.195759,-9.863102,0.073529,0.291726,-0.012065,-0.003818,0.000305
1765407990.198779,-10.019128,0.057987,0.418460,-0.013592,-0.003971,0.004887
1765407990.200750,-10.007771,0.038857,0.260043,-0.013439,-0.002749,0.003665
1765407990.201723,-9.983260,-0.014347,0.254663,-0.014661,0.004276,0.003512
1765407990.205775,-9.946198,-0.144070,0.290531,-0.010843,0.002902,0.005040
1765407990.208721,-10.197272,-0.045433,0.650406,-0.011606,-0.003818,-0.001374
1765407990.210778,-10.127929,0.045433,0.423242,-0.015882,-0.002902,-0.000916
1765407990.211724,-9.736967,-0.020325,-0.133907,-0.010843,-0.004276,0.001985
1765407990.215746,-9.769248,0.074725,0.032281,-0.008247,-0.004734,0.001374
1765407990.218780,-10.087276,0.026303,0.543998,-0.009621,-0.000153,0.005803
1765407990.220746,-10.052606,-0.117169,0.429818,-0.011606,-0.000153,0.009010
1765407990.223740,-9.986250,-0.101626,0.339550,-0.011606,-0.003665,0.009010
1765407990.225719,-9.817072,-0.086083,0.195481,-0.013744,-0.002749,0.002749
1765407990.228788,-9.875656,-0.080105,0.224773,-0.014661,-0.007025,0.001680
1765407990.230863,-10.068149,-0.039455,0.472262,-0.015119,-0.005498,0.000153
1765407990.233717,-10.069942,0.088474,0.372429,-0.011759,-0.001680,0.002902
1765407990.235719,-9.977283,-0.028694,0.302487,-0.012065,-0.001680,0.007025
1765407990.238916,-9.924676,-0.043042,0.289335,-0.013439,-0.002443,0.005498
1765407990.240824,-10.098038,-0.094452,0.525466,-0.011912,-0.004887,0.005345
1765407990.243800,-10.056191,-0.010163,0.487805,-0.010385,-0.003818,0.003054
1765407990.245780,-9.971304,-0.054998,0.282162,-0.012828,-0.003360,0.004276
1765407990.248732,-9.809898,0.075323,0.137494,-0.010690,-0.005345,0.003665
1765407990.250878,-9.750119,0.011956,0.046628,-0.013286,-0.005956,0.010079
1765407990.251823,-9.916306,-0.030488,0.397537,-0.015730,-0.004429,0.007330
1765407990.255767,-10.039454,-0.043042,0.535031,-0.014813,-0.003512,0.004276
1765407990.258782,-9.862504,-0.111191,0.313247,-0.011759,-0.001985,0.002902
1765407990.260418,-9.747129,0.049020,0.093257,-0.012370,-0.007483,0.001527
1765407990.262835,-9.750119,0.026303,0.179340,-0.013439,-0.004581,0.006261
1765407990.265759,-9.893590,-0.014347,0.241511,-0.011301,-0.011454,0.004581
1765407990.268761,-10.153036,-0.060976,0.696437,-0.012675,-0.005956,0.005040
1765407990.270778,-9.918698,-0.120756,0.359278,-0.009163,0.002443,0.006109
1765407990.273826,-9.951577,0.003587,0.413678,-0.009163,-0.006109,0.006109
1765407990.276243,-9.937828,0.039455,0.361071,-0.012981,-0.008094,0.002596
1765407990.278807,-9.954566,-0.019130,0.359876,-0.013897,-0.008094,0.007330
1765407990.280895,-9.898373,-0.137494,0.260043,-0.013134,-0.006109,0.004887
1765407990.283831,-9.778812,0.032281,0.062171,-0.012828,-0.003971,0.005040
1765407990.284331,-9.778812,0.032281,0.062171,-0.012828,-0.002749,0.005040
1765407990.288766,-9.891797,0.002989,0.343137,-0.012523,-0.000611,0.008399
1765407990.290755,-10.020923,0.014347,0.514108,-0.013439,-0.000611,0.004123
1765407990.292835,-9.937230,-0.044237,0.431014,-0.013286,-0.000305,0.004887
1765407990.295716,-9.718434,-0.051411,0.034672,-0.013286,-0.002291,0.004123
1765407990.296842,-9.771639,0.068747,0.106408,-0.013744,-0.005956,0.002902
1765407990.300811,-10.040649,0.072932,0.540411,-0.016035,0.003054,0.005498
1765407990.301768,-10.044834,-0.001196,0.601387,-0.012675,0.003054,0.008094
1765407990.305742,-9.892395,-0.002391,0.376614,-0.017715,0.004887,0.006720
1765407990.307994,-9.818267,-0.032281,0.101626,-0.016952,-0.002291,0.003665
1765407990.310767,-9.877449,-0.150646,0.167384,-0.015882,-0.007178,0.006720
1765407990.311776,-9.960544,-0.016141,0.341942,-0.016341,-0.001985,0.004734
1765407990.315799,-9.942610,0.115973,0.432807,-0.012370,0.003971,0.005651
1765407990.318733,-9.822452,0.106408,0.292922,-0.014050,0.000153,0.008094
1765407990.320743,-9.934240,-0.031086,0.408895,-0.016035,-0.001527,0.008705
1765407990.323752,-9.894786,-0.111789,0.188905,-0.016493,-0.001527,0.007330
1765407990.325729,-9.769248,-0.163797,-0.062769,-0.017104,-0.001680,0.006261
1765407990.326735,-9.887612,-0.014347,0.309660,-0.015272,-0.001069,0.000000
1765407990.330740,-10.014346,0.211023,0.566117,-0.013744,0.000916,0.002902
1765407990.333768,-9.919296,0.173960,0.358082,-0.011301,-0.003054,0.007941
1765407990.335739,-9.777617,-0.099235,0.080105,-0.015882,-0.003054,0.010079
1765407990.338770,-9.777617,-0.099235,0.080105,-0.015882,-0.002902,0.010079
1765407990.339814,-9.956957,-0.111191,0.345528,-0.016799,-0.003971,0.005498
1765407990.342798,-10.080104,-0.051411,0.358082,-0.017104,-0.002596,0.002749
1765407990.345766,-9.838593,0.014347,0.127929,-0.012370,0.000458,0.003207
1765407990.348797,-9.796746,0.084888,0.150646,-0.016341,0.000458,0.005651
1765407990.351747,-9.796746,0.084888,0.150646,-0.016341,-0.005498,0.005651
1765407990.353781,-10.092658,0.046031,0.497967,-0.018021,0.002138,0.008552
1765407990.355755,-9.940817,-0.089072,0.274988,-0.016341,0.002138,0.010232
1765407990.358817,-9.835604,-0.130918,0.243902,-0.019242,-0.002291,0.005345
1765407990.360746,-9.968913,0.031086,0.358082,-0.016952,-0.001527,0.005803
1765407990.363872,-10.050214,0.077714,0.401722,-0.019700,-0.003971,0.005956
1765407990.365770,-9.880439,0.049020,0.246891,-0.019700,-0.002291,0.009316
1765407990.368759,-9.837397,-0.031086,0.306671,-0.020617,-0.004276,0.008094
1765407990.370847,-9.838593,-0.035868,0.264228,-0.018021,-0.006872,0.006414
1765407990.373765,-9.948587,-0.050215,0.233142,-0.023060,-0.009163,0.008094
1765407990.375764,-9.797344,-0.044835,0.004782,-0.016035,-0.004734,0.009316
1765407990.378712,-9.651482,0.065758,-0.059780,-0.016188,-0.002749,0.005651
1765407990.380708,-10.040051,0.119560,0.485414,-0.021380,0.002443,0.003360
1765407990.383723,-10.052606,0.077714,0.494978,-0.021380,0.002749,0.003360
1765407990.385753,-9.985652,-0.153037,0.362865,-0.020922,0.003512,0.011148
1765407990.388733,-9.846365,0.035270,0.227164,-0.017715,0.003512,0.006109
1765407990.390764,-10.015541,-0.054998,0.494978,-0.022297,-0.003665,0.008247
1765407990.392780,-10.092059,0.040650,0.499761,-0.018937,-0.002443,0.007789
1765407990.395776,-10.031085,-0.062171,0.431612,-0.018937,-0.005345,0.007789
1765407990.398753,-9.861309,0.032281,0.193687,-0.020922,-0.001833,0.007483
1765407990.399754,-9.860114,0.098039,0.230751,-0.019853,-0.004887,0.006720
1765407990.402865,-10.009563,0.063367,0.610952,-0.019242,-0.006720,0.010996
1765407990.404722,-10.065758,-0.096844,0.504543,-0.019548,-0.006720,0.007025
1765407990.407806,-10.064561,-0.033477,0.358680,-0.021228,-0.011454,0.007636
1765407990.410814,-9.772835,-0.013749,0.015543,-0.019395,-0.007636,0.005956
1765407990.412795,-9.809898,0.070540,0.142874,-0.018784,-0.012065,0.007025
1765407990.413767,-9.817072,0.083692,0.079507,-0.020464,-0.003971,0.009163
1765407990.418714,-9.805714,0.041846,0.161406,-0.019853,-0.003971,0.009927
1765407990.420723,-9.788976,0.066954,0.374821,-0.020311,0.005956,0.010232
1765407990.423739,-9.935436,0.009565,0.609158,-0.021991,-0.001680,0.009316
1765407990.425846,-9.912122,0.029292,0.324008,-0.021533,-0.006872,0.009468
1765407990.428742,-9.898373,-0.014945,0.182927,-0.019395,-0.007025,0.012675
1765407990.429758,-9.794355,-0.076518,0.231946,-0.020464,-0.002138,0.010996
1765407990.433756,-9.935436,0.061573,0.396341,-0.021686,-0.004429,0.008552
1765407990.435727,-9.982065,-0.032281,0.353898,-0.023366,-0.005498,0.008705
1765407990.438784,-9.783595,0.012554,-0.060976,-0.017868,-0.003971,0.009774
1765407990.440859,-9.788976,-0.111789,0.032281,-0.021838,-0.001069,0.009774
1765407990.443826,-9.967718,-0.080105,0.497370,-0.016952,0.000916,0.007483
1765407990.445809,-10.107603,-0.054998,0.671927,-0.019700,-0.000764,0.006872
1765407990.447903,-9.994021,0.099235,0.389766,-0.019548,-0.003207,0.007483
1765407990.450846,-9.835006,0.049020,0.017934,-0.021838,-0.002138,0.012065
1765407990.453741,-9.783595,-0.078312,0.101626,-0.020617,-0.006414,0.016188
1765407990.455750,-9.929459,-0.153037,0.169775,-0.020006,-0.003665,0.008552
1765407990.458840,-9.999999,-0.021521,0.389766,-0.020006,0.001222,0.006109
1765407990.460788,-9.711859,0.020325,0.068149,-0.020617,0.001680,0.009468
1765407990.465578,-9.809898,0.118962,0.392755,-0.019395,0.001680,0.009163
1765407990.466854,-10.017335,0.135103,0.577475,-0.023671,-0.001069,0.009316
1765407990.468764,-10.124939,0.012554,0.668340,-0.021228,-0.003512,0.013439
1765407990.470762,-9.945002,-0.115973,0.355093,-0.021686,-0.000611,0.012675
1765407990.473716,-10.009563,-0.099235,0.430416,-0.018631,-0.012217,0.008094
1765407990.475742,-10.005977,-0.034672,0.376016,-0.025351,-0.012217,0.009316
1765407990.478759,-9.901362,-0.025108,0.046031,-0.023671,-0.013897,0.009316
1765407990.479259,-9.690338,0.065160,-0.072932,-0.020464,-0.001069,0.006872
1765407990.483695,-9.759085,0.092061,0.044237,-0.020159,0.001374,0.010232
1765407990.485734,-9.981467,-0.041846,0.471066,-0.020617,0.000458,0.012370
1765407990.488765,-10.052007,-0.038259,0.540411,-0.019242,-0.000764,0.012065
1765407990.490732,-9.890003,-0.010760,0.331181,-0.020006,0.002291,0.011606
1765407990.493751,-9.701099,-0.008369,0.056193,-0.022755,0.000458,0.009774
1765407990.496763,-9.885221,0.009565,0.343137,-0.019853,-0.011454,0.009927
1765407990.498767,-9.936632,0.078910,0.297704,-0.020617,-0.005803,0.014050
1765407990.500717,-9.917501,0.102224,0.302487,-0.019548,0.000458,0.010232
1765407990.503703,-9.831419,-0.018532,0.375418,-0.021838,0.005803,0.015882
1765407990.505742,-9.838593,-0.107604,0.356289,-0.021533,-0.009927,0.017257
1765407990.506735,-10.005977,-0.033477,0.462697,-0.021380,-0.009927,0.010079
1765407990.510747,-10.005977,-0.033477,0.462697,-0.021380,-0.002443,0.010079
1765407990.513849,-9.585126,-0.019130,-0.026303,-0.019395,-0.003054,0.013592
1765407990.514349,-9.780008,0.094452,0.310258,-0.018631,-0.004887,0.012217
1765407990.518723,-10.144667,0.102822,0.740674,-0.021380,-0.010996,0.013439
1765407990.520778,-9.860114,-0.093257,0.150646,-0.022144,-0.010996,0.017410
1765407990.523761,-9.860114,-0.093257,0.150646,-0.022144,-0.006109,0.017410
1765407990.525792,-9.832614,-0.033477,0.184122,-0.020922,0.002138,0.010537
1765407990.528803,-9.944403,-0.039455,0.519488,-0.023366,0.001069,0.010996
1765407990.530838,-9.930654,0.105213,0.461502,-0.021838,0.002596,0.009163
1765407990.533705,-9.728000,0.204448,0.101626,-0.024740,0.004887,0.013286
1765407990.535797,-9.763269,0.046628,0.088474,-0.022755,-0.003360,0.021686
1765407990.536762,-10.106407,-0.101626,0.603778,-0.021991,0.001222,0.020006
1765407990.541472,-10.112983,-0.094452,0.705404,-0.022602,0.001222,0.014203
1765407990.543858,-9.798540,-0.063367,0.058584,-0.025045,-0.000458,0.012675
1765407990.545723,-9.815279,0.047824,0.068149,-0.022602,-0.007941,0.012828
1765407990.548774,-9.953370,0.109995,0.277379,-0.022297,-0.006414,0.016493
1765407990.550923,-9.964130,0.111191,0.354495,-0.023213,0.000611,0.016341
1765407990.553811,-9.809898,-0.049020,0.191296,-0.022297,0.006261,0.017868
1765407990.555771,-9.853538,-0.141679,0.288140,-0.022297,0.000916,0.017868
1765407990.557837,-10.092059,-0.052009,0.591822,-0.024893,-0.006414,0.013286
1765407990.560785,-10.099831,0.124342,0.606169,-0.021991,0.000000,0.011759
1765407990.563802,-9.744141,0.139885,-0.002391,-0.023060,-0.001222,0.016341
1765407990.565753,-9.710664,0.173362,0.053204,-0.026420,-0.007330,0.018173
1765407990.568831,-9.710664,0.173362,0.053204,-0.026420,-0.008858,0.018173
1765407990.570838,-9.936632,-0.118962,0.275586,-0.027031,-0.004581,0.015577
1765407990.576203,-9.778215,0.003587,0.069345,-0.023060,0.003054,0.012370
1765407990.576703,-9.899570,0.135103,0.364658,-0.024282,0.002596,0.014355
1765407990.577865,-10.028693,0.084888,0.518890,-0.025045,-0.003360,0.017715
1765407990.580729,-10.037063,-0.014347,0.380201,-0.024893,-0.001833,0.018021
1765407990.582801,-9.898971,0.075323,0.179340,-0.027794,0.003665,0.013744
1765407990.583785,-9.819464,0.031683,0.311454,-0.023518,0.003665,0.018479
1765407990.587886,-10.028693,-0.093257,0.553563,-0.027642,-0.002902,0.017868
1765407990.589807,-10.208033,-0.024510,0.618125,-0.024587,-0.000305,0.015272
1765407990.593713,-9.906742,-0.028694,0.127331,-0.023976,0.005345,0.015882
1765407990.595847,-9.708273,-0.065160,-0.002391,-0.024129,-0.001374,0.016646
1765407990.599629,-10.010758,0.098637,0.524868,-0.025351,-0.005040,0.012675
1765407990.600783,-10.100429,0.156624,0.598996,-0.027642,-0.000916,0.014966
1765407990.603707,-9.829626,0.046628,0.144668,-0.024893,0.002596,0.018173
1765407990.605702,-9.704088,-0.084888,-0.010760,-0.024129,0.000611,0.020311
1765407990.608703,-9.962935,-0.132712,0.436394,-0.024893,-0.000916,0.017868
1765407990.609735,-9.991630,-0.023912,0.475849,-0.026267,0.001374,0.013134
1765407990.613796,-9.779410,0.127929,0.252272,-0.028558,0.003054,0.014355
1765407990.615791,-9.735771,0.319823,0.124342,-0.025045,0.000916,0.016799
1765407990.618729,-9.935436,0.122549,0.312052,-0.028100,-0.006109,0.020311
1765407990.620764,-9.876852,-0.045433,0.191296,-0.024740,-0.003207,0.022144
1765407990.623754,-9.766856,-0.086083,0.060976,-0.025045,0.007789,0.017257
1765407990.625769,-9.825441,-0.039455,0.273792,-0.022602,0.014203,0.014203
1765407990.628743,-10.049019,-0.002391,0.708393,-0.025351,0.003665,0.014966
1765407990.630699,-10.016738,0.137494,0.571497,-0.025351,0.004581,0.016646
1765407990.633736,-9.825441,0.184122,0.262434,-0.026725,0.000153,0.017562
1765407990.635806,-9.836202,-0.022119,0.141081,-0.029474,-0.001374,0.020922
1765407990.638755,-9.990434,-0.176351,0.335964,-0.028558,-0.008247,0.018021
1765407990.640815,-9.976088,-0.085485,0.324605,-0.028405,0.001222,0.012370
1765407990.642905,-9.702294,0.106408,-0.044835,-0.026573,0.007636,0.015119
1765407990.643783,-9.809898,0.133907,0.248685,-0.027031,0.005651,0.014050
1765407990.648788,-9.937230,0.105811,0.540411,-0.026878,0.004429,0.020769
1765407990.650842,-9.909132,-0.008967,0.258250,-0.025504,0.004734,0.020922
1765407990.651974,-9.827234,-0.010760,0.099235,-0.027184,0.003971,0.017257
1765407990.655794,-9.918099,0.001196,0.280966,-0.027336,0.005040,0.018784
1765407990.658837,-10.120754,0.071736,0.703013,-0.023671,0.007483,0.018173
1765407990.660760,-9.917501,0.081301,0.463893,-0.027336,0.009010,0.019090
1765407990.663871,-9.686751,0.088474,-0.150646,-0.029016,0.001680,0.017562
1765407990.665860,-9.752509,0.193687,-0.114180,-0.025504,-0.003818,0.019548
1765407990.667895,-10.004781,0.163797,0.394548,-0.027947,0.007941,0.024740
1765407990.670833,-10.053802,0.030488,0.741870,-0.027336,0.017257,0.025656
1765407990.673537,-9.988641,-0.132114,0.631277,-0.031154,0.006872,0.021686
1765407990.676239,-10.035269,-0.095648,0.332377,-0.032834,-0.005498,0.020159
1765407990.678746,-10.019128,0.032281,0.108202,-0.024587,0.000764,0.018937
1765407990.680775,-9.799736,0.050215,0.028694,-0.028253,0.000764,0.021075
1765407990.683743,-9.819464,0.087279,0.244500,-0.032223,0.006261,0.021533
1765407990.685759,-10.044236,-0.033477,0.393352,-0.032834,0.004123,0.024740
1765407990.688698,-10.122547,-0.059780,0.395744,-0.029932,0.000611,0.021838
1765407990.690724,-9.982663,-0.081301,0.283955,-0.025962,0.006872,0.018326
1765407990.693737,-9.823050,0.037064,0.260641,-0.028863,0.006872,0.015577
1765407990.695806,-9.887015,0.046628,0.408895,-0.028558,-0.005040,0.019090
1765407990.698799,-9.933045,0.082496,0.280966,-0.030543,-0.000611,0.020159
1765407990.699299,-9.775226,0.265423,-0.029890,-0.030696,-0.000611,0.020769
1765407990.701799,-9.814680,0.140483,0.180536,-0.024740,0.003054,0.028405
1765407990.703773,-9.919296,-0.082496,0.489000,-0.027947,-0.000458,0.027642
1765407990.708794,-9.925871,-0.081301,0.261836,-0.027947,-0.004734,0.020922
1765407990.709294,-9.690338,-0.023912,-0.215208,-0.027947,0.001527,0.020159
1765407990.713787,-9.666426,0.157221,-0.071138,-0.024740,0.001527,0.021380
1765407990.714759,-9.962935,0.151841,0.570301,-0.027947,0.003512,0.023671
1765407990.716806,-10.204447,0.082496,0.821377,-0.029780,0.007178,0.025351
1765407990.720756,-10.204447,0.082496,0.821377,-0.029780,0.006720,0.025351
1765407990.723792,-9.618603,-0.144668,-0.200861,-0.027489,-0.007025,0.021533
1765407990.725769,-9.964130,0.049020,0.310856,-0.029016,-0.007025,0.016188
1765407990.727802,-10.263031,0.188905,0.828551,-0.028558,0.003512,0.016646
1765407990.730772,-9.918698,0.233740,0.327594,-0.030849,0.009316,0.020464
1765407990.733783,-9.649688,0.222382,-0.105213,-0.033445,-0.000458,0.022144
1765407990.735724,-9.819464,0.080703,0.011358,-0.032529,-0.002291,0.025351
1765407990.738734,-10.092658,0.022119,0.572692,-0.028100,-0.001374,0.028558
1765407990.739234,-10.043041,-0.072932,0.543400,-0.031307,0.006720,0.022907
1765407990.743828,-9.707077,0.032281,-0.056193,-0.032529,0.004123,0.023060
1765407990.745788,-9.764465,0.081301,0.050215,-0.030391,0.004123,0.024435
1765407990.748747,-9.764465,0.081301,0.050215,-0.030391,0.000611,0.024435
1765407990.750759,-10.059779,0.151243,0.545194,-0.034667,0.007025,0.025045
1765407990.752785,-9.890003,0.003587,0.389766,-0.035125,0.010232,0.027336
1765407990.755735,-9.687349,-0.252272,-0.021521,-0.033139,-0.000305,0.027031
1765407990.756708,-10.040649,-0.005978,0.546389,-0.034208,-0.000305,0.014508
1765407990.760723,-10.055594,0.160210,0.657580,-0.029322,0.010232,0.016646
1765407990.763725,-9.725011,0.107604,0.053802,-0.028863,0.005498,0.023366
1765407990.766259,-9.561213,0.184122,-0.309063,-0.036041,-0.003360,0.020617
1765407990.767980,-9.927068,0.198470,0.141081,-0.033903,0.012828,0.020464
1765407990.770802,-10.056191,0.093257,0.589431,-0.029169,0.012828,0.026573
1765407990.772807,-9.939023,-0.023912,0.401124,-0.032987,0.013744,0.027184
1765407990.775796,-9.802128,0.033477,0.077714,-0.038790,0.000611,0.021533
1765407990.778750,-9.876852,0.182927,0.025108,-0.037110,0.000611,0.022755
1765407990.780825,-9.967718,0.131516,0.457915,-0.030543,0.011759,0.029322
1765407990.783698,-9.827832,0.168580,0.490196,-0.033445,0.022449,0.027184
1765407990.785776,-9.823050,0.093257,0.506934,-0.035736,0.012523,0.025198
1765407990.788829,-9.883428,0.002391,0.166188,-0.038485,-0.002749,0.026573
1765407990.790697,-10.063366,0.020923,0.231946,-0.036499,-0.007789,0.021075
1765407990.791752,-9.897178,0.050215,0.225968,-0.032987,0.010079,0.023213
1765407990.795723,-9.777617,0.028694,0.181731,-0.036194,0.015882,0.023976
1765407990.798761,-9.696915,0.077714,0.008369,-0.037263,0.008858,0.022755
1765407990.800729,-9.887612,0.169775,0.052009,-0.038637,-0.001222,0.020617
1765407990.803753,-9.994618,0.154232,0.485414,-0.035430,0.016341,0.025198
1765407990.805726,-9.994618,0.154232,0.485414,-0.035430,0.020159,0.025198
1765407990.806764,-9.722619,-0.056791,0.144668,-0.041233,0.010232,0.024129
1765407990.810730,-9.750119,-0.034672,-0.051411,-0.040012,-0.003207,0.019700
1765407990.813748,-10.020923,0.212817,0.355093,-0.031612,0.005192,0.021838
1765407990.815776,-9.949186,0.257652,0.500359,-0.032223,0.014355,0.026114
1765407990.818793,-10.091461,0.289933,0.711980,-0.041539,0.014966,0.024893
1765407990.820767,-10.043041,0.045433,0.292922,-0.038179,0.001680,0.030238
1765407990.822779,-9.945002,-0.050215,0.010760,-0.036194,-0.004581,0.024740
1765407990.825705,-9.910927,0.108800,0.092659,-0.034514,0.018021,0.023366
1765407990.828702,-9.818267,0.028694,0.283357,-0.037110,0.018021,0.025198
1765407990.830773,-9.835006,0.107006,0.312052,-0.038637,0.008399,0.021533
1765407990.833729,-10.009563,0.259445,0.285748,-0.036957,0.006567,0.021228
1765407990.835743,-9.897178,0.059182,0.318030,-0.031918,0.011454,0.031765
1765407990.838808,-9.799137,-0.102822,0.241511,-0.037415,0.009316,0.028100
1765407990.840791,-10.019128,-0.120756,0.447154,-0.039859,0.003971,0.019395
1765407990.843694,-9.953967,-0.033477,0.300096,-0.035736,0.006567,0.019395
1765407990.845722,-9.803921,0.121353,0.082496,-0.034208,0.003054,0.018937
1765407990.848714,-9.697512,0.283357,0.017934,-0.037263,0.003207,0.020159
1765407990.849743,-9.863700,0.298302,0.112386,-0.040623,0.004429,0.023366
1765407990.853735,-9.868484,0.010760,0.209230,-0.038943,0.011912,0.029169
1765407990.855724,-9.903154,-0.138690,0.266021,-0.036652,0.011454,0.026114
1765407990.858796,-10.121352,0.002989,0.614538,-0.041386,0.009468,0.019853
1765407990.860783,-9.968913,0.116571,0.353898,-0.040317,0.008552,0.022602
1765407990.863789,-9.759683,0.203850,-0.010163,-0.035736,0.002138,0.025504
1765407990.865766,-9.704088,0.172166,0.050215,-0.036805,0.000305,0.025809
1765407990.866770,-9.954566,0.120756,0.428025,-0.041692,0.004581,0.030085
1765407990.870773,-9.838593,-0.014347,0.025108,-0.035125,0.007330,0.030238
1765407990.872833,-9.729793,0.023912,0.007174,-0.038637,0.004276,0.028253
1765407990.875900,-9.851745,0.178144,0.249283,-0.042913,0.011301,0.021991
1765407990.877905,-9.875656,0.059182,0.298302,-0.036041,0.006261,0.028711
1765407990.880863,-9.875656,0.059182,0.298302,-0.036041,0.007178,0.028711
1765407990.881808,-9.874461,0.284553,0.139885,-0.038790,0.005803,0.026114
1765407990.885739,-10.045432,0.056193,0.527260,-0.038943,0.005803,0.031612
1765407990.888802,-10.125537,0.016738,0.620516,-0.038637,0.005956,0.029169
1765407990.890759,-10.035867,0.005380,0.329986,-0.040470,0.004429,0.025351
1765407990.892794,-10.035867,0.005380,0.329986,-0.040470,0.004276,0.025351
1765407990.895743,-9.907937,0.233142,0.153037,-0.044593,0.005803,0.025198
1765407990.898877,-9.965326,0.291726,0.341942,-0.046731,0.005803,0.027794
1765407990.900737,-9.890003,0.271999,0.277379,-0.048869,0.011606,0.026267
1765407990.902806,-9.780008,0.147059,0.204448,-0.044440,0.015882,0.032223
1765407990.905772,-10.003586,0.019130,0.587040,-0.046731,0.009163,0.031765
1765407990.906778,-10.178144,0.041248,0.698828,-0.044899,0.006872,0.029322
1765407990.910719,-9.989837,0.058584,0.337159,-0.045051,0.006872,0.025809
1765407990.913704,-9.774031,0.218197,0.080105,-0.038790,0.008399,0.028558
1765407990.915745,-9.736967,0.176351,0.094452,-0.040470,0.000611,0.029780
1765407990.918773,-9.974891,0.169775,0.212219,-0.047495,-0.003207,0.028863
1765407990.920800,-9.990434,0.139885,0.179340,-0.044440,0.010079,0.030543
1765407990.923725,-9.702294,-0.036466,-0.137494,-0.041997,0.015272,0.030238
1765407990.925749,-9.860114,0.059780,0.315041,-0.041233,0.011301,0.024435
1765407990.926747,-10.185316,0.062171,0.870397,-0.045509,0.013439,0.025656
1765407990.930766,-9.923481,0.107604,0.402917,-0.040775,0.013439,0.028711
1765407990.931796,-9.557627,0.136896,-0.118364,-0.044135,0.005651,0.028863
1765407990.935750,-9.687947,0.174558,0.026901,-0.049175,0.006261,0.030085
1765407990.938767,-9.927068,-0.094452,0.352104,-0.043524,0.003054,0.030391
1765407990.940762,-10.025107,0.007174,0.481229,-0.042302,0.014203,0.025809
1765407990.943739,-9.776422,0.105213,-0.072932,-0.043677,0.014203,0.026573
1765407990.945832,-9.776422,0.105213,-0.072932,-0.043677,0.010232,0.026573
1765407990.948742,-10.120754,0.343735,0.723338,-0.042302,0.003665,0.026573
1765407990.949242,-10.096244,0.227164,0.606169,-0.048411,0.006567,0.029322
1765407990.953800,-9.622189,0.059780,-0.130320,-0.048106,-0.000916,0.030849
1765407990.955769,-9.636537,-0.067551,-0.072932,-0.049022,-0.000916,0.029322
1765407990.958853,-9.923481,0.026901,0.401722,-0.041692,0.000153,0.025809
1765407990.960814,-9.828429,0.163797,0.214012,-0.042913,0.007178,0.026878
1765407990.962805,-9.578550,0.101626,-0.274390,-0.045968,0.007178,0.028100
1765407990.965839,-9.578550,0.101626,-0.274390,-0.045968,0.010232,0.028100
1765407990.968837,-10.242108,0.202654,0.955284,-0.039859,0.011148,0.034667
1765407990.970832,-10.060975,0.049020,0.741870,-0.043677,0.017715,0.036194
1765407990.972822,-9.662840,-0.089670,-0.068149,-0.047953,0.004276,0.029169
1765407990.975738,-9.684361,0.104017,-0.182329,-0.050396,0.001069,0.025809
1765407990.977835,-9.807508,0.060976,0.179340,-0.046426,0.001833,0.031307
1765407990.980737,-9.742347,0.027499,0.261836,-0.045204,0.019700,0.030238
1765407990.983796,-9.727402,0.200263,-0.050215,-0.051924,0.019700,0.024129
1765407990.985774,-9.857722,0.129723,0.245098,-0.046731,0.007636,0.030849
1765407990.988790,-10.055594,0.017934,0.576279,-0.045815,0.007636,0.032834
1765407990.990764,-10.147058,0.123147,0.781922,-0.045815,0.016799,0.032834
1765407990.993808,-9.693327,0.019130,0.117767,-0.049633,0.017868,0.031001
1765407990.995802,-9.748325,0.115973,0.072334,-0.046731,-0.001374,0.028711
1765407990.998769,-9.957555,0.191296,0.291726,-0.045968,0.002596,0.030543
1765407991.000788,-9.704685,0.064562,-0.373027,-0.046578,0.002596,0.034361
1765407991.003811,-9.943806,0.156026,0.298302,-0.047647,0.020922,0.031001
1765407991.004796,-9.739358,0.084888,0.376614,-0.039095,0.030391,0.036194
1765407991.008739,-9.844571,-0.219990,0.369440,-0.046273,0.008247,0.036194
1765407991.010758,-9.895982,0.088474,0.120756,-0.049480,0.018021,0.023518
1765407991.013723,-10.009563,0.321616,0.391559,-0.036041,0.018021,0.032529
1765407991.015752,-9.566593,0.206839,-0.011956,-0.036499,0.012065,0.039859
1765407991.018771,-9.892395,0.221186,0.269010,-0.047953,0.003665,0.033292
1765407991.020736,-9.875656,-0.016738,0.081301,-0.045968,0.014813,0.038179
1765407991.023841,-9.783595,-0.072932,-0.141081,-0.045968,0.012217,0.038179
1765407991.025730,-9.861309,0.217599,0.349115,-0.042302,0.022602,0.027336
1765407991.028740,-9.854136,0.204448,0.578073,-0.048411,0.024282,0.029322
1765407991.030720,-9.863700,0.126136,0.292922,-0.043524,0.008552,0.036957
1765407991.033720,-9.781802,0.332377,-0.292922,-0.048564,0.000764,0.029627
1765407991.035793,-10.044236,0.333572,0.316834,-0.047037,0.019242,0.038026
1765407991.038713,-9.811094,-0.022716,0.254663,-0.040775,0.023060,0.041081
1765407991.040725,-10.160210,-0.022716,0.642037,-0.048411,0.009774,0.032529
1765407991.043754,-10.022716,0.025108,0.243305,-0.050549,0.014813,0.030238
1765407991.045755,-9.809898,0.111191,0.054998,-0.041386,0.014813,0.036346
1765407991.048739,-9.726804,0.277379,0.346724,-0.040317,0.019090,0.031765
1765407991.050779,-9.826636,0.324008,0.252869,-0.049022,0.013897,0.035125
1765407991.051799,-9.972500,0.203850,0.117169,-0.048564,0.005040,0.034667
1765407991.055787,-9.906742,0.112386,0.010760,-0.043371,0.014508,0.036346
1765407991.058790,-9.765661,0.011956,0.060976,-0.043677,0.018479,0.038332
1765407991.060851,-10.059779,0.070540,0.658776,-0.050549,0.014813,0.028405
1765407991.062830,-10.099831,0.214012,0.686274,-0.046884,0.019853,0.033750
1765407991.065812,-9.808702,0.102822,0.016738,-0.045815,0.010385,0.033750
1765407991.068867,-9.914514,0.174558,0.118364,-0.049175,0.014813,0.032223
1765407991.070750,-9.982065,0.040053,0.173362,-0.046884,0.014813,0.037721
1765407991.072808,-9.986848,0.109397,0.205643,-0.047342,0.014203,0.031612
1765407991.075739,-9.833811,0.065758,0.031086,-0.048258,0.016799,0.031460
1765407991.076815,-9.860114,0.186514,0.214012,-0.051313,0.016952,0.030085
1765407991.080714,-9.949186,0.296509,0.534433,-0.042608,0.017257,0.037415
1765407991.083769,-9.906144,0.227164,0.450741,-0.045662,0.015577,0.034361
1765407991.085731,-9.929459,0.059780,0.205643,-0.047342,0.008858,0.036194
1765407991.088742,-9.882233,-0.015543,0.176949,-0.043524,0.014508,0.031612
1765407991.090752,-9.889405,0.169775,0.065758,-0.039706,0.009163,0.034667
1765407991.093825,-9.818267,0.350909,-0.019130,-0.047189,0.014203,0.030849
1765407991.095766,-9.866092,0.457915,0.333572,-0.045357,0.023671,0.034361
1765407991.097788,-9.705881,0.221186,0.159015,-0.040164,0.024893,0.046120
1765407991.100728,-9.846962,0.120756,0.257054,-0.045662,0.019700,0.038637
1765407991.103720,-10.109396,0.135701,0.546389,-0.054062,0.019700,0.035430
1765407991.105790,-10.109396,0.135701,0.546389,-0.054062,0.021228,0.035430
1765407991.106721,-9.757292,0.161406,0.015543,-0.049786,0.018479,0.036346
1765407991.110751,-9.729793,0.224175,0.009565,-0.056505,0.018479,0.033445
1765407991.111822,-9.997607,0.346724,0.349115,-0.054214,0.025504,0.037721
1765407991.115715,-9.904350,0.147059,0.277379,-0.047647,0.025504,0.043982
1765407991.118793,-9.904350,0.147059,0.277379,-0.047647,0.026420,0.043982
1765407991.120728,-9.860114,-0.004782,0.245098,-0.050855,0.018631,0.039248
1765407991.123763,-9.881634,-0.012554,0.105213,-0.049786,0.012523,0.035125
1765407991.125769,-10.102222,0.248685,0.318030,-0.050702,0.021533,0.035277
1765407991.128699,-9.863700,0.208034,0.158417,-0.049938,0.021533,0.036194
1765407991.130738,-9.863700,0.208034,0.158417,-0.049938,0.024587,0.036194
1765407991.133737,-9.927666,0.272597,0.251674,-0.043219,0.015730,0.043982
1765407991.135771,-10.269009,0.072334,0.718556,-0.051160,0.015730,0.043066
1765407991.138776,-10.162002,-0.072932,0.230751,-0.049327,0.014813,0.042455
1765407991.140741,-9.910329,-0.119560,-0.059780,-0.046731,0.013286,0.038485
1765407991.141755,-9.898373,0.233142,0.144668,-0.042761,0.022144,0.032834
1765407991.145751,-9.992825,0.389766,0.316834,-0.044746,0.011759,0.037415
1765407991.147909,-9.955164,0.356289,0.175155,-0.050702,0.011759,0.034667
1765407991.150796,-9.990434,0.515304,0.251076,-0.049175,0.019548,0.037721
1765407991.153746,-9.945002,0.142276,0.407700,-0.047953,0.021380,0.049938
1765407991.155744,-9.941415,-0.056193,0.387374,-0.051160,0.008705,0.040623
1765407991.158817,-10.081299,0.132712,0.221784,-0.053909,0.009316,0.034208
1765407991.159317,-9.678382,0.064562,-0.382592,-0.047342,0.015424,0.038332
1765407991.163744,-9.678382,0.064562,-0.382592,-0.047342,0.015424,0.038332
1765407991.165800,-10.169176,0.601387,0.790292,-0.046884,0.013744,0.038943
1765407991.167827,-10.199663,0.309660,0.680296,-0.056658,0.013744,0.043219
1765407991.170825,-9.961740,0.106408,0.205643,-0.052229,0.013439,0.046731
1765407991.176253,-9.780606,-0.098637,-0.072932,-0.047037,0.008858,0.043219
1765407991.176753,-9.818267,-0.034672,-0.107604,-0.047037,0.005498,0.043219
1765407991.178820,-10.075322,0.323410,0.292324,-0.053756,0.009468,0.027184
1765407991.180813,-9.967718,0.494978,0.533238,-0.052076,0.027184,0.038179
1765407991.183776,-9.458989,0.426829,-0.297704,-0.054367,0.020311,0.045662
1765407991.184276,-10.014346,0.376614,0.327594,-0.061239,0.008399,0.044135
1765407991.188827,-10.066953,0.064562,0.345528,-0.054978,0.014355,0.046884
1765407991.190796,-10.016738,-0.170373,0.291129,-0.050855,0.012523,0.044440
1765407991.191728,-9.656861,0.040650,-0.038259,-0.057574,0.027794,0.033445
1765407991.195748,-9.836202,0.261836,0.210426,-0.060628,0.010996,0.035430
1765407991.198751,-10.161406,0.511119,0.563128,-0.054520,0.013439,0.036957
1765407991.200850,-10.166186,0.505739,0.436394,-0.049633,0.015882,0.046426
1765407991.203765,-9.645503,0.121951,-0.075323,-0.056200,0.023213,0.049480
1765407991.205757,-9.627569,-0.017934,-0.159015,-0.054825,0.005192,0.041539
1765407991.208723,-10.040649,-0.072932,0.353898,-0.048411,0.008552,0.042302
1765407991.210700,-9.926469,0.087279,0.165591,-0.053145,0.013439,0.033903
1765407991.213740,-9.901959,0.559541,0.446557,-0.053145,0.022755,0.034208
1765407991.216622,-9.623384,0.533238,0.005978,-0.056200,0.017257,0.043524
1765407991.218848,-9.974891,0.300693,0.210426,-0.058185,-0.001222,0.048869
1765407991.219348,-10.136297,0.101626,0.388570,-0.058185,0.018326,0.048258
1765407991.222850,-9.670013,-0.194285,-0.161406,-0.052534,0.021380,0.049480
1765407991.225751,-9.797942,-0.026303,0.144668,-0.059254,0.014050,0.034972
1765407991.228781,-10.174556,0.341942,0.757413,-0.054214,0.013592,0.032529
1765407991.229760,-9.802725,0.475849,0.338355,-0.053756,0.017715,0.039706
1765407991.233748,-9.382471,0.541009,-0.578670,-0.058185,0.006261,0.044288
1765407991.235699,-9.706479,0.290531,0.017934,-0.058185,0.012523,0.048717
1765407991.238786,-9.832614,-0.229555,0.185318,-0.050855,0.012523,0.052840
1765407991.240766,-10.241510,-0.136298,0.752032,-0.053145,0.017257,0.038179
1765407991.241804,-9.851745,0.095050,0.353898,-0.053451,0.024740,0.032681
1765407991.245791,-9.782400,0.239718,0.060378,-0.053909,0.007330,0.034056
1765407991.248808,-9.956359,0.559541,0.190698,-0.056810,0.001985,0.036805
1765407991.250821,-9.873264,0.518890,0.002989,-0.058796,0.010843,0.044746
1765407991.252856,-9.850550,0.225371,0.221186,-0.056505,0.021533,0.053451
1765407991.253722,-9.840983,-0.077714,0.225371,-0.055131,0.021380,0.051313
1765407991.258818,-10.053204,-0.010760,0.541607,-0.056658,0.009163,0.038790
1765407991.260827,-10.175752,0.258250,0.432807,-0.056505,0.013286,0.033750
1765407991.263819,-9.892993,0.427427,0.141081,-0.052840,0.013286,0.043219
1765407991.265722,-9.597081,0.465088,-0.298900,-0.056658,0.015424,0.042913
1765407991.266746,-10.043041,0.509326,0.357484,-0.052687,0.014355,0.049480
1765407991.270768,-10.185316,0.111191,0.724534,-0.055131,0.026267,0.055741
1765407991.273798,-9.936632,-0.038259,0.089072,-0.051618,0.020006,0.048106
1765407991.275770,-9.861309,0.032281,0.011956,-0.055589,0.018021,0.041233
1765407991.278718,-9.925871,0.315638,0.280368,-0.049938,0.017715,0.038179
1765407991.280695,-9.965326,0.401722,0.367049,-0.051924,0.014355,0.042150
1765407991.283748,-9.927068,0.576279,0.251076,-0.059559,0.015730,0.043524
1765407991.285751,-9.962935,0.370038,0.283357,-0.062461,0.014813,0.052076
1765407991.286801,-9.831419,0.111191,-0.038259,-0.061392,0.014813,0.054978
1765407991.290726,-9.831419,0.111191,-0.038259,-0.061392,0.005345,0.054978
1765407991.293712,-9.837397,0.183525,0.028694,-0.066890,0.017562,0.041539
1765407991.295736,-9.642514,0.162602,-0.165591,-0.057574,0.017562,0.047342
1765407991.298738,-9.967119,0.211621,0.432807,-0.059407,0.018631,0.042913
1765407991.300710,-10.215207,0.302487,0.661167,-0.055741,0.019700,0.046120
1765407991.302832,-9.861309,0.124940,0.043042,-0.054825,0.024740,0.051465
1765407991.305767,-9.697512,0.094452,-0.178742,-0.055894,0.015882,0.048717
1765407991.308780,-10.136297,0.187111,0.483022,-0.058643,0.017104,0.043830
1765407991.310720,-10.093256,0.208034,0.653993,-0.054520,0.021380,0.045968
1765407991.313727,-9.826636,0.447154,0.352702,-0.055283,0.021380,0.047800
1765407991.315784,-9.519367,0.374223,-0.118364,-0.054214,0.011148,0.051313
1765407991.318723,-9.813485,0.286944,0.066954,-0.059254,0.010690,0.047495
1765407991.320748,-9.852343,0.308465,-0.069345,-0.059559,0.010690,0.051618
1765407991.322775,-9.977880,0.337159,0.217599,-0.060476,0.017410,0.047037
1765407991.325751,-9.936632,0.406504,0.248087,-0.063072,0.032070,0.045815
1765407991.328747,-9.960544,0.197274,0.329388,-0.059865,0.020159,0.052534
1765407991.330699,-9.990434,0.150048,0.223577,-0.060476,0.018173,0.046426
1765407991.333742,-9.935436,0.412482,0.010163,-0.061545,0.021838,0.043219
1765407991.335839,-9.652080,0.224175,-0.080105,-0.060323,0.029932,0.049175
1765407991.338710,-9.836202,0.326399,0.228360,-0.054978,0.023213,0.048869
1765407991.340736,-10.214011,0.160210,0.785509,-0.058490,0.023824,0.047953
1765407991.341798,-9.708273,0.109995,-0.282162,-0.059407,0.017257,0.050702
1765407991.345712,-9.885221,0.143472,-0.132712,-0.059254,0.015119,0.043830
1765407991.348747,-9.885221,0.143472,-0.132712,-0.059254,0.024282,0.043830
1765407991.350805,-10.094451,0.344333,0.441176,-0.054978,0.041997,0.041081
1765407991.351841,-10.110592,0.425036,0.749641,-0.061392,0.041997,0.043677
1765407991.355729,-10.110592,0.425036,0.749641,-0.061392,0.029780,0.043677
1765407991.357844,-9.717837,0.161406,-0.217599,-0.058338,0.014050,0.048106
1765407991.359794,-9.754900,0.112984,-0.108202,-0.059712,0.024893,0.048869
1765407991.363788,-9.774031,0.035868,0.014347,-0.057116,0.029474,0.047495
1765407991.365727,-9.788378,0.420851,0.184122,-0.058185,0.032070,0.040012
1765407991.368860,-10.012553,0.685079,0.539216,-0.059559,0.031765,0.044135
1765407991.370915,-10.022118,0.408895,0.280966,-0.063377,0.021380,0.052993
1765407991.373779,-10.034073,0.136298,0.075323,-0.059712,0.016188,0.052840
1765407991.375791,-9.757292,-0.130320,-0.245696,-0.053909,0.029322,0.053451
1765407991.376756,-9.807508,0.034075,0.133907,-0.054672,0.025504,0.039554
1765407991.380707,-10.095646,0.445959,0.680296,-0.058796,0.030543,0.039706
1765407991.383726,-10.123744,0.726925,0.432209,-0.054214,0.023060,0.048411
1765407991.385765,-9.894786,0.482425,0.090866,-0.058948,0.017104,0.058338
1765407991.386763,-9.574963,-0.011956,-0.402917,-0.060170,0.020922,0.059254
1765407991.390706,-9.874461,-0.194285,0.141081,-0.054520,0.024435,0.049938
1765407991.392746,-9.911524,0.034672,0.233142,-0.053909,0.024129,0.042150
1765407991.395701,-10.201457,0.511717,0.552367,-0.055741,0.023824,0.037110
1765407991.398724,-9.934240,0.652798,0.193687,-0.056352,0.029016,0.045051
1765407991.400728,-9.934240,0.652798,0.193687,-0.056352,0.017410,0.045051
1765407991.403850,-9.836202,0.208034,-0.142276,-0.053603,0.016646,0.055283
1765407991.405814,-10.286942,0.224773,0.714969,-0.053756,0.023060,0.051313
1765407991.408750,-10.235533,0.236729,0.489000,-0.056047,0.027336,0.047037
1765407991.410733,-10.007771,0.481827,0.037064,-0.060170,0.022755,0.043524
1765407991.411746,-10.007771,0.481827,0.037064,-0.060170,0.022602,0.043524
1765407991.415777,-9.921089,0.546987,-0.005978,-0.059559,0.013134,0.052993
1765407991.418751,-10.271400,0.417264,0.711382,-0.063683,0.023976,0.052229
1765407991.420734,-9.807508,0.383788,0.127929,-0.062766,0.013286,0.054978
1765407991.423719,-9.671806,0.125538,-0.190100,-0.069333,0.013286,0.048564
1765407991.425786,-9.604255,0.196676,-0.593018,-0.067348,0.009316,0.042302
1765407991.428878,-9.966521,0.321616,0.015543,-0.060323,0.011759,0.045051
1765407991.430848,-9.999999,0.489000,0.465088,-0.060628,0.035583,0.047953
1765407991.433776,-9.845766,0.504543,0.262434,-0.063072,0.030696,0.052229
1765407991.435841,-9.820659,0.225968,0.111191,-0.067959,0.019395,0.052534
1765407991.437797,-9.964728,0.296509,-0.034075,-0.062003,0.010537,0.050702
1765407991.440739,-9.939621,0.078312,0.179340,-0.058490,0.022602,0.053909
1765407991.443755,-9.793160,0.198470,0.319225,-0.054825,0.027642,0.047189
1765407991.445715,-9.915709,0.282162,0.587040,-0.057116,0.015882,0.042761
1765407991.448801,-9.658655,0.523673,-0.180536,-0.063530,0.008399,0.041692
1765407991.450798,-9.730989,0.738881,-0.478240,-0.063988,0.004429,0.048564
1765407991.451905,-9.527737,0.561932,-0.176949,-0.062766,0.029627,0.055436
1765407991.453739,-9.830223,0.331181,0.533835,-0.060628,0.029627,0.058338
1765407991.459758,-10.154231,0.069345,0.761597,-0.072388,0.025809,0.048717
1765407991.460762,-10.028693,0.240913,0.104017,-0.069639,0.014355,0.039554
1765407991.463810,-9.791965,0.528455,-0.202654,-0.068722,0.015119,0.042150
1765407991.465753,-9.823050,0.729914,0.199067,-0.069333,0.023366,0.048106
1765407991.468772,-9.999999,0.443568,0.627690,-0.072540,0.031154,0.056810
1765407991.469272,-9.877449,0.094452,0.178144,-0.070708,0.010996,0.052840
1765407991.473803,-9.933045,0.257652,-0.115973,-0.077427,0.013592,0.042150
1765407991.475834,-9.748923,0.426829,-0.190100,-0.072235,0.021228,0.042302
1765407991.478751,-9.865494,0.645624,0.370636,-0.069028,0.027794,0.046884
1765407991.480799,-9.925274,0.407102,0.627690,-0.069944,0.027794,0.056200
1765407991.483755,-9.873264,0.048422,-0.074127,-0.076358,0.018784,0.049938
1765407991.485777,-9.785987,0.269608,-0.422645,-0.069791,0.017410,0.045357
1765407991.488727,-9.785987,0.269608,-0.422645,-0.069791,0.034819,0.045357
1765407991.490767,-9.949782,0.583453,0.659971,-0.065973,0.022297,0.054062
1765407991.493709,-9.723815,0.236729,0.049020,-0.074831,0.022297,0.054520
1765407991.494209,-9.646101,0.021521,-0.391559,-0.073609,0.012675,0.048564
1765407991.498737,-9.457196,0.154232,-0.655787,-0.068417,0.019700,0.044899
1765407991.500802,-9.802725,0.540411,0.315638,-0.068722,0.030849,0.044899
1765407991.502877,-10.109993,0.632472,1.036585,-0.071166,0.030543,0.048564
1765407991.503793,-9.978478,0.283357,0.225968,-0.072082,0.030543,0.060018
1765407991.508809,-9.797942,0.023314,-0.573888,-0.073304,0.017104,0.051313
1765407991.509309,-9.954566,0.054998,-0.025108,-0.072693,0.030238,0.044899
1765407991.513763,-10.159015,0.324008,1.021042,-0.067195,0.046731,0.043371
1765407991.515729,-10.159015,0.324008,1.021042,-0.067195,0.038637,0.043371
1765407991.517832,-9.634145,0.519488,-0.144668,-0.076358,0.027642,0.050855
1765407991.520712,-9.509803,0.195481,-0.621712,-0.067501,0.020464,0.059101
1765407991.523742,-9.829028,0.000000,0.113582,-0.062003,0.032834,0.057421
1765407991.525736,-10.104613,0.181133,0.490196,-0.064904,0.032834,0.045509
1765407991.528724,-10.057388,0.353898,0.582257,-0.068722,0.037568,0.045357
1765407991.530754,-9.451219,0.325203,-0.490196,-0.064904,0.027947,0.050702
1765407991.533718,-9.823050,0.560139,-0.150646,-0.063835,0.012675,0.051924
1765407991.535780,-10.138689,0.340746,0.577475,-0.068570,0.042150,0.053298
1765407991.537805,-10.069344,0.431612,0.542205,-0.068111,0.042150,0.053756
1765407991.540808,-9.699903,0.334768,-0.105213,-0.068111,0.034819,0.053756
1765407991.543813,-9.695121,0.379005,-0.334768,-0.077733,0.019242,0.049175
1765407991.545755,-10.078907,0.370636,0.167384,-0.071013,0.030391,0.052076
1765407991.548738,-10.021520,0.532042,0.335366,-0.064904,0.039554,0.051771
1765407991.549793,-9.707675,0.610354,0.159613,-0.079107,0.039554,0.050855
1765407991.552847,-9.639525,0.567910,-0.105213,-0.080481,0.034819,0.052840
1765407991.555725,-9.765661,0.261836,-0.209230,-0.074067,0.025809,0.061697
1765407991.557827,-10.241510,0.328192,0.393950,-0.073915,0.025809,0.052687
1765407991.560321,-10.078907,0.212817,0.510521,-0.073609,0.048106,0.054672
1765407991.562819,-9.719033,0.238522,0.112386,-0.078038,0.042150,0.051924
1765407991.565727,-9.586321,0.325203,-0.540411,-0.074984,0.025351,0.052076
1765407991.566814,-9.868484,0.388570,-0.425036,-0.072388,0.018326,0.053145
1765407991.570785,-10.416068,0.411286,0.711382,-0.065973,0.044746,0.054825
1765407991.573826,-10.416068,0.411286,0.711382,-0.065973,0.055894,0.054825
1765407991.575856,-10.064561,0.141081,0.410091,-0.077122,0.038179,0.052076
1765407991.576866,-10.068149,0.383788,-0.102224,-0.072235,0.020159,0.049480
1765407991.580825,-9.949782,0.325203,-0.312052,-0.067959,0.020311,0.055589
1765407991.582779,-9.912720,0.521879,0.237924,-0.059101,0.035277,0.051007
1765407991.585763,-10.040649,0.598398,0.587040,-0.071166,0.044593,0.054672
1765407991.586812,-9.866092,0.349115,-0.150048,-0.073762,0.026725,0.059712
1765407991.590726,-10.004184,0.271401,-0.271401,-0.074678,0.012828,0.054062
1765407991.593719,-10.284551,0.272597,0.489598,-0.068570,0.033750,0.056963
1765407991.595765,-10.017933,0.125538,0.454328,-0.066279,0.041844,0.054520
1765407991.598789,-9.728598,0.266619,-0.084888,-0.066279,0.023976,0.054520
1765407991.600769,-9.976088,0.696437,-0.089670,-0.079107,0.018631,0.042761
1765407991.602829,-10.181729,0.701817,0.444763,-0.063530,0.030696,0.061239
1765407991.603837,-9.905546,0.222382,0.447154,-0.067806,0.024740,0.065057
1765407991.608760,-9.788378,0.203252,0.003587,-0.074831,0.024740,0.056963
1765407991.610728,-9.778812,0.120756,-0.431612,-0.076205,0.014355,0.052534
1765407991.612785,-9.982065,0.321616,-0.096246,-0.061239,0.015882,0.051007
1765407991.615703,-9.995216,0.672525,0.383190,-0.064904,0.033903,0.052076
1765407991.618837,-9.881634,0.506934,0.420851,-0.069180,0.041692,0.055894
1765407991.620743,-9.518770,0.352104,-0.378407,-0.069639,0.027489,0.058338
1765407991.622809,-9.743543,0.255858,-0.370636,-0.067653,0.009468,0.054520
1765407991.625790,-9.993423,0.436992,0.370038,-0.064446,0.034056,0.054520
1765407991.628848,-9.781204,0.294715,0.380799,-0.066279,0.032529,0.062308
1765407991.630817,-9.740554,0.342539,0.029292,-0.079260,0.020617,0.053603
1765407991.633775,-9.771639,0.374223,-0.472262,-0.073762,0.008705,0.052993
1765407991.635801,-9.920491,0.444165,-0.032281,-0.065668,0.022602,0.059407
1765407991.638834,-9.704685,0.382592,0.150646,-0.060934,0.039401,0.063683
1765407991.641806,-9.945002,0.184122,0.600789,-0.067806,0.025962,0.064599
1765407991.643761,-10.014346,0.035868,0.065758,-0.072846,0.016341,0.053756
1765407991.645829,-9.964130,0.286944,0.015543,-0.062308,0.014050,0.051313
1765407991.648817,-9.544475,0.346724,-0.294118,-0.061087,0.020769,0.055131
1765407991.650760,-9.880439,0.681492,0.180536,-0.066737,0.013439,0.052534
1765407991.653868,-9.909132,0.385581,0.272597,-0.069791,0.025198,0.059712
1765407991.654368,-9.703490,0.399330,-0.301291,-0.062156,0.025198,0.059712
1765407991.657834,-9.812290,0.449546,0.082496,-0.063530,0.021228,0.056963
1765407991.660818,-9.888210,0.510521,0.400526,-0.066584,0.032070,0.063072
1765407991.663760,-9.687947,0.188905,-0.023912,-0.068570,0.019090,0.060323
1765407991.665772,-9.607842,0.469871,-0.292922,-0.065821,0.019090,0.054062
1765407991.668807,-9.665230,0.616930,-0.235533,-0.064446,0.023976,0.059101
1765407991.670804,-9.814680,0.707197,0.163797,-0.062766,0.030849,0.064904
1765407991.672790,-9.852941,0.328192,0.059780,-0.071166,0.030238,0.063683
1765407991.675797,-9.917501,0.218197,0.062171,-0.067348,0.032529,0.064294
1765407991.678742,-9.831419,0.197274,0.072932,-0.063072,0.032681,0.059559
1765407991.680701,-9.964130,0.405308,0.486609,-0.071929,0.028711,0.057574
1765407991.683719,-9.812290,0.667145,-0.065758,-0.070555,0.035583,0.055894
1765407991.685788,-9.860114,0.570301,-0.081899,-0.067195,0.021533,0.065057
1765407991.688710,-10.226564,0.426829,0.608560,-0.068417,0.032223,0.063530
1765407991.690772,-9.959349,0.404711,0.381396,-0.066432,0.026878,0.065210
1765407991.693825,-9.698708,0.318627,-0.291726,-0.075289,0.023366,0.057116
1765407991.695724,-9.714250,0.667145,-0.407700,-0.068264,0.024282,0.058032
1765407991.696798,-9.826636,0.372429,0.161406,-0.063835,0.024282,0.063377
1765407991.700756,-10.041844,0.656982,0.438187,-0.064141,0.025198,0.058796
1765407991.702757,-9.864896,0.489000,-0.121951,-0.072998,0.031307,0.064294
1765407991.705883,-9.809898,0.489000,-0.292922,-0.066279,0.020769,0.065668
1765407991.708746,-10.164991,0.362267,0.345528,-0.066584,0.040317,0.064141
1765407991.710780,-10.054996,0.389168,0.619919,-0.066126,0.040317,0.061545
1765407991.713719,-10.054996,0.389168,0.619919,-0.066126,0.033750,0.061545
1765407991.715756,-9.577952,0.851267,-0.509326,-0.070860,0.025504,0.054978
1765407991.718734,-9.744141,0.653993,0.117169,-0.068570,0.038637,0.065668
1765407991.720715,-9.915112,0.619321,0.291726,-0.070555,0.039706,0.064752
1765407991.722816,-9.655068,0.445959,-0.369440,-0.080634,0.039706,0.057727
1765407991.725749,-9.655068,0.445959,-0.369440,-0.080634,0.034819,0.057727
1765407991.726827,-10.166186,0.511119,0.462697,-0.066432,0.040317,0.064904
1765407991.730847,-10.061573,0.464491,0.597800,-0.073609,0.040317,0.061392
1765407991.732935,-9.762672,0.711980,-0.334768,-0.079718,0.040317,0.056047
1765407991.735815,-9.674795,0.456719,-0.457915,-0.077427,0.031765,0.065057
1765407991.737904,-9.899570,0.353898,0.136298,-0.067195,0.035125,0.065515
1765407991.740757,-10.095646,0.363462,0.461502,-0.070402,0.043524,0.063683
1765407991.743756,-9.977283,0.571497,0.249880,-0.078954,0.043524,0.054672
1765407991.744707,-9.972500,0.571497,-0.031683,-0.074678,0.028405,0.060476
1765407991.748691,-10.059779,0.381396,0.135103,-0.069791,0.023213,0.065668
1765407991.750759,-9.824244,0.291726,-0.019130,-0.069791,0.024893,0.060628
1765407991.753692,-9.701099,0.546389,-0.119560,-0.074526,0.043219,0.058185
1765407991.755773,-9.753705,0.627690,0.111191,-0.072540,0.033750,0.058185
1765407991.758783,-9.925871,0.484218,0.197872,-0.077122,0.026573,0.060476
1765407991.760779,-9.617407,0.441176,-0.418460,-0.071929,0.035430,0.060934
1765407991.763696,-9.370515,0.382592,-0.553563,-0.076053,0.035430,0.059407
1765407991.765755,-9.780008,0.689861,0.223577,-0.075747,0.034056,0.056658
1765407991.768717,-10.052606,0.765184,0.411286,-0.073151,0.037415,0.062461
1765407991.770756,-9.549257,0.478838,-0.373625,-0.073151,0.032376,0.062461
1765407991.771719,-9.335245,0.383190,-0.813606,-0.080329,0.030085,0.057116
1765407991.775735,-9.701696,0.612745,-0.151841,-0.076969,0.034056,0.056352
1765407991.778766,-9.977283,0.654591,0.463295,-0.071166,0.041233,0.060170
1765407991.780760,-9.466762,0.669536,-0.149450,-0.076664,0.048411,0.061239
1765407991.783877,-9.570778,0.677905,-0.398135,-0.086743,0.036652,0.057269
1765407991.786176,-9.885818,0.445959,-0.104017,-0.081551,0.027947,0.060934
1765407991.789413,-10.211619,0.448350,0.416069,-0.072082,0.041233,0.063530
1765407991.790732,-9.769248,0.542802,0.163199,-0.075289,0.047189,0.059407
1765407991.793787,-9.693925,0.565519,-0.229555,-0.088728,0.030696,0.054825
1765407991.795783,-10.009563,0.626494,-0.154232,-0.082314,0.019395,0.055589
1765407991.796825,-9.820060,0.624103,-0.000598,-0.077885,0.035888,0.058032
1765407991.800705,-9.599473,0.720947,0.046031,-0.080787,0.041692,0.061087
1765407991.803782,-9.434480,0.823768,-0.280966,-0.093157,0.036346,0.054672
1765407991.805767,-10.157818,0.691655,0.448350,-0.085827,0.017868,0.063835
1765407991.808770,-9.849353,0.304878,-0.058584,-0.083536,0.033598,0.064752
1765407991.810800,-9.499043,0.477642,-0.514108,-0.084452,0.031918,0.057574
1765407991.813780,-9.631754,0.425634,-0.273792,-0.088881,0.031918,0.054520
1765407991.815801,-9.901959,0.561932,0.122549,-0.077885,0.023976,0.055894
1765407991.816752,-9.821855,0.648015,-0.155428,-0.081551,0.039706,0.057269
1765407991.820705,-9.543280,0.515304,-0.322812,-0.083841,0.046426,0.061239
1765407991.822846,-9.795551,0.352702,-0.007174,-0.078496,0.038943,0.059559
1765407991.825728,-10.074127,0.312052,0.423840,-0.079565,0.033750,0.055283
1765407991.828707,-9.801530,0.431014,-0.136298,-0.082009,0.041997,0.054672
1765407991.830758,-9.472739,0.498565,-0.844094,-0.080329,0.034667,0.051618
1765407991.833812,-9.888808,0.671927,-0.160210,-0.076664,0.034667,0.051924
1765407991.834312,-9.888808,0.671927,-0.160210,-0.076664,0.046273,0.051924
1765407991.838775,-10.094451,0.702415,0.294118,-0.080176,0.048106,0.061392
1765407991.840790,-9.738162,0.331779,-0.267814,-0.081398,0.046273,0.063377
1765407991.841779,-9.862504,0.248685,-0.135103,-0.078802,0.038026,0.061697
1765407991.843785,-10.264824,0.269010,0.441176,-0.074831,0.031918,0.052229
1765407991.846734,-10.044236,0.712578,0.047824,-0.080176,0.051007,0.047800
1765407991.850793,-9.781204,0.708991,-0.261836,-0.080481,0.040928,0.058185
1765407991.853759,-10.075920,0.408297,0.151841,-0.079718,0.034819,0.066432
1765407991.855953,-10.295312,0.194285,0.176949,-0.072998,0.024435,0.061087
1765407991.858841,-10.035269,0.466284,-0.170971,-0.078496,0.045051,0.051007
1765407991.860794,-9.790171,0.506934,-0.139885,-0.075747,0.040623,0.055131
1765407991.863725,-9.768052,0.536824,-0.047824,-0.076511,0.038790,0.059865
1765407991.865817,-9.854136,0.493783,-0.261836,-0.076511,0.024740,0.057116
1765407991.868843,-9.857722,0.786705,-0.296509,-0.081245,0.040928,0.053145
1765407991.870748,-9.837397,0.760999,-0.101626,-0.077580,0.053756,0.068722
1765407991.873752,-9.927666,0.454328,0.136298,-0.074373,0.040470,0.070555
1765407991.875778,-10.240315,0.169775,0.416069,-0.082620,0.032070,0.060018
1765407991.876878,-9.980869,0.313247,-0.120756,-0.081245,0.043066,0.057269
1765407991.880773,-9.732184,0.524271,-0.472860,-0.072540,0.034514,0.059254
1765407991.883853,-10.396938,0.828551,0.641439,-0.071319,0.034514,0.060018
1765407991.884353,-10.504542,0.571497,0.699426,-0.071319,0.042302,0.060018
1765407991.888001,-10.148851,0.455524,-0.179938,-0.077274,0.035888,0.068417
1765407991.890797,-10.026302,0.274390,-0.016141,-0.073151,0.033292,0.062461
1765407991.893792,-9.882233,0.394548,-0.086083,-0.073457,0.035277,0.062919
1765407991.895728,-10.534431,0.600191,0.734098,-0.075900,0.027184,0.056047
1765407991.898749,-10.534431,0.600191,0.734098,-0.075900,0.034667,0.056047
1765407991.900733,-9.474532,0.645624,-0.653395,-0.078954,0.033292,0.063072
1765407991.903783,-9.576159,0.752032,-0.245098,-0.073304,0.027336,0.065668
1765407991.905726,-10.002390,0.694644,0.124940,-0.076664,0.020922,0.061697
1765407991.908800,-10.237924,0.797465,0.479436,-0.076664,0.034056,0.062614
1765407991.910757,-9.582136,0.463295,-0.432807,-0.077427,0.040623,0.070097
1765407991.911779,-9.564800,0.374223,-0.515304,-0.077122,0.028405,0.067501
1765407991.915803,-9.620397,0.661167,-0.193687,-0.078191,0.028405,0.056505
1765407991.918780,-10.101624,1.030607,0.636059,-0.080634,0.040775,0.062003
1765407991.920800,-9.687947,0.537422,0.023314,-0.077122,0.037110,0.070860
1765407991.923706,-9.460783,0.500956,-0.737685,-0.082161,0.019853,0.060476
1765407991.925699,-9.726207,0.634864,-0.303085,-0.079565,0.042913,0.062766
1765407991.928773,-9.893590,0.837518,0.279770,-0.072235,0.042913,0.069791
1765407991.930706,-9.909132,0.496174,0.317432,-0.082009,0.041386,0.069791
1765407991.932930,-9.649688,0.549378,-0.309063,-0.087506,0.033750,0.060323
1765407991.935791,-9.823050,0.705404,0.082496,-0.077733,0.032223,0.062461
1765407991.938705,-9.910329,0.637853,0.257054,-0.077122,0.041844,0.069028
1765407991.940725,-10.182328,0.669536,0.383788,-0.080940,0.031765,0.061850
1765407991.942797,-10.291725,0.545791,0.355093,-0.080940,0.034819,0.061850
1765407991.945723,-9.938425,0.517097,-0.028694,-0.074526,0.028558,0.065363
1765407991.948769,-9.702294,0.472262,-0.160210,-0.075136,0.028558,0.064294
1765407991.950812,-9.702294,0.472262,-0.160210,-0.075136,0.033750,0.064294
1765407991.953758,-10.279769,0.647417,0.649809,-0.076053,0.037263,0.062156
1765407991.955798,-9.748923,0.449546,-0.126734,-0.075747,0.041692,0.066432
1765407991.958780,-9.555235,0.627690,-0.615734,-0.076969,0.032681,0.059407
1765407991.960870,-9.845766,0.612147,0.011956,-0.084758,0.032681,0.056200
1765407991.963850,-9.845766,0.612147,0.011956,-0.084758,0.041844,0.056200
1765407991.965786,-9.772835,0.740674,-0.017934,-0.075136,0.038637,0.066737
1765407991.968720,-9.902557,0.791487,-0.019130,-0.087812,0.037874,0.059254
1765407991.970767,-9.748325,0.728120,-0.430416,-0.081245,0.041233,0.071319
1765407991.973788,-9.909132,0.536824,-0.038259,-0.076053,0.031154,0.070097
1765407991.975713,-9.958751,0.625897,0.119560,-0.089950,0.042302,0.061697
1765407991.978725,-9.862504,0.786705,-0.023314,-0.088117,0.049786,0.061850
1765407991.980848,-9.500835,0.602582,-0.555954,-0.082161,0.043219,0.067959
1765407991.983806,-9.917501,0.749641,0.045433,-0.084910,0.030238,0.064599
1765407991.984306,-10.351504,0.636059,0.677905,-0.088117,0.043677,0.066584
1765407991.989016,-10.344332,0.428025,0.541009,-0.081551,0.042455,0.071013
1765407991.989516,-9.781204,0.380201,-0.467480,-0.082009,0.030543,0.065057
1765407991.993460,-9.873264,0.726925,-0.386179,-0.089186,0.023518,0.055436
1765407991.996257,-10.170969,0.743065,0.218795,-0.084299,0.031765,0.061850
