time,acc_x_g,acc_y_g,acc_z_g,gyro_x_rad_s,gyro_y_rad_s,gyro_z_rad_s
0.0,-7.79053,3.368005,-4.948589,-0.007789,-0.008094,-0.001069
0.0025,-7.536773137088306,3.748885723627685,-5.164826646396182,-0.008858,-0.008536537565632458,-0.004581
0.005,-7.20208802351145,4.49701898519084,-4.954768033664122,-0.06442889557251909,-0.004276,-0.02512170381679389
0.0075,-6.647818260687023,3.86765762870229,-5.360342150839695,-0.14982046938931298,-0.044135,-0.07864590854961831
0.01,-7.033715,3.834887,-4.744141,-0.196546,-0.07711535569113442,-0.115301
0.0125,-6.5696613834179365,3.729122313028765,-5.96695251607445,-0.273668,-0.12626106937394246,-0.174707
0.015,-7.0373646638797425,3.7796170817179675,-5.625460461274158,-0.3829204574946313,-0.13094373531853976,-0.21792964420901934
0.0175,-7.672283250592436,3.055083126395432,-4.682254609735901,-0.4592627996573876,-0.1502444869664525,-0.2570282378015703
0.02,-7.381646828102955,3.3423269186653948,-5.165671492278362,-0.5221783561487131,-0.20668817616777885,-0.31798528156339373
0.0225,-7.514686188961277,3.1683647517639812,-5.731338640442534,-0.6157689185494776,-0.15941275176398273,-0.39054252236017206
0.025,-8.037424794083966,3.6556487396946533,-4.733142329961837,-0.6980180459923664,-0.19022320286259542,-0.4520238519083969
0.0275,-7.496412,3.284313,-4.815877,-0.722348,-0.1797220079313632,-0.501215
0.03,-7.992985665454544,3.413333490909089,-5.301059872727274,-0.8349095345454546,-0.18249776363636372,-0.6006400436363636
0.0325,-6.426439152605276,3.404620741955744,-6.560052700842265,-0.9078075304496789,-0.20185636065667392,-0.650474986923626
0.035,-7.993922485224023,3.862455726939945,-5.738441595424224,-0.9931681595042898,-0.25115167672068656,-0.7104636523546236
0.0375,-9.03445547003817,4.189207281106871,-5.111921434541983,-1.020453370038168,-0.27860157156488546,-0.7616772324427481
0.04,-8.003664732545284,2.838884557025741,-5.708506061315537,-1.1078272480076263,-0.316622083508103,-0.8397996775977121
0.0425,-8.48294723611058,3.34518642230695,-5.211502674890381,-1.1804131421163013,-0.37677351771210693,-0.8536705563775023
0.045,-9.917273482977809,2.4671729358052947,-3.3646551772941993,-1.2088226935146742,-0.40775054347888334,-0.899631292226199
0.0475,-9.891224899900068,2.500975326595288,-3.8858649379586025,-1.282110666980728,-0.43769156408279797,-0.9172296346609565
0.05,-9.752330411058164,3.411329337464252,-3.144324282554784,-1.3035947002859867,-0.543823,-0.905617153670162
0.0525,-9.788976,1.865136,-3.529412,-1.337795,-0.5149250565490942,-0.939969
0.055,-9.6257348652149,2.0520739524355296,-2.616983387507163,-1.334569041146132,-0.541142994269341,-0.8927119881948424
0.0575,-9.339130223771432,2.7550376698285737,-3.1721453725714217,-1.3754310287999998,-0.5908773651428569,-0.9144363892571429
0.06,-9.446985001546173,2.4181820231352913,-2.351342824137437,-1.3886253106084465,-0.5884610220186115,-0.8960511512956336
0.0625,-10.30959441541756,1.0235999914346896,-1.5996383747323342,-1.3791054753747325,-0.6118581092077088,-0.8839773233404711
0.065,-9.310281894223078,2.530813373346039,-2.0875255782650113,-1.4066420510962823,-0.6626780447283128,-0.862446727321258
0.0675,-8.730983043511442,1.547460684885489,-1.880049560839709,-1.3895465413740455,-0.605768015648855,-0.8696473088549616
0.07,-8.550964241145314,1.4569497874588586,-1.827572245182517,-1.4214033802433788,-0.6387068483607734,-0.874916930393701
0.0725,-7.142265838201294,1.5724388093361925,-3.623590460556727,-1.3687432547323342,-0.6146778813704492,-0.8252908992719487
0.075,-9.366190664853253,1.8603122857552004,-0.7796456880458119,-1.3825602574087328,-0.5882218320687184,-0.8501025478883321
0.0775,-9.615894686081372,1.6733919731049243,0.24000596922198347,-1.3710934918486795,-0.563271851391863,-0.8498630689793004
0.08,-8.842050807793703,1.0986286207449862,-0.5372448867621687,-1.3605678492263609,-0.5673453399426933,-0.8408581288252148
0.0825,-8.485324081456106,0.74529286107065,-1.016915915888648,-1.340476170364026,-0.51960636882227,-0.7986862463383297
0.085,-10.249917660859575,0.06248949581661531,0.7805077153581435,-1.276032679197708,-0.4564976846991405,-0.7844661383954158
0.08750000000000001,-9.05363637979031,0.41993882840798624,-0.02032422497614028,-1.2826896775977126,-0.42181821773117334,-0.7375792981887512
0.09,-8.662535395805529,-0.019104024709250406,-0.3025562800381243,-1.1642956482745475,-0.3665521824976166,-0.6797164894566254
0.0925,-9.011519943554603,0.5676833841256229,-0.09378470098500985,-1.1282649890364025,-0.32964507831548895,-0.6429044096788009
0.095,-10.379004,0.708991,0.643831,-1.101237,-0.24646453143946612,-0.61056
0.0975,-9.903354119312977,0.6408155367175596,0.7291830903053526,-1.013529131679389,-0.24223022595419835,-0.5378458445038166
0.1,-10.268360442949163,0.37341612741587743,0.6056659975662089,-0.9401033302791693,-0.2097041689334289,-0.5007646797423044
0.10250000000000001,-10.178910850104877,0.25056881212585214,0.8883714602860143,-0.8481969129837938,-0.201127,-0.457332385662535
0.105,-10.703148778265003,-0.041361349437565975,1.2194296743183937,-0.7738418867111536,-0.22873306459485215,-0.38106846127740723
0.1075,-10.194451904198472,-0.43886129324427425,0.15444101770992147,-0.6215923741221375,-0.26403750755725175,-0.3219746952290076
0.11,-10.113181934274808,-0.16279684416030657,0.6548923373282434,-0.5291798604198473,-0.21479078652671757,-0.2711615308015267
0.1125,-10.110707167778827,-0.5182416810295519,0.30494327721638315,-0.42346083145853175,-0.1820529433746427,-0.2167429715919924
0.115,-10.310684375267174,-0.061407927519082334,0.5027983434351156,-0.32831805450381657,-0.13881250824427463,-0.1890151261832061
0.11750000000000001,-10.239671617502374,0.15061286795043008,0.2697301263298113,-0.26523578352716853,-0.09329853715919897,-0.163070392030505
0.12,-9.922431719161105,-0.9186203691515706,0.05702903614870983,-0.1608151895138229,-0.065668,-0.11413685010486194
0.1225,-10.122856487786256,-1.3035674996946567,0.5636091226335822,-0.08375106751908402,-0.024445289045801587,-0.058263140458015325
0.125,-10.032385852205005,-1.1748487449344458,0.35914795113230036,-0.012821953516090584,-0.011634603098927294,0.003283754469606675
0.1275,-9.844490903102622,-0.21013298081145687,0.21324066596658486,0.014350526491646823,-0.0052454848687350265,0.025527735847255362
0.13,-9.974525858927292,0.5336380793802147,0.279467137640045,0.009518831942789005,-0.0052706492967818045,0.0015319129439808653
0.1325,-9.94262565590086,0.19923329654909414,0.29566124899904855,-0.023273894528122,-0.006450552678741647,-0.009681974337464231
0.135,-9.931184116996414,-0.1993104645530439,0.2920109419308561,-0.02416578474374239,-0.005298974731823464,-0.006415574684147619
0.1375,-9.96027355252622,-0.2312043086749259,0.3810897193517611,-0.008245364918970224,-0.005570013155385811,-0.0012490695900856943
0.14,-10.026523614636483,-0.02811494288438721,0.4791552391418497,-0.0041290018116805416,-0.008314861883194472,0.006777784076281246
0.14250000000000002,-10.121358384137926,0.072932,0.559956998620675,-0.0026168948275860212,-0.010150800344827042,0.0026168948275860212
0.145,-9.967076053492248,0.14867322979738035,0.4240991308223984,-0.013280123289630604,-0.007899142359952203,-0.003506673182359853
0.1475,-9.850815015017883,-0.020476053158520885,0.1801426617878457,-0.01034802445768777,-0.00363796042908198,-0.0062130465792611615
0.15,-9.965605705840291,-0.1303206040524436,0.3181727458879694,-0.009221598569725839,-0.006754952562574655,-0.0017029818831943678
0.1525,-9.9618179393087,-0.01049033668653234,0.4178870037663873,-0.00605299294398095,-0.008149211632896286,0.0021099964719904747
0.155,-9.9622160045292,0.021644607580453216,0.36150419008343093,-0.007202183408820009,-0.007085881525625728,-0.00011296514898686627
0.1575,-9.960285247398568,-0.014806892505966686,0.344785314463008,-0.010748698329355622,-0.009173683723150385,-0.0014615810023866271
0.16,-9.972578222741362,-0.07704452905840278,0.4475848999284911,-0.007840163575685354,-0.0096419687723481,-0.003718798855780729
0.1625,-9.89287566007152,-0.045603595232419164,0.3059460514898779,-0.007941,-0.009978928963051269,-0.00035475494636469867
0.165,-9.793554241573299,-0.014942189654351675,0.1841190918712723,-0.005933878903456365,-0.003877414445768755,-0.0010570797139452678
0.1675,-9.920735472562592,0.09830016543506764,0.380595825744978,-0.0036731353039334827,0.005266926388558783,-0.005405404910607843
0.17,-9.857349865792626,0.035289214684157175,0.2272238251728472,-0.008238362240762877,0.004408874088199902,-0.00428024467222849
0.17250000000000001,-9.949880969535178,0.17801275475564834,0.280922629082259,-0.007782998188319395,0.002522791323003752,0.0016331453635283512
0.17500000000000002,-9.871995298450534,0.07475532061978456,0.19400965172826592,-0.009941506793802197,-0.0014242293206203323,-0.002836556853396812
0.1775,-10.001351148033367,-0.11058954727056317,0.3136920616448084,-0.007990627604290796,-0.006032625649582457,-0.0022405912276517834
0.18,-9.918329287603443,-0.03982131270790603,0.28248766844735834,-0.00735891344530929,-0.004947227791888533,0.0017378268906185815
0.1825,-9.860610103874773,-0.1450540409785258,0.3014601470211592,-0.007625107172185954,-0.009316,0.001581370873908603
0.185,-9.97002767925003,-0.09500674508285972,0.41004079039071,-0.007480908474658279,-0.009224698957300109,-0.0012462255570339885
0.1875,-9.946347482384198,0.04517991729236457,0.32730049924916255,-0.006653040660736976,-0.007144710061222132,-0.002489779022756151
0.19,-9.84395986393688,0.0659873014576216,0.2430285256743126,-0.007306670304213439,-0.004265521913128354,-0.00036505473889702046
0.1925,-9.859725824612944,0.013901359006979558,0.2852856456662438,-0.008417649942893403,-0.004663318791243658,0.0023694583756345227
0.195,-9.993262194136555,-0.061692798955891436,0.47486673418731196,-0.009103376778247735,-0.00630341683625378,0.0015812294622356369
0.1975,-9.999581918295778,-0.0946385036745367,0.40876318934092054,-0.010101133292317162,-0.004417106132430966,-0.0013820764408213567
0.2,-9.812499144334563,-0.0541665395925171,0.18168056956987866,-0.009289240176337409,-0.00250952300726796,-0.0024236112236387447
0.2025,-9.76843369230572,0.016331298439352934,0.23455990225284518,-0.008595705572824873,-0.0031123059061047963,-0.0017887467136676774
0.20500000000000002,-9.913602489173437,0.026357924414715486,0.4355769634591508,-0.008391951495461052,-0.006137194018155791,3.843451505018626e-05
0.20750000000000002,-9.912563954334098,0.000919418523383576,0.366617602633535,-0.008193035185566197,-0.006764468937247752,0.0016572655313761243
0.21,-9.793997098882928,-0.013066387502439,0.19983579996097597,-0.008220357780487806,-0.004729975258536592,0.0016905158829268324
0.2125,-9.82275158669849,-0.04318628428003173,0.2829211662688938,-0.008007718711217185,-0.003453876197295149,0.00025459896579157104
0.215,-10.007456389387167,-0.04443150788752709,0.4928441324873825,-0.00757358063446287,-0.003054,-0.001712656755587596
0.2175,-10.092059,-0.031086,0.569106,-0.00733,-0.002177360624699664,-0.002443
0.22,-9.90568200490505,-0.026435147364520607,0.3394429234089854,-0.010071920583603523,-0.00043071049559981374,-0.0008895242612320504
0.2225,-9.82608239505618,-0.0156794429213483,0.28822154561797775,-0.012420637303370789,-0.00198442314606742,0.00023740269662921363
0.225,-9.978077400816327,-0.017246257551020445,0.4935419616326536,-0.010330466938775498,-0.0011417379591836608,0.0003943644897959188
0.2275,-9.989565970595667,-0.013655352170784318,0.444140117255936,-0.007265882021268084,0.000764,-5.622264012153426e-05
0.23,-9.93424,-0.006576,0.337159,-0.006261,0.0015081372891272613,-0.000458
0.2325,-9.873292229572879,-0.016163096660111766,0.34811617284669244,-0.0071361991693542105,0.00023574720994256606,0.0009412876771808481
0.23500000000000001,-9.94597704192754,-0.0168108582566064,0.4661238003874221,-0.008435083505918936,-0.0035608636996293497,0.0014313868181274596
0.23750000000000002,-9.947706257946603,-0.031028782476258586,0.335573348145493,-0.009134797682613622,0.000458,0.001415871934539805
0.24,-9.821163181881385,-0.008191582547930565,0.23336490091381512,-0.007987457760258023,0.000458,0.0010332165346712073
0.2425,-9.837930310131524,-0.010341317849978885,0.28513168731727784,-0.008159957893219622,-0.0036219789466098106,0.0002619789466098106
0.245,-9.932044587472225,-0.046104743239445016,0.4364676971761453,-0.010083176380998135,-0.0045835881904990675,0.0012235881904990673
0.2475,-9.967764894866594,-0.04600833195506321,0.4554312091090654,-0.009492860109221408,-0.0021506002590107698,0.0012705500140427527
0.25,-9.877798173031026,-0.009759129474940335,0.28349716646778045,-0.008552,0.0006180554892601432,-0.00016711097852028633
0.2525,-9.751777568622943,-0.009139437285253153,0.171286474664987,-0.009053290934572081,0.0004002472466734894,-0.00023333268876466297
0.255,-9.799334946553191,-0.04713550877568398,0.2683926709106387,-0.0089406156449848,-0.0013839473264437739,-0.0006848580182370863
0.2575,-9.952319818446792,-0.03414801128513392,0.41872603091470384,-0.00941985699106418,0.0017015968318440451,0.00020871398212835772
0.26,-9.917781800591133,-0.01868575487684734,0.3169442098522156,-0.010893704433497542,0.004734,-0.00028253261083745164
0.2625,-9.781481746150073,-0.04633694006866126,0.1641793627268266,-0.011454,0.0031770871996076406,-0.001527
0.265,-9.852676352618744,-0.052096217317384605,0.3037878190407637,-0.011729542501451634,-0.0007710266356985552,-0.000883866956218783
0.2675,-10.047434425978084,-0.0344033084728374,0.5314413016367462,-0.009400115262298881,-0.0013400576311494404,-0.00033215901608766495
0.27,-9.91215585397347,-0.030973261173407103,0.31440450065261416,-0.008858,0.00383228550736435,-0.0007506377150297051
0.2725,-9.71773525499654,-0.007295698353700444,0.12411013997694141,-0.00923605011759281,0.006407100235185621,-0.00041165803089692756
0.275,-9.689142,-0.002391,0.102822,-0.009316,0.0030253015587060022,-0.000305
0.2775,-9.811636409454549,-0.010175118213572462,0.2148691681720888,-0.010938133891933443,0.0015794263805377728,0.0003227459421254897
0.28,-10.003621142545457,-0.022375118721639053,0.3904800043800274,-0.013480494344686327,0.001661593923687581,0.0013066082888604459
0.28250000000000003,-9.927101985137163,-0.03369275019045952,0.23688140233443777,-0.009370848827537998,0.006405528457102915,0.0014636796295649183
0.28500000000000003,-9.841663650135914,-0.014093876134530746,0.1836624395761357,-0.009189033614374573,0.004742139663671926,0.0018584485372034139
0.28750000000000003,-9.849353,-0.001196,0.216404,-0.009316,0.003665,0.001985
0.29,-10.00801239344521,-0.06006488699901182,0.36214020791707546,-0.008765374540967433,0.004490637956564646,0.0011599625074037653
0.2925,-10.018263711333388,-0.09717768504866664,0.3240206321626982,-0.007698698479069407,0.003988687397325326,0.0005232472295639797
0.295,-9.912682136241756,-0.08614833610265031,0.20969329897109984,-0.008671127382180099,0.003486923185034173,0.00017807681496582686
0.2975,-9.982090055054206,-0.04035693109124031,0.3454609724808092,-0.008570910415446713,0.0027020357521563734,-0.0001748238664239917
0.3,-10.093294329575437,0.021002429551450895,0.49037138440873074,-0.006855816790597274,0.002171880930678818,0.0005341320220676345
0.3025,-10.022801864070688,0.05064109335296848,0.34369678214850496,-0.008060608721128498,0.00357603397922802,0.0019258763695551033
0.305,-9.883754485116555,-0.006503356667849583,0.12375657718139915,-0.010426921973730914,0.0024023064442077985,0.0031188407904389984
0.3075,-9.916713524231042,-0.08455940191110045,0.17618185325410002,-0.011646314409317801,0.0010128854956025664,0.0021012865795103437
0.31,-10.0899878857929,-0.10142011426606069,0.41025217148753196,-0.009584153145805189,-0.0015245689915243778,0.00011883358801130246
0.3125,-10.114721063677559,-0.06541725542570952,0.40400187979966606,-0.007188340806105414,-0.0006806420224183163,5.669019794896248e-05
0.315,-9.840910848947463,0.014085371084739704,0.11963035636233535,-0.007502822176635459,0.002557313492754485,0.0009698458369610579
0.3175,-9.908944165662831,0.018945251025105858,0.2242966126590735,-0.007789212425308605,-0.00021216775478562168,-0.000462730712624488
0.32,-10.11877144342029,-0.06245704249275361,0.4939270497971014,-0.011990971130434779,-0.0031721321739130353,0.00010174637681159188
0.3225,-10.146026187845411,-0.05715780786473428,0.46591626687922694,-0.010733439768115936,1.918608695653315e-05,-0.0007689009661835779
0.325,-10.048669792698298,-0.017577151718396612,0.3294314152693531,-0.009713606160066592,0.0021362937804733067,-0.0004912123201331839
0.3275,-9.91487806747732,0.017990668569154947,0.22382679533980562,-0.009036554649052996,0.001320563536527128,0.001295466971192116
0.33,-9.909506250278413,0.025217017264071336,0.24655783869350423,-0.008334930032541878,-0.002779355116307141,0.002661069967458122
0.3325,-10.00123141944423,0.008732463940219346,0.3346255837752011,-0.00980893736436524,-0.004887,0.0024729848898575497
0.335,-9.989948813131749,-0.03352332796256351,0.3070550473578101,-0.011503781766258705,-0.0007072921142307889,0.002760472517398619
0.3375,-9.856940506450849,-0.08814405850661669,0.15244021646975292,-0.010747702599243843,0.0014063216682419543,0.0024489407372400656
0.34,-9.948556943266997,-0.07314300559783449,0.27240683076580324,-0.010537,-0.0048137764687152425,-0.00023324794459483834
0.3425,-10.080809669983307,-0.042432561551792314,0.4042226781779168,-0.00952478759519833,-0.008527800712298297,-0.0007998764862071639
0.34500000000000003,-10.125281082327357,0.02714709970026514,0.46774485785483233,-0.008622276591243016,-0.007841858501322303,0.002460008745224789
0.34750000000000003,-9.97165817280956,0.06471245698633364,0.34243750601904865,-0.008344206460391645,-0.0052087477299888,0.0018720468650535492
0.35000000000000003,-9.917145,0.052845799999999846,0.24713079999999873,-0.008154999999999997,-0.008429600000000044,0.002535200000000009
0.3525,-10.008564071627832,0.01625427278022709,0.33409160177896585,-0.007923417994332495,-0.01288467368073044,0.001211524807934527
0.355,-10.083279645712237,-0.021434819431166166,0.3919174228489489,-0.009037594043977037,-0.012901691620458932,0.00026747243785850454
0.3575,-10.009094538515503,-0.009562607303476543,0.2981988968180401,-0.009005620231756977,-0.010744265884747889,0.0005419113717507039
0.36,-9.853876906538652,0.00543798114721814,0.15089069972427482,-0.007714404052191045,-0.009916122063023149,0.001054152353520428
0.3625,-9.799437862759325,-0.01740716190908046,0.08980407450402446,-0.009536492438499022,-0.015475053259267617,0.001374
0.365,-9.885378723662562,-0.008702232735193157,0.17670243070118083,-0.01030317339029907,-0.016839913304850466,0.0007029450146603028
0.3675,-9.968853248218165,0.005146247820660931,0.26244837637161983,-0.009355080212618447,-0.010449232669285904,0.0009726789553963465
0.37,-9.929290345642006,-0.01953645859665859,0.2425779255369931,-0.008464390520286396,-0.0019123100525059809,0.003385582367541758
0.3725,-9.920558323965812,-0.031618672182336195,0.27906207535042726,-0.009600568182336181,-0.002669292809116805,0.002998660854700857
0.375,-10.02824174625624,-0.013286250772521987,0.37927948775849774,-0.012112669717138102,-0.00562288091276444,0.00041547634894223916
0.3775,-10.05876654684235,0.014772912556192865,0.40398163646256396,-0.011179887623624242,-0.0049536035870407676,3.431356378856039e-05
0.38,-9.840730673584684,0.031785620199257736,0.2307799125844891,-0.01165846009767533,-0.0037931685016604757,0.002309613463567106
0.3825,-9.802764216403869,0.05292296119594227,0.22958390893990654,-0.012569650246188526,-0.003356619253722502,0.0035594775416740807
0.385,-9.889034582936466,0.023917770293646452,0.3351910694073682,-0.012190204698344899,-0.008296875878270174,0.003179409951948744
0.3875,-9.988882654882156,-0.04322918880872253,0.46498824563091296,-0.013010672454705793,-0.010529098781465452,0.002796038127304792
0.39,-9.986658880053577,-0.13907952264829682,0.4023156916188276,-0.012030732644469947,-0.0051301507309605525,0.00020029305778797828
0.3925,-9.810390964854955,-0.11276745736829881,0.2152237781016476,-0.009682087676955194,-0.0025799738872128437,-0.0003878238106289147
0.395,-9.779174058596407,-0.09402584418877558,0.20681984055263614,-0.007374808961975798,-0.007685762389045123,-0.00020774840445042948
0.3975,-9.880338758280965,-0.015086494224232153,0.3945878923144654,-0.008256207665973842,-0.008664595713412404,-0.001284657366426222
0.4,-10.004069580604625,0.07252505659751124,0.5142693969176056,-0.009170543070539428,-0.009163,-0.0008079510373443799
0.4025,-9.94117166620559,0.08583723050686853,0.37203245275224783,-0.008687234751302689,-0.008382234751302689,0.0010619025485552043
0.405,-9.751503053741972,0.014073372588732792,0.1320118463185921,-0.010414455985463408,-0.010294825046638457,0.0023563458897637875
0.40750000000000003,-9.79466564987221,-0.03478239940415541,0.21235718845629428,-0.012345565851822822,-0.011912,0.0010339128090944465
0.41000000000000003,-9.945292235262341,-0.052290000822278235,0.38288755499940375,-0.011221334705390185,-0.009640164512967552,0.0007556151882395361
0.41250000000000003,-9.90381046004167,-0.04430331224555189,0.30947657454720096,-0.00979744209007853,-0.005227282897900248,0.0011134927712774432
0.41500000000000004,-9.729076326028704,0.013250480626795631,0.14708459470813162,-0.013012300076555128,-0.00044279615310997096,-0.0002027384114832862
0.4175,-9.737100777021276,0.0017066523930197933,0.2582339310733906,-0.014831771863893542,-0.0007140818551278788,0.0009319209849390199
0.42,-9.876754346785212,-0.1103703068600832,0.42551431225081826,-0.01229232999532057,-0.003430524548432366,0.0031216495460926427
0.4225,-9.962100747511542,-0.1624445794427639,0.4584096671039643,-0.010669917318898266,-0.0011661680369368177,0.002283166699570143
0.425,-9.803921,-0.079507,0.262434,-0.012217,0.0011636088211878508,-0.002902
0.4275,-9.803921,-0.079507,0.262434,-0.012217,-0.0023208847492171203,-0.002902
0.43,-9.935110979896448,0.0680824131824194,0.42824432839012555,-0.01100694591210115,-0.0037505349885611095,-0.0009470158892233701
0.4325,-9.973008034205918,0.17729183458777117,0.430919527586588,-0.011279518646153843,-0.003512,0.0024000372923076866
0.435,-9.670193453329874,-0.0074277901333194216,0.041607696544068,-0.01440327508429735,-0.0005880143632307942,0.00454605006588162
0.4375,-9.675070525704207,-0.09099783410281681,0.1085937362141412,-0.013489435959952275,0.00057495471287026,0.004961085334855008
0.44,-10.009374800357163,-0.17926838115751076,0.5099734279544835,-0.012981,0.0017411431915936226,0.002166896194261446
0.4425,-10.038043223298308,-0.1642519416039636,0.4635585113235694,-0.012981,0.005751730876027665,0.0010336554037131793
0.445,-9.912103154799672,-0.1105098840883072,0.2627310157645126,-0.01233676798037612,0.007789,0.000734013344235488
0.4475,-9.769897135205023,-0.04432513437717987,0.12945016722734665,-0.011325003739245018,0.004601978206340576,-8.996552825362911e-05
0.45,-9.883439383233535,0.007338385628742738,0.3736259932135754,-0.0107538874251497,0.00047299840319359773,0.0005960015968064022
0.4525,-10.086477201094935,0.048665242548631533,0.5971177331671523,-0.010309165931275477,0.0010395581362842294,0.0030769459289458467
0.455,-9.95329503023612,0.009422029714917159,0.3899005733680787,-0.012630492868988409,0.0034455554481560603,0.004776966769327973
0.4575,-9.84373169716694,-0.00708848542261764,0.215319531931631,-0.013592,0.0014953928541324916,0.003954696427066246
0.46,-9.897477806765567,0.022204645410583396,0.3290023128933571,-0.0127020886345053,-0.0004307864221469365,0.001131268267725703
0.4625,-9.983988027205125,0.06357194353048874,0.4374443686305906,-0.012363529069900476,0.0016930492620981826,0.0011619152270907433
0.465,-9.88549810657587,0.08831193532072323,0.21155730775619755,-0.01431354380496009,0.002291,0.0034705438049600894
0.4675,-9.838435962076048,0.03378603223833687,0.11828621466718932,-0.015444505160329289,0.002291,0.005252515480987864
0.47000000000000003,-9.95871005926976,-0.13070581656017588,0.33131389863080085,-0.015065740408359339,0.00029876480903189484,0.006191624760989673
0.47250000000000003,-10.12091816085581,-0.20763685787172995,0.5940206854604055,-0.010435876023954573,0.002911914985924152,-0.00028517002815169583
0.47500000000000003,-9.953115408220299,-0.15790557692583237,0.3598023945539202,-0.012484509177458183,0.003567778154271391,0.0010265563085427823
0.47750000000000004,-9.685556,0.029292,0.05978,-0.011606,-0.0001010067268937307,0.000916
0.48,-9.685556,0.029292,0.05978,-0.011606,-0.0039451450350622,0.000916
0.4825,-9.891920725664367,0.053730114806859845,0.2770056684212193,-0.011259658054175352,-0.0010302189132874243,0.0038644487289629477
0.485,-9.906177179949983,-0.030265596798855612,0.21288349897820902,-0.010439876684530195,0.004360673883529807,0.006571728560200066
0.4875,-9.824913521077358,-0.10154956395239584,0.10530750350767276,-0.012483228875665503,0.0031412554963983885,0.0028366513936736873
0.49,-9.989006208059665,-0.004404755463478932,0.3287178984917708,-0.01249657254409851,0.00018411732922931886,-0.0006590689664969784
0.4925,-10.183618194027018,0.047082191537471944,0.5468063064265034,-0.01148866443550981,0.0008193522450948806,0.0024895292505628676
0.495,-10.061774681338447,0.03819695800627393,0.3941184406971078,-0.01202418343673754,0.0014792290833042885,0.0049268165632624615
0.4975,-9.847692450730138,0.05182431103248632,0.131769018089418,-0.01381833648118366,0.002401757889996782,0.003723094268253459
0.5,-9.859539883732351,-0.026013326089625533,0.16536093885819522,-0.01521126961325967,0.0015176230816451813,0.004283028852056476
0.5025000000000001,-10.0482791072949,-0.09562453066310124,0.3850949184614222,-0.013006546530323217,-0.002221171736018333,0.005279286421772991
0.505,-10.06683959859109,-0.1442506227851646,0.3803176920270581,-0.011837899500816424,-5.4028458129073975e-06,0.004449972120363887
0.5075000000000001,-9.858880530410953,-0.08609453315068175,0.1209772500456553,-0.013512931872146168,0.001001375342465682,0.0007945360730592472
0.51,-9.81682345686877,0.03622273074703923,0.16941774462296372,-0.01302992626715139,-0.0024908807787029585,-0.00041859595637386325
0.5125,-9.950775629336068,0.06479568922396801,0.3629399626746646,-0.012923046940869954,-0.003903973269124494,0.0028797027394015275
0.515,-10.012346276046934,0.046563703423248934,0.32386280325148076,-0.013500637513003507,-0.0032412943849038263,0.0041572943849038264
0.5175,-9.976555648847308,-0.03781331440776571,0.2611513618570164,-0.01397034076140045,0.00402744950397177,0.0037884084118858337
0.52,-9.953688732864961,-0.1178512222912627,0.2832815907290381,-0.01161466958281846,0.0031797040353044956,0.004731170476022366
0.5225,-10.089471114451277,-0.08778368524765415,0.49589042416639256,-0.01127839907089672,-0.000932707413402315,0.0013799087277436835
0.525,-10.15563565950394,0.009126619796013966,0.5140075509503916,-0.01417348326379235,-0.003267996569309216,-0.001098998284654608
0.5275,-9.742842528552966,-0.0030247618116078234,-0.10365879396052058,-0.010370496913865691,-0.004359361484379628,0.0018737906835022868
0.53,-9.762908378251229,0.0560582595885951,-0.0003564356179964201,-0.008756824914339897,-0.004644054002015535,0.0014939934601932497
0.5325,-9.948501235945304,0.04743243396511122,0.3207050637246537,-0.009021441074964628,-0.002151966110325359,0.003870360641206939
0.535,-10.066536898763037,-0.059519911239391064,0.47569714683482717,-0.010808398787290839,-0.000153,0.00772138181906384
0.5375,-10.014707307978979,-0.1082917414237937,0.3782621628284765,-0.011606,-0.0021588503583372886,0.00901
0.54,-9.882293991749394,-0.09207518230361418,0.2510228974650577,-0.012919752057831364,-0.0031021389686746825,0.005162758824096274
0.5425,-9.850232218868861,-0.08269928109384715,0.21206110943443116,-0.014263048216283401,-0.005169338247358584,0.002143915438160354
0.545,-9.984014697408092,-0.05722218841911686,0.36409019939338716,-0.014918818639705891,-0.006165416893382324,0.0008204168933823235
0.5475,-10.069149820544695,0.031952680681703656,0.4165370042172102,-0.013243508070175455,-0.003366860658312466,0.0016874426532999037
0.55,-10.012592070882455,0.015954584780276074,0.32913942486602205,-0.011948394212218655,-0.00168,0.005453870382279477
0.5525,-9.9486982809516,-0.036490178244462636,0.2953406843970468,-0.012811581328958158,-0.0020945862838392102,0.006195284068908946
0.555,-10.019181793407476,-0.07106741986755098,0.4180584082619078,-0.012606577978258114,-0.0037753113432463454,0.005414594257153563
0.5575,-10.075087927771191,-0.048225540801153786,0.504811647950649,-0.01107455023553918,-0.004300730322063773,0.004088551139240509
0.56,-10.006625986649004,-0.03634188927152439,0.3677312779867494,-0.011811453139072914,-0.0035505765298013124,0.0037675185165563243
0.5625,-9.879664185753514,0.018993005491842997,0.20002534679373285,-0.01161412986593442,-0.004487002907446293,0.003929098853173963
0.5650000000000001,-9.775802784019552,0.039181352414174496,0.08566817662926098,-0.012170640035551674,-0.005693486541495406,0.007323253154094161
0.5675,-9.936073997156502,-0.03250319664389774,0.4196078497177055,-0.015582801073565859,-0.004281801073565857,0.006839764971286946
0.5700000000000001,-10.014131203979932,-0.04046053394910254,0.5067582508202887,-0.015001561762679064,-0.003700561762679064,0.004903990865018389
0.5725,-9.940322257967575,-0.08122074590431021,0.41078214848873007,-0.013102074087781723,-0.0026565370438908615,0.003506251406880186
0.5750000000000001,-9.779700327601278,0.0037910945497004883,0.15536201719614376,-0.012197509589041122,-0.005930868609734995,0.0019151740017487053
0.5775,-9.749650226514104,0.029864581029788787,0.16584387023870634,-0.013271401720260412,-0.005035976808048908,0.005518801444071835
0.58,-9.854193031859097,-0.003184557729940734,0.22443891639921637,-0.01188809228962821,-0.009566682270058614,0.005042326027397284
0.5825,-10.040262812618538,-0.04070780949249492,0.49869467580653115,-0.0120777645079819,-0.00834581130648873,0.004840486833452469
0.585,-10.01418270213712,-0.09639769919621644,0.49665873504019503,-0.010594019612293205,-0.0009793045910166968,0.005673419144208019
0.5875,-9.936800481961827,-0.05229537423341586,0.38922948936170254,-0.009163,-0.0022655503128911772,0.006109
0.59,-9.94514819652397,0.02035827958966219,0.38907984271848556,-0.010948233229433764,-0.007037152949299639,0.004466379692247037
0.5925,-9.9457473744244,0.01173624323972414,0.36050560076250693,-0.013414393892505124,-0.008094,0.00483583262785945
0.595,-9.923640729751085,-0.08427047457410217,0.304933880790136,-0.013477090381365619,-0.007001574583238208,0.005985518744005512
0.5975,-9.834799637482538,-0.04722068661685706,0.1548298586909188,-0.0129712926879974,-0.00497217570894914,0.004968353656001301
0.6,-9.794734739583893,0.028152939745175135,0.10176695034675415,-0.012785016988333963,-0.002447696134616429,0.005513376839954825
0.6025,-9.858426669781196,0.01164044676522744,0.2601531685156735,-0.012613082318154936,-0.0012424622826729575,0.007406913092844498
0.605,-9.96905777692916,0.009784904034519856,0.44543516065204214,-0.013071076078149339,-0.000611,0.005840513853529943
0.6075,-9.952477014988535,-0.03356428990371502,0.44615189042640835,-0.013313873218707011,-0.0003607464374140244,0.004747816084364985
0.61,-9.776148778033765,-0.049518617060575934,0.13922048605759862,-0.013286,-0.001767125938430974,0.0043245306057596855
0.6125,-9.813253378086145,0.06939439664804474,0.1735458942512213,-0.014098405190124372,-0.0045622021985942405,0.0033035870246891624
0.615,-9.982699782699585,0.0720304815642458,0.4469195530053453,-0.015541480588694655,0.0011130965098816404,0.004938778528263345
0.6175,-10.018442335068393,-0.001402889572834188,0.562472196690662,-0.013547571922246282,0.0033713460979121895,0.007856120273578097
0.62,-9.922543680842333,-0.0021546584233261327,0.42106856503239765,-0.016718212095032395,0.004524477732181424,0.006991743369330455
0.6225,-9.835971073825304,-0.02514233759661267,0.1673016941111634,-0.01713422815034408,-0.0005766701662256865,0.004394629094759059
0.625,-9.860143696758662,-0.11603510110910498,0.14815582030779811,-0.016194876794772592,-0.0057490010317255615,0.005826692889691343
0.6275000000000001,-9.957512033789262,0.0061945182316008075,0.3573038606969315,-0.015669652959582735,-0.00097806397060558,0.004889030278535038
0.63,-9.946367573682588,0.0882921653004624,0.4137687523882898,-0.01320201322033898,0.002723084930662564,0.0054588680123266575
0.6325000000000001,-9.874746214509992,0.1105708036567526,0.3538016434422203,-0.013318843686006863,0.0018146397659677396,0.007030776860068312
0.635,-9.890472034577156,0.022746545871189044,0.36348849613569023,-0.01525781987901792,-0.0008692354643577348,0.008465777302811056
0.6375000000000001,-9.911778106244057,-0.07703171429477199,0.2836506139461124,-0.01629574789223456,-0.001527,0.007922187004754328
0.64,-9.81832227577424,-0.1434664631548484,0.03561331675831955,-0.01686515293777135,-0.001620190506512302,0.006678884630969602
0.6425,-9.910429250320275,0.02622872320514122,0.3558326416382877,-0.01499689814501728,-0.0007116196451958765,0.0005224774758899579
0.645,-9.989539996113823,0.16691069315394788,0.5159199468127169,-0.014043079757113934,0.0005274703417073551,0.0023339833408739263
0.6475,-9.960475551811024,0.1900172091401579,0.4482112799685064,-0.012359407628346485,-0.0013340334488188507,0.005757898878740099
0.65,-9.833887573194627,0.00926971307608257,0.1905089774767115,-0.014062566662634623,-0.003054,0.009229851675335696
0.6525,-9.777617,-0.099235,0.080105,-0.015882,-0.002967886673483837,0.010079
0.655,-9.962822323557047,-0.10834376017897038,0.3461259298881433,-0.016813526733780764,-0.0039055106263981977,0.005367068881431743
0.6575,-10.06599345544583,-0.05826076778523543,0.3566435258485138,-0.017069052205177373,-0.002753551534036445,0.0030639884851390467
0.66,-9.904501893160894,-0.0035985055731377197,0.190738269505982,-0.013661919209575019,-0.0003754434444533379,0.0030820107735561137
0.6625,-9.815260326767875,0.053678615228505734,0.14059534018720976,-0.014584114402580008,0.000458,0.004569703500353951
0.665,-9.796746,0.084888,0.150646,-0.016341,-0.0018820201212317862,0.005651
0.6675,-9.899901388001405,0.07134238876567846,0.27172264615167907,-0.016926650638846547,-0.0028360784058141567,0.006662293156722517
0.67,-10.002274461367147,-0.03438922391787712,0.3652384809516863,-0.01702097797101446,0.002138,0.009552022028985542
0.6725,-9.882369920990422,-0.11231795314490366,0.25771935545900504,-0.017952540172856798,-0.0003223624355679945,0.0075172130903994605
0.675,-9.914323870803464,-0.035253536613098865,0.311326066254638,-0.017889739431396733,-0.0018398528059332332,0.0056154521137206535
0.6775,-10.013388962550335,0.056593991067724086,0.38195539646125676,-0.01845530186699206,-0.002863997730323361,0.005886699121415497
0.68,-9.953251383745757,0.06132616132646579,0.31329426424820606,-0.0197,-0.0030115112925511436,0.007874977414897712
0.6825,-9.856159274237397,0.003832701269942687,0.2806125279514996,-0.020217274023611995,-0.003410726212507974,0.008626677364390557
0.685,-9.838082704845855,-0.03382767271979916,0.2823370779493024,-0.019128630618862687,-0.005764369381137312,0.007130802557661524
0.6875,-9.899247424871312,-0.04377942274695645,0.24708612451997713,-0.020799675627093717,-0.00813533515810115,0.0073404090203448
0.6900000000000001,-9.858466087585875,-0.04700922843511435,0.09706951030533692,-0.01887402504770972,-0.0065238992080151395,0.008822151087786294
0.6925,-9.713619094036392,0.018645471440356012,-0.03227664021350595,-0.016122822123736353,-0.0035946083946623505,0.007212287035988672
0.6950000000000001,-9.89367763322027,0.0992928662876271,0.2800402277018803,-0.019424181290014497,0.00048718129001449565,0.00422301630673667
0.6975,-10.047330278997311,0.09529805584058187,0.4909591234034478,-0.02138,0.002620416118930888,0.00336
0.7000000000000001,-10.011935023114868,-0.06245490084567354,0.41472641280243866,-0.0211017894761569,0.0032124817242189588,0.008090793798449868
0.7025,-9.90604522812065,-0.045413801910552,0.28530773657412534,-0.01908910161452915,0.003512,0.00826805769741577
0.705,-9.948246326014788,-0.019091277821338758,0.3884471929193515,-0.02047437624603818,-0.0008101395281134871,0.00739654832257303
0.7075,-10.07976218820246,0.025278904900663098,0.49899234882213817,-0.0194769682119205,-0.0026393812961210865,0.007862602809839164
0.71,-10.047772835575362,-0.03403015403787877,0.4502635450294453,-0.018937,-0.004550758211045645,0.007789
0.7125,-9.935270202498797,-0.008866061412781616,0.2973366271824426,-0.020057254765337193,-0.0033629673874739445,0.007616305814512251
0.715,-9.869819480122622,0.09578733952176613,0.25544191963212376,-0.01981332058859596,-0.005006038234212121,0.0069976909380747585
0.7175,-9.989921131428572,0.06792389142857114,0.560982725714289,-0.01932230285714285,-0.006479091428571445,0.010434011428571466
0.72,-10.065667137196753,-0.09203388867723286,0.49347071840433054,-0.019675526741399288,-0.007079352139157284,0.007071380261306527
0.7225,-10.064696788938539,-0.040665419104753894,0.3752268520819467,-0.021037419033629705,-0.010916970062620844,0.007566687517587946
0.725,-9.856040610176748,-0.01937578773083949,0.11341197108663167,-0.01991780524688913,-0.00872496368391855,0.006435166838392657
0.7275,-9.803555761954508,0.05611642655434018,0.1210850592080899,-0.018888554608256097,-0.011307107430497131,0.006842072215669775
0.73,-9.814342160616897,0.07363451991324899,0.09919102145067202,-0.020317149158031712,-0.003971,0.009346623638729575
0.7325,-9.80860225690684,0.052487133872475444,0.14057967913248898,-0.02000837286230661,-0.003971,0.009732720348932484
0.735,-9.795365601386186,0.05736921617849497,0.29335148274388656,-0.020136162060289575,0.002166444918110544,0.0101155686209352
0.7375,-9.873137820711465,0.033975966893279794,0.5094804877786596,-0.02127639573122532,0.0015680465454544334,0.009705629470355717
0.74,-9.92196948750396,0.020959608047069388,0.4444511269518002,-0.021726452400995702,-0.004678976275175358,0.009403797456438108
0.7425,-9.904478072181787,0.004697888799604061,0.24557226063559784,-0.020344352267413105,-0.006957062255886714,0.011250971598880345
0.745,-9.801341996772615,-0.06967908213489192,0.24008761605343176,-0.02052451920567714,-0.002251461129465082,0.010874961588645718
0.7475,-9.889560823569683,0.01667007906494311,0.342884832059159,-0.021288643406285425,-0.0036840376790506597,0.009346713187429153
0.75,-9.963827453786596,0.004427200096782005,0.37049831684006773,-0.022708917977256233,-0.005079892451004113,0.00864515860150012
0.7525000000000001,-9.869800511059113,-0.0069200972859139835,0.11922466103259238,-0.020256058143815214,-0.004634252962096368,0.009309679491499006
0.755,-9.78663449840533,-0.05768208069393409,-0.008299080693933626,-0.02011048442095589,-0.0023317834283088173,0.009774
0.7575000000000001,-9.885188147521701,-0.09473433080038507,0.2826262544937416,-0.01920799388621012,-5.263741561783043e-07,0.008540814570877483
0.76,-10.047441517542383,-0.06579597219189601,0.5968538478153188,-0.01851814523506073,-4.146870265721563e-05,0.0071347777515931195
0.7625000000000001,-10.018258206467035,0.0663232968689563,0.44997619540019596,-0.01958043520437208,-0.002685689445519832,0.007352619014004346
0.765,-9.883087168713544,0.06420344739144501,0.1303643815683716,-0.021145575534672726,-0.002461232206740112,0.010679546331821149
0.7675000000000001,-9.806413812359382,-0.021795592706912455,0.06447924066870006,-0.021158941800214087,-0.004516094072305138,0.014358003241373733
0.77,-9.871814156553526,-0.1235059921671025,0.14284279989556198,-0.020247464647519576,-0.0047513933159268685,0.011569715300261029
0.7725,-9.968407530370369,-0.08042068414814965,0.29124262325925676,-0.020006,-0.0009666520000000561,0.007203102074074102
0.775,-9.834908286011501,0.0024547965487705173,0.20549453418185903,-0.020356074360543392,0.0014844125321258161,0.008033549553298288
0.7775,-9.745999467773629,0.05467371142899742,0.18118769564282303,-0.02019145861729133,0.00168,0.009361788771091535
0.78,-9.797167325254096,0.10615367305957947,0.35060388252053337,-0.019553680571400122,0.00168,0.009202605216265987
0.7825,-10.051249266323802,0.09647841890900183,0.6061135246785657,-0.022901023487704442,-0.0018389765122955595,0.010615473254275313
0.785,-10.017585751470165,-0.06412723273031226,0.4814519055990405,-0.021501250014319816,-0.001781217704057234,0.012983185565632447
0.7875,-9.982026352655367,-0.10637411499596462,0.3982891294753828,-0.01993402284100083,-0.007266792768361495,0.010047894479418921
0.79,-10.007368205959049,-0.059719526585077704,0.3971207418216042,-0.022743943657331255,-0.012217,0.008841919218639702
0.7925,-9.946543708882567,-0.029238553589378907,0.18854675974395643,-0.024396567757230925,-0.013171432242769074,0.009316
0.795,-9.701140656613997,0.06938712650112891,-0.05452048425669033,-0.02041607339567881,-0.000685115756207653,0.007399978329571136
0.7975,-9.739884316869828,0.08454768920993219,0.011512301588734467,-0.020244184929592606,0.0006916826787057863,0.009293569300225723
0.8,-9.89662275425632,0.009242839990642557,0.3082201556127314,-0.020442261646398514,0.0008074767072029735,0.011554300000000047
0.8025,-10.02154468413435,-0.03980802646739559,0.5104647383937699,-0.019835786281758833,-0.0002362859372296038,0.012196712593408323
0.805,-9.95390680328727,-0.021607205541817498,0.41371348538181296,-0.019704633949090927,0.0010859302545455302,0.011787056305454534
0.8075,-9.782125285562662,-0.009394567742241178,0.1741431557103376,-0.021575875899865746,0.0012442257095475033,0.0105597967811735
0.81,-9.774762957672765,-0.0011939236000946723,0.17099422239848527,-0.021593961095543367,-0.004307780644344389,0.009835212595582999
0.8125,-9.903002294110648,0.033549046995835816,0.3274232901844141,-0.020117241284949433,-0.009499513741820346,0.011353003688280785
0.8150000000000001,-9.924965434825772,0.09312746382687438,0.30062079374984735,-0.019965096901821706,-0.0019848846607162835,0.011721687531482953
0.8175,-9.867367118112575,0.031896091247904004,0.3449617814866268,-0.02088168868662675,0.0035709109301397287,0.013522541956087833
0.8200000000000001,-9.835827486753976,-0.07326753556595221,0.36366305950420896,-0.021650574789522908,-0.003863224789523399,0.016726949719363934
0.8225,-10.005977,-0.033477,0.462697,-0.02138,-0.008582023749925697,0.010079
0.8250000000000001,-10.005977,-0.033477,0.462697,-0.02138,-0.003918362500742729,0.010079
0.8275,-9.774104304237952,-0.025572355443855138,0.193276829375142,-0.020286341434171077,-0.0027796374729075423,0.01201452772884484
0.8300000000000001,-9.830620586115781,0.09561370818707088,0.36999728208438504,-0.019012545496566054,-0.005734894302845406,0.012386606619426598
0.8325,-10.039043498785569,0.10039762899814676,0.6160039797928722,-0.02058375198517389,-0.009226527783713096,0.013085047626730626
0.835,-9.973920673567704,-0.014835409834084101,0.3866270790671874,-0.02183843900220442,-0.010996,0.015821802719572967
0.8375,-9.860114,-0.093257,0.150646,-0.022144,-0.008246828148976947,0.01741
0.84,-9.843931809344916,-0.05807985973233245,0.17034472779525658,-0.02142492229161777,-0.0012561081333647651,0.013365629222822363
0.8425,-9.894395522935868,-0.0367808129342835,0.36946601614568786,-0.02227270572288205,0.0015472044117181222,0.010790671819477439
0.845,-9.936612898755712,0.042513024351491964,0.4866334788892802,-0.022500244330404238,0.0019341890755711574,0.009957433152899847
0.8475,-9.81628063263534,0.1612190058544709,0.2583960659758797,-0.02347582364074847,0.003888988959667384,0.01148992862536387
0.85,-9.749090661037036,0.11007253925926093,0.09376117894017108,-0.023552981310541333,-4.4659008546921695e-05,0.01830915213675205
0.8525,-10.107376060397876,-0.10056881640901032,0.6187539324808917,-0.022081038914705142,0.001222,0.019150851355099932
0.855,-10.11086653661959,-0.09676092765983298,0.6726960152832191,-0.022405351714502655,0.001222,0.01607067594229311
0.8575,-9.983294742382089,-0.08163136322941594,0.43863082078336246,-0.02360958615507598,0.000529104076738581,0.013572794660271757
0.86,-9.80839559449757,0.0021000773510603116,0.06421568417284575,-0.023606609572999253,-0.004863843456916336,0.01276508339555101
0.8625,-9.8937201266078,0.08313957655700646,0.18699988036258802,-0.02242874798780964,-0.007073603860279731,0.014909864343205494
0.865,-9.95928831036166,0.11065283449744841,0.3197950243354778,-0.022800826421122695,-0.0025500473707566304,0.016409395615708897
0.8675,-9.882261876905801,0.026149154798973603,0.2678670899628471,-0.022726776643275805,0.0036100851151656204,0.01715154919838193
0.87,-9.835391276633013,-0.10314881575477414,0.2478695765867897,-0.022297,0.0031385993674735557,0.017868
0.8725,-10.048077544378542,-0.06854346499711252,0.5358253523000656,-0.024414317373341092,-0.0050624038315062484,0.014130885899595956
0.875,-10.097645537484837,0.07475264076021026,0.6021346676910635,-0.022807033481601294,-0.0018035970885564093,0.012188387707238173
0.8775000000000001,-9.902822477445861,0.1329509107539121,0.2691015916231905,-0.022583094550339834,-0.0006768377366840758,0.01429686457404782
0.88,-9.724338227417817,0.15968777258218264,0.03049531423683258,-0.02504755312232678,-0.004835087640229758,0.017424689678601987
0.8825000000000001,-9.710664,0.173362,0.053204,-0.02642,-0.008175463349341626,0.018173
0.885,-9.837339223416489,0.009488318726537076,0.177868950496556,-0.026762520009503448,-0.006460359933475866,0.01671771040152054
0.8875000000000001,-9.88885417057281,-0.08200179232991005,0.21338467489667787,-0.0258333648935697,-0.002278319557392253,0.014609783735501893
0.89,-9.815036339976002,-0.02489743281162482,0.11728221619517346,-0.023982991478469527,0.001279373976803111,0.013115412659645373
0.8925000000000001,-9.983258026546284,0.10255733227990664,0.4646198325959462,-0.024776520451467318,-0.0012642409029349016,0.016532704740406527
0.895,-10.034804207824857,0.012433315591441993,0.41762867359360606,-0.024934019881794722,-0.002245087891450919,0.017938420501123785
0.8975,-9.921965041965253,0.06039182554366432,0.21278586408468875,-0.027310947283396565,0.0027495143619835666,0.014456173894833809
0.9,-9.879207570513344,-0.003992559793035963,0.38058617629207736,-0.024695573303877706,0.0017898487180977494,0.01830453412010929
0.9025,-10.006753938691935,-0.08015620460438252,0.5281762505807783,-0.027209570992384132,-0.0022134060880180887,0.017932067440265105
0.905,-10.196536752064944,-0.024669647322224285,0.5993979570115331,-0.02456368630165415,-8.941506439598174e-05,0.01529527554172008
0.9075,-10.003698742166883,-0.02734757076970027,0.2852706242006992,-0.024172622433009834,0.0035268056522004126,0.015685699371299513
0.91,-9.791127931043572,-0.0499365247195536,0.05176409406927185,-0.0240651270301676,0.0014309835575418012,0.016327052621229063
0.9125,-9.836974522977997,0.004532458664816538,0.2219475169640012,-0.024648937388892383,-0.0029338121666771517,0.014956416226438906
0.915,-10.036174847626526,0.11507315821524658,0.5458792531460465,-0.02600037379880197,-0.0038710704730426327,0.013324373798801971
0.9175,-9.945487464876061,0.09368913924331444,0.33904955269406667,-0.02606914342139597,0.0010934115329419222,0.01680090398238746
0.92,-9.751025138300463,-0.0357157598757048,0.0473526474196216,-0.024414650350185238,0.0013531674674315366,0.019511627684952834
0.9225,-9.855391032627313,-0.11284241412250715,0.25061353823468463,-0.02457557854611901,-0.0002815725653451907,0.01888300080082626
0.925,-9.980077696588973,-0.015646458098982664,0.46367847252979266,-0.02639171174778374,0.001465451652674239,0.013200465754711456
0.9275,-9.849432009557917,0.0778290473410435,0.32604125280807894,-0.02780208432806904,0.0024996838372570857,0.013952130931720775
0.93,-9.754035339976099,0.23950912352772938,0.17788486333651696,-0.026515304689292456,0.0018108224952198331,0.01577610655831746
0.9325,-9.848921737174388,0.20802724949119566,0.23071780384646567,-0.026776277399983766,-0.003065087965592783,0.018789260631339767
0.935,-9.900112353349733,0.021263037764494716,0.23924129614059436,-0.026074063690685326,-0.004359218104276433,0.021416220611599344
0.9375,-9.814604841719161,-0.06843699090981581,0.11754741216808866,-0.024912600669803046,0.0030156785742763742,0.019378427956303325
0.9400000000000001,-9.801807072015148,-0.05826532336054771,0.18793934116199873,-0.023587537015737712,0.011615511494497877,0.015435022122825614
0.9425,-9.952277154285714,-0.01842853396825391,0.5203418371428579,-0.024161512063492065,0.008224775873015858,0.014635851111111112
0.9450000000000001,-10.028997697381763,0.0843683914919596,0.6234874443100883,-0.025351,0.00423312097513411,0.016007968600682647
0.9475,-9.90605606077249,0.16447235022138498,0.3926771952802629,-0.026145978407913332,0.002019017183231264,0.017175985605275557
0.9500000000000001,-9.831783582724865,0.0625626092594659,0.19090798555798297,-0.028345273200506824,-0.0007470207992629767,0.01954239940112875
0.9525,-9.92249610703533,-0.10841310703533097,0.2501196849769594,-0.02896149026113671,-0.005219501566820308,0.019298865990783395
0.9550000000000001,-9.982069949916667,-0.12337401862036725,0.3293414400601848,-0.028468797458333327,-0.0027263538101848592,0.01472633618981462
0.9575,-9.761104426475015,0.06518975136208241,0.034520003969880475,-0.026966510088980135,0.0062582850924025185,0.014528520068446293
0.96,-9.839740466981707,0.12732221414634165,0.31705605772865647,-0.026995141791158538,0.0053646030640243985,0.015624714413109708
0.9625,-9.903344353810976,0.113287919512195,0.46277675236280613,-0.026918716425304877,0.00475419916158536,0.018980936852134176
0.965,-9.921250636415554,0.04053662483111027,0.37994572815322536,-0.02609660468485202,0.004602453836331974,0.02085601126871735
0.9675,-9.838701977393585,-0.009251045642241834,0.1221710809961316,-0.0272031837623268,0.004105917381100993,0.01744972108600675
0.97,-9.89816949595556,-0.0014263204793409888,0.24110677258020097,-0.027302661700162274,0.004805535246536006,0.01844908168518286
0.9725,-10.028788259182077,0.03972463409589542,0.5114861932842412,-0.02533419330930739,0.0063743557286117455,0.01845027451895957
0.975,-10.002471590799754,0.0773023200247984,0.5638579091134559,-0.02580383459392432,0.008371632585244869,0.01870664510849348
0.9775,-9.791698837382171,0.08521163450685884,0.12885362746263385,-0.028251916070196968,0.005013770955628701,0.018256952526630375
0.98,-9.72262481891153,0.14587221936705733,-0.13075222767681643,-0.027100052860225397,-0.0013193956077678722,0.01864544846799327
0.9825,-9.950362832352395,0.1702446399718832,0.28480912453609253,-0.027420014906279336,0.005404439329897138,0.023620021855670206
0.985,-10.039168656677756,0.07028229968676518,0.6381903102880777,-0.02751839066461089,0.014476064760204455,0.025382563258946684
0.9875,-10.014690461405518,-0.06711047759457106,0.6754888458160638,-0.029627675302001652,0.011023619169385246,0.023273089850983093
0.99,-10.01312948415071,-0.1129624802470662,0.4742981908585556,-0.03203631649166151,0.00037541964175421064,0.02088403733168623
0.9925,-10.027433024201617,-0.033542272479312775,0.22354669985734227,-0.028830326596290853,-0.002457985103185803,0.01956575531716593
0.995,-9.88827962066275,0.04297708205875437,0.060782345024677026,-0.026773452371327843,0.000764,0.02021213234312573
0.9975,-9.810910139506788,0.07120842592658111,0.15092870957025048,-0.030501648309101206,0.0038775566133826996,0.021334415850269108
1.0,-9.954709971617786,0.014619760643330176,0.3340646849574267,-0.032590640491958374,0.004974559129612109,0.023462661305581837
1.0025,-10.089453725590978,-0.04866467269246322,0.3947331699456477,-0.031158349840188258,0.002095128407560703,0.023064349840188257
1.0050000000000001,-10.035680962141925,-0.07314424466517717,0.32632457028597694,-0.027466684665175718,0.004498994788749327,0.01965709635871464
1.0075,-9.890905353486309,-0.013255829308432443,0.2705523462636488,-0.02762971461307175,0.006872,0.016745666504193644
1.01,-9.860737900852731,0.042699067361143164,0.34799161444572546,-0.02868329532150265,-0.00014649878773916047,0.017646844378889158
1.0125,-9.912392553094877,0.06640297446028784,0.33836436802358194,-0.029652382856687615,-0.0025981754799650142,0.019679367896120434
1.0150000000000001,-9.785594895015738,0.23258755256079494,0.02541199986267141,-0.02913070525894105,0.0003521976537913124,0.022775815084406674
1.0175,-9.849505504000003,0.06625576844443642,0.2832202382222333,-0.025807574666666784,0.0018848942222220956,0.02815100577777775
1.02,-9.92084517739791,-0.08221443848053181,0.43547645103893556,-0.027947,-0.0014654954453941272,0.02605865823361821
1.0225,-9.924118865527065,-0.08161944877492879,0.32237164645014404,-0.027947,-0.003594513002848973,0.022712774700854747
1.025,-9.686814834215973,0.002775921878478773,-0.19398089668347326,-0.027474484414964244,0.001527,0.020338900695144577
1.0275,-9.673509687327142,0.10356218699283952,-0.11381727539400115,-0.025690041203502198,0.001527,0.02101829114141684
1.03,-9.986175290441471,0.1451680481770521,0.5944616179522455,-0.028123386483401305,0.0038647729668026105,0.023832663552708234
1.0325,-10.204447,0.082496,0.821377,-0.02978,0.00710261908256881,0.025351
1.035,-10.204447,0.082496,0.821377,-0.02978,0.006812754398841149,0.025351
1.0375,-9.876403804020715,-0.04470442293074324,0.2489750968116553,-0.028497155143709686,-0.0009765091880010301,0.02321311188942976
1.04,-9.822042230381097,-0.030628467187647265,0.10042750322239219,-0.02838806636758324,-0.007025,0.018385973323685384
1.0425,-10.212165600318984,0.16510010662601024,0.7404523884601808,-0.028635940030491386,0.0017188687744809673,0.016568059969508615
1.045,-10.013296837004102,0.2214224502528688,0.4652222540130167,-0.030219592026972733,0.007721463170907784,0.01941507828851239
1.0475,-9.76823984857074,0.2273874343558473,0.08552366378334172,-0.032300951084013076,0.003849370610499327,0.021403629360994592
1.05,-9.75229601808132,0.1367550480530615,-0.034760643508165864,-0.0328913943987225,-0.0015658155754821696,0.024082223977398426
1.0525,-9.97667140453386,0.04699128383049522,0.3343733708229686,-0.029980365715643578,-0.0017633193409901018,0.02719644370059405
1.055,-9.990233854529041,-0.056394519209093746,0.4491553941066042,-0.031499075138305035,0.006311801035860745,0.02293104868752919
1.0575,-9.807409739492442,0.0008600485878897252,0.12287025758263176,-0.03216406028128085,0.004898571562613464,0.023014307874824853
1.06,-9.740104174445932,0.060492334971416,0.005045509417348715,-0.031298566826420085,0.004123,0.023851321615375294
1.0625,-9.764465,0.081301,0.050215,-0.030391,0.002143308436064781,0.024435
1.065,-9.941931984906368,0.12333217989096756,0.3476693391846278,-0.03296063377103568,0.004465450656553516,0.024801575444418092
1.0675000000000001,-9.917562731287353,0.027555992572361562,0.41499662102140794,-0.03505065287832434,0.009711407818310373,0.026964102061661697
1.07,-9.740853717924509,-0.18472009565344433,0.08706701168996145,-0.03366334380667579,0.0024769791998704637,0.027111526113311236
1.0725,-10.043433751962473,0.02498836728935373,0.5671075918674666,-0.033297575236624896,0.0016583945418918347,0.014906380708984032
1.075,-10.052739000059379,0.12846247707380612,0.6363387622350205,-0.030255391081289766,0.008219076990677397,0.01623756976426576
1.0775000000000001,-9.864754323208627,0.1298414933396849,0.30902971648953104,-0.029057027476769103,0.0074991461329519124,0.020525336287824915
1.08,-9.64543426972525,0.1447781550395204,-0.12248592922469968,-0.032350232871659966,0.0011945855701916974,0.022030474343244184
1.0825,-9.815678607895835,0.1941015616899849,0.004028707372216889,-0.03455394236874911,0.007899349361407565,0.020510582872974095
1.085,-10.017482900669144,0.12479743241635821,0.4550260037174665,-0.030588144089219393,0.012828,0.024741662602230406
1.0875000000000001,-9.959524961612551,-0.0034098634082608548,0.43407380613627,-0.032318929456534924,0.01358371906290885,0.02707708771554291
1.09,-9.84059268874531,0.017351867435592184,0.1685855803142611,-0.03715947595756576,0.004301103782403733,0.023120815158331188
1.0925,-9.844122526140437,0.11746717627118777,0.048149682750604855,-0.037845848135593205,0.000611,0.022219758082324466
1.095,-9.929670590150522,0.15304281297483693,0.27669006091691967,-0.0332927341192693,0.007091109644949875,0.026572265880730698
1.0975,-9.888301382869475,0.15255811641855344,0.4762416932901825,-0.03219053458468169,0.017827967853289887,0.028108206429342024
1.1,-9.824936791187607,0.12297652585197613,0.5003298362822727,-0.03483206051635122,0.01643941349397548,0.025981598347676337
1.1025,-9.856276099209746,0.043253311060439364,0.3194209919287794,-0.037248778606903045,0.004118796695298901,0.025954664454162127
1.105,-9.991986076701977,0.013571508160816672,0.2058603427389911,-0.037286829850670083,-0.005789673490746602,0.023256011338864124
1.1075,-9.8759816401393,0.04639965167937595,0.21812544790393354,-0.03355555267247067,0.011107784271389868,0.023348268378264772
1.11,-9.800707671279492,0.03285032469288449,0.1902744382900019,-0.03557463596997906,0.014761273630741662,0.0238286427331132
1.1125,-9.731577212023229,0.0566594829697072,0.08282948921676092,-0.036803855187568686,0.011874869188510336,0.023279430136556253
1.115,-9.812718323212598,0.1336192829267107,0.03486997812234989,-0.03809738001695941,0.0027367841550575865,0.02145667068685646
1.1175,-9.948726996634862,0.16089783056374707,0.29954227025150887,-0.03680536631396364,0.008808864492627567,0.02323337477883772
1.12,-9.994618,0.154232,0.485414,-0.03543,0.018669112692122004,0.025198
1.1225,-9.727418464983469,-0.052930659419296366,0.11044711656386871,-0.04101990375473398,0.00788654509407857,0.0233560243486624
1.125,-9.744752904418394,-0.03898809702434626,-0.01314995798016233,-0.040250254643823265,-0.0005846378719567176,0.020564234084761046
1.1275,-9.905005709356923,0.10687966397850723,0.18108950553325237,-0.03520760878495828,0.0015968192637065988,0.020922831954495142
1.1300000000000001,-9.978190111526974,0.239524682990481,0.44162625030211244,-0.03197596552486191,0.010650291496415238,0.024385162985776664
1.1325,-10.02841071052632,0.2756274200000007,0.618198483157899,-0.03741054105263177,0.014695230526315802,0.025434095789473657
1.135,-10.062931624858075,0.1458720288682197,0.465068333576517,-0.039559266408986576,0.007137803425534425,0.028042308346418673
1.1375,-9.96073424479204,-0.03486643718449843,0.05603832449342963,-0.036512531461073625,-0.0035763020263062965,0.0256222599360115
1.1400000000000001,-9.919648956163936,0.06809796450746214,0.07169584555039865,-0.034944018675140485,0.012235713038377881,0.02371769384502561
1.1425,-9.856788201972948,0.06199617359427017,0.20407881983771337,-0.03603077444073196,0.018021,0.024436389358790816
1.145,-9.828402660080581,0.07611283100725288,0.3007321577759874,-0.038034616341659964,0.012194766575342384,0.02297879967767926
1.1475,-9.934390572824647,0.1937976204839472,0.29707573549282174,-0.037680486755928395,0.007355945081464774,0.021359347297951286
1.1500000000000001,-9.941088909672066,0.13742847865513058,0.3054168222090704,-0.033886831016928756,0.009544558210015715,0.027647998129514136
1.1525,-9.842381805245797,-0.03136381996266757,0.27526268809582877,-0.03499033384567531,0.010259048251400069,0.02971659113254502
1.155,-9.926500600327044,-0.11320487388240977,0.3605678380618039,-0.038829951698929936,0.006221516845016159,0.023060247733557655
1.1575,-9.981753114595927,-0.07069472679697847,0.3628048356570316,-0.037494139845597935,0.0054600072667542465,0.019395
1.16,-9.860587090825307,0.06288019271102141,0.16467440771221173,-0.03478506161297913,0.00438071298847886,0.019109967420644268
1.1625,-9.74225126130677,0.21524303136255463,0.045078848541830745,-0.035978536812749096,0.00314267172908367,0.019645214725099638
1.165,-9.863955474285714,0.2829467351457213,0.11755764542761672,-0.04053328494983276,0.004828605785953244,0.023675890735786007
1.1675,-9.866951405714286,0.10287647702819047,0.17820521718107935,-0.03948120200668897,0.009514758561872876,0.027309960568561848
1.17,-9.889767548555675,-0.08098578401054242,0.24409339792400614,-0.037536579182548324,0.011630838614407304,0.027293567613568367
1.1725,-10.026181497603236,-0.05880653253957949,0.46252680840423344,-0.03932119116423486,0.010334225253026947,0.022583833992548697
1.175,-10.032353960191958,0.06930126495501154,0.46236926958607694,-0.04076188868626272,0.00893321425314935,0.021457941067786503
1.1775,-9.852466415228427,0.16514597238578654,0.15128049725888434,-0.0377674525888325,0.004982299695431491,0.024217102944162426
1.18,-9.726865590641584,0.18514711668113945,0.025477786801734716,-0.0363670245634346,0.001055990622286599,0.025684039749155802
1.1825,-9.934690479568788,0.09760196900297437,0.35897284936508755,-0.04056654370696826,0.005052125224538489,0.03011122122930316
1.185,-9.862262543625965,0.013226886615840969,0.10734146390231747,-0.03646529380107198,0.006768942034544408,0.030206773419892797
1.1875,-9.74970188888889,0.016911134375000005,0.010455672916666667,-0.037994352777777775,0.0048348395833333335,0.028616227430555558
1.19,-9.814211010845769,0.13067497763681324,0.17476748094216,-0.04159694665422878,0.009138868392412814,0.02391829795398021
1.1925000000000001,-9.870303166217148,0.08581341702460964,0.2873283661410422,-0.03757939963848218,0.0073892791295038125,0.02720662782732825
1.195,-9.875656,0.059182,0.298302,-0.036041,0.006896867474812625,0.028711
1.1975,-9.902645498837943,0.24690794818049439,0.20374360898835603,-0.03881522198689956,0.005803,0.0270203430325085
1.2,-10.011376750230468,0.10167940902474784,0.45009982441775387,-0.03891252434497816,0.005803,0.030516868292091156
1.2025000000000001,-10.090335943628865,0.03407596491009414,0.5795359149497975,-0.03877146755195764,0.0058887662240211785,0.030242543233439615
1.205,-10.072657919298242,0.010040101052631166,0.44918825029238707,-0.03971793403508778,0.005055516491228014,0.026917496374268865
1.2075,-10.035867,0.00538,0.329986,-0.04047,0.004301399971880491,0.025351
1.21,-9.942069869981406,0.17237305813565898,0.20024857828765677,-0.043492946666666615,0.005395582721319409,0.025238821770555423
1.2125000000000001,-9.939308198052494,0.2651664344161303,0.2563002763788593,-0.04576171911753528,0.005803,0.026617080836820194
1.215,-9.92162707481671,0.2802813058549081,0.3044855297769775,-0.04797136883875939,0.009169632540374513,0.026908105137144256
1.2175,-9.798613607351923,0.16819254772989006,0.21678424755473516,-0.04518916346162705,0.015158716423139026,0.031215545139433126
1.22,-9.942081920790995,0.05432199272347382,0.48179275441800307,-0.04610076873633438,0.011011329926045076,0.0318909912347267
1.2225,-10.145747768075507,0.0442304758327784,0.6366066656688318,-0.04492514999576502,0.006872,0.02871762542682565
1.225,-10.026288514138782,0.055228185032367746,0.4071690509649625,-0.045021576610805254,0.006872,0.026489028725270657
1.2275,-9.864246181712458,0.15147264665175908,0.18756342710542825,-0.041407338038338584,0.007760655456869028,0.027408812607028786
1.23,-9.751293333503096,0.1925257181030257,0.0889064596705991,-0.03982063025347504,0.0036212926106763904,0.029307660815325303
1.2325,-9.871416166324403,0.17263494900157497,0.16100129713070588,-0.04443977771653527,-0.0015465247433069972,0.029261809798425218
1.235,-9.983963124784758,0.15232883067513384,0.1930282137426472,-0.04571186024464817,0.004547760978593912,0.029843580945659927
1.2375,-9.827287760352132,0.040034224307137864,-5.291904141335735e-05,-0.043056761770459695,0.013019301320508719,0.030370307548092595
1.24,-9.798286481413427,0.022074694247349404,0.13775601632508633,-0.04153230442402827,0.012856677837455848,0.026708381639575996
1.2425,-10.139126050649587,0.07018577254315644,0.7879295012991707,-0.044673881623064675,0.013439,0.02619492831464669
1.245,-9.976253714551811,0.09844700135492795,0.49713736243695744,-0.04172913535504526,0.013439,0.0280952662632735
1.2475,-9.579380318668598,0.1431826289725041,-0.09411602703810706,-0.04497628856729385,0.00575282262421612,0.0290669790931018
1.25,-9.661779272069465,0.16699562301013024,-0.0022676233719247374,-0.04816298842257598,0.0061385144717800285,0.029839627351664254
1.2525,-9.823168470440963,0.0224344819345709,0.2108013176292024,-0.0459793938865182,0.004447461014698966,0.03025804113798008
1.2550000000000001,-9.98550149346081,-0.033880572237087805,0.42906546271511264,-0.04279565996175901,0.009699059808796057,0.027660022868068568
1.2575,-9.883590376838054,0.06296404852795336,0.1658782815889681,-0.04308445715201028,0.014203,0.026243761646644256
1.26,-9.776422,0.105213,-0.072932,-0.043677,0.011893840205034725,0.026573
1.2625,-9.968599035444484,0.23833583159360555,0.3714786502253053,-0.042909591151167575,0.0065668553379763395,0.026573
1.2650000000000001,-10.021986211602226,0.20094433001830375,0.4908025460668314,-0.04836322363341528,0.005394834258513161,0.029561195120573355
1.2675,-9.761964923910648,0.10913345740021708,0.08683503564993356,-0.04819592976931527,0.0012903752911020434,0.030398761450018335
1.27,-9.630613094907375,-0.014979438852162422,-0.09662596887758756,-0.04864380812204869,-0.000916,0.029952457420995265
1.2725,-9.793504130495553,-0.01588287169076258,0.18671823265248777,-0.045012266161577205,-0.0003312243556242875,0.027400281722458487
1.2750000000000001,-9.870013816632213,0.10390562414590596,0.29613426917931857,-0.042378818066869384,0.004104594528875858,0.026410317373860254
1.2775,-9.62234510233025,0.11252241509280075,-0.18879010737877663,-0.045432564698838586,0.007178,0.027885825879535434
1.28,-9.57855,0.101626,-0.27439,-0.045968,0.009343308800000026,0.0281
1.2825,-9.936469227597609,0.1561199006473152,0.38888882156022775,-0.04267284183538773,0.010726084936779316,0.03164220063300193
1.285,-10.140509876897712,0.11648016064054154,0.8355793528967581,-0.04200052934034401,0.014831452901529374,0.03552349955544927
1.2875,-9.736046083273406,-0.06416872106398894,0.08079122973876085,-0.04716676113108095,0.0067470627126761315,0.030460704409297552
1.29,-9.678589972558255,0.052078289340203476,-0.15171072420897858,-0.04974089010546974,0.001928982575423066,0.026710010743193482
1.2925,-9.785257808441159,0.06875264494371838,0.11399366975326589,-0.047143299329164334,0.0016949605321205166,0.030313621735076703
1.295,-9.759880940726259,0.036507206345712286,0.23963744604666248,-0.04553282361485379,0.01489223279329565,0.030525653391390104
1.2975,-9.73394793329696,0.1245920986874568,0.08646382443958475,-0.048980629524552045,0.0197,0.02680475152299279
1.3,-9.803834829215383,0.15889120923225103,0.12298641263107807,-0.048878299554055565,0.01262445018681424,0.028070287694347506
1.3025,-9.968076074713043,0.06737778866086991,0.4297990836173903,-0.046220142817391306,0.007636,0.03195604313043478
1.305,-10.109625261514672,0.08008731843942174,0.6977601369682264,-0.045815,0.013048932402463777,0.032834
1.3075,-9.894837863887828,0.06532599614974574,0.41273130220862336,-0.04793735108396003,0.017393236068295778,0.031815071362781895
1.31,-9.724993694908527,0.0748901682793282,0.09160763148152455,-0.04796208926461788,0.006788859968910163,0.029682466028936923
1.3125,-9.864969253917236,0.1579650429087987,0.19464349746886297,-0.04630563286460426,0.0008392470871836078,0.029732327119325032
1.315,-9.808880101417106,0.11678275367973881,-0.09911547924891961,-0.046326649456778446,0.002596,0.032787792829475575
1.3175000000000001,-9.836636641211461,0.11503362278413473,-0.002574537260010612,-0.04716789509267297,0.012708644965691998,0.032506886331729504
1.32,-9.743628612083688,0.07251295441769988,0.37632280622082465,-0.039386356139799364,0.029492171585439247,0.036194
1.3225,-9.810337903828758,-0.12079201216108422,0.37177420044987297,-0.043937498072318316,0.015451981148869223,0.036194
1.325,-9.8755633090222,-0.0340373515351981,0.21952477997166348,-0.0482062892772791,0.014139101464336109,0.028552473689183084
1.3275000000000001,-9.961034065564496,0.22200309967193002,0.27585495590866366,-0.041782984573817385,0.018021,0.028678935040206233
1.33,-9.740360486734797,0.2518635181952727,0.14633414924214305,-0.036319336571495726,0.014401409127011893,0.03698360058747529
1.3325,-9.750492301702735,0.21493718012636243,0.1466355715747924,-0.042964223054809736,0.007323610646027434,0.036152249537197874
1.335,-9.88229952672167,0.07769144331958694,0.15580065693278672,-0.046755824872603775,0.01038848026207211,0.03623940294588683
1.3375000000000001,-9.824655209813402,-0.04786886327267383,-0.04189620319435801,-0.045968,0.013374844306227332,0.038179
1.34,-9.829473626156762,0.09858359739493847,0.1483072572964993,-0.04380376905717516,0.018347806967058372,0.03177781175312336
1.3425,-9.857195464890298,0.21005723222811867,0.4804166550463386,-0.04580535786772283,0.023565437750495067,0.028474921055049524
1.345,-9.860010150068634,0.1563492505045164,0.40293500687778827,-0.04540943461047568,0.014620730596026702,0.03401137011438882
1.3475,-9.816306552275295,0.2454853376174148,-0.04609930685526531,-0.04644059108320737,0.004045172349996234,0.032715211777795634
1.35,-9.938278461138596,0.3330895196089707,0.07064545329502325,-0.04765352515238637,0.011781520782059447,0.0346349097872344
1.3525,-9.91145223640728,0.13065162716746523,0.28142511028333395,-0.04347053866906173,0.02141650484853438,0.03976594560300485
1.355,-10.026790515549232,-0.022716,0.4939966942860494,-0.04549279750207364,0.014851427761583243,0.035797264505273214
1.3575,-10.081634641013778,0.004614559647381798,0.41416880182921045,-0.049632828716253394,0.012653698269972334,0.03121973452341603
1.36,-9.894866955919914,0.07682180833174872,0.13018078144898984,-0.04504438671115303,0.014813,0.03390734169685445
1.3625,-9.762527249856182,0.20593250028763432,0.22130699290508582,-0.0407765777564717,0.017251259060402747,0.033734434707574236
1.365,-9.786362065527637,0.3051970647236179,0.2907317105527642,-0.04551025427135675,0.015991944924623136,0.033769518592964815
1.3675,-9.961666578839004,0.1887815971734336,0.09963845600047992,-0.047708469781790004,0.0065998228588508125,0.03494360990494408
1.37,-9.920444446592931,0.1314449825599306,0.032933174967415116,-0.04445310111556153,0.012535087740778637,0.035996135225683075
1.3725,-9.828329863482331,0.05656749240174494,0.038669809594284336,-0.043541073317983334,0.016715062567685658,0.03744980918142123
1.375,-9.932061362984385,0.04510051636784269,0.39918765991902827,-0.04756490653556969,0.016404921804511276,0.032715694968189706
1.3775,-10.092263391749396,0.18690374346023708,0.6810784019855415,-0.04757648187951817,0.018900719325301067,0.032740091228915524
1.3800000000000001,-9.892271943389819,0.1347396104253235,0.20893144557720467,-0.04612186145826667,0.013102833757594773,0.03375
1.3825,-9.8656444309186,0.14142652712713796,0.07142774676344543,-0.04762317457269967,0.012767915776164922,0.032928249234371314
1.385,-9.953584102562674,0.09676308733856609,0.15017370675107647,-0.047849932939984796,0.014813,0.035402929592301874
1.3875,-9.98603003607507,0.09753814772937755,0.2001224703197398,-0.0472636752085264,0.014307319045412433,0.03265672958758123
1.3900000000000001,-9.87468692998291,0.0774139048368972,0.07770988644593746,-0.04801333791263325,0.01610561268689509,0.03150059894899536
1.3925,-9.874761371348907,0.20460203677387998,0.26670336625413327,-0.04988151347682508,0.01700215547266724,0.03129037578574063
1.395,-9.93187202407729,0.27512797362113295,0.47214898842362873,-0.04430009359178179,0.017197713550201787,0.035990181386816714
1.3975,-9.924642453310442,0.25696687265490953,0.48670988049945474,-0.04434946163258932,0.01629902503511786,0.03567353836741068
1.4000000000000001,-9.920249730829992,0.12589556125895085,0.30245507184346376,-0.04667841122858196,0.011511960092355843,0.035469977251184955
1.4025,-9.90240245463932,0.016626225252987153,0.1892037395803302,-0.045154605552300164,0.012094977116161367,0.033568897496238696
1.405,-9.886565228308422,0.09639786526216142,0.10978436003321324,-0.04121774683748512,0.011279366381969087,0.03345736495848166
1.4075,-9.849956909430567,0.27021907260822187,0.018685134411172186,-0.04385554119782771,0.01195782662529088,0.0325498079255237
1.41,-9.846133918437536,0.4132598097088766,0.1863842261736742,-0.04612152076157728,0.019719863225647567,0.03289539033042609
1.4125,-9.732188020233457,0.26005745447469775,0.18767766692606236,-0.04101670272373518,0.024692344747081766,0.04418914474708223
1.415,-9.809917339790772,0.14712663264941894,0.2313111895418064,-0.04421835031059937,0.021063563629875857,0.0406018655194225
1.4175,-9.998535881367438,0.12938777658777584,0.42416507922543456,-0.050513584030599995,0.0197,0.036784734525460216
1.42,-10.109396,0.135701,0.546389,-0.054062,0.020612484570375438,0.03543
1.4225,-9.75227564097734,0.17285630144708192,0.014452495100277912,-0.051011677889132266,0.018479,0.03581680048275447
1.425,-9.73521666243862,0.21179499099568194,0.010744048476601722,-0.05517980315920258,0.018479,0.034017167887357244
1.4275,-9.982415629449447,0.31419898846224553,0.33742935540694485,-0.053144249413926155,0.025504,0.038740903825096436
1.43,-9.92253011776349,0.18598297582216008,0.2913636759801591,-0.048927213103068266,0.025504,0.042761440499724315
1.4325,-9.90435,0.147059,0.277379,-0.047647,0.026022131036405917,0.043982
1.435,-9.877761307954657,0.05579275556431321,0.257976034815179,-0.04957521512074922,0.02173830811237041,0.041136560354854475
1.4375,-9.87236670699136,-0.009207094736842104,0.16545255773762768,-0.050246350196386486,0.015153326472898665,0.03690051343283582
1.44,-10.012832075701883,0.1428218776464925,0.23178915498870228,-0.050330804963746555,0.017881834850825864,0.03521540431712825
1.4425000000000001,-9.964882235684286,0.22527835927420506,0.22612563980796768,-0.05026209265419037,0.021533,0.03580500397396261
1.445,-9.8637,0.208034,0.158417,-0.049938,0.023415781000935547,0.036194
1.4475,-9.900343735959934,0.2450197349964228,0.2118404575308056,-0.04608893546704824,0.019513154998012535,0.040655454767469616
1.45,-10.132239729973033,0.15257535348728607,0.5314857793459047,-0.047978201125307526,0.01573,0.043433022764037064
1.4525000000000001,-10.209005953909866,-0.009122376623300205,0.4450244936686565,-0.05013216459219288,0.015215801926372542,0.04272338819739763
1.455,-10.01087239403542,-0.10093210834263697,0.05628716975005019,-0.047768102314972,0.01389603668527051,0.04007101548167906
1.4575,-9.914941999770884,0.26061736336038255,0.17486977883532295,-0.04310921353221958,0.020322238019093032,0.03363761017183773
1.46,-9.974035138405727,0.3586079167159891,0.2825840602291154,-0.044351112911694496,0.013824945799522766,0.036503676195704014
1.4625000000000001,-9.963067359120537,0.36331432469340197,0.20488708403490452,-0.049452102043973406,0.011759,0.03524368226715263
1.465,-9.98017357281361,0.46904480439343077,0.22898975411347144,-0.04961922093319015,0.01728209505656971,0.03683255813361971
1.4675,-9.964866355302675,0.30537603367331756,0.33921886809019786,-0.04848729833993372,0.020578989722783495,0.04459632829871506
1.47,-9.94282956454361,0.022074970561988094,0.39538973429423724,-0.04989529175038774,0.013703496122181292,0.04429645099630128
1.4725,-10.019346309314916,0.04904858578632452,0.2951215228799795,-0.05269150588563885,0.009045396542788409,0.037049114857630704
1.475,-9.678382,0.064562,-0.382592,-0.047342,0.015424,0.038332
1.4775,-9.678382,0.064562,-0.382592,-0.047342,0.015424,0.038332
1.48,-9.967709160538028,0.3810248193413683,0.30883291016696585,-0.047072005176252325,0.014433625974025989,0.03869218960111317
1.4825,-10.194085180821078,0.3630335840065977,0.7004205710763478,-0.05486977535819281,0.013744,0.04243667458887175
1.485,-10.030696234503372,0.1653156826337906,0.343209706773742,-0.053512638667196674,0.013527396882703767,0.04571313163260449
1.4875,-9.907311488522861,0.044794530768215476,0.12193468138094382,-0.05066886865199627,0.012062466543681608,0.04567568773224401
1.49,-9.82388689802609,-0.049642709939824864,-0.006368151315500059,-0.04827759769315238,0.00995260285676638,0.04405817162911232
1.4925,-9.905703061783358,0.08712792560155802,0.02842964772867637,-0.04932243657630618,0.006848377021570997,0.037764769385166014
1.495,-10.013984116038271,0.4212095062966599,0.42965304888996503,-0.05279834373205732,0.01956671335885262,0.0334515182535891
1.4975,-9.685608590330723,0.45718681027118246,0.07244933434616668,-0.05334644587108719,0.02337266238673843,0.04232860561036467
1.5,-10.022206182523052,0.32998929840737634,0.330273577116513,-0.060303523679798826,0.009288905280804694,0.04454573700754401
1.5025,-10.051105196370493,0.15856733803856193,0.34012540129086316,-0.05686411968985758,0.012560761240569922,0.04605586663034364
1.5050000000000001,-10.038157391281178,-0.07016061942360304,0.31433309173165097,-0.052613680678130055,0.013304446277548936,0.04548249710825852
1.5075,-9.689337026835895,0.0807035430923467,0.0067742089911668815,-0.05812703464325964,0.0247521283767271,0.03380445440958428
1.51,-9.800868174701382,0.21825785845679427,0.16142999605005687,-0.0600262998730799,0.014305547718403379,0.03503891461953622
1.5125,-10.021171941659384,0.4036234994362805,0.4110362888130158,-0.05715388404922597,0.01238553262405713,0.03629852898769351
1.5150000000000001,-10.164150297682871,0.508030229804634,0.4903673676692337,-0.051714271385733465,0.014841577246706188,0.0423933503680151
1.5175,-9.879298440163574,0.2942782785735225,0.1544465550924135,-0.05325130635040094,0.019921257477507132,0.04810870254212342
1.52,-9.63477891876481,0.03830328596050145,-0.12536871243088044,-0.05537778456014361,0.012436894951525872,0.04473148159425487
1.5225,-9.864202314621005,-0.0494396624322797,0.13480775419338667,-0.05115073332047271,0.00711677955148296,0.04197608535648259
1.5250000000000001,-9.969436591895796,0.026989274433199414,0.2364536583212608,-0.05136352706222897,0.01159995094066603,0.0370636656536415
1.5275,-9.912311288949885,0.3600716942451696,0.3278853877154807,-0.053145,0.01882020098502103,0.03407917714689045
1.53,-9.784423764311711,0.5484433447749831,0.26066969279615737,-0.0544339532263402,0.020435306108537343,0.03813856898742563
1.5325,-9.75508165479434,0.44611133926735497,0.08257767547557596,-0.056943711632390724,0.010333550501285569,0.045526588753213304
1.5350000000000001,-10.055330111732571,0.050243167061054084,0.2930705933255955,-0.057203744186806224,0.01885630530056517,0.048470191577370876
1.5375,-9.722472727578449,-0.16099324980598478,-0.09953042388183025,-0.05316977116209394,0.021036406807815447,0.049342517720743446
1.54,-9.762888591817212,-0.07233120012163845,0.06080166120161465,-0.05741267471028199,0.016058469400838243,0.0389472897772662
1.5425,-10.00987946155323,0.18092485273428066,0.4894868858604102,-0.05641776766071291,0.013792263013612404,0.033597215157762234
1.545,-9.782055749045265,0.47905374853829025,0.29325318096492337,-0.053973830437017915,0.01715166068512007,0.03993135539905534
1.5475,-9.518608473201402,0.5199010087523182,-0.28160806516412834,-0.05675026560411322,0.00997141945596911,0.042803702641238825
1.55,-9.583108093682032,0.38590425582304205,-0.20923192242452515,-0.058185,0.010138649566173916,0.04703059181229388
1.5525,-9.778274636746987,-0.005500280240962385,0.11320843502007982,-0.05401278755020082,0.012523,0.051063798353413646
1.555,-10.07424519531847,-0.17444612052498787,0.5202094668368276,-0.052208242480433396,0.015320489040336997,0.04417629344732135
1.5575,-9.840401828284396,0.11871420024158731,0.30588519789510665,-0.05352591776834301,0.021892143347485037,0.03290591688094245
1.56,-9.796920692890032,0.20942483396041572,0.12184045262213325,-0.053813095791424986,0.010975616312862292,0.03376807797643965
1.5625,-9.878411510668563,0.4162348193456614,0.13230425889046943,-0.05551012091038407,0.004379985775248933,0.03557322901849218
1.565,-9.908968476882997,0.536357027977263,0.0836442939554763,-0.05794265032685925,0.007036871397441737,0.04133389035528165
1.5675000000000001,-9.855014239100175,0.28305960598943847,0.17830127784887,-0.05695527611950778,0.0194319734973644,0.05174010797891086
1.57,-9.892377933932817,-0.06149931621970538,0.30195592009357547,-0.05550080347899319,0.018421329991578403,0.04828022398989411
1.5725,-9.996490335587161,-0.02865270000187132,0.4570965020791621,-0.05624992650322822,0.012427855212875434,0.04213663025545052
1.575,-10.122626053209917,0.1416311164115284,0.47997303298920374,-0.05657132723389107,0.01149863277560214,0.035934897116411645
1.5775000000000001,-10.021798072751603,0.3503618816734471,0.2739708059956848,-0.05450951570643064,0.013286,0.03890559093473623
1.58,-9.716182799569019,0.4499298013680796,-0.12181178162366962,-0.055121290874467696,0.014563475088950218,0.043036162124780744
1.5825,-10.0681584540281,0.43903861599383304,0.42228358883158623,-0.05311846763412177,0.01645796336238075,0.05058532686466302
1.585,-10.156596506313354,0.1915581454502377,0.6504416425395664,-0.05463765652735785,0.023862455218447935,0.054477160604659375
1.5875000000000001,-10.046766001542203,0.02792751192067955,0.37049731440708517,-0.05317379268235094,0.022778791911243726,0.05148729152569012
1.59,-9.892396607994193,0.0031674507798360035,0.04378362208197003,-0.053950073093942855,0.018840257091040907,0.04406965188248068
1.5925,-9.898235017908615,0.19434607940477408,0.1654733371160558,-0.05235692963040836,0.01784598433319854,0.03948627501172662
1.595,-9.95057976512301,0.3695482607235878,0.3346521330535444,-0.05118173609261936,0.015610793921852432,0.040665845933429756
1.5975000000000001,-9.943256646378757,0.5024162380695122,0.30014928889339565,-0.05632829491604877,0.015148176884029741,0.042942600028114085
1.6,-9.948700044251371,0.451891277624366,0.27054526200904694,-0.06130924932159023,0.015176940514163254,0.048681867745775195
1.6025,-9.831419,0.111191,-0.038259,-0.061392,0.01323299083464941,0.054978
1.605,-9.831419,0.111191,-0.038259,-0.061392,0.007202181960879643,0.054978
1.6075,-9.834882784177578,0.15310290443308675,0.0005350351357377853,-0.06457766166081111,0.0124237974736503,0.04719114895241169
1.61,-9.717610752353348,0.1706645264876315,-0.09072468261485037,-0.061163853116607325,0.017562,0.04510585598586601
1.6125,-9.828501244142647,0.19068816232229444,0.1772700000476619,-0.05862424450798192,0.018174499388452087,0.04480433882932247
1.615,-10.12036185678636,0.26774852501027646,0.5738639587232488,-0.05714252806673922,0.01929131655664369,0.04489394966993107
1.6175,-9.923987914543831,0.1563853691191063,0.15251818820226526,-0.05498723286292138,0.02384736503370772,0.05051834644943804
1.62,-9.74276898736414,0.10287581136869355,-0.11746324834051655,-0.05559863610754613,0.018329458708471778,0.0494762703241003
1.6225,-9.943492711276418,0.14639617932737364,0.19223964116167985,-0.05743507586927282,0.016567047185249685,0.045977371854079206
1.625,-10.110203691286715,0.19979542411208062,0.5866719868501905,-0.05614345975175126,0.019696295440580068,0.045126147720290034
1.6275,-9.939318254107205,0.3460941372660915,0.480037342518242,-0.054960531468442736,0.02138,0.047025737418331715
1.6300000000000001,-9.643032444728773,0.4035752761798753,0.0712242317663157,-0.05464423656930916,0.015266036087157516,0.04989913557719074
1.6325,-9.686701459888058,0.3245667928839115,-0.012929829233386203,-0.057081439863713904,0.010887427091749807,0.04914080051594054
1.635,-9.837145834744526,0.3000482468613139,-0.016039157518248776,-0.05943971605839416,0.01069,0.05000551576642338
1.6375,-9.958133137701445,0.33264545844018284,0.17246295520526367,-0.060331756687448515,0.016352949770615074,0.04775758736619232
1.6400000000000001,-9.947650103109828,0.3879806689257419,0.23994309174717743,-0.062378560422975356,0.028154043066571148,0.04614141878394612
1.6425,-9.95024033708738,0.28743105048543194,0.29435545991723894,-0.06124689390100263,0.02529144098997266,0.04963878792615009
1.645,-9.979058056577502,0.1680219144888233,0.2638479919530954,-0.060243457295712725,0.018928858937339667,0.048750665855624715
1.6475,-9.958676070021156,0.30158733954085726,0.10034366663323921,-0.06109328112199325,0.020289309927133077,0.04457415663402026
1.6500000000000001,-9.77138202482945,0.30345832694405356,-0.042099257480678776,-0.06083750145520684,0.026524164665757678,0.04666733169622594
1.6525,-9.755782183019438,0.2817501510247496,0.09363031617672342,-0.05731256035542254,0.026147688686264554,0.049002653034379666
1.655,-10.068575210672007,0.22418367027421224,0.5710371250888622,-0.057138072194892364,0.023588798437095455,0.04830560987171942
1.6575,-9.738021735760233,0.11562319826754362,-0.2570362649853811,-0.05938127743421053,0.016897556564327502,0.04954667011695911
1.6600000000000001,-9.851047701920084,0.13700671358918248,-0.1615747133284546,-0.059283548311403506,0.015531903854775752,0.04515716337231944
1.6625,-9.885221,0.143472,-0.132712,-0.059254,0.02038459388845274,0.04383
1.665,-10.008140231557,0.26147457979147704,0.2044378922706308,-0.056741919351251086,0.03468927518535712,0.042215007085264086
1.6675,-10.110592,0.425036,0.749641,-0.061392,0.040064274795192596,0.043677
1.67,-10.110592,0.425036,0.749641,-0.061392,0.032208956551386045,0.043677
1.6725,-9.789895654920509,0.2097741256678945,-0.04013973561046069,-0.05889831656408508,0.016935978897530554,0.04729341255326365
1.675,-9.755676797170487,0.10985277368672311,-0.10322600729465004,-0.05960659173829988,0.025079007414040164,0.04881320995702004
1.6775,-9.767651670293697,0.061582724250238946,-0.026517590255492163,-0.0579816494651385,0.0279464421418338,0.04795316732091691
1.68,-9.78267433983032,0.2678007314348825,0.11662782663223357,-0.05776001828107706,0.031037958332718472,0.042986872032460585
1.6825,-9.912099535956175,0.5666776711391917,0.38009735447227444,-0.05894330663724227,0.03190167137965146,0.042287471808842694
1.685,-10.017654821626639,0.5377667674718574,0.40146948300266183,-0.061595461575588914,0.02622580317902282,0.04885971886761828
1.6875,-10.028550791142928,0.26221498601515025,0.1703128449180055,-0.0614049230833264,0.01858626920835761,0.05291067318738034
1.69,-9.87215791888139,-0.019671792354537337,-0.11247102280364121,-0.05631728282023952,0.023871304400995032,0.0531974310178931
1.6925000000000001,-9.858565385937736,0.10705989039827415,0.23072586472847362,-0.05540276324402619,0.026396899123823463,0.039580934047791456
1.695,-10.040881697480092,0.3676751916196058,0.576447800562403,-0.058012181192372746,0.0295852737702149,0.039677110461018586
1.6975,-10.111925264880746,0.6087435375643666,0.5365607168314634,-0.0561413060116885,0.026207540568630526,0.04474945507818673
1.7,-9.985619659020232,0.5794245790950597,0.22628574366889553,-0.05706989772009811,0.019466901812229757,0.05439969807085212
1.7025000000000001,-9.627599891212974,-0.04400039341154282,-0.30730913769015095,-0.05917701027935646,0.02153941113072934,0.057616709338492875
1.705,-9.81749372048374,-0.1596043440125804,0.03760756738179721,-0.055594682065545915,0.023766795027210123,0.051709989048252344
1.7075,-9.906256860804115,0.0021342024964956796,0.22005892249649447,-0.05399583112669471,0.024172486619915848,0.04325677711079937
1.71,-10.12837348529288,0.3914680967242157,0.47189984040664457,-0.055279207106664494,0.023900881458770378,0.03838043459738589
1.7125000000000001,-10.046319407949515,0.5936240890851797,0.3441289331230126,-0.056095726940063116,0.026838308138801493,0.04172028908517385
1.715,-9.93424,0.652798,0.193687,-0.056352,0.021880678148720537,0.045051
1.7175,-9.879975686249713,0.406619852334475,0.00773051740664088,-0.05483042062772048,0.016987123812142034,0.05071444130126011
1.72,-10.090047911278372,0.21746100161709336,0.34050373602038414,-0.053689165914774795,0.020258210309578643,0.05304719162316383
1.7225000000000001,-10.258189528643115,0.23145985536662664,0.5885870979975529,-0.05503733034835577,0.025451518362972193,0.04892148163702781
1.725,-10.09700813516892,0.3857976212817231,0.2141324921966853,-0.058554608897439166,0.024549835469520054,0.044900393146567116
1.7275,-9.99250200697226,0.49330490297509966,0.029482172193765515,-0.06006237264091796,0.020934216308038007,0.04519195984148586
1.73,-9.938741632670492,0.5337172837404622,0.0027874255255221636,-0.0596834290459573,0.015062141091855486,0.05106465525995146
1.7325,-10.11887064770562,0.4737468542857174,0.39903538181816467,-0.061887363982683886,0.019255271168830912,0.052561654199134215
1.735,-9.98948172652637,0.39691983342070297,0.3568036446651149,-0.06312571714801006,0.01747943109294164,0.053899633108091996
1.7375,-9.729217050607026,0.23479507667731248,-0.05555239559105904,-0.06655471840255602,0.013286,0.05127755233226828
1.74,-9.631376999197233,0.1681138058223757,-0.4312447964567457,-0.06814498551326414,0.010909971026528275,0.044816218279123445
1.7425,-9.799919422509053,0.26415766526331774,-0.26432655054978477,-0.0635537091525948,0.01063549502351757,0.04378676947181735
1.745,-9.984842242730576,0.41321893007989285,0.26156196957155664,-0.060489914960058115,0.024796973798113124,0.04663915480029065
1.7475,-9.915287771197782,0.4975368671378555,0.35378192826642413,-0.06197034724859544,0.032898854744727535,0.050301558443123603
1.75,-9.83141831470792,0.34534809697529434,0.17600443985222813,-0.06586473262525976,0.024237912953128608,0.05240329577464788
1.7525,-9.939611807098972,0.2842112720819093,-0.008750128737197424,-0.06304133610921518,0.012081254744027544,0.05102138075085329
1.7550000000000001,-9.946302119406758,0.13637549668205642,0.12254902146041843,-0.05942482982737647,0.019391433001054045,0.05305559856066144
1.7575,-9.856233400705136,0.1467239810466428,0.2589835523952598,-0.05640333152569162,0.025471524996047535,0.050082966671936624
1.76,-9.868261175521226,0.24975860767303287,0.48334891224911936,-0.05622898365648949,0.020435169882009434,0.04447540784332804
1.7625,-9.770683200309026,0.4184186850123575,0.15398576538938064,-0.06073467731767605,0.011660209796044606,0.042157887113720656
1.7650000000000001,-9.700491963113661,0.6481462651002999,-0.3527237853677358,-0.06379490072588351,0.006102808118433373,0.04566666765998133
1.7675,-9.618629088081136,0.49259510435256515,0.03662994889238322,-0.06212356602184079,0.029627,0.05630800346333865
1.77,-9.89574176577042,0.27823424697456944,0.579891532954132,-0.06300602981858516,0.028854949162639615,0.05639250468668301
1.7725,-10.030316356837517,0.16948238706171428,0.6744909811486954,-0.0678904684464865,0.027269167982254636,0.05239648563574434
1.7750000000000001,-10.129469218285426,0.10318598332939821,0.6318924291141373,-0.07184577264307729,0.023549752220373685,0.04690964122536093
1.7775,-9.897119340575713,0.4007291315018849,-0.06643104885482656,-0.0691293304818523,0.014779631964956215,0.04099685939924913
1.78,-9.810299886527607,0.6472816979239291,0.03429336853006687,-0.0690823865423313,0.019983333575460237,0.04566303149938659
1.7825,-9.922870365907439,0.5683806627325882,0.4408615549075937,-0.0711421309556152,0.027759361983888734,0.05301609536566096
1.7850000000000001,-9.885843659586426,0.11909421247040763,0.13373411271348723,-0.07172252834306782,0.011387980291502318,0.05122587468560871
1.7875,-9.916518024909236,0.20913767640095032,-0.02854109243883768,-0.0754296486503553,0.012820289313338645,0.04532780710339363
1.79,-9.828508318675741,0.3537035426532079,-0.1580591742568691,-0.0744792020756045,0.017927397717774258,0.04223629916881897
1.7925,-9.813748480859827,0.5485015522190424,0.12172696241274689,-0.07045157773273399,0.02487937218798525,0.0448500638692276
1.795,-9.900670806798601,0.5052686585611259,0.5218962692339841,-0.06956700894994176,0.027794,0.052365885783468825
1.7975,-9.896119037148155,0.20603870302442562,0.23427626103070515,-0.0735394610984759,0.022743313299459333,0.05268974471489616
1.8,-9.821420638632073,0.17980857066038222,-0.28114997990566803,-0.07245714004716967,0.017967831037735818,0.04721684278301877
1.8025,-9.785987,0.269608,-0.422645,-0.069791,0.027318751465976995,0.045357
1.805,-9.884668318653572,0.45868970855539015,0.2295969761009488,-0.06749077548387108,0.027274890154278083,0.0506014877980362
1.8075,-9.820052770489458,0.3843963352090636,0.3092197730567039,-0.0710584395332256,0.022297,0.05432494099189629
1.81,-9.614936051484833,0.04341524039806391,-0.43515049845830134,-0.07275244028643633,0.013833962247262088,0.04795935990943551
1.8125,-9.510638847778011,0.11668691770219042,-0.5810346282645324,-0.06988586141533278,0.017712567133529908,0.04593585999368155
1.815,-9.661168618639872,0.3822011195058207,-0.08233556448449575,-0.0685970475464727,0.026281475723357293,0.044899
1.8175000000000001,-10.047660987057354,0.6137966174560547,0.8903345680156669,-0.07067021313110435,0.03060507478800412,0.04782052255544086
1.82,-9.936617400252862,0.22306123660629937,0.04050664120537059,-0.07236534322733972,0.027426920104567543,0.05799958527496543
1.8225,-9.846638923739722,0.09345676454584298,-0.3581386390151636,-0.07297438352012928,0.020728972072817126,0.05366104538238508
1.825,-9.984266428039183,0.09407724297414218,0.12686683378833066,-0.0718943022643328,0.03263394793640581,0.04467702652962905
1.8275000000000001,-10.099024907041384,0.24507420767625612,0.7140772520743291,-0.06880824110700696,0.04189157010224338,0.0438193507478186
1.83,-10.159015,0.324008,1.021042,-0.067195,0.04181892552995362,0.043371
1.8325,-9.727975404761361,0.4845422657748571,0.06372463271736917,-0.07471994105430231,0.029607563473528983,0.04951709394853197
1.835,-9.542436830177996,0.2805173466445938,-0.49651075759251007,-0.069825539044623,0.022347881818031382,0.05693681924331474
1.8375000000000001,-9.693556435360781,0.08295752816113704,-0.19845943989295695,-0.06433622159099826,0.027584463608466985,0.05813395239593981
1.84,-9.996815904184611,0.11028149735533964,0.34288066918222454,-0.06376925255380213,0.032834,0.05016846624581492
1.8425,-10.077427649138206,0.2805861951643807,0.5431914597286954,-0.06710185430577725,0.03555915512926911,0.04542150030003192
1.845,-9.689495028570766,0.33648257820317123,-0.06863065820785441,-0.06640479907927192,0.03172887216911345,0.048600959906048076
1.8475000000000001,-9.664729911344935,0.4601067586100499,-0.29522132078505453,-0.06429016424066919,0.019177589601028867,0.0514036906435007
1.85,-10.012564794588357,0.42841187081405163,0.28652970309901377,-0.06667797109158208,0.030372269888992942,0.05274897197039784
1.8525,-10.081294787002587,0.4159523242947979,0.5482833655286078,-0.06819010319755121,0.04215,0.05367706914056982
1.855,-9.804709847818978,0.3622417085764198,0.07845324116236985,-0.068111,0.0368987339801509,0.053756
1.8575,-9.697280305953667,0.35902983950809164,-0.23111273479847125,-0.07338819826721653,0.026275774328784883,0.05124354466201217
1.86,-9.921031245529791,0.3740787055420499,-0.03918326889131907,-0.0737773662615098,0.025804702462861213,0.05088263295764287
1.8625,-10.046180999168797,0.4626807643222531,0.263178850255757,-0.06752922947570324,0.03561637065217405,0.05190206809462915
1.865,-9.704036006011398,0.6080876249324695,0.14547213100476306,-0.07918036724490592,0.03930116600827544,0.050960992708252
1.8675,-9.648246752830044,0.5733419306987283,-0.07132089559840196,-0.0803051571769849,0.03542497945194795,0.052585962151612105
1.87,-9.731958697919156,0.3436159708813671,-0.1814376777799906,-0.0757807578926439,0.028216383631543735,0.05933049646785984
1.8725,-10.157536901061718,0.3164821530671523,0.2875067925589989,-0.07394182344827585,0.025809,0.05427699519056238
1.875,-10.10270445655291,0.22970249134881943,0.4934604703183252,-0.07365378405506165,0.04484276445846477,0.05438148905458369
1.8775,-9.771320353036181,0.23478723058127274,0.17023242764150892,-0.07739449508828854,0.04301536808628437,0.0523232665381312
1.8800000000000001,-9.621503552903167,0.3022234738968633,-0.36735155558254623,-0.0757936292465359,0.029804491065015322,0.05203570411084693
1.8825,-9.957028490605197,0.39224318374639805,-0.24127688190199956,-0.07135069265129673,0.022598121613833264,0.05341665648414988
1.885,-10.301759182478387,0.406544007723343,0.47415337792507445,-0.06731213895292987,0.03923079327569651,0.05447429798270893
1.8875,-10.416068,0.411286,0.711382,-0.065973,0.05087176263426091,0.054825
1.8900000000000001,-10.220391641423516,0.26086870967816056,0.5436598045618796,-0.07217940761569248,0.046032441930936197,0.05329469104533692
1.8925,-10.050505003707093,0.37505521533180675,-0.13350133620137677,-0.07159761180778024,0.02018165739130435,0.05039061844393604
1.895,-9.975762865087319,0.3380620652896541,-0.2659959796603647,-0.06889755702276285,0.020277636887871854,0.054248110184270774
1.8975,-9.918844207189752,0.4893798209688799,0.14704474433678077,-0.06056471559243457,0.03280398492251346,0.05176413985600984
1.9000000000000001,-10.006056246116977,0.5777068124320903,0.4926369806328056,-0.06790355305209385,0.042073898817514,0.05368096244806664
1.9025,-9.888815940370373,0.3363266538109146,-0.17001742861111357,-0.07391273378167643,0.02443815789960985,0.05878225560428838
1.905,-9.977022541851854,0.2866866469493172,-0.24753195305555636,-0.07449783101364522,0.015561415287524272,0.05517330433723193
1.9075,-10.16625104436514,0.2720923516393181,0.16849691485740914,-0.0711472509925124,0.024922029262386305,0.05573893236259357
1.9100000000000001,-10.123354912896742,0.1836857660498616,0.46827391088324155,-0.067184871330692,0.03864359731531168,0.05548597278955937
1.9125,-9.856135353228723,0.20443123380903988,0.15279558981311986,-0.066279,0.031852120854686854,0.05452
1.915,-9.874474357423244,0.5199637177459439,-0.08770662192895855,-0.07384012131005441,0.020825532787477327,0.04758897213245012
1.9175,-10.144502266749999,0.7008430705555555,0.34801578163888425,-0.06634986969444458,0.02851189986111101,0.057893968722222064
1.92,-9.87891279266599,0.21803360063925642,0.34632773448787507,-0.06940283771611207,0.02474,0.06321717018160698
1.9225,-9.819413759895392,0.2083192033899943,0.12108016289020379,-0.07297020000968583,0.02474,0.059106959447915
1.925,-9.78256445878362,0.15311674010176698,-0.26089630794767155,-0.0756660204506906,0.018428728252968023,0.05427136566513196
1.9275,-9.949554885243392,0.2894886432081586,-0.14988745742234727,-0.06363279678256845,0.0156377578720445,0.051251242127955496
1.93,-9.991849240846474,0.582689543547668,0.2604506234103991,-0.06396573125255324,0.029289482647274722,0.0518023276150012
1.9325,-9.931685426903,0.5799038881186707,0.40425517681856343,-0.067295723429441,0.038259673010270334,0.054211547252948016
1.935,-9.668598243262437,0.4160340313735258,-0.04838963246437067,-0.06944947675256444,0.033353485148861245,0.057328860965724364
1.9375,-9.705151304673976,0.27229701673398726,-0.37196330294287366,-0.06799221292556261,0.01254602423542989,0.055172122331217544
1.94,-9.923514153934736,0.3863161999232213,0.16281987669864323,-0.06534322134357012,0.027177023262955416,0.05452
1.9425000000000001,-9.87780749190082,0.3594804310743748,0.37590052165289295,-0.06544460628099182,0.033224100495867714,0.058762850909091204
1.945,-9.758327767013803,0.32162848010656486,0.18298458356017294,-0.07358420000968799,0.025825391455557872,0.057409165851295435
1.9475,-9.757779003498026,0.3600959249101314,-0.24863205997904564,-0.07621341582010153,0.014016252318852226,0.053264983203030546
1.95,-9.858410362391147,0.41499479096257785,-0.2157807246646366,-0.06904370661332096,0.016806077735937563,0.05673195895504811
1.9525000000000001,-9.802730580429202,0.410566016124516,0.0675380980363254,-0.06308476400911858,0.03176883173021058,0.06174031582108343
1.955,-9.795419753585245,0.3076571158924942,0.32060324057441913,-0.06352861139510646,0.03432693385639759,0.06402884750260733
1.9575,-9.968063784819513,0.13481705874146208,0.4228533488438976,-0.06948215648780492,0.022762336990243815,0.060992935556097465
1.96,-9.985325389734841,0.18096873966335741,0.03673796765045048,-0.06675592530320516,0.01501699533779114,0.05234415216509112
1.9625000000000001,-9.73561507835313,0.3194960296816431,-0.15307684046917522,-0.0616431283332003,0.017708700023937107,0.05339201721854322
1.965,-9.741434255741824,0.5429820994576159,-0.015851582839592704,-0.06439931856669553,0.016471779629402078,0.05360850596146756
1.9675,-9.896097595056766,0.5200048595182546,0.23077633455968166,-0.06840365560601415,0.01985622438478071,0.056451240975759494
1.97,-9.721951724033566,0.4078509001293159,-0.23616811689641234,-0.062389147139909194,0.024524350694731082,0.05924553603521807
1.9725000000000001,-9.800425426606141,0.4440699759416722,0.04064426260009829,-0.0633801661411474,0.021660926069610512,0.05726277676709302
1.975,-9.866278364333656,0.49290664956855407,0.3086540546500574,-0.06570176586768946,0.028937982166826786,0.06130724285714304
1.9775,-9.776706729712291,0.3314502990874424,0.1642056361066486,-0.06768977338195967,0.024842941340465035,0.061541400288516054
1.98,-9.640325199241616,0.35593710625903296,-0.1838363570565209,-0.06693574083659204,0.01909,0.05660088409527201
1.9825000000000002,-9.63968571310605,0.5514717633244378,-0.2610777320094237,-0.06505803377847598,0.021801165787902834,0.05685806312018878
1.985,-9.751221560171926,0.6688684420343883,-0.005763781375338645,-0.0634793501432664,0.027930633610315524,0.06243996971346733
1.9875,-9.846506905306123,0.39192671836733844,0.07727183836734461,-0.06975342857142876,0.030340747755102027,0.06388832734693875
1.99,-9.899446313796384,0.2489579233111326,0.06150233899143672,-0.06841573221693627,0.031888304738344427,0.06412312928639391
1.9925,-9.869005166528499,0.2064096539378243,0.06823340170984434,-0.06493903896373067,0.032614631917098444,0.06162645310880839
1.995,-9.913666549382995,0.3262029259243146,0.32930803127177616,-0.06856111955214847,0.03022059527808181,0.058328797639040905
1.9975,-9.87582768671196,0.5575788957086474,0.16538083954178195,-0.07112995246010427,0.032707400796334454,0.05659699864117551
2.0,-9.840886305139433,0.6092372429131135,-0.07540949216409311,-0.06854589191057849,0.027181818852270105,0.06137300518552662
2.0025,-10.069314612108348,0.4883950640731096,0.31227331664815966,-0.06789262081592688,0.02763575492819824,0.0641852594223238
2.005,-10.065088159810395,0.41346327340039424,0.47128665171928563,-0.06721748072609561,0.02899306019192998,0.06454521026708282
2.0075,-9.815578569505675,0.35722678324717355,0.010099696980902073,-0.07131755025068286,0.02494076928074989,0.06074532305193327
2.0100000000000002,-9.707964983010674,0.5262080838318064,-0.3608013665988842,-0.07110483414940279,0.023911579490270042,0.057661579490270044
2.0125,-9.862412822986578,0.41973394364196204,0.20741890306609279,-0.06388587035720741,0.024434278585627415,0.06261544082886553
2.015,-9.998345564272038,0.5994673612240315,0.38224325934342174,-0.0640791504343112,0.025012855548460968,0.05972192438045887
2.0175,-9.891498925719727,0.5142549487321199,-0.037738069609171476,-0.07166641041944741,0.030388553489037396,0.06346741317445206
2.02,-9.826205796229408,0.489,-0.24222633417327738,-0.06827129213544841,0.023893687382550276,0.06526058678462478
2.0225,-10.005005161818783,0.4193660845503014,0.057876713191197915,-0.06644658337774817,0.03150972087941348,0.06482898420386411
2.025,-10.099548423279808,0.3782720071035037,0.508779548423385,-0.06631150852186148,0.040317,0.06259648498417547
2.0275,-10.054996,0.389168,0.619919,-0.066126,0.0365716950498908,0.061545
2.0300000000000002,-9.765267703969979,0.6698195874157867,-0.06591758876418274,-0.06900115146067475,0.028741867565542065,0.057556592808987964
2.0325,-9.672826214740224,0.7386469358642094,-0.15167163560959784,-0.06955268151469043,0.033001385881035204,0.06108072253622679
2.035,-9.849609262900483,0.6326046030713659,0.22484938770972485,-0.06979450299675066,0.03929644267180173,0.06510293967505108
2.0375,-9.699616618066262,0.4756579645029432,-0.256174431048598,-0.07890734788924236,0.039706,0.05893046572855168
2.04,-9.655068,0.445959,-0.36944,-0.080634,0.03614019818566081,0.057727
2.0425,-10.149812989030307,0.503821238197023,0.48384200971235336,-0.06755527435146193,0.040317,0.06435433586145545
2.045,-10.084754759335746,0.47482355020224265,0.5678617969895,-0.07201860983097075,0.040317,0.06217024303659339
2.0475,-9.831221964896113,0.6552208648275715,-0.12089282506502785,-0.0783169617446902,0.040317,0.05727282247088408
2.05,-9.70100387877484,0.5328493253973667,-0.42118701890727717,-0.07811027937086107,0.03431559152317934,0.062369812251655075
2.0525,-9.851366254736385,0.37594830493493586,0.008867048673879385,-0.0693892863821035,0.034404436840904246,0.06541678037890898
2.055,-10.040600522373403,0.36077704647167025,0.3702057194451127,-0.06950168151763347,0.041166103232492535,0.06419730728397115
2.0575,-10.028588876839173,0.48132170798951374,0.34161012063279317,-0.07524703195484568,0.043524,0.05857792715796136
2.06,-9.977954232373431,0.5596172233249526,-0.021260222463193465,-0.07437260198204661,0.028080541946139966,0.060800458053860036
2.0625,-10.032723032315978,0.4403261723518851,0.0834003381208857,-0.0713059407540395,0.02482248892878516,0.06405851107121485
2.065,-9.915689044782665,0.3265398372881379,0.04075003308198252,-0.069791,0.02424075012106533,0.06258474963680401
2.0675,-9.752986469078202,0.4390860763095339,-0.07724355581205944,-0.07253089531783433,0.03549729178344918,0.059214364464314835
2.07,-9.733053604385377,0.5957738855859716,0.020605701945222266,-0.07331963866651406,0.03746721980524761,0.058185
2.0725000000000002,-9.849968499456647,0.5474702307421672,0.15965711059327398,-0.0751019422796043,0.02973711048871232,0.059465971139802155
2.075,-9.744580689738356,0.4589213769442083,-0.16435833969662633,-0.07406997259586623,0.03177843168080356,0.06074517553458372
2.0775,-9.475455501224346,0.40749290535022226,-0.4961379860792865,-0.07430010955782608,0.03543,0.06005604551532483
2.08,-9.621128888693853,0.5706437590412334,-0.07794540101896341,-0.07586572488188975,0.0345890979990736,0.057724583987957295
2.0825,-9.93656052236317,0.7331188582453321,0.33137792818094125,-0.07425612204764968,0.03598506742755958,0.059990652063747624
2.085,-9.746733196309645,0.5911785806080498,-0.06568510398034177,-0.073151,0.03435292367165584,0.062461
2.0875,-9.402504553051523,0.4253232366421227,-0.6921435995013208,-0.0797122951792924,0.030813849655663653,0.05697577307052958
2.09,-9.63062835011635,0.5682262666112481,-0.28018035048684364,-0.0776206213725957,0.03328588438375669,0.056500166288292596
2.0925000000000002,-9.858189009001832,0.6365073924738491,0.19746605579490617,-0.07367374684496136,0.03813148369700366,0.05852006419885188
2.095,-9.6725891251219,0.6635106134146357,0.09759084999994,-0.0744473673170737,0.04551704048780558,0.060808010487804987
2.0975,-9.523362044231627,0.6740899702562537,-0.2847713159489137,-0.08214846244626375,0.04201236978811237,0.05907873450623404
2.1,-9.718656985378008,0.5690301296899215,-0.260076748916301,-0.0843058882298038,0.03256589484600195,0.05898934180234381
2.1025,-10.014659253381458,0.44690454478603525,0.10165619347131752,-0.07780638955292027,0.03320108114900214,0.06196061407969363
2.105,-10.029463224815624,0.4872426427765714,0.3119443379609579,-0.07340255123644247,0.043685511120751905,0.06183226605929145
2.1075,-9.726738882422351,0.5556225146371151,-0.05845475735288616,-0.08287340358358014,0.037881047897612374,0.05682111286405504
2.11,-9.878792653454353,0.6012317632584768,-0.18543868237936448,-0.08497135115145764,0.024077058834209974,0.05527247111323454
2.1125,-9.784178354037124,0.6398560685019005,0.006986877030844616,-0.07835705200933991,0.03683210401867984,0.058528939658350605
2.115,-9.642048432621348,0.7022551677669956,0.0370311502912647,-0.08022688582524287,0.040571771650485755,0.06049735533980599
2.1175,-9.505576565244064,0.779461757099029,-0.14006084920503786,-0.08782668591352924,0.03864962644351437,0.057436265550906224
2.12,-9.862304106922931,0.7456286982656667,0.1503938433437817,-0.0888216122507803,0.025417037540234416,0.06009153041556619
2.1225,-9.984317397252873,0.4741066796760551,0.16321763635092396,-0.0845383938991663,0.026715566113537398,0.0643507799190155
2.125,-9.64467980563711,0.4058176241926013,-0.3247298485026424,-0.08407118496770405,0.03261643805049912,0.060558159718144454
2.1275,-9.57279120028482,0.4487408810240829,-0.3805631355980521,-0.08691321858068637,0.031918,0.0558768761468918
2.13,-9.788996988036796,0.5049512028032019,-0.04314547931573584,-0.08248199222274716,0.02729623574327555,0.055319585002359534
2.1325,-9.772234374185777,0.6243761132641791,-0.18524294689504753,-0.08195890176115793,0.04090298682750274,0.05797614846803362
2.1350000000000002,-9.596054000723747,0.5404451304318378,-0.2911023227599615,-0.08340717621230412,0.045152945042219936,0.0604869124728591
2.1375,-9.749614080267282,0.3823107739866235,-0.06464964115810296,-0.07946928997772784,0.04030560596881898,0.05986491714922035
2.14,-9.999518041906034,0.3229389900727977,0.30840469522172603,-0.07927869760423564,0.035140802938451135,0.056428209583057394
2.1425,-9.915994123886348,0.38106157533733775,0.09890526865464849,-0.08098275862985199,0.03853406522929191,0.054928560342537
2.145,-9.601301899072414,0.4721514047518313,-0.5673336698454089,-0.08098590870626524,0.03753315524816918,0.052812166183889314
2.1475,-9.704074533371843,0.5949547592380338,-0.463852573927715,-0.07829124969943013,0.034667,0.05178813686002029
2.15,-9.91848720982958,0.6763271485549436,-0.09463958893104168,-0.07717086570863821,0.046537545798386634,0.0532904591484586
2.1525,-10.033681565493875,0.6934055101597298,0.15985981644744532,-0.07913817107324098,0.04756433131470693,0.05859411723275786
2.1550000000000002,-9.885613037307103,0.485167576866968,-0.03525712539524212,-0.08089227243729309,0.047031591344060354,0.06255550309985827
2.1575,-9.998294411409594,0.2555450619206105,0.05940177852632189,-0.07746171434751566,0.03596443748038923,0.0585013755835503
2.16,-10.177230108471168,0.44514762887220183,0.2849787797493545,-0.07695346065162932,0.039498103157895655,0.050470276290726604
2.1625,-9.997445227631573,0.7119399084351503,-0.007261429041360165,-0.08023025646146617,0.049214046311090005,0.04964738804041376
2.165,-9.835433337105261,0.7097305321945488,-0.19799336287594257,-0.0804181181156015,0.043005988566729235,0.05604392337875949
2.1675,-9.946457214268948,0.5403858003793925,-0.029878950097261547,-0.0800531704879029,0.03750256030222655,0.06280925948396426
2.17,-10.19562191551401,0.2915304527102873,0.16554011252336367,-0.07605151775700957,0.02915341196261716,0.06351572803738335
2.1725,-10.159967701236699,0.3358520251432229,-0.004132545843293867,-0.07585953810946892,0.035164987207131945,0.05584067330966773
2.1750000000000003,-9.89533096708981,0.4894930063476618,-0.153222533300777,-0.07692646596679649,0.04252284550781189,0.05336158652343806
2.1775,-9.777628035366467,0.523883645684538,-0.08768020470511004,-0.07618023952167906,0.03958356538843231,0.057815497245587266
2.18,-9.818708828772657,0.5114961740717916,-0.17376109910428986,-0.076511,0.030522163418802345,0.05824732862905962
2.1825,-9.856078316835802,0.6524409286605839,-0.28061624306965144,-0.07907511820989616,0.03350804934131794,0.05496515221556872
2.185,-9.845846908886108,0.7716860040750931,-0.18264659500374925,-0.07910368590738412,0.04842289145431825,0.06224602308886151
2.1875,-9.888721374285714,0.5866346314285714,0.03365078857142856,-0.07575659142857143,0.04620196,0.06976419142857143
2.19,-10.113473039453917,0.28521838986937315,0.3025656715264137,-0.07927418520889704,0.035477887018948086,0.06429286970460191
2.1925,-9.94396248373631,0.3445643721295162,-0.17301058713838788,-0.07995311981391956,0.041796826036604263,0.05756358726816423
2.195,-9.784346200110189,0.4800082735948986,-0.39900544782516767,-0.0743658919997555,0.03630779992899588,0.05883764208851066
2.1975000000000002,-10.095438766694585,0.69054478008982,0.13604859366473748,-0.07187278465397111,0.034514,0.059671487734943546
2.2,-10.445733615463025,0.5523225345794336,0.554035826338105,-0.07230357349192891,0.04124153746813902,0.06140665369583728
2.2025,-10.201978928830783,0.47284635364485583,-0.048591443555353164,-0.07638452903731802,0.03684602968171993,0.06716247999738609
2.205,-10.06315636235354,0.3288627257712924,-0.06539994124328055,-0.07439091657201319,0.03407269935021738,0.06425215767715514
2.2075,-9.946490847594331,0.3409549685273053,-0.05488737584461115,-0.07332051747174016,0.034391647651647844,0.06271472222894445
2.21,-10.274374175017842,0.5181931011106969,0.40705978956284666,-0.07492588044822061,0.030410995305996946,0.05878713489964303
2.2125,-10.534431,0.600191,0.734098,-0.0759,0.03146415080104153,0.056047
2.215,-9.889605822540636,0.6278316924504234,-0.11002999705313943,-0.07775800353803607,0.03383047253935835,0.060320894844369165
2.2175000000000002,-9.531943906842812,0.7057368261518104,-0.4227367169826916,-0.07576215852419245,0.0299272906495735,0.06453855229578698
2.22,-9.83349184725492,0.7173845495839923,-0.021691133459282974,-0.07533256752975859,0.023463609483371548,0.0632705471248002
2.2225,-10.134956931339497,0.7525153240859429,0.3244629856077105,-0.076664,0.028314283390987967,0.062213120288528705
2.225,-9.85052257142158,0.6000567897429498,-0.05946413451094401,-0.07711473604580342,0.03793540185162656,0.06703452140333814
2.2275,-9.574155633103448,0.42250874896551976,-0.4611836220689627,-0.07730188689655174,0.028405,0.06565063862068957
2.23,-9.608696265804005,0.6007778517881253,-0.2613732965612054,-0.07796602230596042,0.028405,0.05881917654224439
2.2325,-9.887608822324005,0.866306644366132,0.26704762363095647,-0.0795475292095779,0.03527371318971701,0.05955788481140373
2.235,-9.86077921932486,0.7434722713173108,0.2793158522427195,-0.07858929635505214,0.03864121900377737,0.06715958889046215
2.2375000000000003,-9.558492034309602,0.5166409573221723,-0.4103599071130405,-0.07999359748954021,0.02727567615062603,0.06494242343096139
2.24,-9.627263131001344,0.5849462246297547,-0.46509373118789465,-0.08053272817801144,0.034316770498865966,0.06191234147625339
2.2425,-9.821884176976663,0.7507023027131107,0.030078588815666718,-0.07537512583572442,0.042913,0.06678153424338826
2.245,-9.903102440078936,0.6285993057325909,0.3028209276961047,-0.07821715090281257,0.041978403680315655,0.069791
2.2475,-9.704974492864487,0.5380404374957132,-0.1755593870926394,-0.08633461098627801,0.03537720147512846,0.06234059344768417
2.25,-9.772457189666667,0.6598704123333333,-0.03177396816666661,-0.08058508716666667,0.032668629500000004,0.06183706033333333
2.2525,-9.87292200041237,0.6668047550515477,0.18224000082473907,-0.07738386914089347,0.03772052536082457,0.06621344247422668
2.255,-10.078784115364083,0.6574749964782233,0.3355432245580011,-0.07948657351115287,0.035601847978284494,0.06458250270742397
2.2575,-10.273726486899877,0.5661501140851649,0.3598140374453417,-0.08094,0.034316541440736245,0.06185
2.2600000000000002,-10.031030880224856,0.5246181806599831,0.07190303638227236,-0.07620721742361229,0.030199113546809576,0.0644421835345884
2.2625,-9.804080211897293,0.4915884959298659,-0.10351894527239339,-0.07487305447714468,0.028558,0.0647548012523481
2.265,-9.702294,0.472262,-0.16021,-0.075136,0.03157453442875513,0.064294
2.2675,-10.024556456863076,0.5700080160731671,0.291824656124979,-0.07564773587245065,0.03571044505989002,0.0631008797215927
2.27,-9.96799438362786,0.5312040962272073,0.1937324807807319,-0.07587328115007012,0.0398642247919589,0.06466736536699397
2.2725,-9.64122640182923,0.5485996470227034,-0.3986333252318458,-0.07642647029740963,0.03668160159577881,0.06252587983690447
2.275,-9.718715859069118,0.618944003901438,-0.2625348562628604,-0.08135184524298393,0.032681,0.05760243141683792
2.2775,-9.845766,0.612147,0.011956,-0.084758,0.03755783612128927,0.0562
2.2800000000000002,-9.80409904670935,0.6855770709655338,-0.005120760689659014,-0.07926075706403816,0.0400117761280784,0.06222000091625751
2.2825,-9.846675975407127,0.769598018157,-0.018614792823013242,-0.08235149316431094,0.03820268150170643,0.06247749105801998
2.285,-9.809424296007442,0.753222955872346,-0.26748427987890117,-0.0838465293640806,0.03990232585138621,0.06653942762636934
2.2875,-9.838232750832614,0.6211657436350666,-0.2111596626311936,-0.07834213481177477,0.03559779618025383,0.07063577556625361
2.29,-9.939239929160268,0.5908719166063925,0.057502770131288516,-0.08448545312360689,0.03791840867971286,0.06500002898191712
2.2925,-9.903051315266366,0.7189591723549424,0.03687652148500045,-0.08888921345998577,0.04663311100134564,0.0617855435573498
2.295,-9.652785529262225,0.6799388851611515,-0.33217222742277835,-0.08466333598203277,0.04597803969006198,0.06539238305670951
2.2975,-9.727352720219232,0.682529654518775,-0.2290139275931254,-0.08365547570207953,0.03616196504594606,0.06613235818152521
2.3000000000000003,-10.350514260369527,0.6073502026929773,0.6590132827031053,-0.08721088867628411,0.04350836338142235,0.06719520424196432
2.3025,-10.346707433200708,0.4969277984489908,0.586350230262712,-0.08372572035636518,0.04285973778182733,0.06954607394786151
2.305,-9.791475852448318,0.4188877018063253,-0.45840861312295644,-0.08280979388465752,0.029759165941240194,0.06398350996735544
2.3075,-9.84983149660259,0.6386715641107579,-0.4068729600120882,-0.08735920142425362,0.02530610923709327,0.05788488241566895
2.31,-10.032501156853057,0.7355580015001708,-0.06258907127854285,-0.08657202984316391,0.02792917493010585,0.05886673554040244
2.3125,-9.988303231719973,0.6968313186149636,0.004360508727238421,-0.08169079045192942,0.035967932540805735,0.06619764855175017
2.315,-9.689810261290019,0.6140332547157205,-0.44655479994265634,-0.08373361350214979,0.03560096281892044,0.06608138649785021
2.3175,-9.971317592012952,0.7817543282149756,-0.10085767944578436,-0.08727077147312876,0.04228494006477925,0.06717286774712058
2.32,-10.0521539209189,0.6791106122840757,0.06344711041985515,-0.08371723596449158,0.04276482459452972,0.07524159465690927
2.3225000000000002,-10.077114,0.647417,0.11418,-0.08262,0.03803587390161768,0.077733
2.325,-9.826851315751755,0.38628973284005846,-0.3080452921002986,-0.08539505613365195,0.038246663579952794,0.06825782527446167
2.3275,-9.789131803543553,0.7004087941153064,-0.3194609450846535,-0.07737076466958241,0.04165147066083517,0.06275854095268427
2.33,-10.049477743534379,0.6628587854957759,0.3601749814040944,-0.07578146806513873,0.044899,0.06968412085886617
2.3325,-10.021122553570567,0.5880013369650176,0.11556458877683778,-0.07616788539686369,0.044899,0.07190522997346202
2.335,-10.090613333360183,0.3588598815492105,-0.10921385051285007,-0.07941021976074857,0.041097097638280164,0.06560996532985906
2.3375,-9.935815795499236,0.4895288696908635,-0.16601057872793828,-0.0778931812862727,0.04574384299419621,0.06504115352362906
2.34,-9.917794496830911,0.5499985629951698,-0.08061519275363639,-0.07312846388405843,0.04097441866666749,0.06798468467632814
2.3425000000000002,-10.225247082774418,0.5382633089671078,0.43097522632204766,-0.07719411092902573,0.040933597784189875,0.0634570395476044
2.345,-10.170091343392412,0.5872593844332457,0.21251863054477754,-0.07822951441209952,0.041692,0.06139638221824679
2.3475,-10.00187834287973,0.7495545366054239,-0.09761003212221589,-0.07653273100100785,0.04430968789951173,0.06309383691401117
2.35,-9.8917657183493,0.7521368502579139,-0.11705004377301839,-0.07482434030950623,0.03985606794399362,0.06738878511422276
2.3525,-10.02403925403619,0.5956691094133294,0.21885248414819963,-0.0766222180935224,0.03669631382783741,0.07022839502467301
2.355,-10.123700205423171,0.5359927184176545,0.22301509326447033,-0.07648062204014558,0.04038547033689396,0.06750265846695627
2.3575,-9.99422156958789,0.5167693029159037,-0.1155976252658339,-0.07707532839856508,0.039137453401355264,0.06463200200557993
2.36,-9.920999744790073,0.574223204928427,-0.2813904275763362,-0.07795753971374052,0.03613983052958019,0.06411412134541987
2.3625000000000003,-10.058998017751685,0.6283575229596698,0.1212068247063196,-0.07553445514448999,0.03580316430612892,0.06432901716417916
2.365,-9.763572472980458,0.7028166507739347,-0.03823172441312354,-0.07781234364620035,0.05011330894377607,0.067501
2.3675,-9.641299018382387,0.6790024274615492,-0.38611923134990755,-0.07306826732865006,0.03412540273400416,0.06735625167647614
2.37,-9.722524836981208,0.6171161368824731,-0.27603268723751195,-0.07276416635276246,0.033821799468388064,0.06682419939624072
2.3725,-10.037122786055589,0.7068800266825093,0.09935985610071255,-0.07044091149845626,0.03369748907147947,0.06653148907147947
2.375,-9.9266573579884,0.7182881369667117,0.12942002725033763,-0.07272958012234845,0.04569327687296417,0.06866614522920474
2.3775,-9.602562467541203,0.6845556555045056,-0.24070424245148742,-0.07415306650539816,0.04489843165191998,0.0692283630099846
2.38,-9.61590829123177,0.7119272293509903,-0.40508626384106705,-0.07731289112582754,0.033125193695364895,0.06705996392052999
2.3825,-9.795847256647614,0.733062431504762,-0.19061226994287195,-0.07493810426666705,0.03263910632380913,0.0662616797333333
2.3850000000000002,-9.917290620320871,0.7337401114438505,0.1703400971123451,-0.07351822053475968,0.04554349518716761,0.06759235935828896
2.3875,-9.770923590567552,0.6497459034639689,0.043956713254157176,-0.07931589227516718,0.052513774857700486,0.06896421057082461
2.39,-9.837893674553055,0.6484032854840266,-0.03545372103750388,-0.08101360970819806,0.04302792759610833,0.06800461224641023
2.3925,-10.027735529282861,0.6335666587350083,0.1276207256806991,-0.07622473231130951,0.038008453778509345,0.06687265149306372
