time,acc_x_g,acc_y_g,acc_z_g,gyro_x_rad_s,gyro_y_rad_s,gyro_z_rad_s
1765410093.435062,-9.234815,-2.777379,-1.756337,-0.011606,-0.002902,-0.001374
1765410093.435262,-9.398014,-2.803682,-1.538737,-0.007483,-0.013897,-0.000153
1765410093.435462,-9.521759,-2.716403,-1.495696,-0.005498,-0.012065,-0.002291
1765410093.435662,-9.347201,-2.705643,-1.659493,-0.005498,-0.002596,-0.001222
1765410093.435784,-9.196555,-2.820421,-1.746772,-0.009163,-0.003665,0.001222
1765410093.436034,-9.392634,-2.819225,-1.505261,-0.009010,-0.008247,-0.000611
1765410093.436284,-9.438664,-2.732544,-1.559660,-0.007330,-0.008552,-0.002596
1765410093.436534,-9.103896,-2.691296,-1.952415,-0.011606,-0.004276,0.000000
1765410093.436827,-8.763748,-2.682926,-2.180774,-0.009316,-0.001069,0.000611
1765410093.437077,-8.763748,-2.682926,-2.180774,-0.009316,-0.000153,0.000611
1765410093.437327,-8.873744,-2.702056,-1.902200,-0.007178,0.008858,0.006261
1765410093.437577,-8.647177,-2.876614,-1.993663,-0.007483,0.015882,0.009316
1765410093.437843,-8.511477,-3.048780,-2.061214,-0.004123,0.019395,0.008705
1765410093.438043,-8.354854,-3.014108,-2.293161,0.003207,0.017868,0.006567
1765410093.438243,-8.360831,-2.935198,-2.296748,0.002902,0.022602,0.007483
1765410093.438443,-8.334528,-2.730751,-2.185557,0.007483,0.040317,0.009468
1765410093.438643,-8.409851,-2.601028,-2.046270,0.013897,0.040317,0.022602
1765410093.438776,-8.313007,-2.767814,-2.179579,0.018021,0.043219,0.027184
1765410093.439026,-8.254423,-2.715208,-2.220827,0.024587,0.042455,0.036346
1765410093.439276,-8.243662,-2.687709,-2.346963,0.035583,0.048717,0.046578
1765410093.439526,-8.381754,-2.723577,-2.143711,0.043524,0.054672,0.054520
1765410093.439752,-8.335723,-2.869440,-2.287183,0.056963,0.061392,0.068722
1765410093.440002,-8.516259,-2.785748,-2.239957,0.067501,0.057269,0.074220
1765410093.440252,-8.620276,-2.853897,-2.193926,0.077885,0.057116,0.088881
1765410093.440502,-8.700381,-3.191056,-2.483261,0.090255,0.061545,0.101098
1765410093.440798,-8.872548,-3.350071,-2.523314,0.105069,0.064904,0.105985
1765410093.441048,-9.163078,-3.328551,-2.230990,0.118050,0.067348,0.114232
1765410093.441298,-9.479913,-3.356050,-1.914156,0.131031,0.072846,0.123853
1765410093.441548,-9.591701,-3.609516,-1.956599,0.139277,0.076816,0.131183
1765410093.441800,-9.619798,-3.873146,-2.155667,0.155007,0.069180,0.136834
1765410093.442050,-9.849353,-3.999880,-1.982305,0.172875,0.058185,0.143706
1765410093.442300,-10.191893,-4.070420,-2.076757,0.188452,0.054520,0.145386
1765410093.442550,-10.108798,-3.906025,-2.027738,0.205862,0.039706,0.147371
1765410093.442850,-9.972500,-4.016618,-2.222023,0.208763,0.035736,0.148440
1765410093.443100,-9.880439,-3.894069,-2.519130,0.235030,0.032681,0.161574
1765410093.443350,-10.044236,-3.896461,-2.485054,0.252287,0.026725,0.172111
1765410093.443600,-10.523073,-4.079387,-1.862147,0.267254,0.015730,0.176693
1765410093.443851,-10.527258,-4.130798,-1.927905,0.292452,0.021838,0.180358
1765410093.444101,-9.821855,-4.404591,-2.691296,0.303905,0.007941,0.184939
1765410093.444351,-9.639525,-4.213892,-3.094213,0.315512,0.007941,0.185398
1765410093.444601,-10.034670,-4.184600,-2.443806,0.332005,-0.006567,0.190285
1765410093.444852,-10.302486,-4.263510,-2.046270,0.357356,0.002902,0.199295
1765410093.445102,-9.763269,-4.299378,-2.877809,0.382402,0.001680,0.202960
1765410093.445352,-9.610233,-4.389048,-2.986609,0.390648,-0.011301,0.207389
1765410093.445602,-9.885221,-4.558823,-2.743902,0.418443,-0.025198,0.210443
1765410093.445795,-10.206838,-4.454805,-2.330224,0.437074,-0.028558,0.211054
1765410093.446128,-10.114776,-4.422524,-2.497608,0.448833,-0.015272,0.211512
1765410093.446462,-10.114776,-4.422524,-2.497608,0.448833,-0.024740,0.211512
1765410093.446820,-9.939023,-4.416546,-2.636298,0.485180,-0.046884,0.221286
1765410093.447070,-10.281563,-4.667623,-2.142515,0.504727,-0.046426,0.224951
1765410093.447320,-9.960544,-4.910927,-2.526303,0.526871,-0.035583,0.225104
1765410093.447570,-9.836202,-4.658058,-2.734338,0.541227,-0.051924,0.216704
1765410093.447792,-10.144069,-4.391439,-2.217838,0.553902,-0.054367,0.217621
1765410093.448042,-10.098038,-4.263510,-2.293161,0.579711,-0.056505,0.232434
1765410093.448292,-9.726207,-4.471544,-2.694882,0.591012,-0.056505,0.232587
1765410093.448542,-9.777617,-4.451219,-2.324246,0.609491,-0.068111,0.229380
1765410093.448754,-9.811094,-4.477522,-2.290770,0.622014,-0.065668,0.229533
1765410093.449087,-9.982065,-4.124820,-1.915949,0.632551,-0.080634,0.232129
1765410093.449421,-10.254662,-4.213892,-1.906982,0.647670,-0.075136,0.237779
1765410093.449809,-9.729793,-4.313725,-2.682926,0.673173,-0.090255,0.245873
1765410093.450059,-9.607244,-4.596484,-2.563366,0.680657,-0.094990,0.247248
1765410093.450309,-9.546865,-4.249163,-2.137733,0.707382,-0.078802,0.244499
1765410093.450559,-9.748923,-4.285628,-1.855571,0.720057,-0.085368,0.253967
1765410093.450838,-9.719630,-4.062051,-1.850191,0.736245,-0.102473,0.252440
1765410093.451088,-9.788378,-4.051888,-2.136537,0.754419,-0.107207,0.261908
1765410093.451338,-9.788378,-4.051888,-2.136537,0.754419,-0.110567,0.261908
1765410093.451588,-9.891200,-4.279052,-1.951219,0.786947,-0.097891,0.261450
1765410093.451821,-9.814083,-4.459588,-1.652319,0.805579,-0.097891,0.259007
1765410093.452071,-9.685556,-3.791248,-1.960784,0.822836,-0.101709,0.257480
1765410093.452321,-8.806191,-4.306551,-2.484457,0.832915,-0.105222,0.270461
1765410093.452571,-9.228239,-4.222859,-1.750358,0.855211,-0.110719,0.262214
1765410093.452815,-9.784791,-3.886896,-1.706121,0.872926,-0.109956,0.270155
1765410093.453148,-9.771041,-3.787063,-1.450263,0.894001,-0.109956,0.270613
1765410093.453482,-9.473337,-3.540770,-1.455643,0.907288,-0.095295,0.276569
1765410093.453869,-9.201338,-3.357245,-1.643352,0.913396,-0.096822,0.292146
1765410093.454119,-9.624580,-3.613103,-1.178862,0.926377,-0.112552,0.299324
1765410093.454369,-9.979673,-4.159493,-0.562530,0.944092,-0.116370,0.306960
1765410093.454619,-9.638330,-4.146341,-1.142994,0.950659,-0.111025,0.301767
1765410093.454879,-9.004064,-4.026781,-2.255499,0.962418,-0.111941,0.302836
1765410093.455129,-8.498325,-3.608321,-2.340985,0.990213,-0.106291,0.311389
1765410093.455379,-9.812290,-3.907819,-0.704208,0.985173,-0.106291,0.317497
1765410093.455629,-10.205642,-4.283237,-0.224175,0.992351,-0.095448,0.322995
1765410093.455811,-9.558823,-3.836083,-1.295433,1.002583,-0.097586,0.320552
1765410093.456061,-8.522237,-4.100310,-2.533477,0.995863,-0.099113,0.328493
1765410093.456311,-8.332734,-4.100908,-2.275227,1.011135,-0.108734,0.333380
1765410093.456561,-8.797225,-3.987326,-1.998446,1.010677,-0.103542,0.335976
1765410093.456816,-8.797225,-3.987326,-1.998446,1.010677,-0.095295,0.335976
1765410093.457149,-8.681252,-3.921568,-1.753945,1.021672,-0.079871,0.348346
1765410093.457483,-8.609516,-3.531803,-2.214251,1.046107,-0.093462,0.356898
1765410093.457783,-8.751793,-3.745217,-1.652319,1.053743,-0.088728,0.361021
1765410093.458033,-8.933523,-3.391917,-1.362984,1.063669,-0.088728,0.363312
1765410093.458283,-8.933523,-3.391917,-1.362984,1.063669,-0.083841,0.363312
1765410093.458533,-8.917980,-3.425992,-1.777857,1.074970,-0.095600,0.374613
1765410093.458865,-9.100907,-3.401482,-1.635581,1.077414,-0.088423,0.379195
1765410093.459115,-8.977760,-3.214968,-1.593735,1.089325,-0.083383,0.375224
1765410093.459365,-9.851745,-2.849115,-0.609756,1.083522,-0.071013,0.379500
1765410093.459615,-9.907937,-3.058345,-1.053324,1.094212,-0.078802,0.393245
1765410093.459902,-10.233739,-2.999760,-0.384983,1.103681,-0.078038,0.390190
1765410093.460152,-9.983858,-3.142037,-1.115495,1.106582,-0.067959,0.397521
1765410093.460402,-9.133189,-2.816236,-1.972740,1.129948,-0.088270,0.407600
1765410093.460652,-8.788857,-2.877809,-2.291965,1.121701,-0.089339,0.412639
1765410093.460874,-9.009444,-3.102582,-1.798182,1.129184,-0.087659,0.415694
1765410093.461207,-9.328072,-2.992587,-1.820899,1.131170,-0.074526,0.423177
1765410093.461541,-9.401003,-3.439741,-1.941654,1.122007,-0.088575,0.424857
1765410093.461916,-9.693327,-2.948350,-1.131635,1.126741,-0.073304,0.423482
1765410093.462166,-9.569583,-3.085844,-1.626016,1.119411,-0.064446,0.432645
1765410093.462416,-9.537301,-3.580822,-1.322334,1.124908,-0.079718,0.435700
1765410093.462666,-10.145862,-3.344093,-1.334290,1.132544,-0.085979,0.427758
1765410093.462786,-9.982663,-3.324964,-1.391678,1.149496,-0.086590,0.430202
1765410093.463036,-10.019128,-3.273553,-1.035390,1.149496,-0.080329,0.430202
1765410093.463286,-9.943806,-3.522238,-1.045552,1.162935,-0.071624,0.444557
1765410093.463536,-9.362743,-4.047106,-1.716882,1.184926,-0.078038,0.446542
1765410093.463798,-8.788857,-3.951458,-2.514347,1.191645,-0.106749,0.444404
1765410093.464131,-9.291008,-3.839072,-2.044476,1.212873,-0.106749,0.443183
1765410093.464465,-10.093853,-3.457675,-0.789096,1.221272,-0.085063,0.442266
1765410093.464766,-10.096842,-3.203610,-0.735294,1.230893,-0.082925,0.451888
1765410093.465016,-10.045432,-3.150406,-0.575084,1.227076,-0.076969,0.457996
1765410093.465266,-9.360353,-3.442730,-1.129842,1.231810,-0.098960,0.468381
1765410093.465516,-9.328072,-3.327355,-1.839431,1.249525,-0.098960,0.468534
1765410093.465835,-8.658535,-2.391200,-2.250717,1.238377,-0.099266,0.468075
1765410093.466085,-8.701577,-2.386418,-1.818508,1.241278,-0.102473,0.477544
1765410093.466335,-8.683642,-2.326638,-1.355811,1.222036,-0.092241,0.487318
1765410093.466585,-8.993303,-2.837159,-1.710904,1.209360,-0.115912,0.499688
1765410093.466782,-9.381873,-2.997369,-1.432329,1.210277,-0.115912,0.495412
1765410093.467032,-9.643710,-2.711621,-1.391081,1.193325,-0.117133,0.492357
1765410093.467282,-9.653275,-2.592659,-1.133429,1.202183,-0.114232,0.498619
1765410093.467532,-8.936513,-2.818029,-1.548900,1.197143,-0.089186,0.502131
1765410093.467839,-8.886894,-2.608202,-2.091105,1.205848,-0.112246,0.515570
1765410093.468172,-9.390841,-2.983620,-1.345050,1.200045,-0.111788,0.520610
1765410093.468506,-9.656264,-3.476207,-0.998326,1.218982,-0.113316,0.529009
1765410093.468897,-9.277258,-3.521640,-2.205882,1.244638,-0.107207,0.529773
1765410093.469147,-8.534193,-3.850430,-2.202295,1.236544,-0.092546,0.533133
1765410093.469397,-8.938306,-3.483979,-1.868723,1.257313,-0.099418,0.537561
1765410093.469647,-9.809898,-3.636418,-0.516499,1.259604,-0.107665,0.531758
1765410093.469862,-10.334169,-3.365614,-0.693448,1.273807,-0.109803,0.531758
1765410093.470112,-9.985652,-2.602821,-1.358202,1.287704,-0.096669,0.529162
1765410093.470362,-9.200740,-2.881994,-1.684600,1.285108,-0.106291,0.533591
1765410093.470612,-9.919893,-2.278216,-0.435198,1.286482,-0.116828,0.530536
1765410093.470837,-10.193686,-2.687709,-0.371832,1.275028,-0.097433,0.540310
1765410093.471087,-9.606049,-2.446795,-1.280488,1.281443,-0.111177,0.540616
1765410093.471337,-9.353777,-2.350550,-1.435916,1.269225,-0.122478,0.541685
1765410093.471587,-9.207316,-2.159852,-1.610473,1.273807,-0.122478,0.550237
1765410093.471863,-9.198349,-2.447991,-1.645146,1.268004,-0.107360,0.561691
1765410093.472196,-9.595885,-2.676948,-1.360593,1.266934,-0.116370,0.563370
1765410093.472530,-10.384384,-2.346963,-0.069345,1.284039,-0.113316,0.576962
1765410093.472823,-9.531323,-3.042802,-1.256576,1.281901,-0.127518,0.586125
1765410093.473073,-8.866570,-3.002152,-2.423481,1.302212,-0.127518,0.589027
1765410093.473323,-8.784073,-3.543758,-2.100669,1.306488,-0.110414,0.595746
1765410093.473573,-9.522954,-3.778694,-0.915830,1.329854,-0.116981,0.585972
1765410093.473802,-10.035269,-3.094213,-0.529651,1.341766,-0.116981,0.576810
1765410093.474052,-9.842180,-3.041009,-1.345050,1.341613,-0.114843,0.572992
1765410093.474302,-9.864896,-2.446198,-0.483620,1.353372,-0.110261,0.571312
1765410093.474552,-9.976088,-2.463534,-0.150048,1.348332,-0.108734,0.572686
1765410093.474759,-9.361548,-2.276423,-1.090387,1.350776,-0.127976,0.577115
1765410093.475009,-8.896460,-1.822094,-1.972142,1.349707,-0.127976,0.572381
1765410093.475259,-8.896460,-1.822094,-1.972142,1.349707,-0.134543,0.572381
1765410093.475509,-10.205045,-1.233859,0.138092,1.347111,-0.122784,0.593150
1765410093.475801,-9.598875,-1.146580,-0.816595,1.346194,-0.133932,0.604604
1765410093.476134,-9.577952,-1.545313,-0.971425,1.308168,-0.134238,0.611629
1765410093.476468,-9.766856,-1.964371,-1.322931,1.312597,-0.148440,0.624762
1765410093.476810,-9.766856,-1.964371,-1.322931,1.312597,-0.137750,0.624762
1765410093.477060,-9.473935,-2.564562,-0.942731,1.285871,-0.135001,0.635911
1765410093.477310,-9.221066,-2.335007,-1.762912,1.312749,-0.135001,0.642936
1765410093.477560,-9.514585,-3.225729,-1.233859,1.300685,-0.128893,0.642325
1765410093.477809,-9.518172,-3.498326,-1.530368,1.321760,-0.128893,0.633315
1765410093.478059,-10.358081,-2.737326,-0.422047,1.333061,-0.119424,0.613003
1765410093.478309,-10.041844,-2.709230,-0.152439,1.331534,-0.108734,0.600022
1765410093.478559,-9.705881,-1.452654,-0.964849,1.337337,-0.116370,0.598190
1765410093.478805,-9.934838,-1.414993,-0.777140,1.330617,-0.127365,0.610102
1765410093.479055,-10.130320,-1.654113,-0.322812,1.342376,-0.138514,0.617585
1765410093.479305,-9.826636,-1.725251,-0.242707,1.336115,-0.129503,0.615141
1765410093.479555,-9.204925,-1.611071,-1.938666,1.337795,-0.128893,0.614683
1765410093.479821,-8.874341,-1.233859,-1.707915,1.354288,-0.138056,0.622319
1765410093.480154,-9.211501,-1.527977,-1.095170,1.354288,-0.127976,0.622319
1765410093.480488,-9.605451,-1.659493,-0.720947,1.355204,-0.126602,0.644921
1765410093.480853,-9.509205,-2.189741,-1.236250,1.347874,-0.126602,0.644463
1765410093.481103,-8.888688,-2.294356,-2.120995,1.359175,-0.131336,0.648739
1765410093.481353,-9.384265,-2.342778,-1.603897,1.353830,-0.127213,0.646754
1765410093.481603,-9.557627,-2.431850,-1.041965,1.353830,-0.126907,0.646754
1765410093.481811,-9.921089,-2.583094,-0.625299,1.354594,-0.129809,0.636980
1765410093.482061,-9.810495,-2.088713,-0.467480,1.336420,-0.125380,0.609949
1765410093.482311,-9.286225,-1.086800,-1.008489,1.360702,-0.113316,0.607353
1765410093.482561,-9.148731,-1.131038,-1.165710,1.339017,-0.127518,0.617737
1765410093.482820,-9.671208,-0.755619,-1.116093,1.342529,-0.147371,0.622624
1765410093.483070,-9.553442,-0.813008,-0.799856,1.340391,-0.126144,0.625831
1765410093.483320,-9.916306,-0.778336,-0.552367,1.338864,-0.135918,0.630718
1765410093.483570,-10.355091,-0.234338,0.289335,1.340238,-0.126907,0.628428
1765410093.483879,-9.654470,-0.566714,-0.499163,1.336726,-0.126907,0.649502
1765410093.484129,-8.922764,-0.684481,-1.211143,1.347263,-0.135307,0.663858
1765410093.484379,-8.385341,-2.051052,-1.749163,1.336420,-0.141110,0.668134
1765410093.484629,-8.339908,-1.484935,-1.632592,1.353067,-0.153480,0.657902
1765410093.484894,-8.984336,-1.718077,-1.524988,1.343140,-0.151189,0.657444
1765410093.485227,-9.886416,-1.810139,-0.510521,1.361771,-0.156992,0.663705
1765410093.485561,-10.460305,-2.335007,0.047824,1.359328,-0.130267,0.651335
1765410093.485839,-10.405307,-2.091105,-0.147059,1.358106,-0.129962,0.628428
1765410093.486089,-10.332376,-1.073649,-0.040650,1.358106,-0.121104,0.628428
1765410093.486339,-9.865494,-0.380201,-0.168580,1.334893,-0.127518,0.614225
1765410093.486589,-9.675991,0.004185,-0.879364,1.330617,-0.127213,0.628580
1765410093.486918,-9.282639,-0.508130,-1.221305,1.314429,-0.127671,0.641867
1765410093.487168,-9.932447,-1.154352,-0.061573,1.293507,-0.137750,0.632856
1765410093.487418,-10.110592,-0.655189,-0.160210,1.302823,-0.136070,0.622624
1765410093.487668,-9.772237,-0.619919,-0.424438,1.293965,-0.128587,0.626137
1765410093.487838,-9.543280,-0.587040,-0.766977,1.295492,-0.123395,0.638660
1765410093.488088,-9.501433,-0.790889,-0.824964,1.299158,-0.131794,0.645532
1765410093.488338,-9.999999,-1.647537,-0.063367,1.299158,-0.141110,0.650419
1765410093.488588,-10.020324,-1.563845,-0.627092,1.311069,-0.133321,0.635147
1765410093.488846,-9.734576,-1.610473,-0.546987,1.317025,-0.132558,0.630108
1765410093.489096,-9.628167,-1.592539,-0.750837,1.321149,-0.120340,0.628428
1765410093.489346,-9.586919,-1.663080,-0.591822,1.335046,-0.128434,0.610254
1765410093.489596,-9.778812,-0.755619,-0.164993,1.336726,-0.127365,0.594372
1765410093.489837,-9.490674,-0.095648,-0.886537,1.322676,-0.127365,0.587652
1765410093.490087,-9.551649,0.319823,-0.710186,1.323439,-0.137750,0.596204
1765410093.490337,-9.571974,0.431612,-0.586442,1.311069,-0.125227,0.602924
1765410093.490587,-9.961740,-0.093257,-0.237924,1.301754,-0.133627,0.608269
1765410093.490838,-9.890601,0.502152,-0.301889,1.282053,-0.130572,0.597273
1765410093.491088,-10.551768,0.478240,-0.011956,1.258382,-0.135154,0.596663
1765410093.491338,-10.344332,0.539216,-0.349115,1.252121,-0.131183,0.608269
1765410093.491588,-10.084289,0.166786,-0.225968,1.237918,-0.132405,0.613003
1765410093.491882,-10.462696,0.018532,-0.025108,1.237460,-0.129809,0.624762
1765410093.492132,-10.369438,-0.621114,-0.211621,1.237918,-0.133932,0.629802
1765410093.492382,-10.467478,-1.178862,-0.120158,1.242042,-0.146455,0.614530
1765410093.492632,-10.466283,-1.023434,-0.205045,1.238377,-0.132710,0.602008
1765410093.492843,-10.216402,-0.832138,-0.246294,1.253495,-0.149662,0.599106
1765410093.493093,-10.034670,-0.874581,-0.404113,1.262506,-0.149662,0.592539
1765410093.493343,-10.034670,-0.874581,-0.404113,1.262506,-0.141263,0.592539
1765410093.493593,-9.392634,-0.102224,-0.466882,1.262811,-0.126144,0.569326
1765410093.493846,-9.142754,0.202056,-0.717360,1.249830,-0.139125,0.566883
1765410093.494096,-9.852343,0.638450,-0.569106,1.254870,-0.155465,0.568257
1765410093.494346,-10.241510,0.475251,0.181731,1.243874,-0.155465,0.568410
1765410093.494596,-10.241510,0.475251,0.181731,1.243874,-0.131031,0.568410
1765410093.494883,-9.155905,-0.069943,-0.310856,1.239446,-0.135918,0.571770
1765410093.495133,-9.502031,-0.074127,-0.276184,1.224937,-0.155160,0.564898
1765410093.495383,-9.866092,0.357484,-0.560736,1.221730,-0.171959,0.564287
1765410093.495633,-9.368722,0.114778,-1.068866,1.201419,-0.154854,0.564439
1765410093.495813,-8.842061,-0.221186,-1.429340,1.197754,-0.136223,0.576046
1765410093.496146,-8.811572,-0.998924,-1.232664,1.194852,-0.142179,0.568105
1765410093.496480,-8.898851,-1.211143,-0.475849,1.177901,-0.142179,0.549015
1765410093.496820,-9.990434,-0.293520,-0.243902,1.189049,-0.143401,0.539699
1765410093.497020,-9.995814,-0.157819,0.228957,1.183857,-0.134085,0.534965
1765410093.497220,-10.206838,0.020325,0.423242,1.188438,-0.135307,0.551459
1765410093.497420,-10.136894,-0.340746,-0.060976,1.187827,-0.140499,0.543365
1765410093.497620,-10.222979,-0.545194,0.167384,1.180039,-0.138208,0.525344
1765410093.497805,-9.885818,0.531444,-0.330583,1.180955,-0.135765,0.510531
1765410093.498055,-9.742945,0.804639,0.331779,1.166753,-0.136223,0.508698
1765410093.498305,-9.338832,0.864419,-0.549976,1.163240,-0.134696,0.520610
1765410093.498555,-9.057866,0.805237,-0.969632,1.148121,-0.142026,0.512363
1765410093.498848,-9.189383,0.630081,-0.196078,1.140944,-0.141263,0.516487
1765410093.499098,-9.637134,0.636657,-0.443568,1.140944,-0.135307,0.516487
1765410093.499348,-9.656861,0.304878,0.093257,1.135140,-0.136376,0.500604
1765410093.499598,-9.713653,0.858441,-0.206241,1.124908,-0.136376,0.504422
1765410093.499854,-10.076518,0.632472,-0.761597,1.128879,-0.147982,0.510683
1765410093.500104,-9.965326,0.474055,0.025705,1.109331,-0.147219,0.508698
1765410093.500354,-10.390960,-0.047824,0.302487,1.093143,-0.132558,0.503200
1765410093.500604,-9.819464,0.028694,-0.406504,1.094671,-0.130725,0.500910
1765410093.500854,-9.620994,0.254663,-0.497370,1.078483,-0.130725,0.498619
1765410093.501104,-9.620994,0.254663,-0.497370,1.078483,-0.142332,0.498619
1765410093.501354,-10.546388,0.047824,0.503945,1.084897,-0.142942,0.494954
1765410093.501604,-10.535626,-0.369440,0.389766,1.080621,-0.143859,0.485943
1765410093.501851,-10.602580,-0.075323,0.253467,1.078177,-0.145844,0.466090
1765410093.502101,-10.745455,0.282162,0.560736,1.080162,-0.135612,0.470977
1765410093.502351,-10.566712,-0.439383,0.416069,1.097114,-0.135001,0.474948
1765410093.502601,-10.136894,0.004782,0.256456,1.098641,-0.131794,0.460440
1765410093.502844,-10.083690,-0.374223,-0.040053,1.096809,-0.136070,0.449291
1765410093.503094,-10.590626,0.310856,0.943328,1.095892,-0.141110,0.437990
1765410093.503344,-11.101147,0.596604,1.384505,1.093754,-0.133321,0.436310
1765410093.503594,-10.839311,0.483022,1.272118,1.096503,-0.130572,0.441656
1765410093.503831,-9.852941,0.155428,-0.205643,1.076344,-0.142179,0.433103
1765410093.504081,-9.861309,0.582257,-0.361071,1.084133,-0.154243,0.430507
1765410093.504331,-9.483500,0.602582,-0.696437,1.066418,-0.141721,0.424246
1765410093.504581,-9.926469,1.256576,0.166188,1.062906,-0.151953,0.418901
1765410093.504816,-9.785987,1.131635,0.474653,1.038471,-0.125686,0.424093
1765410093.505066,-9.790769,0.939742,0.155428,1.017854,-0.141568,0.426842
1765410093.505316,-9.767454,0.752032,-0.286346,1.010371,-0.147982,0.416152
1765410093.505566,-9.780008,0.378407,0.071736,0.980591,-0.151189,0.410654
1765410093.505801,-9.921686,0.756815,-0.178144,0.989144,-0.146455,0.406989
1765410093.506051,-10.007172,1.126255,0.309660,0.964251,-0.142637,0.391870
1765410093.506301,-10.355091,1.044954,0.645624,0.948063,-0.142026,0.403018
1765410093.506551,-9.671208,0.735294,-0.337159,0.952339,-0.149662,0.399200
1765410093.506832,-9.074604,0.463893,-0.239120,0.936456,-0.149357,0.386678
1765410093.507082,-8.974174,0.542802,-0.753826,0.934929,-0.142484,0.389427
1765410093.507332,-9.922284,0.876375,0.180536,0.934013,-0.157909,0.385914
1765410093.507582,-10.308464,0.349115,0.533238,0.911106,-0.142637,0.384234
1765410093.507779,-10.060376,0.597800,-0.047824,0.916451,-0.141721,0.379347
1765410093.508029,-9.475131,0.783118,-0.468675,0.896903,-0.137139,0.377209
1765410093.508279,-9.931850,0.657580,0.150646,0.896445,-0.150578,0.382554
1765410093.508529,-10.372428,0.995935,0.503348,0.905150,-0.145691,0.376751
1765410093.508817,-10.443566,0.558345,0.838713,0.883617,-0.138666,0.376140
1765410093.509067,-10.041247,0.928383,0.125538,0.878730,-0.126602,0.363618
1765410093.509317,-10.074127,0.676710,-0.077714,0.846507,-0.149662,0.356440
1765410093.509567,-10.778334,0.946915,0.483022,0.845743,-0.155771,0.349873
1765410093.509869,-10.153633,0.915830,0.283955,0.830471,-0.128434,0.344681
1765410093.510119,-10.154231,1.478359,0.231349,0.812451,-0.143553,0.340557
1765410093.510369,-10.224771,0.981588,0.279770,0.784351,-0.143553,0.340405
1765410093.510619,-10.439382,0.760402,1.039574,0.780991,-0.161727,0.337350
1765410093.510868,-9.760879,1.053324,-0.382592,0.768010,-0.134238,0.326202
1765410093.511118,-9.392036,1.291846,-0.422047,0.750448,-0.142332,0.322384
1765410093.511368,-9.607842,1.428742,0.357484,0.741438,-0.159589,0.319635
1765410093.511618,-10.400524,1.397656,0.833333,0.731664,-0.159589,0.325744
1765410093.511823,-10.053802,0.888331,0.422047,0.718225,-0.134696,0.320857
1765410093.512023,-9.681969,1.255380,0.643233,0.714865,-0.126755,0.307723
1765410093.512223,-10.335963,1.663080,1.289455,0.696845,-0.136223,0.301157
1765410093.512423,-10.062170,1.898015,0.532042,0.684780,-0.143706,0.306043
1765410093.512623,-9.800333,1.674438,0.338355,0.661873,-0.151036,0.301309
1765410093.512824,-9.837397,1.652319,1.028216,0.646448,-0.136834,0.296270
1765410093.513074,-9.450620,2.042085,0.522477,0.643852,-0.135765,0.293826
1765410093.513324,-9.524748,2.097083,0.740076,0.606589,-0.135765,0.286038
1765410093.513574,-9.524748,2.097083,0.740076,0.606589,-0.138514,0.286038
1765410093.513834,-9.317311,1.832855,0.461502,0.588874,-0.134696,0.295353
1765410093.514084,-9.317311,1.832855,0.461502,0.588874,-0.119882,0.295353
1765410093.514334,-9.546865,2.135342,1.138809,0.543212,-0.113316,0.278096
1765410093.514584,-9.393829,1.906982,0.642037,0.522595,-0.113316,0.283747
1765410093.514748,-9.065040,1.805954,0.461502,0.517708,-0.114385,0.286801
1765410093.515081,-9.095528,1.614060,0.752032,0.495412,-0.100640,0.276875
1765410093.515415,-9.128407,1.752750,1.009086,0.481056,-0.098960,0.270766
1765410093.515809,-9.100310,1.661884,0.776542,0.453873,-0.098197,0.263436
1765410093.516059,-9.017216,1.514227,0.535031,0.433256,-0.098197,0.260839
1765410093.516309,-8.902437,1.530368,0.504543,0.418443,-0.086743,0.258396
1765410093.516559,-8.995695,1.080822,0.987566,0.405462,-0.073304,0.252745
1765410093.516827,-9.001673,1.345050,0.553563,0.396757,-0.073304,0.240223
1765410093.517077,-9.001673,1.345050,0.553563,0.396757,-0.077427,0.240223
1765410093.517327,-9.479315,1.475371,1.328312,0.357356,-0.052840,0.225715
1765410093.517577,-8.955045,1.759923,0.682090,0.346666,-0.044593,0.227700
1765410093.517835,-8.992107,1.457436,1.057508,0.320399,-0.047495,0.230449
1765410093.518085,-9.317909,1.066475,1.093974,0.311541,-0.046731,0.227853
1765410093.518335,-9.269487,0.750837,0.848278,0.300546,-0.037874,0.220217
1765410093.518585,-8.886297,0.819584,0.446557,0.283136,-0.026725,0.198989
1765410093.518818,-9.027975,1.420971,0.921808,0.268475,-0.016341,0.191812
1765410093.519018,-9.201338,1.287661,1.266140,0.245568,-0.010079,0.192423
1765410093.519218,-9.047703,1.310378,1.104735,0.233351,-0.010079,0.188452
1765410093.519418,-9.047703,1.310378,1.104735,0.233351,-0.000764,0.188452
1765410093.519618,-8.578431,0.394548,0.286944,0.209985,0.005040,0.176845
1765410093.519816,-8.928741,0.367049,0.871592,0.197157,0.005040,0.154091
1765410093.520066,-9.038736,0.827355,1.034194,0.187230,0.020769,0.140346
1765410093.520316,-8.738043,1.010282,0.506934,0.172875,0.020769,0.131336
1765410093.520566,-8.747010,0.995935,0.453730,0.155465,0.020922,0.130572
1765410093.520815,-8.973576,0.738881,0.613343,0.147524,0.030238,0.132863
1765410093.521065,-9.121830,0.412482,0.839909,0.133169,0.042608,0.123853
1765410093.521315,-9.221663,0.508728,0.931970,0.126144,0.058796,0.111330
1765410093.521565,-9.375896,0.407700,1.287661,0.114079,0.065821,0.104458
1765410093.521824,-9.442849,0.489000,0.987566,0.100335,0.062614,0.091172
1765410093.522024,-9.705881,0.597800,0.858441,0.087812,0.061239,0.084758
1765410093.522224,-9.796746,0.442372,0.970827,0.083994,0.068875,0.085368
1765410093.522424,-9.796746,0.442372,0.970827,0.083994,0.074220,0.085368
1765410093.522624,-10.129124,0.308465,0.920612,0.067195,0.074678,0.069486
1765410093.522969,-10.416068,0.239120,0.969632,0.060934,0.078954,0.062156
1765410093.523219,-10.523671,0.141081,1.085007,0.058032,0.078496,0.058185
1765410093.523469,-10.531443,0.234935,1.158536,0.046120,0.082009,0.047342
1765410093.523719,-10.698229,0.284553,1.000717,0.035583,0.080176,0.038790
1765410093.523847,-10.722141,0.109995,0.801052,0.031918,0.071166,0.039095
1765410093.524047,-10.817789,0.093855,1.067671,0.027794,0.069791,0.029627
1765410093.524247,-10.774747,0.146461,1.060497,0.019090,0.073304,0.023671
1765410093.524447,-10.772954,0.188905,0.909852,0.016341,0.060170,0.017562
1765410093.524647,-10.732902,0.111191,0.596604,0.011454,0.053298,0.017868
1765410093.524826,-10.741271,0.094452,0.587040,0.009621,0.052993,0.014661
1765410093.525026,-10.905067,0.111789,0.781922,0.010232,0.051924,0.009927
1765410093.525226,-11.079625,0.192492,1.239239,0.004276,0.040012,0.009010
1765410093.525426,-10.985173,0.095050,1.114299,0.004581,0.040012,0.010079
1765410093.525626,-10.807029,-0.066954,0.630081,0.003512,0.027184,0.010232
1765410093.525792,-10.632471,-0.261836,0.383190,-0.000764,0.010843,0.007636
1765410093.525992,-10.615732,-0.413678,0.387374,-0.001527,0.002749,0.000305
1765410093.526192,-10.459108,-0.167384,0.489598,-0.003207,0.007636,-0.006567
1765410093.526392,-10.127330,-0.029890,0.270206,0.000000,0.007330,-0.006720
1765410093.526592,-9.960544,0.007174,0.161406,-0.001985,0.001527,-0.003054
1765410093.526863,-10.096842,0.083094,0.233740,-0.001374,-0.003512,0.000611
1765410093.527063,-9.919893,-0.257054,0.174558,0.000000,-0.007025,0.003665
1765410093.527263,-9.865494,-0.208034,0.071736,-0.002443,-0.009316,-0.001527
1765410093.527463,-9.798540,0.027499,-0.026901,0.002443,0.001069,-0.000916
1765410093.527663,-9.717837,0.191296,-0.047226,0.003512,-0.002749,-0.001374
1765410093.527858,-10.087276,0.286944,0.424438,-0.004429,-0.009010,0.000611
1765410093.528058,-10.208033,0.170971,0.389766,-0.004734,-0.006414,0.007941
1765410093.528258,-10.081299,-0.108800,0.192492,-0.006414,-0.005192,0.007789
1765410093.528458,-10.037063,-0.199067,0.275586,-0.005956,-0.005498,0.003665
1765410093.528658,-10.150645,-0.091463,0.487207,-0.006872,-0.005651,-0.002749
1765410093.528798,-10.145862,0.112386,0.387374,-0.002443,-0.006414,-0.003054
1765410093.528998,-10.113581,0.176351,0.442970,-0.005956,-0.009163,-0.000153
1765410093.529198,-10.070539,0.071736,0.468675,-0.009010,-0.014966,0.005040
1765410093.529398,-10.082495,0.013152,0.358680,-0.009163,-0.015730,0.003665
1765410093.529598,-9.970706,-0.046031,0.257652,-0.009163,-0.013134,0.003665
1765410093.529824,-9.966521,-0.086083,0.288140,-0.006414,-0.014508,0.000305
1765410093.530024,-10.028693,0.051411,0.446557,-0.007178,-0.014508,-0.000611
1765410093.530224,-10.028693,0.051411,0.446557,-0.007178,-0.017257,-0.000611
1765410093.530424,-9.913916,0.001196,0.271999,-0.009010,-0.017562,0.002291
1765410093.530624,-9.960544,-0.113582,0.464491,-0.007941,-0.017868,0.002138
1765410093.530874,-9.967718,-0.094452,0.407700,-0.009468,-0.011912,0.003207
1765410093.531074,-9.880439,-0.045433,0.209828,-0.006414,-0.011912,-0.003054
1765410093.531274,-9.829028,0.029890,0.282162,-0.009468,-0.015272,-0.001833
1765410093.531474,-9.946198,0.059780,0.479436,-0.006720,-0.016952,-0.005192
1765410093.531674,-9.921089,0.051411,0.394548,-0.007025,-0.013286,-0.001985
1765410093.531805,-9.769248,-0.011956,0.270206,-0.010385,-0.014050,-0.002749
1765410093.532055,-9.770443,0.015543,0.364658,-0.007025,-0.013592,-0.002902
1765410093.532305,-9.879841,0.115375,0.443568,-0.007025,-0.014661,-0.002749
1765410093.532555,-9.849353,0.142276,0.315638,-0.005956,-0.011606,-0.000458
1765410093.533776,-9.757292,0.022716,0.267814,-0.010537,-0.011606,-0.002138
1765410093.533976,-9.796746,-0.043042,0.359876,-0.011606,-0.012828,-0.002138
1765410093.534176,-9.901959,0.005978,0.465686,-0.010385,-0.013439,-0.001527
1765410093.534376,-9.854136,0.057389,0.351506,-0.009468,-0.008705,-0.003360
1765410093.534576,-9.712457,-0.050215,0.240316,-0.013592,-0.009316,-0.000611
1765410093.533872,-9.792562,-0.041846,0.390961,-0.013134,-0.010385,-0.001527
1765410093.534072,-9.792562,-0.041846,0.390961,-0.013134,-0.012217,-0.001527
1765410093.534272,-9.814680,-0.022119,0.384385,-0.012675,-0.005956,-0.002749
1765410093.534472,-9.890003,-0.065758,0.466284,-0.014355,-0.007941,0.000153
1765410093.534672,-9.927068,-0.131516,0.487805,-0.009774,-0.009621,0.001374
1765410093.534836,-9.859515,-0.127929,0.382592,-0.014508,-0.009621,-0.003054
1765410093.535036,-9.859515,-0.127929,0.382592,-0.014508,-0.004734,-0.003054
1765410093.535236,-9.819464,-0.101626,0.387374,-0.011759,-0.006414,-0.002291
1765410093.535436,-9.897178,-0.070540,0.387972,-0.010537,-0.006414,-0.000916
1765410093.535636,-9.923481,-0.073529,0.389168,-0.010079,-0.002138,-0.002596
1765410093.535792,-9.852941,-0.186514,0.321019,-0.009927,-0.002138,0.001985
1765410093.535992,-9.870873,-0.119560,0.369440,-0.008399,-0.005498,0.000305
1765410093.536192,-9.929459,-0.044237,0.328790,-0.007025,-0.003054,-0.001680
1765410093.536392,-9.896580,-0.077116,0.325203,-0.006109,-0.004887,-0.001069
1765410093.536592,-9.973098,-0.102822,0.353898,-0.009010,-0.002596,0.000000
1765410093.536821,-9.946198,-0.077116,0.303682,-0.009774,0.000305,0.000153
1765410093.537021,-9.888808,-0.072334,0.173960,-0.006567,0.001833,0.000305
1765410093.537221,-9.870873,-0.056791,0.276184,-0.005956,-0.005498,-0.001222
1765410093.537421,-10.016738,-0.043042,0.419058,-0.002443,-0.005498,0.002596
1765410093.537621,-10.031085,-0.017336,0.376614,-0.002443,-0.006261,0.002596
1765410093.537782,-9.945600,-0.016738,0.270803,-0.008399,0.001222,-0.000916
1765410093.537982,-9.981467,-0.052606,0.357484,-0.006720,0.000153,0.001374
1765410093.538182,-10.090864,-0.044237,0.467480,-0.006414,-0.005192,0.002749
1765410093.538382,-10.100429,-0.022119,0.395744,-0.006109,-0.000305,0.000764
1765410093.538582,-9.925274,-0.029292,0.196078,-0.006567,0.002138,-0.000153
1765410093.538840,-9.939023,0.001196,0.292324,-0.006261,-0.003512,-0.002138
1765410093.539040,-10.103418,0.017934,0.419656,-0.010385,-0.011301,-0.000458
1765410093.539240,-10.049617,-0.015543,0.345528,-0.007941,-0.009010,0.001680
1765410093.539440,-9.919893,-0.005978,0.190698,-0.007636,-0.003360,0.000305
1765410093.539640,-9.880439,-0.039455,0.258250,-0.009316,-0.004123,-0.000458
1765410093.539864,-9.967119,-0.044835,0.362865,-0.005803,-0.004123,-0.003512
1765410093.540064,-9.983260,0.017336,0.260641,-0.004887,-0.005345,-0.000305
1765410093.540264,-9.877449,0.008369,0.179340,-0.006872,-0.003665,-0.003054
1765410093.540464,-9.911524,-0.046628,0.280966,-0.010079,-0.007025,-0.000764
1765410093.540664,-10.076518,-0.001196,0.383190,-0.007178,-0.009621,0.001069
1765410093.540839,-10.045432,0.074127,0.347322,-0.005040,-0.003054,-0.000916
1765410093.541039,-9.935436,-0.002989,0.303682,-0.005192,-0.005040,-0.001222
1765410093.541239,-10.014346,-0.039455,0.437590,-0.006872,-0.010843,-0.001069
1765410093.541439,-10.033475,0.003587,0.350311,-0.009010,-0.008552,-0.000458
1765410093.541639,-9.930056,0.005978,0.248087,-0.005040,-0.007178,-0.001374
1765410093.541761,-9.793758,0.007174,0.187111,-0.006720,-0.009621,-0.002291
1765410093.541961,-9.964130,0.021521,0.413678,-0.007483,-0.009621,-0.000916
1765410093.542161,-10.088473,0.047226,0.489000,-0.010843,-0.010232,-0.003360
1765410093.542361,-9.892993,0.007771,0.273195,-0.010690,-0.006414,-0.001374
1765410093.542561,-9.802725,-0.049020,0.203252,-0.007789,-0.008094,-0.001833
1765410093.542781,-9.955761,-0.068747,0.465088,-0.008552,-0.009927,-0.001833
1765410093.542981,-10.081897,-0.024510,0.542802,-0.009468,-0.008705,0.000153
1765410093.543181,-9.919893,-0.017934,0.290531,-0.009621,-0.005192,-0.001680
1765410093.543381,-9.714849,-0.050215,0.102822,-0.009010,-0.006109,-0.003207
1765410093.543581,-9.769846,-0.066954,0.254663,-0.009468,-0.010385,-0.003207
1765410093.543777,-9.949782,-0.054400,0.500956,-0.009621,-0.005498,-0.001985
1765410093.543977,-9.918698,-0.053204,0.379005,-0.007178,-0.005498,0.000764
1765410093.544177,-9.753705,-0.095648,0.174558,-0.008399,-0.003360,0.000305
1765410093.544377,-9.910329,-0.056193,0.352702,-0.008399,-0.008247,-0.001680
1765410093.544577,-10.098038,-0.066356,0.592420,-0.007789,-0.007178,-0.001069
1765410093.544785,-10.018531,-0.099235,0.487805,-0.006109,-0.009010,-0.002291
1765410093.544985,-9.839788,-0.052606,0.225371,-0.009774,-0.003971,-0.002749
1765410093.545185,-9.791965,-0.065758,0.159613,-0.006872,-0.005498,-0.001069
1765410093.545385,-9.960544,-0.054998,0.438785,-0.005803,-0.008247,-0.002596
1765410093.545585,-10.088473,-0.028097,0.561932,-0.010079,-0.007025,-0.000611
1765410093.545785,-9.952772,-0.088474,0.368245,-0.006414,-0.002596,0.000153
1765410093.545985,-9.775226,-0.077714,0.135103,-0.007941,-0.001985,0.000000
1765410093.546185,-9.855330,-0.041846,0.240316,-0.007636,-0.003665,-0.000305
1765410093.546385,-10.034670,-0.057389,0.467480,-0.005651,-0.007025,-0.003360
1765410093.546585,-10.081299,-0.039455,0.413678,-0.007941,-0.007025,-0.000153
1765410093.546799,-9.882831,-0.022119,0.233142,-0.005803,-0.004581,0.000458
1765410093.546999,-9.763269,-0.044237,0.200861,-0.007330,-0.005803,-0.000764
1765410093.547199,-9.912720,-0.107604,0.413678,-0.007636,-0.008094,0.000611
1765410093.547399,-9.995216,-0.066954,0.369440,-0.006720,-0.004734,0.000305
1765410093.547599,-9.933045,0.025108,0.251076,-0.007941,-0.004734,-0.002596
1765410093.547799,-9.933045,0.025108,0.251076,-0.007941,-0.005040,-0.002596
1765410093.547999,-10.011955,-0.064562,0.420851,-0.008399,-0.009316,-0.001069
1765410093.548199,-10.072333,-0.011956,0.403515,-0.006567,-0.008247,-0.000153
1765410093.548399,-9.850550,-0.005380,0.159613,-0.006872,-0.002443,0.000458
1765410093.548599,-9.805116,-0.058584,0.226566,-0.006109,-0.007483,0.000153
1765410093.548830,-9.805116,-0.058584,0.226566,-0.006109,-0.008094,0.000153
1765410093.549030,-10.051410,-0.014347,0.363462,-0.006261,-0.006109,-0.001833
1765410093.549230,-9.897775,0.016141,0.239120,-0.004581,-0.006109,-0.003512
1765410093.549430,-9.899570,-0.029890,0.296509,-0.006720,-0.006109,-0.001069
1765410093.549630,-10.005977,0.014945,0.410091,-0.005956,-0.008705,-0.002749
1765410093.549783,-10.002390,0.000000,0.337159,-0.006872,-0.004429,0.000000
1765410093.549983,-9.860114,-0.028694,0.252272,-0.008705,-0.008399,-0.000305
1765410093.550183,-9.916306,-0.026303,0.334170,-0.010537,-0.008399,-0.003207
1765410093.550383,-9.989837,0.020325,0.434601,-0.004887,-0.008094,-0.002749
1765410093.550583,-9.938425,-0.007174,0.293520,-0.008094,-0.007483,-0.003512
1765410093.550782,-9.842180,-0.026303,0.261239,-0.011454,-0.008094,-0.003665
1765410093.550982,-9.895385,-0.042444,0.326399,-0.010232,-0.009316,-0.002596
1765410093.551182,-9.938425,-0.014347,0.348517,-0.009163,-0.007178,-0.002443
1765410093.551382,-9.817670,-0.025108,0.202056,-0.005498,-0.004429,0.001069
1765410093.551582,-9.845766,-0.011956,0.317432,-0.012065,-0.014508,-0.002443
1765410093.551804,-9.962935,-0.044237,0.489000,-0.009010,-0.014508,-0.002138
1765410093.552004,-10.026900,-0.045433,0.449546,-0.007483,-0.007789,-0.000916
1765410093.552204,-9.904350,-0.056193,0.239120,-0.009163,-0.001069,-0.002291
1765410093.552404,-9.825441,-0.044237,0.269608,-0.009163,-0.003054,-0.002291
1765410093.552604,-9.979673,-0.084290,0.489000,-0.008094,-0.010079,0.000153
1765410093.552753,-10.019128,-0.068747,0.460306,-0.008399,-0.009010,-0.002749
1765410093.552953,-9.836202,-0.031086,0.200861,-0.008247,-0.004734,-0.002596
1765410093.553153,-9.769248,-0.043042,0.209230,-0.009163,-0.007025,0.000764
1765410093.553353,-9.878048,-0.051411,0.331181,-0.005651,-0.009927,0.000305
1765410093.553553,-10.046627,-0.067551,0.486011,-0.008094,-0.004887,0.001069
1765410093.553745,-9.991630,-0.038857,0.312052,-0.008552,-0.004887,0.000153
1765410093.553945,-9.862504,-0.034672,0.230153,-0.007636,-0.005192,-0.001374
1765410093.554145,-9.979075,-0.071736,0.441774,-0.008094,-0.008858,-0.001680
1765410093.554345,-10.021520,-0.100430,0.478240,-0.007178,-0.007025,0.000458
1765410093.554545,-9.929459,-0.013152,0.256456,-0.006261,-0.002749,-0.001527
1765410093.554784,-9.845766,-0.041846,0.181731,-0.005651,-0.002138,-0.000458
1765410093.554984,-9.899570,-0.077116,0.375418,-0.008858,-0.004734,-0.000764
1765410093.555184,-10.079505,-0.042444,0.495576,-0.006720,-0.009468,-0.000458
1765410093.555384,-9.960544,-0.020325,0.319225,-0.008247,-0.005040,0.000458
1765410093.555584,-9.807508,-0.070540,0.178742,-0.009927,-0.003818,-0.000764
1765410093.555801,-9.880439,-0.043042,0.363462,-0.009927,-0.010537,-0.000764
1765410093.556001,-10.020324,-0.029890,0.474653,-0.008552,-0.007636,0.000458
1765410093.556201,-9.909132,-0.020325,0.306074,-0.007330,-0.007483,-0.001527
1765410093.556401,-9.837996,-0.014347,0.179938,-0.008705,-0.004887,-0.000458
1765410093.556601,-9.945002,-0.034672,0.393950,-0.009468,-0.006567,-0.002443
1765410093.556972,-10.111190,-0.060976,0.545194,-0.009774,-0.011301,-0.001680
1765410093.557172,-10.057388,0.017934,0.416667,-0.005956,-0.004887,-0.001069
1765410093.557372,-9.929459,0.013749,0.245098,-0.007330,-0.000611,-0.001374
1765410093.557572,-9.947392,-0.049020,0.308465,-0.008399,-0.009774,-0.000458
1765410093.557772,-10.076518,-0.031086,0.514108,-0.011454,-0.007483,-0.000458
1765410093.557795,-9.999999,-0.004185,0.378407,-0.007483,-0.009468,0.000458
1765410093.557995,-9.811094,-0.026303,0.148852,-0.007941,-0.005345,-0.000611
1765410093.558195,-9.785987,-0.029292,0.188307,-0.005956,-0.009621,0.000153
1765410093.558395,-9.992227,-0.020923,0.474055,-0.007483,-0.009621,0.000153
1765410093.558595,-10.052606,-0.023912,0.459110,-0.006872,-0.010079,-0.000611
1765410093.558842,-9.843375,0.008369,0.151841,-0.006109,-0.007941,-0.004276
1765410093.559042,-9.823050,0.009565,0.233142,-0.008399,-0.006261,0.001069
1765410093.559242,-10.038857,-0.039455,0.503348,-0.011912,-0.009163,-0.000611
1765410093.559442,-10.099234,-0.043042,0.505141,-0.007178,-0.009163,-0.001222
1765410093.559642,-9.909132,-0.011956,0.279770,-0.003665,-0.005803,0.001069
1765410093.559841,-9.773433,-0.010760,0.163797,-0.009010,-0.005345,-0.001222
1765410093.560041,-9.773433,-0.010760,0.163797,-0.009010,-0.013286,-0.001222
1765410093.560241,-9.966521,-0.039455,0.428025,-0.006414,-0.005651,-0.002443
1765410093.560441,-9.939023,0.000000,0.310856,-0.007330,-0.002902,0.000764
1765410093.560641,-9.777617,-0.013749,0.133907,-0.008552,-0.005345,0.000458
1765410093.560830,-9.913916,-0.026303,0.332377,-0.009163,-0.010079,-0.001069
1765410093.561080,-10.060376,-0.086681,0.558345,-0.009621,-0.009774,-0.002138
1765410093.561330,-9.970706,-0.062171,0.399928,-0.008705,-0.002902,-0.002596
1765410093.561580,-9.808702,-0.010163,0.159613,-0.007941,-0.002902,-0.000764
1765410093.561883,-9.831419,-0.056193,0.227164,-0.007178,-0.010079,-0.002902
1765410093.562083,-9.978478,-0.026303,0.460306,-0.008858,-0.010690,-0.001222
1765410093.562283,-10.056790,-0.008369,0.423242,-0.008399,-0.005498,-0.000458
1765410093.562483,-9.824244,-0.044835,0.193089,-0.008705,-0.002596,0.000611
1765410093.562683,-9.744141,-0.096844,0.190698,-0.010843,-0.007941,-0.002443
1765410093.562834,-9.850550,-0.265423,0.849474,-0.008705,-0.009621,-0.002138
1765410093.563034,-9.354375,-0.001196,-0.041248,-0.011301,0.000305,-0.007025
1765410093.563234,-9.361548,0.516499,-0.260641,-0.007789,0.001374,-0.007178
1765410093.563434,-9.592299,0.119560,0.512912,-0.008858,0.005040,0.012523
1765410093.563634,-9.982065,-0.227762,1.065280,-0.009621,-0.000305,0.010385
1765410093.563867,-10.126732,-0.051411,0.787900,-0.011912,0.007025,-0.005956
1765410093.564067,-9.609037,-0.413678,-0.257054,-0.010843,-0.006261,0.002749
1765410093.564267,-9.685556,-0.357484,-0.206839,-0.005192,-0.006261,-0.003665
1765410093.564467,-10.313247,0.374821,0.924797,-0.000305,0.006872,-0.009316
1765410093.564667,-10.325203,0.537422,1.185437,-0.006414,0.018021,-0.001069
1765410093.564819,-9.753705,-0.038259,0.095648,-0.014050,0.009468,0.010079
1765410093.565019,-9.772835,-0.604376,0.090866,-0.007636,-0.005040,0.011606
1765410093.565219,-9.849353,-0.572095,0.188905,-0.005651,-0.005040,-0.007789
1765410093.565419,-9.947392,0.333572,0.587637,-0.004887,0.011148,-0.016035
1765410093.565619,-9.775226,0.555954,0.086681,-0.007941,0.012981,-0.003360
1765410093.565802,-9.784791,0.047226,0.206839,-0.009621,0.000764,0.010079
1765410093.566002,-10.022118,-0.367647,0.492587,-0.007789,0.003207,0.009621
1765410093.566202,-9.964728,-0.392157,0.503348,-0.009468,0.012065,-0.001985
1765410093.566402,-9.849353,-0.139287,0.222382,-0.007941,0.007178,-0.007789
1765410093.566602,-9.972500,0.114778,0.346724,-0.007330,0.004123,-0.006872
1765410093.566775,-10.011955,0.341942,0.356289,-0.007178,0.004123,-0.000458
1765410093.566975,-10.011955,0.341942,0.356289,-0.007178,0.012065,-0.000458
1765410093.567175,-9.789574,-0.228360,0.301291,-0.010232,0.005345,0.007330
1765410093.567375,-9.880439,-0.365854,0.289335,-0.010690,-0.000458,0.002138
1765410093.567575,-9.864896,-0.098039,0.202654,-0.006414,0.009010,-0.004887
1765410093.567766,-9.768052,0.112386,0.197274,-0.004123,0.013744,-0.004734
1765410093.567966,-9.787182,0.256456,0.251076,-0.008399,0.004887,-0.002902
1765410093.568166,-10.077712,0.125538,0.422047,-0.010537,0.004123,0.004123
1765410093.568366,-10.090864,-0.250478,0.332377,-0.007789,0.011148,0.004429
1765410093.568566,-9.995216,-0.331181,0.267217,-0.008705,0.010232,0.002138
1765410093.568822,-10.011955,-0.172166,0.424438,-0.009010,0.010232,-0.005345
1765410093.569022,-10.011955,-0.172166,0.424438,-0.009010,0.007025,-0.005345
1765410093.569222,-9.948587,0.241511,0.236729,-0.006567,0.005040,0.000764
1765410093.569422,-9.861907,0.159015,0.214012,-0.007483,0.010385,0.002291
1765410093.569622,-9.888808,-0.183525,0.300096,-0.009927,0.011912,0.005192
1765410093.569813,-10.065758,-0.364060,0.408895,-0.010079,0.004429,0.000305
1765410093.570013,-10.153036,-0.149450,0.370636,-0.007330,0.005040,-0.007636
1765410093.570213,-9.995216,0.185318,0.273792,-0.006414,0.010385,-0.005192
1765410093.570413,-9.978478,0.203252,0.353898,-0.012217,0.008705,0.001222
1765410093.570613,-10.037063,-0.041846,0.435198,-0.011148,0.001374,0.003971
1765410093.570836,-10.023313,-0.230153,0.193687,-0.007941,0.003512,0.003512
1765410093.571036,-9.968315,-0.105213,0.207437,-0.006261,0.007483,-0.002291
1765410093.571236,-10.038258,-0.021521,0.425036,-0.003665,0.008705,-0.002596
1765410093.571436,-10.171567,-0.001196,0.509923,-0.008858,0.001222,-0.002138
1765410093.571636,-10.171567,-0.001196,0.509923,-0.008858,-0.003971,-0.002138
1765410093.571819,-9.845766,-0.051411,0.035868,-0.008399,0.003818,-0.001985
1765410093.572019,-9.846962,-0.026303,0.212817,-0.008705,0.000764,-0.000611
1765410093.572219,-10.082495,-0.046031,0.434003,-0.009774,-0.000153,0.001527
1765410093.572419,-10.083690,-0.039455,0.326399,-0.007025,0.001374,-0.002443
1765410093.572619,-9.995814,-0.050215,0.211621,-0.004887,0.003360,-0.002902
1765410093.572784,-10.071735,-0.039455,0.442372,-0.008705,-0.002291,-0.001985
1765410093.573284,-10.119559,-0.069345,0.453132,-0.007941,-0.003512,-0.001985
1765410093.575800,-10.014943,-0.054998,0.168580,-0.008399,-0.000305,-0.003207
1765410093.577833,-9.860114,-0.086681,0.038259,-0.007178,-0.000305,-0.000916
1765410093.579898,-9.934240,0.023912,0.274988,-0.007178,-0.002138,-0.000764
1765410093.582786,-10.099234,0.002391,0.468675,-0.009010,-0.003207,0.001680
1765410093.585816,-9.998206,-0.093257,0.242707,-0.009468,-0.002443,0.000153
1765410093.587806,-9.895385,-0.135701,0.154830,-0.010690,-0.005803,-0.001527
1765410093.590804,-9.974891,-0.080105,0.283955,-0.009468,-0.005803,-0.004276
1765410093.592822,-10.068149,0.065758,0.468675,-0.007330,-0.005040,-0.002291
1765410093.594882,-9.943208,0.124342,0.244500,-0.009774,-0.002902,-0.000764
1765410093.597842,-9.836799,-0.025108,0.162004,-0.010385,-0.006567,0.000305
1765410093.600819,-9.881634,-0.157221,0.267814,-0.009316,-0.007636,0.000000
1765410093.601319,-10.022118,-0.126734,0.419656,-0.008094,-0.004887,-0.001680
1765410093.605776,-9.933045,-0.020325,0.242109,-0.009468,-0.004887,-0.006109
1765410093.607832,-9.919893,0.035868,0.267814,-0.010232,-0.005040,-0.001527
1765410093.610826,-10.023911,0.041846,0.412482,-0.008858,-0.008399,0.000000
1765410093.612779,-10.007771,-0.004782,0.422047,-0.004887,-0.008552,0.002138
1765410093.615884,-9.855929,-0.111191,0.255858,-0.010537,-0.007330,-0.002443
1765410093.616384,-9.861309,-0.184122,0.295911,-0.010385,-0.007941,-0.001069
1765410093.620764,-9.984456,-0.068149,0.346126,-0.006109,-0.011759,-0.003054
1765410093.622789,-9.970109,0.049020,0.329986,-0.009927,-0.004887,-0.002138
1765410093.625743,-9.842180,0.052606,0.259445,-0.007636,-0.004887,-0.001833
1765410093.627848,-9.886416,-0.007174,0.376016,-0.007789,-0.005956,0.000305
1765410093.630803,-9.976088,-0.108800,0.352702,-0.006567,-0.007330,0.002596
1765410093.632742,-9.878048,-0.159015,0.267814,-0.007789,-0.004734,-0.001374
1765410093.633784,-9.836202,-0.101626,0.306671,-0.006720,-0.004734,-0.004887
1765410093.637807,-9.836202,-0.101626,0.306671,-0.006720,-0.009621,-0.004887
1765410093.640781,-9.964130,0.053204,0.291129,-0.004734,-0.008247,0.000000
1765410093.642837,-9.856527,-0.020325,0.262434,-0.004734,-0.003512,0.000000
1765410093.645763,-9.891200,-0.105213,0.410689,-0.007941,-0.007178,0.002291
1765410093.647785,-9.910329,-0.087279,0.435198,-0.007789,-0.007178,-0.000153
1765410093.650789,-9.906742,-0.045433,0.278575,-0.007636,-0.002596,-0.001833
1765410093.651825,-9.876254,-0.004782,0.344333,-0.008552,-0.005345,-0.002596
1765410093.655844,-9.952174,-0.007174,0.430416,-0.008094,-0.008552,-0.000611
1765410093.657800,-9.971304,-0.016141,0.355691,-0.008094,-0.001833,-0.001527
1765410093.660770,-9.866092,-0.009565,0.276781,-0.008399,-0.000764,0.000000
1765410093.662787,-9.809898,-0.078910,0.304280,-0.009163,0.001222,0.000458
1765410093.665745,-9.941415,-0.059780,0.462099,-0.009927,-0.001374,-0.000153
1765410093.667854,-9.924676,-0.001793,0.376614,-0.008094,-0.001374,0.000458
1765410093.670802,-9.817072,-0.008369,0.216404,-0.007178,-0.000305,-0.001527
1765410093.672822,-9.826038,-0.070540,0.316834,-0.012065,0.000916,-0.001222
1765410093.675833,-9.907339,-0.089670,0.404711,-0.011606,-0.006261,-0.000458
1765410093.676813,-9.870873,-0.035270,0.279770,-0.007330,0.000916,-0.001527
1765410093.680840,-9.764465,-0.000598,0.203252,-0.009010,0.000916,-0.000916
1765410093.682844,-9.780008,-0.043042,0.254065,-0.009010,-0.001527,-0.000916
1765410093.684863,-9.927068,-0.034672,0.462099,-0.008094,-0.000916,-0.000916
1765410093.687845,-9.928263,-0.068149,0.382592,-0.007025,0.001833,-0.001069
1765410093.688860,-9.818267,-0.046628,0.219990,-0.009163,0.004276,-0.000305
1765410093.692778,-9.913916,-0.035868,0.340746,-0.005651,-0.001222,-0.001833
1765410093.695815,-9.913916,-0.035868,0.340746,-0.005651,0.002291,-0.001833
1765410093.696315,-9.942013,0.005380,0.341942,-0.008399,0.005345,-0.000305
1765410093.698858,-9.833811,-0.038259,0.246294,-0.007941,0.005345,0.000611
1765410093.702879,-9.947392,-0.081301,0.432807,-0.009621,0.000153,-0.000764
1765410093.705893,-10.027497,-0.041846,0.461502,-0.005040,0.000153,-0.002138
1765410093.707832,-9.951577,0.001196,0.264228,-0.005040,0.008705,-0.002138
1765410093.708845,-9.806311,0.028694,0.175155,-0.009010,0.003360,-0.000305
1765410093.714347,-9.815877,-0.019130,0.227164,-0.007636,-0.000153,0.001374
1765410093.715805,-9.900764,-0.052606,0.327594,-0.007025,0.003054,-0.000458
1765410093.717822,-9.967718,-0.065160,0.385581,-0.009621,0.003971,-0.000611
1765410093.720813,-9.979673,-0.053802,0.362267,-0.007941,0.002902,-0.000153
1765410093.722800,-9.900167,0.020325,0.247489,-0.007941,0.005803,-0.001069
1765410093.725810,-9.896580,0.009565,0.217599,-0.009010,0.000611,-0.003360
1765410093.727792,-9.953967,-0.040650,0.389168,-0.008705,0.002749,-0.002291
1765410093.730849,-10.016738,-0.043042,0.419656,-0.007025,0.003207,-0.000916
1765410093.732850,-9.912720,-0.008369,0.218795,-0.006261,0.004887,-0.001985
1765410093.735790,-9.930654,-0.025108,0.265423,-0.009927,0.001222,0.000764
1765410093.737805,-10.046029,-0.042444,0.422047,-0.007636,0.001222,-0.001527
1765410093.740764,-10.075322,-0.012554,0.398135,-0.007636,0.004429,-0.001527
1765410093.742819,-9.945002,-0.050813,0.198470,-0.007941,0.002749,-0.002291
1765410093.745832,-9.934240,-0.052009,0.263032,-0.007178,0.002749,-0.002291
1765410093.746332,-10.089668,-0.031086,0.439383,-0.007330,0.001069,-0.000458
1765410093.750809,-10.058583,-0.037064,0.370636,-0.005345,-0.000458,-0.000305
1765410093.751309,-9.886416,-0.013152,0.155428,-0.008552,0.001527,-0.001069
1765410093.755835,-9.891200,-0.032281,0.263032,-0.009621,0.003512,-0.001069
1765410093.757778,-10.021520,-0.020923,0.370636,-0.008858,-0.000916,0.000305
1765410093.758782,-9.994021,-0.044237,0.280966,-0.008399,0.001833,0.000305
1765410093.762821,-9.925871,-0.072334,0.248087,-0.006720,0.001833,-0.001985
1765410093.765900,-10.050214,-0.054998,0.338355,-0.005192,0.000305,-0.002291
1765410093.767796,-10.106407,-0.011956,0.456719,-0.005956,-0.001222,-0.003207
1765410093.770798,-10.037063,-0.029890,0.332377,-0.006567,-0.001374,-0.000458
1765410093.772747,-9.954566,-0.094452,0.228957,-0.005803,-0.004581,-0.001680
1765410093.775805,-9.931252,-0.014347,0.306074,-0.006567,-0.003512,-0.003054
1765410093.777767,-9.922284,-0.006576,0.276184,-0.009010,-0.006720,-0.001680
1765410093.780890,-9.911524,-0.046031,0.240316,-0.008552,-0.007636,-0.000611
1765410093.782831,-9.959946,-0.052606,0.301291,-0.007483,-0.003360,-0.001374
1765410093.785812,-9.959349,-0.020325,0.280368,-0.005956,-0.004581,-0.001527
1765410093.787825,-10.015541,0.005978,0.252272,-0.007483,-0.002902,-0.003512
1765410093.790812,-10.019128,-0.039455,0.412482,-0.009010,-0.005345,0.001069
1765410093.792947,-10.047226,-0.071736,0.448350,-0.007941,-0.004887,-0.001374
1765410093.795824,-9.997607,-0.102822,0.292324,-0.002902,-0.004581,-0.003512
1765410093.797788,-9.897178,-0.108800,0.277379,-0.008705,-0.007636,-0.004734
1765410093.800880,-9.968315,0.003587,0.413678,-0.004276,-0.010996,-0.003360
1765410093.802858,-9.974891,-0.003587,0.389766,-0.004429,-0.007483,-0.002902
1765410093.805934,-9.941415,-0.022119,0.316834,-0.005956,-0.016493,-0.001833
1765410093.807870,-9.957555,-0.086083,0.327594,-0.007636,-0.016493,-0.002749
1765410093.810360,-9.890601,-0.118364,0.198470,-0.006109,-0.012981,-0.005498
1765410093.814435,-9.867287,-0.059780,0.200263,-0.006567,-0.010690,-0.004429
1765410093.814935,-9.809898,-0.043042,0.142276,-0.008552,-0.004429,-0.004429
1765410093.817885,-9.828429,0.010760,0.142874,-0.005498,-0.011454,-0.004276
1765410093.819863,-9.898971,0.026303,0.217599,-0.009316,-0.007636,-0.005192
1765410093.822794,-9.898971,0.026303,0.217599,-0.009316,-0.001222,-0.005192
1765410093.825890,-9.958152,-0.102822,0.462697,-0.004734,-0.001069,-0.002138
1765410093.827823,-9.942610,-0.082496,0.353300,-0.006720,-0.006567,-0.007025
1765410093.830765,-9.851147,-0.018532,0.153037,-0.006109,-0.004581,-0.006414
1765410093.832804,-9.893590,-0.014347,0.322812,-0.006261,-0.002749,-0.004734
1765410093.835808,-9.919893,0.000598,0.471066,-0.006414,0.000305,-0.005040
1765410093.837797,-9.787182,-0.051411,0.251076,-0.007483,-0.002138,-0.003665
1765410093.838902,-9.754900,-0.081301,0.145863,-0.005803,-0.002138,-0.006261
1765410093.842807,-9.930654,-0.070540,0.384983,-0.006567,-0.005651,-0.006720
1765410093.845816,-9.956957,-0.074725,0.457915,-0.006720,-0.001527,-0.005345
1765410093.847784,-9.891200,-0.056193,0.333572,-0.007789,0.000153,-0.006109
1765410093.850844,-9.869080,-0.037661,0.319225,-0.007789,-0.004276,-0.006414
1765410093.852823,-9.858918,-0.001196,0.334768,-0.006414,-0.004276,-0.004581
1765410093.854885,-9.858918,-0.001196,0.334768,-0.006414,0.000764,-0.004581
1765410093.857873,-9.802725,-0.071736,0.319225,-0.005956,0.000611,-0.005345
1765410093.860808,-9.939023,-0.098637,0.335964,-0.007483,-0.008247,-0.003971
1765410093.862842,-9.942610,-0.076518,0.263032,-0.005345,-0.001680,-0.006414
1765410093.864836,-9.860114,-0.074127,0.237924,-0.003207,-0.001680,-0.005803
1765410093.867808,-9.860114,-0.074127,0.237924,-0.003207,0.002291,-0.005803
1765410093.868797,-9.887612,-0.001196,0.368843,-0.007636,0.000458,-0.006261
1765410093.872845,-9.875058,-0.021521,0.231349,-0.007025,0.000458,-0.007330
1765410093.875872,-9.875058,-0.021521,0.231349,-0.007025,0.000305,-0.007330
1765410093.877877,-9.959349,-0.116571,0.508130,-0.005345,0.001985,-0.006414
1765410093.878869,-9.843375,-0.074127,0.362267,-0.003818,0.002138,-0.007483
1765410093.882879,-9.818267,-0.014347,0.196078,-0.004123,0.001069,-0.008552
1765410093.885868,-9.879243,-0.019727,0.408895,-0.005498,0.001069,-0.004429
1765410093.887863,-9.957555,-0.054998,0.496174,-0.008858,0.001374,-0.004429
1765410093.888876,-9.936632,-0.032281,0.377810,-0.006414,-0.001985,-0.005498
1765410093.892871,-9.867287,-0.016738,0.254065,-0.008705,-0.001374,-0.006872
1765410093.894918,-9.808702,-0.087279,0.184122,-0.006109,-0.000764,-0.005956
1765410093.897848,-9.826038,-0.049617,0.197274,-0.004123,-0.000458,-0.008247
1765410093.900923,-9.939023,-0.007174,0.331181,-0.004887,0.002596,-0.005956
1765410093.902869,-9.961740,-0.047824,0.391559,-0.006414,0.003818,-0.002902
1765410093.903832,-9.970109,-0.062171,0.390961,-0.008399,0.003818,-0.006414
1765410093.907878,-9.905546,-0.063367,0.251076,-0.005498,0.003207,-0.007178
1765410093.910952,-9.901362,-0.047226,0.292922,-0.003207,0.002749,-0.006872
1765410093.912882,-9.936632,-0.026303,0.411884,-0.004429,0.003818,-0.008094
1765410093.914922,-9.955761,-0.069345,0.347920,-0.005956,0.002749,-0.007330
1765410093.918340,-9.921089,-0.082496,0.318030,-0.004123,0.001985,-0.005803
1765410093.920817,-9.923481,-0.109397,0.308465,-0.005498,-0.000611,-0.008858
1765410093.922825,-9.937828,-0.085485,0.270803,-0.004734,0.002902,-0.007636
1765410093.923802,-9.945002,-0.056193,0.269608,-0.005651,0.000458,-0.007636
1765410093.927860,-9.958152,-0.071138,0.380201,-0.004887,0.002902,-0.008552
1765410093.928884,-9.946198,-0.052606,0.176949,-0.002902,0.002902,-0.009163
1765410093.932844,-9.946198,-0.052606,0.176949,-0.002902,-0.000458,-0.009163
1765410093.935858,-9.931252,0.032281,0.315041,-0.004581,0.000458,-0.008247
1765410093.937848,-9.912720,0.012554,0.285748,-0.003665,0.001680,-0.005651
1765410093.940863,-9.917501,-0.028694,0.236729,-0.005651,0.003054,-0.007483
1765410093.942839,-9.990434,-0.063367,0.316834,-0.007941,0.001069,-0.004123
1765410093.945850,-9.970109,-0.154232,0.333572,-0.006872,0.003512,-0.008247
1765410093.947895,-9.854733,-0.175155,0.204448,-0.002902,0.001833,-0.007330
1765410093.950861,-9.931850,-0.047824,0.273792,-0.004276,-0.000305,-0.009316
1765410093.952840,-10.060975,-0.071736,0.404113,-0.001222,0.000153,-0.010537
1765410093.955861,-10.041844,-0.065758,0.363462,-0.001527,0.000153,-0.012981
1765410093.957848,-9.903154,-0.036466,0.221186,-0.003818,0.004429,-0.007941
1765410093.960900,-9.911524,-0.034075,0.243305,-0.005651,0.002138,-0.009010
1765410093.962851,-9.980869,0.038259,0.252272,-0.004429,0.000305,-0.010996
1765410093.963854,-10.005977,-0.009565,0.297704,-0.003054,0.000153,-0.009774
1765410093.967869,-10.071735,0.041846,0.419656,-0.003054,0.003512,-0.009774
1765410093.970811,-9.967718,-0.034672,0.399330,-0.004887,0.002443,-0.003818
1765410093.972817,-9.946198,-0.115973,0.344333,-0.008399,-0.001985,-0.006261
1765410093.975914,-9.961740,-0.180536,0.314443,-0.010079,-0.005651,-0.009468
1765410093.978824,-10.027497,-0.094452,0.367647,-0.004887,-0.005803,-0.009927
1765410093.980799,-9.911524,-0.089670,0.167384,-0.003818,-0.005498,-0.010079
1765410093.982830,-9.992227,-0.019130,0.350311,-0.008399,-0.007178,-0.013134
1765410093.983838,-9.899570,-0.015543,0.209230,-0.008399,0.000000,-0.009010
1765410093.987875,-9.794952,-0.083692,0.196078,-0.005803,-0.005345,-0.009010
1765410093.990872,-9.890601,-0.005380,0.332377,-0.005651,-0.006109,-0.013744
1765410093.992832,-9.937828,0.040650,0.364658,-0.004581,-0.004581,-0.008399
1765410093.995862,-9.912122,-0.053802,0.334170,-0.002902,-0.003207,-0.008094
1765410093.997867,-9.794355,-0.048422,0.181731,-0.005651,-0.005803,-0.012065
1765410094.000869,-9.969511,-0.076518,0.298900,-0.002443,-0.005803,-0.009316
1765410094.002890,-9.931850,-0.102822,0.325203,-0.001374,-0.004887,-0.011301
1765410094.003805,-9.895982,0.000000,0.224175,-0.001985,-0.004123,-0.011759
1765410094.007837,-9.750716,-0.074127,0.104017,-0.000611,-0.001527,-0.010232
1765410094.010873,-9.837996,-0.026303,0.267814,-0.000305,0.001374,-0.007789
1765410094.012834,-9.893590,-0.044237,0.276781,-0.000611,0.001374,-0.010232
1765410094.015844,-9.923481,-0.046628,0.414873,-0.002749,-0.001222,-0.013744
1765410094.018294,-9.878048,-0.006576,0.395744,-0.003818,0.003665,-0.013286
1765410094.020896,-9.725011,-0.033477,0.181731,-0.007178,0.001069,-0.009010
1765410094.022909,-9.879243,-0.017336,0.396939,-0.008094,-0.005803,-0.011759
1765410094.023898,-9.923481,0.022716,0.413080,-0.008552,-0.005803,-0.013286
1765410094.027890,-9.922284,-0.009565,0.389766,-0.004123,-0.002749,-0.010232
1765410094.030878,-9.744141,-0.154232,0.190100,-0.005956,-0.003360,-0.007330
1765410094.032851,-9.931850,-0.145863,0.347920,-0.006261,-0.006720,-0.011606
1765410094.035861,-9.927068,-0.067551,0.371234,-0.003512,-0.002749,-0.014355
1765410094.037819,-9.904350,-0.058584,0.277379,-0.005345,-0.003207,-0.011912
1765410094.040856,-9.915112,-0.069345,0.301291,-0.008094,-0.003665,-0.011912
1765410094.042812,-10.135101,-0.005978,0.606767,-0.002291,-0.004734,-0.012981
1765410094.045812,-9.946198,-0.178144,0.424438,-0.006414,-0.000764,-0.011912
1765410094.047856,-9.770443,-0.059182,0.080105,-0.004887,-0.003971,-0.015730
1765410094.050875,-9.827832,0.118364,0.166188,-0.000916,0.000458,-0.013286
1765410094.052848,-9.975489,0.016738,0.497370,0.000305,-0.004123,-0.007636
1765410094.055887,-10.160808,-0.025108,0.673123,-0.001527,0.008094,-0.012065
1765410094.057801,-9.823050,-0.170971,0.167384,-0.003207,0.008094,-0.009163
1765410094.060836,-9.781204,-0.202056,0.101028,-0.003054,-0.001833,-0.012065
1765410094.062815,-9.860114,-0.130320,0.341942,-0.002138,-0.001527,-0.014661
1765410094.065848,-9.959946,-0.026303,0.386777,-0.002596,0.001680,-0.018021
1765410094.067896,-9.879243,0.089072,0.189503,-0.000458,0.002596,-0.012828
1765410094.070837,-9.903752,-0.011956,0.306074,-0.005192,0.002596,-0.012828
1765410094.071337,-9.893590,0.011358,0.294715,-0.009010,0.003818,-0.011301
1765410094.075821,-9.945002,-0.120158,0.300693,-0.007178,-0.000305,-0.010537
1765410094.077811,-9.942610,-0.148254,0.369440,-0.007789,0.002443,-0.012828
1765410094.078874,-9.923481,-0.077714,0.276184,-0.004887,0.004734,-0.014661
1765410094.082824,-9.917501,-0.032281,0.223577,-0.005498,0.001222,-0.014050
1765410094.085812,-9.956359,-0.068149,0.380799,-0.005498,0.007483,-0.011606
1765410094.086312,-10.049019,-0.123147,0.480631,-0.001374,-0.001374,-0.011912
1765410094.088913,-10.065159,-0.138690,0.434601,-0.003512,-0.001374,-0.012217
1765410094.092866,-10.065159,-0.138690,0.434601,-0.003512,0.000305,-0.012217
1765410094.095838,-9.994021,-0.162602,0.381396,0.000611,0.000458,-0.016035
1765410094.097802,-9.919893,-0.132712,0.284553,-0.002749,-0.002138,-0.018326
1765410094.100866,-9.973696,0.092061,0.208632,0.000916,-0.001069,-0.019395
1765410094.102897,-9.941415,0.065160,0.236729,-0.001527,0.002443,-0.013897
1765410094.105806,-9.941415,0.065160,0.236729,-0.001527,-0.000611,-0.013897
1765410094.107880,-10.092658,-0.144668,0.573888,-0.000153,0.001680,-0.014203
1765410094.110836,-9.936632,-0.176949,0.364658,0.002443,0.000916,-0.014050
1765410094.112867,-9.866092,-0.148254,0.102822,-0.002138,-0.004276,-0.015730
1765410094.115880,-9.993423,-0.052606,0.229555,0.001222,-0.004276,-0.018021
1765410094.117907,-9.922284,-0.086083,0.206839,0.000305,-0.002291,-0.016341
1765410094.118855,-9.837996,0.081301,0.172166,-0.003207,0.004887,-0.016952
1765410094.124445,-9.798540,0.037661,0.273195,-0.005192,0.009010,-0.015119
1765410094.126391,-10.006575,-0.034672,0.522477,-0.005803,0.001680,-0.013439
1765410094.127874,-9.976685,-0.142276,0.373027,-0.004734,-0.003054,-0.013897
1765410094.128874,-9.795551,-0.179938,0.154232,-0.003054,0.003054,-0.017715
1765410094.132900,-9.659851,-0.079507,-0.054998,0.000305,-0.002138,-0.018021
1765410094.133882,-10.016139,0.077116,0.351506,-0.003054,-0.001222,-0.017868
1765410094.137846,-10.035867,-0.032281,0.418460,-0.002902,0.002443,-0.012981
1765410094.140892,-9.921089,-0.124940,0.279173,-0.003054,0.004887,-0.017715
1765410094.142880,-9.882831,-0.111191,0.218795,-0.002291,0.001680,-0.018784
1765410094.145891,-10.051410,-0.170373,0.528455,-0.002902,-0.003054,-0.016493
1765410094.146853,-9.839788,-0.102224,0.199067,-0.000916,0.000611,-0.019853
1765410094.150892,-9.839788,-0.102224,0.199067,-0.000916,0.000611,-0.019853
1765410094.152923,-9.748923,-0.020325,0.113582,0.001680,0.001374,-0.017868
1765410094.155842,-10.035867,0.053802,0.541009,0.000611,0.006414,-0.016646
1765410094.157867,-9.986848,-0.137494,0.445959,-0.001069,0.008399,-0.016341
1765410094.160911,-9.879841,-0.121951,0.271401,-0.000458,0.003665,-0.016493
1765410094.161411,-9.814680,-0.138092,0.257652,0.002749,-0.002443,-0.018937
1765410094.165818,-9.787182,-0.062171,0.222382,-0.000153,-0.002596,-0.021228
1765410094.167827,-9.851745,0.041846,0.167982,0.001680,-0.003818,-0.018326
1765410094.168847,-9.959349,-0.020923,0.282162,-0.000611,0.000305,-0.016952
1765410094.172887,-9.983260,-0.094452,0.324008,0.000305,-0.000916,-0.018784
1765410094.175840,-9.978478,-0.106408,0.280966,0.000458,0.002443,-0.018937
1765410094.177847,-9.941415,-0.112984,0.343735,-0.002902,0.005040,-0.019853
1765410094.180874,-9.940218,-0.083094,0.395744,-0.002291,0.000916,-0.020464
1765410094.182844,-9.868484,-0.041846,0.288140,-0.002291,0.000305,-0.019853
1765410094.185933,-9.876852,0.025108,0.269608,-0.002902,0.000305,-0.019700
1765410094.187898,-9.931850,-0.062769,0.288737,-0.000764,-0.000305,-0.018479
1765410094.188850,-9.955761,-0.159613,0.359278,-0.002291,-0.000458,-0.016952
1765410094.192856,-9.955761,-0.159613,0.359278,-0.002291,0.002596,-0.016952
1765410094.195871,-9.860114,-0.136298,0.301291,-0.000764,0.001985,-0.020464
1765410094.197890,-9.832614,-0.144668,0.296509,-0.001680,0.000916,-0.023213
1765410094.200848,-9.983260,0.084290,0.383190,-0.002291,0.004887,-0.024129
1765410094.202852,-9.974891,-0.017336,0.431612,0.001985,0.002138,-0.017104
1765410094.205905,-9.953370,-0.077116,0.449546,-0.001222,0.001222,-0.018631
1765410094.207862,-9.994021,-0.134505,0.336561,-0.002596,-0.000153,-0.022755
1765410094.210939,-9.876852,-0.108202,0.129125,-0.002749,0.000000,-0.021838
1765410094.212903,-9.744141,-0.063965,0.020325,0.000153,0.002596,-0.020922
1765410094.218470,-9.829028,-0.028097,0.324008,0.000458,0.005192,-0.019090
1765410094.218970,-9.974891,-0.066954,0.511717,-0.000305,0.002596,-0.019853
1765410094.220948,-9.925274,-0.125538,0.395744,0.002291,0.004887,-0.016952
1765410094.222376,-9.812290,-0.205643,0.026901,-0.001069,0.002138,-0.020617
1765410094.225836,-9.913916,-0.124342,0.246294,0.003054,-0.000764,-0.023518
1765410094.227859,-9.941415,-0.184720,0.360473,-0.001985,0.011301,-0.023976
1765410094.230911,-9.869678,-0.129723,0.383190,-0.001985,0.011301,-0.025351
1765410094.232880,-9.720228,-0.011956,0.069943,-0.003207,0.006872,-0.024587
1765410094.235858,-9.976088,0.113582,0.423840,-0.001833,-0.000611,-0.023824
1765410094.237878,-10.018531,-0.005978,0.434003,-0.001833,0.003971,-0.023824
1765410094.238912,-9.868484,-0.106408,0.227762,-0.003512,0.004581,-0.017562
1765410094.242910,-9.873264,-0.272597,0.235533,-0.004276,0.004581,-0.021075
1765410094.245911,-9.873264,-0.272597,0.235533,-0.004276,-0.000916,-0.021075
1765410094.247844,-9.924676,-0.179340,0.306074,0.002138,0.003512,-0.025504
1765410094.250849,-9.887612,-0.022119,0.144070,0.001833,0.000916,-0.025962
1765410094.251894,-9.978478,-0.092061,0.197274,0.000764,0.004887,-0.023213
1765410094.255831,-10.072930,-0.188307,0.443568,0.005956,0.002902,-0.022602
1765410094.257848,-9.964130,-0.182329,0.417264,0.001680,0.009468,-0.025198
1765410094.260861,-9.866092,-0.083692,0.263032,0.000305,0.003665,-0.027794
1765410094.263817,-9.890003,0.019727,0.354495,0.001069,0.003665,-0.025045
1765410094.264317,-9.890003,0.019727,0.354495,0.001069,0.000611,-0.025045
1765410094.267803,-9.819464,-0.010760,0.067551,-0.003054,-0.000305,-0.021686
1765410094.270858,-9.891200,-0.141081,0.169177,-0.001985,0.005040,-0.021991
1765410094.272913,-10.010161,-0.236729,0.484218,-0.000916,0.007025,-0.021380
1765410094.275876,-9.936632,-0.184720,0.502750,0.000000,0.007025,-0.024129
1765410094.277875,-9.894188,-0.185318,0.351506,-0.002902,0.003818,-0.028253
1765410094.279920,-9.772237,-0.227164,0.106408,0.000458,-0.005040,-0.028100
1765410094.280979,-9.806910,-0.108800,0.071736,0.007025,-0.008247,-0.028405
1765410094.285854,-9.788378,-0.080105,0.065160,0.004429,0.007178,-0.026725
1765410094.287908,-9.744141,-0.052606,0.154232,0.004887,0.007178,-0.025045
1765410094.290007,-9.744141,-0.052606,0.154232,0.004887,0.006109,-0.025045
1765410094.292966,-10.019128,0.019130,0.387972,-0.001069,0.005956,-0.028405
1765410094.295889,-9.919296,-0.090866,0.298900,0.002443,0.005956,-0.024435
1765410094.297917,-9.739358,-0.144668,0.096246,0.002291,0.004887,-0.023976
1765410094.298909,-9.946198,-0.059780,0.477642,0.000764,0.004887,-0.026725
1765410094.302944,-9.982065,-0.199067,0.548780,0.000764,0.003971,-0.026725
1765410094.305928,-9.879243,-0.271401,0.145265,0.004734,0.000000,-0.022907
1765410094.307925,-9.784791,-0.199665,0.095648,0.001222,0.001985,-0.027336
1765410094.310393,-9.766259,-0.217599,0.074127,0.004887,-0.002596,-0.030391
1765410094.310919,-9.933643,-0.060976,0.301291,0.006109,-0.003360,-0.031154
1765410094.315892,-9.893590,0.084888,0.266619,0.003971,0.006109,-0.032681
1765410094.317914,-9.696915,0.091463,0.004782,0.004581,0.006567,-0.026878
1765410094.320945,-9.766856,0.008369,0.228360,-0.001222,0.007178,-0.024435
1765410094.321445,-9.980869,-0.054998,0.510521,-0.001222,0.006872,-0.024435
1765410094.325881,-9.919893,-0.192492,0.291726,0.004581,0.007025,-0.025962
1765410094.326875,-9.925871,-0.233142,0.281564,0.001680,0.003054,-0.029780
1765410094.330907,-10.007172,-0.224175,0.476447,-0.000305,0.005956,-0.028558
1765410094.332868,-9.983260,-0.198470,0.471066,0.003054,0.006567,-0.028711
1765410094.335882,-9.783595,-0.144668,0.137494,0.005192,0.003512,-0.031001
1765410094.337882,-9.648493,-0.081899,-0.193687,0.006567,-0.000153,-0.026267
1765410094.340921,-9.745934,-0.089670,0.030488,0.004276,-0.000153,-0.029932
1765410094.342918,-10.004781,-0.002391,0.406504,0.002902,0.007483,-0.029322
1765410094.345865,-9.921089,-0.005978,0.500956,0.000611,0.016799,-0.028253
1765410094.347826,-9.851745,-0.054998,0.334768,-0.002138,0.009010,-0.030543
1765410094.350879,-10.098038,-0.007174,0.585844,0.002138,0.004429,-0.032070
1765410094.352847,-9.986848,-0.107604,0.514108,0.005192,0.003512,-0.023824
1765410094.355946,-9.791965,-0.270206,0.200263,-0.000305,0.001374,-0.025198
1765410094.356446,-9.794355,-0.357484,0.019727,-0.000458,0.001374,-0.032376
1765410094.360866,-9.863700,-0.318030,0.049020,0.005956,-0.000305,-0.032376
1765410094.362870,-10.015541,-0.148254,0.240316,0.007025,0.003054,-0.035736
1765410094.365917,-9.973696,0.006576,0.439383,0.003054,0.017868,-0.037721
1765410094.367946,-9.803921,-0.023912,0.225371,0.001985,0.012828,-0.031612
1765410094.370910,-9.981467,-0.059780,0.371234,0.003054,-0.000305,-0.031001
1765410094.372928,-10.173361,-0.063965,0.653395,0.000305,0.004887,-0.032376
1765410094.375913,-9.903154,-0.094452,0.312052,0.001069,0.010843,-0.032834
1765410094.377938,-9.742347,-0.124342,0.115973,-0.000305,0.003360,-0.030696
1765410094.380910,-9.739956,-0.219990,0.126734,-0.003054,-0.000153,-0.029932
1765410094.382962,-9.936632,-0.168580,0.199665,0.005040,-0.001374,-0.030849
1765410094.384929,-9.840983,-0.252272,0.141679,0.004887,0.006109,-0.031154
1765410094.387990,-9.904350,-0.253467,0.232544,0.004429,0.007330,-0.033750
1765410094.390934,-9.930056,-0.216404,0.219393,0.005498,0.009468,-0.034972
1765410094.392945,-9.911524,-0.142276,0.163797,0.001985,0.006872,-0.038179
1765410094.394915,-9.873863,-0.064562,0.215208,0.007025,0.012981,-0.036957
1765410094.397892,-9.926469,0.045433,0.529651,0.006109,0.012828,-0.037110
1765410094.400915,-10.190099,0.101626,0.740076,0.003054,0.009927,-0.034208
1765410094.402993,-10.049019,-0.026303,0.456121,0.005040,0.003665,-0.029780
1765410094.405945,-9.803921,-0.198470,-0.019727,0.002749,0.000458,-0.027794
1765410094.406926,-9.780008,-0.361669,-0.145265,0.001374,-0.004887,-0.029932
1765410094.410946,-10.015541,-0.245098,0.083692,0.003054,0.001527,-0.037263
1765410094.412930,-10.011955,-0.206839,0.284553,0.007789,0.021686,-0.035125
1765410094.415966,-9.842180,-0.114180,0.285748,0.004887,0.021686,-0.038943
1765410094.417968,-9.842180,-0.114180,0.285748,0.004887,0.015730,-0.038943
1765410094.419969,-10.008965,-0.096246,0.469871,0.002291,0.005040,-0.032834
1765410094.423114,-10.166186,-0.127929,0.549976,0.004123,0.004887,-0.033903
1765410094.425874,-9.972500,-0.203252,0.401722,0.005956,0.013439,-0.032987
1765410094.426374,-9.760879,-0.169775,0.251076,0.007483,0.007178,-0.032376
1765410094.428987,-9.846962,-0.134505,0.254663,0.001833,-0.003360,-0.035430
1765410094.432964,-9.925871,-0.025108,0.164993,0.000916,-0.001680,-0.036041
1765410094.435920,-9.851745,-0.173960,0.014945,0.007636,0.008247,-0.032681
1765410094.437949,-9.807508,-0.303682,0.203252,0.006567,0.007330,-0.032681
1765410094.439958,-10.001194,-0.254663,0.460306,0.003512,0.007636,-0.036346
1765410094.442919,-9.995216,-0.169775,0.319225,0.003818,0.008858,-0.038637
1765410094.445909,-9.811094,-0.206839,0.099235,0.004581,0.010996,-0.037568
1765410094.447936,-9.814680,-0.100430,0.269010,0.008399,0.010996,-0.037721
1765410094.450898,-9.968913,-0.075323,0.517695,0.006720,0.009927,-0.039095
1765410094.452885,-9.895385,-0.084888,0.319225,0.006414,0.005040,-0.033598
1765410094.455930,-9.768650,-0.065758,0.070540,0.006261,0.010690,-0.034208
1765410094.456876,-9.769846,-0.181731,0.138690,0.003971,0.003207,-0.034819
1765410094.460858,-9.968913,-0.242707,0.322812,0.006261,0.003207,-0.034514
1765410094.462843,-9.968913,-0.242707,0.322812,0.006261,0.004123,-0.034514
1765410094.465894,-9.799736,-0.175753,0.121951,0.005040,0.013592,-0.037721
1765410094.467893,-9.714250,-0.231349,0.124342,0.010537,0.013286,-0.034667
1765410094.470871,-9.714250,-0.231349,0.124342,0.010537,0.006414,-0.034667
1765410094.471883,-10.032877,-0.257054,0.362865,0.007178,0.004276,-0.043830
1765410094.473909,-10.032877,-0.257054,0.362865,0.007178,0.010385,-0.043830
1765410094.476084,-9.674795,-0.011956,0.036466,0.010537,0.008399,-0.039859
1765410094.478920,-9.980272,-0.011956,0.596604,0.003665,0.008399,-0.039859
1765410094.482931,-10.133308,-0.112984,0.482425,0.003207,0.004887,-0.040775
1765410094.483924,-9.922883,-0.240316,-0.064562,0.005651,0.007636,-0.039706
1765410094.487848,-9.861309,-0.211023,0.013749,0.008094,0.013592,-0.040164
1765410094.490922,-10.032877,-0.208034,0.518890,0.010385,0.013592,-0.038943
1765410094.491422,-10.062170,-0.195481,0.432807,0.005651,0.014355,-0.042608
1765410094.493886,-9.887612,-0.109995,0.117169,0.006567,0.015119,-0.041233
1765410094.497962,-9.744141,-0.212817,0.101626,0.005345,0.011606,-0.041539
1765410094.500863,-10.112385,-0.044835,0.719153,0.007636,0.012370,-0.040623
1765410094.502915,-10.074127,-0.239120,0.593018,0.006872,0.005498,-0.039859
1765410094.505904,-9.782400,-0.282162,-0.078910,0.004429,0.005498,-0.044440
1765410094.507868,-9.654470,-0.087279,-0.273792,0.004581,0.007789,-0.044899
1765410094.508906,-9.913916,-0.081301,0.253467,0.006720,0.010843,-0.041997
1765410094.514371,-10.076518,-0.172166,0.664754,0.006872,0.015730,-0.038026
1765410094.515929,-9.934240,-0.121951,0.388570,0.003971,0.019090,-0.041844
1765410094.517940,-9.735173,-0.295313,-0.044835,0.005651,0.011454,-0.037721
1765410094.520908,-9.772237,-0.286944,-0.041846,0.008399,0.001833,-0.041233
1765410094.522840,-10.243901,-0.177547,0.704208,0.007636,0.005498,-0.046120
1765410094.525898,-10.146461,-0.094452,0.645624,0.006414,0.022144,-0.044135
1765410094.527918,-10.146461,-0.094452,0.645624,0.006414,0.009621,-0.044135
1765410094.530844,-9.913916,-0.196078,0.235533,0.003360,-0.001069,-0.044135
1765410094.532879,-10.095646,-0.181133,0.365854,0.005956,0.001833,-0.041997
1765410094.535918,-9.788976,-0.222382,0.057389,0.008094,0.007330,-0.043677
1765410094.537881,-9.733380,-0.184122,0.066954,0.007941,0.010996,-0.047342
1765410094.538880,-9.733380,-0.184122,0.066954,0.007941,0.012065,-0.047342
1765410094.542877,-10.197870,-0.148254,0.557150,0.008399,0.001527,-0.044288
1765410094.545892,-9.979673,-0.264825,0.427427,0.011912,0.011301,-0.042761
1765410094.547855,-9.597679,-0.315041,-0.086681,0.012217,0.009010,-0.041844
1765410094.550904,-9.807508,-0.294118,0.041846,0.004734,-0.002138,-0.046578
1765410094.552877,-10.143471,-0.216404,0.463295,0.007330,-0.002749,-0.048869
1765410094.555892,-10.001792,-0.093855,0.309063,0.012217,0.009468,-0.047800
1765410094.557859,-9.647895,-0.117767,-0.098039,0.006414,0.014203,-0.046426
1765410094.560826,-9.728598,-0.142276,-0.014347,0.005345,0.004429,-0.043677
1765410094.562878,-10.053802,-0.235533,0.399330,0.007636,0.004429,-0.045357
1765410094.565947,-10.160210,-0.233142,0.671329,0.008552,0.014203,-0.047800
1765410094.567957,-9.927068,-0.150646,0.407700,0.007330,0.020006,-0.047647
1765410094.570949,-9.747727,-0.242707,0.081301,0.005345,0.006567,-0.046120
1765410094.572933,-10.210424,-0.217599,0.551172,0.008094,-0.006872,-0.048869
1765410094.573940,-10.133906,-0.203850,0.237924,0.009621,0.007330,-0.045357
1765410094.577927,-9.793160,-0.372429,0.085485,0.010079,0.012828,-0.049327
1765410094.580899,-9.654470,-0.252272,0.180536,0.007330,0.019242,-0.049175
1765410094.582855,-9.953967,-0.164993,0.429220,0.013134,0.004734,-0.048564
1765410094.583861,-10.040649,-0.170373,0.422047,0.010079,0.001680,-0.050549
1765410094.587947,-9.886416,-0.056193,0.066356,0.012828,0.010996,-0.049022
1765410094.590887,-9.570778,-0.197274,-0.105213,0.012675,0.013134,-0.046120
1765410094.592936,-9.808702,-0.277379,0.237924,0.008094,0.007636,-0.047953
1765410094.593967,-10.200262,-0.242707,0.729914,0.006872,0.007636,-0.049938
1765410094.597968,-10.014346,-0.142276,0.521282,0.008399,0.017562,-0.051160
1765410094.598936,-9.707077,0.003587,-0.065758,0.008858,0.014355,-0.049327
1765410094.601976,-9.709468,-0.172166,-0.031086,0.008399,0.006872,-0.042455
1765410094.605965,-9.838593,-0.308465,0.148254,0.006872,0.005803,-0.046578
1765410094.606465,-9.907937,-0.272597,0.255858,0.007636,0.014508,-0.047800
1765410094.610936,-9.770443,-0.240316,0.260641,0.008858,0.025809,-0.047953
1765410094.612954,-9.832614,-0.228360,0.434003,0.008705,0.014661,-0.047037
1765410094.615998,-10.102820,-0.176949,0.534433,0.009774,0.008094,-0.048717
1765410094.618409,-10.103418,-0.173362,0.396939,0.007483,0.010996,-0.043371
1765410094.620934,-9.618005,-0.432807,-0.194285,0.010690,0.010996,-0.044593
1765410094.622916,-9.728000,-0.326399,-0.081899,0.009010,0.006567,-0.053451
1765410094.625952,-10.052606,-0.071736,0.429220,0.009621,0.012828,-0.054062
1765410094.627905,-9.945600,-0.078910,0.333572,0.010232,0.016646,-0.048869
1765410094.630930,-9.722619,-0.325801,0.096844,0.010232,0.012217,-0.047189
1765410094.632968,-9.937828,-0.289335,0.286944,0.006872,0.012217,-0.053603
1765410094.635916,-10.076518,-0.286944,0.353300,0.008705,0.010537,-0.049786
1765410094.637913,-9.863102,-0.279770,0.109995,0.007483,0.010079,-0.053298
1765410094.640909,-9.793160,-0.057389,0.193687,0.008094,0.017715,-0.057727
1765410094.642857,-9.692730,-0.084888,0.104017,0.007941,0.014661,-0.050091
1765410094.643901,-9.835006,-0.273792,0.181731,0.009621,0.006109,-0.048717
1765410094.646929,-9.934240,-0.298302,0.202654,0.009621,0.010079,-0.048717
1765410094.650937,-9.832614,-0.192492,0.025108,0.013134,0.018173,-0.053909
1765410094.652919,-9.747129,-0.121353,0.065758,0.008705,0.018173,-0.047800
1765410094.655876,-9.747129,-0.121353,0.065758,0.008705,0.010537,-0.047800
1765410094.656376,-10.071735,-0.273792,0.573888,0.006567,0.018784,-0.047495
1765410094.660941,-9.528933,-0.410091,-0.277379,0.012981,0.013592,-0.049327
1765410094.662956,-9.502629,-0.219990,-0.121951,0.011301,0.012981,-0.057116
1765410094.665933,-9.787780,-0.077714,0.198470,0.012523,0.012981,-0.051313
1765410094.667874,-9.939621,-0.304878,0.331779,0.012065,0.010079,-0.049480
1765410094.670902,-9.615613,-0.307269,-0.096844,0.013592,0.019700,-0.053451
1765410094.672923,-9.630558,-0.283357,-0.050215,0.008552,0.020006,-0.054214
1765410094.675918,-9.992825,-0.277379,0.367647,0.009774,0.012981,-0.053756
1765410094.677938,-10.141079,-0.302487,0.530846,0.009774,0.010385,-0.054214
1765410094.680909,-9.800333,-0.357484,-0.007174,0.007330,0.018784,-0.056505
1765410094.682880,-9.532519,-0.228360,-0.274988,0.009468,0.016646,-0.059407
1765410094.685909,-9.813485,-0.176949,0.391559,0.011454,0.016646,-0.056963
1765410094.687871,-9.813485,-0.176949,0.391559,0.011454,0.016493,-0.056963
1765410094.691095,-10.090864,-0.333572,0.441176,0.006872,0.020464,-0.055436
1765410094.692963,-9.897178,-0.192492,0.135103,0.005803,0.016799,-0.058796
1765410094.695979,-9.946198,-0.340746,0.147657,0.011148,0.005956,-0.057269
1765410094.697973,-9.954566,-0.253467,0.194883,0.010079,0.007636,-0.060781
1765410094.700913,-9.954566,-0.253467,0.194883,0.010079,0.023213,-0.060781
1765410094.701413,-9.705284,-0.187709,0.053802,0.011301,0.024129,-0.050702
1765410094.704873,-9.911524,-0.367647,0.157221,0.008399,0.012217,-0.050091
1765410094.707961,-10.111190,-0.296509,0.456719,0.010843,0.014508,-0.052993
1765410094.710915,-9.892395,-0.316834,0.207437,0.012523,0.023060,-0.051771
1765410094.714453,-9.790769,-0.269010,0.308465,0.008705,0.019700,-0.053145
1765410094.715906,-9.943806,-0.324605,0.233740,0.005651,0.011454,-0.057116
1765410094.717957,-9.892395,-0.318030,-0.021521,0.007941,0.011454,-0.057421
1765410094.720936,-9.839788,-0.286944,0.080105,0.012981,0.026573,-0.057116
1765410094.722940,-10.087874,-0.280368,0.816595,0.015577,0.026573,-0.054825
1765410094.725024,-10.246293,-0.359876,0.792683,0.007025,0.012981,-0.060170
1765410094.726941,-9.890601,-0.387972,0.040650,0.007789,0.008705,-0.061850
1765410094.728909,-9.453609,-0.394548,-0.549378,0.013134,0.010690,-0.059712
1765410094.732877,-9.690338,-0.180536,0.197274,0.013897,0.014050,-0.060628
1765410094.733905,-10.118362,-0.133309,0.723338,0.015424,0.018631,-0.056200
1765410094.735913,-9.979673,-0.125538,0.174558,0.014508,0.021991,-0.054520
1765410094.740877,-9.667622,-0.335964,-0.165591,0.011912,0.020922,-0.052229
1765410094.742894,-9.844571,-0.496174,0.153037,0.009621,0.016035,-0.053756
1765410094.745894,-9.844571,-0.496174,0.153037,0.009621,0.016952,-0.053756
1765410094.747946,-9.952174,-0.225371,0.355093,0.012675,0.024587,-0.060628
1765410094.750889,-9.744141,-0.125538,-0.081899,0.010996,0.019395,-0.057727
1765410094.751389,-9.785389,-0.376016,0.078910,0.012523,0.011759,-0.051771
1765410094.755907,-10.085484,-0.369440,0.414873,0.014050,0.011912,-0.056810
1765410094.757946,-9.953967,-0.434601,0.121951,0.014050,0.022907,-0.056810
1765410094.760926,-9.780008,-0.295313,0.123745,0.014661,0.024435,-0.063072
1765410094.761945,-9.998206,-0.396939,0.563128,0.012217,0.019242,-0.061239
1765410094.765925,-9.989837,-0.306074,0.381396,0.007636,0.014966,-0.063835
1765410094.767876,-9.892395,-0.131516,0.022716,0.009468,0.014813,-0.064752
1765410094.770914,-9.867287,-0.192492,0.062171,0.010843,0.019700,-0.056810
1765410094.772911,-10.029292,-0.451937,0.444763,0.016188,0.015424,-0.055894
1765410094.775912,-10.094451,-0.448350,0.444763,0.008858,0.020311,-0.066432
1765410094.777906,-9.890003,-0.396939,0.090866,0.012065,0.016646,-0.066584
1765410094.780942,-9.643710,-0.344333,-0.207437,0.010385,0.016646,-0.063835
1765410094.782951,-9.927666,-0.224773,0.199067,0.015119,0.016188,-0.065821
1765410094.785914,-9.925871,-0.199067,0.312052,0.015577,0.027794,-0.064904
1765410094.787980,-10.038258,-0.199067,0.441176,0.015577,0.026114,-0.064904
1765410094.788962,-9.935436,-0.072334,0.225968,0.012981,0.015272,-0.057727
1765410094.790929,-10.015541,-0.319225,0.151243,0.012675,0.015272,-0.056352
1765410094.795934,-9.952772,-0.458513,0.205643,0.012370,0.028863,-0.061087
1765410094.797898,-9.954566,-0.417862,0.347920,0.017410,0.026725,-0.062766
1765410094.798933,-9.954566,-0.417862,0.347920,0.017410,0.022602,-0.062766
1765410094.802946,-10.156623,-0.227164,0.447154,0.011148,0.016493,-0.060170
1765410094.803920,-9.887612,-0.409493,-0.165591,0.009927,0.016952,-0.061850
1765410094.807878,-9.732184,-0.479436,-0.252272,0.011301,0.018326,-0.063683
1765410094.810960,-10.025107,-0.361669,0.418460,0.016035,0.026420,-0.061850
1765410094.811460,-9.960544,-0.362865,0.389168,0.014050,0.022297,-0.066584
1765410094.815993,-9.959349,-0.243902,0.113582,0.012370,0.018173,-0.070708
1765410094.817971,-9.735173,-0.139885,-0.332377,0.013897,0.026878,-0.065210
1765410094.820940,-10.045432,-0.248087,0.526064,0.016799,0.024282,-0.059865
1765410094.821917,-10.322811,-0.290531,1.005500,0.009316,0.027794,-0.064294
1765410094.825952,-10.095049,-0.461502,0.347920,0.007789,0.021991,-0.067501
1765410094.826943,-9.722022,-0.377810,-0.212817,0.010537,0.013897,-0.069028
1765410094.830874,-9.761477,-0.240316,-0.065758,0.012675,0.009927,-0.062766
1765410094.832925,-9.864896,-0.300096,0.160210,0.009468,0.008858,-0.064599
1765410094.835939,-9.879841,-0.197872,0.025108,0.012217,0.024435,-0.068111
1765410094.837922,-9.728598,-0.203252,-0.185318,0.013592,0.024435,-0.062614
1765410094.840939,-9.898971,-0.318030,0.447154,0.013592,0.020006,-0.062614
1765410094.841989,-10.118362,-0.480631,0.554161,0.009927,0.018631,-0.060323
1765410094.845971,-10.002987,-0.545194,0.212817,0.010232,0.013286,-0.067348
1765410094.847944,-9.707077,-0.405906,-0.215208,0.010079,0.015577,-0.069944
1765410094.850987,-9.729793,-0.307269,-0.031683,0.019853,0.015577,-0.066126
1765410094.852916,-9.982663,-0.301889,0.494978,0.012828,0.018173,-0.068722
1765410094.855924,-10.043041,-0.351506,0.387374,0.010385,0.017715,-0.070097
1765410094.857922,-9.714250,-0.471066,-0.263032,0.010385,0.018784,-0.069639
1765410094.860959,-9.735771,-0.370038,-0.066954,0.010385,0.013439,-0.069639
1765410094.862957,-10.110592,-0.328790,0.429220,0.015882,0.018173,-0.069333
1765410094.863914,-10.183523,-0.269010,0.621712,0.014203,0.021380,-0.069639
1765410094.867921,-9.727402,-0.288140,-0.051411,0.015119,0.013286,-0.066584
1765410094.870949,-9.808105,-0.362267,-0.023912,0.015119,0.013286,-0.063988
1765410094.872930,-9.808105,-0.362267,-0.023912,0.015119,0.010385,-0.063988
1765410094.873941,-10.289932,-0.392157,0.660569,0.016341,0.015119,-0.072693
1765410094.877916,-9.835006,-0.356289,-0.071736,0.013439,0.028558,-0.070402
1765410094.880904,-9.744141,-0.398733,-0.172166,0.009774,0.009468,-0.070402
1765410094.882939,-10.111190,-0.328790,0.375418,0.010537,0.018326,-0.074373
1765410094.885950,-10.238522,-0.298302,0.725131,0.015119,0.030696,-0.069944
1765410094.887973,-9.857722,-0.387374,0.371832,0.012217,0.026573,-0.068875
1765410094.888949,-9.884026,-0.434003,0.090866,0.012065,0.010537,-0.068570
1765410094.891976,-10.078907,-0.514108,0.262434,0.014355,0.011606,-0.067806
1765410094.895892,-9.980869,-0.618723,0.210426,0.019395,0.011606,-0.072235
1765410094.896915,-9.869678,-0.429220,0.118364,0.019395,0.018173,-0.072235
1765410094.898917,-9.864299,-0.266619,0.043042,0.012523,0.012828,-0.078802
1765410094.902988,-10.030487,-0.349115,0.242109,0.016035,0.012828,-0.072540
1765410094.905966,-9.857722,-0.292922,-0.066954,0.016952,0.021686,-0.071777
1765410094.907971,-9.740554,-0.326399,0.014945,0.015272,0.024893,-0.069486
1765410094.908968,-9.900764,-0.416069,0.250478,0.016035,0.024435,-0.069486
1765410094.912959,-10.184718,-0.475849,0.728120,0.013439,0.013134,-0.071777
1765410094.913981,-10.058583,-0.402319,0.375418,0.015272,0.022602,-0.072998
1765410094.917947,-9.661644,-0.317432,-0.259445,0.012217,0.019548,-0.072082
1765410094.920993,-9.723815,-0.420851,-0.037064,0.016188,0.017257,-0.071166
1765410094.922962,-9.866689,-0.477044,0.173362,0.020922,0.017257,-0.070555
1765410094.925940,-9.955761,-0.509326,0.141081,0.017410,0.022144,-0.071471
1765410094.926956,-9.606049,-0.558345,-0.263032,0.016188,0.024129,-0.072846
1765410094.929914,-9.766259,-0.490794,0.113582,0.016188,0.020922,-0.072846
1765410094.932951,-10.015541,-0.318030,0.584648,0.016188,0.033445,-0.077885
1765410094.934950,-9.971304,-0.436394,0.399330,0.016952,0.027794,-0.073762
1765410094.937934,-9.788378,-0.542205,0.078910,0.012217,0.019700,-0.076053
1765410094.938958,-9.917501,-0.332377,0.269010,0.016341,0.015882,-0.077580
1765410094.942950,-9.772237,-0.383788,-0.037661,0.019395,0.020159,-0.070250
1765410094.943959,-9.753705,-0.381396,-0.089072,0.017715,0.028863,-0.075289
1765410094.945995,-9.898971,-0.237924,0.224175,0.019853,0.028863,-0.074831
1765410094.951010,-9.803921,-0.370636,0.109995,0.021228,0.023824,-0.069333
1765410094.951510,-9.872069,-0.382592,0.124342,0.016341,0.022755,-0.074831
1765410094.955928,-9.770443,-0.373027,0.112386,0.012981,0.033903,-0.069180
1765410094.957891,-9.677187,-0.506934,0.138690,0.015272,0.032681,-0.069028
1765410094.960941,-9.898373,-0.554161,0.388570,0.015272,0.018173,-0.073151
1765410094.962898,-9.955761,-0.542802,0.284553,0.012217,0.021533,-0.081092
1765410094.963920,-9.620994,-0.514108,-0.358680,0.015119,0.020464,-0.082772
1765410094.967968,-9.739956,-0.394548,-0.265423,0.013439,0.026878,-0.082620
1765410094.970898,-10.204447,-0.365854,0.843496,0.019090,0.029474,-0.076358
1765410094.972889,-10.145264,-0.506934,0.767575,0.015882,0.036194,-0.079718
1765410094.975890,-9.814083,-0.250478,0.100430,0.018021,0.024587,-0.080023
1765410094.977964,-9.615016,-0.282162,-0.361071,0.010843,0.014355,-0.078038
1765410094.980956,-9.824843,-0.504543,0.184122,0.014355,0.012523,-0.071929
1765410094.981456,-9.912720,-0.441176,0.129125,0.017257,0.024893,-0.080634
1765410094.985068,-9.758488,-0.314443,-0.126734,0.018784,0.027947,-0.083994
1765410094.988025,-9.740554,-0.359876,-0.046628,0.014203,0.028405,-0.079107
1765410094.990954,-10.098636,-0.248685,0.572692,0.020464,0.029627,-0.075289
1765410094.991971,-9.814083,-0.652798,0.176949,0.016035,0.032070,-0.073304
1765410094.993914,-9.742945,-0.548183,0.033477,0.014661,0.028711,-0.083078
1765410094.997927,-9.907937,-0.572692,0.210426,0.016952,0.031918,-0.078954
1765410095.000934,-9.947392,-0.489000,0.280966,0.017410,0.022907,-0.083230
1765410095.002928,-10.107603,-0.315638,0.350311,0.016035,0.028711,-0.086590
1765410095.004943,-9.757292,-0.546389,-0.187709,0.014203,0.033292,-0.079871
1765410095.007975,-9.824244,-0.494978,-0.102822,0.017562,0.035736,-0.081092
1765410095.011030,-10.016738,-0.425634,0.352702,0.017257,0.035736,-0.080634
1765410095.013035,-9.961740,-0.411884,0.465088,0.014050,0.037721,-0.080023
1765410095.014014,-9.801530,-0.298302,0.189503,0.014203,0.036041,-0.082925
1765410095.017996,-9.698110,-0.511717,-0.047824,0.016188,0.028100,-0.078649
1765410095.020965,-9.783595,-0.529053,-0.043042,0.023366,0.019548,-0.080634
1765410095.021465,-10.060376,-0.507532,0.332377,0.016799,0.027336,-0.085521
1765410095.025936,-10.060376,-0.507532,0.332377,0.016799,0.040164,-0.085521
1765410095.028028,-9.787182,-0.594213,-0.129125,0.016799,0.029932,-0.082620
1765410095.031067,-9.862504,-0.581062,0.031086,0.010079,0.029322,-0.086590
1765410095.031567,-9.997607,-0.356887,0.276184,0.018479,0.036346,-0.084910
1765410095.035925,-9.942013,-0.274988,0.515304,0.015424,0.043677,-0.083078
1765410095.038006,-9.900167,-0.491392,0.182927,0.015577,0.032376,-0.079107
1765410095.039985,-10.161406,-0.607365,0.419656,0.012981,0.030391,-0.083689
1765410095.040957,-9.872069,-0.587040,-0.172166,0.018326,0.030391,-0.082772
1765410095.045905,-9.654470,-0.559541,-0.308465,0.016952,0.028100,-0.080176
1765410095.047895,-9.962935,-0.382592,0.380201,0.014813,0.034972,-0.090255
1765410095.050932,-10.062768,-0.321616,0.396939,0.016799,0.033750,-0.080023
1765410095.051924,-9.772835,-0.655787,-0.151243,0.017257,0.034208,-0.078649
1765410095.055944,-9.772835,-0.574486,0.019130,0.017104,0.034208,-0.087354
1765410095.056444,-9.771639,-0.667145,0.084888,0.017868,0.035736,-0.083230
1765410095.058971,-9.985652,-0.560736,0.289335,0.016493,0.025198,-0.088881
1765410095.062922,-9.991032,-0.582855,0.120158,0.012981,0.029322,-0.089797
1765410095.065018,-9.714250,-0.663558,-0.524868,0.015272,0.029322,-0.090713
1765410095.067965,-9.973696,-0.466284,0.111191,0.022449,0.026114,-0.092699
1765410095.070955,-9.973696,-0.466284,0.111191,0.022449,0.038943,-0.092699
1765410095.072974,-10.124939,-0.538020,0.454926,0.018173,0.031154,-0.084147
1765410095.075963,-9.919296,-0.557150,0.054998,0.017562,0.031154,-0.087506
1765410095.077930,-9.919296,-0.557150,0.054998,0.017562,0.023366,-0.087506
1765410095.079976,-9.986250,-0.588235,0.157819,0.017104,0.017868,-0.085979
1765410095.080922,-10.126135,-0.408895,0.227164,0.017104,0.029169,-0.085979
1765410095.085935,-9.747129,-0.585844,-0.154232,0.013439,0.037874,-0.082314
1765410095.087929,-9.835006,-0.496772,0.008967,0.017562,0.029169,-0.087201
1765410095.090923,-10.023313,-0.485414,0.379005,0.019242,0.028711,-0.086132
1765410095.091956,-9.967718,-0.731707,0.241511,0.018784,0.026267,-0.088423
1765410095.095974,-9.894786,-0.577475,0.159613,0.021838,0.024282,-0.093615
1765410095.097980,-9.765063,-0.649809,0.008369,0.019242,0.023671,-0.089950
1765410095.100973,-9.763867,-0.426829,-0.217599,0.021075,0.021075,-0.094379
1765410095.102985,-9.771639,-0.276184,-0.153037,0.017104,0.027947,-0.088881
1765410095.103996,-9.684361,-0.506934,-0.126136,0.017410,0.034208,-0.083536
1765410095.107964,-9.978478,-0.619321,0.318030,0.019090,0.034208,-0.089034
1765410095.110976,-9.995216,-0.518890,0.471664,0.020311,0.035430,-0.089339
1765410095.112893,-9.760879,-0.558345,0.020923,0.018326,0.035430,-0.085979
1765410095.113970,-9.739956,-0.523075,-0.070540,0.015882,0.024282,-0.088270
1765410095.117920,-10.126732,-0.411286,0.211023,0.018479,0.029627,-0.084910
1765410095.121014,-9.942610,-0.597800,-0.037064,0.024129,0.034667,-0.081092
1765410095.122966,-9.942610,-0.597800,-0.037064,0.024129,0.035583,-0.081092
1765410095.125960,-9.966521,-0.548780,0.300096,0.012675,0.040623,-0.089186
1765410095.127962,-9.962935,-0.717360,0.413678,0.020922,0.031918,-0.089034
1765410095.130037,-9.882831,-0.649211,0.164993,0.017562,0.031460,-0.093462
1765410095.133023,-9.839190,-0.358082,-0.002391,0.017104,0.031460,-0.096211
1765410095.135963,-9.839190,-0.358082,-0.002391,0.017104,0.028253,-0.096211
1765410095.137931,-10.055594,-0.630081,0.187709,0.016646,0.029474,-0.090713
1765410095.138986,-10.015541,-0.514108,0.260641,0.019548,0.034667,-0.095753
1765410095.140983,-9.589908,-0.577475,-0.270206,0.017257,0.041081,-0.090408
1765410095.143967,-9.815877,-0.584648,0.224773,0.017715,0.029169,-0.094990
1765410095.147948,-10.003586,-0.482425,0.444763,0.014355,0.033903,-0.093157
1765410095.150988,-9.897178,-0.587637,-0.018532,0.015119,0.029322,-0.096211
1765410095.153008,-9.839788,-0.390961,0.079507,0.013592,0.029780,-0.098349
1765410095.156017,-9.894786,-0.533238,0.126136,0.014355,0.030849,-0.089186
1765410095.156517,-9.915112,-0.740076,0.101626,0.011606,0.025656,-0.093921
1765410095.161021,-9.955761,-0.463893,0.025108,0.013897,0.039095,-0.095906
1765410095.162997,-9.671208,-0.625299,-0.075921,0.019853,0.038485,-0.086896
1765410095.164006,-9.858320,-0.618125,0.355093,0.016493,0.031460,-0.095600
1765410095.167960,-9.991032,-0.579268,0.333572,0.013439,0.028711,-0.094684
1765410095.170949,-9.757292,-0.759206,-0.318030,0.015577,0.028711,-0.093462
1765410095.171995,-9.907937,-0.498565,-0.148254,0.014203,0.027794,-0.100029
1765410095.175961,-10.349711,-0.434003,0.626494,0.015882,0.042150,-0.094073
1765410095.177932,-10.238522,-0.731707,0.616332,0.017562,0.038026,-0.089186
1765410095.180960,-9.818267,-0.949306,-0.047824,0.011301,0.028711,-0.098197
1765410095.182935,-9.693925,-0.640244,-0.208034,0.018784,0.030849,-0.100793
1765410095.185972,-9.750119,-0.591822,0.007174,0.017868,0.029016,-0.098960
1765410095.187041,-10.030487,-0.411884,0.339550,0.017410,0.026878,-0.098960
1765410095.190956,-9.937828,-0.373027,-0.015543,0.015119,0.036041,-0.094990
1765410095.192929,-9.735771,-0.524271,-0.155428,0.016341,0.032070,-0.088575
1765410095.193919,-10.086082,-0.738881,0.429818,0.015730,0.026267,-0.088423
1765410095.198019,-10.040649,-0.798661,0.490196,0.015730,0.033750,-0.089644
1765410095.200953,-9.787780,-0.871592,-0.184122,0.016799,0.020006,-0.094531
1765410095.202921,-9.717837,-0.642037,-0.175753,0.017562,0.020006,-0.095142
1765410095.206005,-9.843375,-0.630081,-0.060976,0.017410,0.020617,-0.096211
1765410095.208007,-9.971304,-0.681492,0.139885,0.013592,0.027031,-0.097891
1765410095.211015,-9.815877,-0.689861,-0.078910,0.017562,0.039401,-0.097891
1765410095.211515,-9.860114,-0.753228,0.084888,0.018631,0.035277,-0.094684
1765410095.216061,-9.968913,-0.689861,0.221186,0.016493,0.023518,-0.099266
1765410095.217973,-10.102820,-0.328192,0.252272,0.021838,0.030238,-0.097738
1765410095.221032,-9.759683,-0.552965,-0.261836,0.019090,0.032529,-0.087965
1765410095.221532,-9.800333,-0.725729,0.005380,0.014813,0.028711,-0.092241
1765410095.226009,-10.001194,-0.847680,0.280368,0.015119,0.029322,-0.093310
1765410095.228008,-9.934838,-0.854854,0.081899,0.020159,0.029322,-0.096669
1765410095.231036,-9.811094,-0.575084,-0.074127,0.019548,0.030085,-0.097891
1765410095.233021,-9.870873,-0.545194,0.119560,0.018173,0.028100,-0.096517
1765410095.236022,-10.022716,-0.772358,0.166786,0.017104,0.024893,-0.096364
1765410095.238094,-9.892395,-0.827355,-0.062171,0.021991,0.027642,-0.098655
1765410095.241011,-9.709468,-0.740076,-0.237924,0.019242,0.028711,-0.101098
1765410095.242040,-9.910329,-0.461502,0.141081,0.016341,0.026114,-0.104611
1765410095.246001,-10.127929,-0.484816,0.461502,0.019548,0.025809,-0.093157
1765410095.247007,-10.058583,-0.653395,0.334170,0.021533,0.028711,-0.093157
1765410095.251035,-10.058583,-0.653395,0.334170,0.021533,0.030238,-0.093157
1765410095.252974,-9.843375,-0.951698,-0.092061,0.016035,0.024129,-0.090408
1765410095.255959,-10.094451,-0.791487,0.247489,0.017410,0.022755,-0.102473
1765410095.257997,-9.878048,-0.614538,0.143472,0.021228,0.026878,-0.101556
1765410095.260980,-9.689142,-0.575084,0.011358,0.018479,0.026878,-0.101251
1765410095.261948,-9.932447,-0.538020,0.188905,0.015882,0.011759,-0.100182
1765410095.266001,-9.765063,-0.684481,-0.102822,0.017715,0.020311,-0.095753
1765410095.268004,-9.424915,-0.661167,-0.489598,0.025656,0.018784,-0.096822
1765410095.270981,-9.512194,-0.619321,-0.337757,0.019242,0.024587,-0.098655
1765410095.272925,-9.889405,-0.537422,0.090268,0.016952,0.021838,-0.094226
1765410095.276003,-10.038258,-0.560736,0.076518,0.020006,0.027947,-0.096364
1765410095.277962,-9.818267,-0.701817,0.037064,0.022297,0.037110,-0.089492
1765410095.281049,-9.742347,-1.013869,0.118364,0.018479,0.032834,-0.093615
1765410095.282976,-9.955164,-0.930177,0.172764,0.020922,0.023518,-0.101098
1765410095.283979,-9.888808,-0.755619,-0.174558,0.023824,0.030391,-0.105985
1765410095.288003,-9.617407,-0.559541,-0.244500,0.019548,0.036194,-0.106138
1765410095.290990,-9.861309,-0.547585,0.187709,0.014966,0.035430,-0.103542
1765410095.292037,-10.115973,-0.717360,0.573888,0.017562,0.035430,-0.103389
1765410095.296033,-10.115973,-0.717360,0.573888,0.017562,0.032529,-0.103389
1765410095.296990,-9.607842,-0.714969,-0.341344,0.014508,0.030238,-0.103847
1765410095.301034,-9.683165,-0.560736,-0.259445,0.016341,0.031765,-0.105222
1765410095.302998,-9.948587,-0.649211,0.266021,0.020922,0.031001,-0.100029
1765410095.305093,-9.714250,-0.835724,-0.015543,0.017257,0.044593,-0.098502
1765410095.308004,-9.714250,-0.835724,-0.015543,0.017257,0.044899,-0.098502
1765410095.311030,-9.633547,-0.850072,-0.187709,0.017104,0.036499,-0.103084
1765410095.312950,-9.910329,-0.740076,0.237924,0.016799,0.033139,-0.106291
1765410095.316095,-9.906144,-0.708991,0.157819,0.016799,0.040623,-0.107360
1765410095.318040,-9.744141,-0.698828,-0.240913,0.017868,0.040623,-0.107818
1765410095.319027,-9.858320,-0.574486,-0.007771,0.020922,0.041844,-0.105222
1765410095.322963,-10.049617,-0.704208,0.346724,0.020006,0.042302,-0.098655
1765410095.325960,-10.174556,-0.717958,0.524868,0.017715,0.045968,-0.101251
1765410095.327992,-9.949782,-0.891918,0.187709,0.018631,0.029016,-0.101862
1765410095.331007,-9.858320,-1.022238,-0.193687,0.016188,0.029016,-0.104611
1765410095.332954,-9.950979,-0.662362,-0.123745,0.017410,0.034819,-0.113163
1765410095.335986,-10.090864,-0.530846,0.379005,0.018173,0.050244,-0.105985
1765410095.337986,-9.904947,-0.680894,0.101028,0.022297,0.046731,-0.098197
1765410095.339974,-9.904947,-0.680894,0.101028,0.022297,0.032529,-0.098197
1765410095.343028,-9.939023,-0.904471,0.176351,0.017104,0.037110,-0.104611
1765410095.346015,-9.821855,-0.979196,-0.056791,0.022755,0.033750,-0.104000
1765410095.347969,-9.794355,-0.801650,0.091463,0.020311,0.032223,-0.111788
1765410095.348996,-9.754303,-0.490794,-0.248685,0.015424,0.032834,-0.107818
1765410095.351965,-9.754303,-0.490794,-0.248685,0.015424,0.034972,-0.107818
1765410095.355988,-9.863700,-0.838116,0.137494,0.022755,0.037568,-0.103236
1765410095.357984,-9.977283,-0.784314,0.343137,0.020464,0.043524,-0.106749
1765410095.360964,-9.849353,-0.877571,-0.020325,0.019853,0.034361,-0.108581
1765410095.362966,-9.855330,-0.921808,-0.198470,0.020922,0.029169,-0.108581
1765410095.365930,-9.919296,-0.925394,-0.094452,0.018937,0.033139,-0.112094
1765410095.366982,-10.004781,-0.675514,0.004782,0.013439,0.041081,-0.118202
1765410095.370974,-10.071735,-0.300096,0.271999,0.025351,0.049022,-0.107054
1765410095.371474,-9.721423,-0.789096,-0.209828,0.017257,0.038637,-0.097280
1765410095.375983,-10.156623,-0.791487,0.288140,0.009010,0.029016,-0.111177
1765410095.377972,-9.836202,-1.096963,-0.101626,0.014966,0.046578,-0.103542
1765410095.380998,-9.810495,-0.958871,-0.065758,0.023976,0.030543,-0.108581
1765410095.382969,-10.117167,-0.551172,0.162004,0.016035,0.036957,-0.115759
1765410095.385961,-10.128527,-0.682688,0.358680,0.016646,0.036805,-0.106138
1765410095.387995,-9.890003,-0.907460,-0.081301,0.018326,0.036805,-0.104305
1765410095.391028,-9.906742,-0.876973,-0.075323,0.017410,0.030085,-0.111636
1765410095.392983,-9.864299,-0.814204,-0.139885,0.014355,0.034056,-0.115148
1765410095.395976,-9.864299,-0.814204,-0.139885,0.014355,0.035277,-0.115148
1765410095.397004,-9.950979,-0.684481,0.089670,0.021075,0.039859,-0.104611
1765410095.401037,-10.194881,-0.705404,0.543998,0.017868,0.042302,-0.107207
1765410095.403009,-10.038258,-0.876375,0.265423,0.021686,0.046120,-0.101709
1765410095.406007,-9.609037,-1.064084,-0.350311,0.017562,0.035430,-0.103236
1765410095.407996,-9.610233,-1.044357,-0.298900,0.010996,0.033139,-0.111788
1765410095.411043,-9.748923,-0.889526,-0.216404,0.018479,0.040317,-0.116064
1765410095.413110,-9.916904,-0.888331,0.069943,0.019548,0.040928,-0.116675
1765410095.415939,-9.901362,-0.667145,0.272597,0.018021,0.043371,-0.116370
1765410095.417950,-9.864299,-0.738881,0.181133,0.015882,0.035736,-0.112399
1765410095.420987,-9.545671,-0.858441,-0.554161,0.016646,0.031765,-0.111177
1765410095.422997,-9.746531,-0.646820,-0.436394,0.022449,0.032834,-0.109498
1765410095.425940,-9.917501,-0.990555,0.208632,0.017410,0.044440,-0.107360
1765410095.427961,-10.076518,-0.979794,0.516499,0.015272,0.046731,-0.112552
1765410095.431040,-9.808105,-1.029412,-0.049617,0.016188,0.028100,-0.113316
1765410095.433067,-9.837996,-0.907460,-0.121353,0.014966,0.028100,-0.118202
1765410095.438494,-9.912720,-0.793878,-0.043042,0.016952,0.031765,-0.118202
1765410095.438994,-9.717837,-0.921808,-0.057389,0.016493,0.039248,-0.113316
1765410095.440985,-9.726207,-0.644428,0.057389,0.015882,0.046578,-0.118966
1765410095.443017,-9.739956,-0.650406,0.020325,0.016493,0.025962,-0.111941
1765410095.445968,-9.977283,-0.805237,0.043042,0.009468,0.025962,-0.110108
1765410095.447940,-9.969511,-0.994739,0.138690,0.009468,0.041539,-0.110108
1765410095.450958,-9.488880,-1.149569,-0.384983,0.013286,0.046578,-0.114537
1765410095.451458,-9.961740,-0.927786,-0.046628,0.012675,0.038485,-0.117592
1765410095.455974,-10.250477,-0.692252,0.390363,0.019242,0.046120,-0.116064
1765410095.456933,-10.113581,-0.758010,0.389168,0.022907,0.046578,-0.109803
1765410095.460970,-9.440458,-1.005500,-0.532640,0.014203,0.050396,-0.112552
1765410095.462941,-9.777617,-0.775944,-0.210426,0.017104,0.041081,-0.115301
1765410095.465977,-9.952772,-0.918819,0.120158,0.021686,0.041081,-0.108734
1765410095.467923,-9.952772,-0.918819,0.120158,0.021686,0.044440,-0.108734
1765410095.470985,-10.100429,-0.906863,0.382592,0.018021,0.059865,-0.111483
1765410095.472999,-9.661046,-1.236250,-0.175753,0.017715,0.046273,-0.111483
1765410095.473947,-9.835006,-1.029412,-0.341942,0.019548,0.044746,-0.121562
1765410095.478059,-9.876852,-0.956480,-0.046628,0.019090,0.044746,-0.118508
1765410095.481061,-9.876852,-0.956480,-0.046628,0.019090,0.053451,-0.118508
1765410095.484539,-9.961740,-0.968436,0.228360,0.015882,0.044135,-0.121715
1765410095.485046,-9.931850,-0.890124,0.120756,0.019090,0.044135,-0.120799
1765410095.487985,-9.863102,-0.808226,-0.127929,0.021533,0.043066,-0.115454
1765410095.491012,-9.767454,-0.792683,-0.219393,0.020311,0.045815,-0.116981
1765410095.492978,-10.132710,-0.969632,0.120756,0.022297,0.045509,-0.114079
1765410095.495993,-9.992825,-1.209947,0.081301,0.019242,0.049633,-0.116675
1765410095.498013,-9.987445,-0.981588,0.153037,0.017104,0.049633,-0.121868
1765410095.501014,-9.925871,-1.004902,-0.010760,0.019700,0.031918,-0.119424
1765410095.503018,-10.114776,-0.795672,0.156624,0.023060,0.031918,-0.118202
1765410095.505956,-10.112385,-1.056910,-0.098039,0.023060,0.037110,-0.118202
1765410095.508037,-9.830223,-0.974414,-0.447154,0.018326,0.039095,-0.123089
1765410095.511008,-9.907937,-0.768173,0.054400,0.021991,0.047342,-0.117133
1765410095.512979,-9.852941,-0.914634,0.173960,0.021838,0.039095,-0.113468
1765410095.515974,-10.230152,-0.763391,0.523673,0.017104,0.030085,-0.118508
1765410095.517995,-9.606647,-0.989957,-0.610952,0.018021,0.041539,-0.109803
1765410095.521958,-9.634145,-0.991750,-0.526064,0.024740,0.033903,-0.111941
1765410095.522987,-9.841581,-1.054519,0.122549,0.018631,0.040775,-0.113163
1765410095.526028,-10.329388,-1.009086,0.490196,0.018937,0.038637,-0.114995
1765410095.529288,-9.574366,-1.298422,-0.445361,0.011454,0.037568,-0.118813
1765410095.529788,-9.442251,-0.878766,-0.571497,0.015577,0.035888,-0.126907
1765410095.533023,-9.512194,-0.853658,-0.331181,0.020006,0.041539,-0.120646
1765410095.536011,-9.812290,-0.735294,0.140483,0.025045,0.036805,-0.115912
1765410095.538008,-9.748923,-0.989957,-0.190100,0.016646,0.054825,-0.113010
1765410095.541003,-9.605451,-1.195600,-0.268412,0.019242,0.044135,-0.114690
1765410095.542974,-9.831419,-1.241033,0.036466,0.023518,0.036805,-0.122020
1765410095.546039,-9.620994,-1.015064,-0.269010,0.022449,0.045051,-0.123395
1765410095.548029,-9.619798,-0.926590,-0.467480,0.015272,0.044135,-0.129656
1765410095.551058,-9.757292,-0.774749,0.075921,0.017410,0.049633,-0.122020
1765410095.553037,-10.058583,-0.826160,0.454926,0.024129,0.044440,-0.118050
1765410095.556016,-9.965326,-1.067671,0.054400,0.015730,0.042608,-0.118966
1765410095.557984,-9.965326,-1.067671,0.054400,0.015730,0.044899,-0.118966
1765410095.559957,-9.690338,-1.052128,-0.386179,0.023213,0.047953,-0.113621
1765410095.563034,-9.929459,-1.226686,0.139885,0.017104,0.043677,-0.120951
1765410095.566013,-10.169774,-0.923003,0.668340,0.020311,0.060934,-0.128587
1765410095.568008,-9.586321,-0.995337,-0.223577,0.017104,0.059559,-0.122326
1765410095.571014,-9.857722,-0.817790,-0.089072,0.018937,0.034514,-0.126755
1765410095.573004,-9.986250,-0.997130,-0.078312,0.016188,0.044899,-0.123089
1765410095.575970,-9.959349,-0.769966,-0.121951,0.027642,0.052840,-0.118661
1765410095.577953,-9.717239,-0.998326,0.019130,0.018173,0.056810,-0.116675
1765410095.581023,-9.747727,-0.943328,0.021521,0.013592,0.045968,-0.118966
1765410095.582999,-9.768052,-0.955882,-0.143472,0.012675,0.048717,-0.115759
1765410095.583987,-9.647895,-1.157341,-0.526064,0.014355,0.043677,-0.116675
1765410095.588003,-9.948587,-1.156145,0.149450,0.013897,0.045051,-0.120493
1765410095.591065,-9.839788,-1.171090,-0.050215,0.013134,0.051924,-0.125686
1765410095.591565,-9.911524,-1.037781,-0.092061,0.013744,0.051160,-0.127976
1765410095.595982,-9.868484,-0.884744,-0.109995,0.019853,0.050549,-0.125838
1765410095.597984,-9.966521,-0.882951,-0.023912,0.017562,0.047647,-0.122631
1765410095.601018,-9.918698,-0.982783,-0.043042,0.016035,0.052229,-0.120188
1765410095.603034,-9.962935,-1.071258,0.162602,0.019548,0.052840,-0.117439
1765410095.606044,-10.022716,-1.267336,0.216404,0.020006,0.052840,-0.119271
1765410095.607151,-9.979673,-1.193209,0.017934,0.019242,0.043219,-0.120951
1765410095.611048,-9.770443,-1.214730,-0.595409,0.013286,0.046731,-0.127060
1765410095.612989,-9.694523,-1.048541,-0.472262,0.012828,0.046731,-0.127671
1765410095.615995,-9.962337,-0.849474,0.144668,0.017562,0.052840,-0.124006
1765410095.618035,-10.074127,-0.845289,0.339550,0.013592,0.056047,-0.118508
1765410095.621046,-10.074127,-0.845289,0.339550,0.013592,0.045662,-0.118508
1765410095.623063,-9.881634,-1.141798,-0.350311,0.018784,0.048869,-0.114232
1765410095.626104,-9.846962,-1.578192,-0.368843,0.018937,0.043371,-0.115148
1765410095.628021,-10.132710,-1.236848,0.474653,0.018479,0.044440,-0.129809
1765410095.631022,-9.793160,-1.016260,0.100430,0.019090,0.052382,-0.127365
1765410095.632953,-9.793160,-1.016260,0.100430,0.019090,0.035430,-0.127365
1765410095.636020,-9.878048,-0.809421,-0.153037,0.018326,0.037568,-0.122631
1765410095.638005,-9.858320,-1.037781,-0.212817,0.021991,0.037568,-0.114385
1765410095.641045,-9.686751,-1.248206,-0.284553,0.020769,0.043066,-0.117592
1765410095.643050,-9.900764,-1.065877,0.091463,0.019242,0.046426,-0.122020
1765410095.646053,-9.954566,-1.308584,0.208632,0.019853,0.031765,-0.117897
1765410095.648060,-10.099234,-1.125060,0.034672,0.018021,0.035583,-0.127824
1765410095.649028,-9.714250,-1.168699,-0.355093,0.011606,0.035583,-0.124158
1765410095.653027,-9.496651,-1.308584,-0.597800,0.011912,0.041692,-0.127518
1765410095.656055,-10.013150,-0.967240,0.284553,0.019090,0.032987,-0.130420
1765410095.658011,-9.991630,-0.987566,-0.011956,0.017868,0.038179,-0.128893
1765410095.660968,-9.606647,-0.893113,-0.818986,0.018937,0.040317,-0.124311
1765410095.663010,-9.713055,-0.983381,-0.387374,0.012370,0.040317,-0.123089
1765410095.666053,-10.046627,-1.343855,0.246294,0.012370,0.044288,-0.123089
1765410095.668071,-10.003586,-1.217121,0.117767,0.019242,0.046426,-0.125227
1765410095.671077,-9.717837,-1.162123,-0.377810,0.014661,0.046426,-0.127365
1765410095.673034,-9.717837,-1.162123,-0.377810,0.014661,0.038485,-0.127365
1765410095.675958,-10.090864,-1.040172,0.230751,0.017410,0.036652,-0.122631
1765410095.677996,-9.998802,-1.133429,0.123147,0.017410,0.046578,-0.122631
1765410095.681072,-9.595288,-1.135222,-0.419058,0.011759,0.033750,-0.125227
1765410095.682998,-9.713653,-1.009086,-0.307867,0.009468,0.033750,-0.124464
1765410095.686027,-9.676588,-1.120277,-0.450741,0.017104,0.034208,-0.120951
1765410095.688013,-9.750119,-1.107126,-0.204448,0.018021,0.043066,-0.121868
1765410095.690984,-9.840983,-1.333094,0.115973,0.016646,0.054672,-0.121715
1765410095.692989,-9.800931,-1.300813,-0.206839,0.017104,0.043524,-0.122784
1765410095.696037,-10.138689,-1.239837,0.270206,0.016799,0.035277,-0.131489
1765410095.697994,-9.845766,-1.035390,-0.360473,0.016952,0.049022,-0.124617
1765410095.701046,-9.906144,-1.075442,-0.213415,0.017868,0.051618,-0.125838
1765410095.703103,-10.135101,-1.010282,0.685079,0.013439,0.051618,-0.123853
1765410095.706041,-10.060975,-1.381516,0.313845,0.016188,0.041386,-0.115759
1765410095.708036,-9.929459,-1.376136,-0.264228,0.013592,0.029169,-0.133169
1765410095.710098,-9.670013,-1.327116,-0.789694,0.012217,0.034208,-0.132405
1765410095.713066,-9.775824,-1.392874,-0.442970,0.016188,0.036805,-0.127824
1765410095.716036,-10.152438,-1.132233,0.601985,0.015119,0.042302,-0.139125
1765410095.718027,-10.141079,-0.879962,0.398733,0.014050,0.039248,-0.133627
1765410095.721073,-9.707077,-1.172884,-0.646820,0.013439,0.039248,-0.126449
1765410095.723028,-9.772237,-1.187231,-0.552367,0.013439,0.028100,-0.126296
1765410095.726012,-10.162600,-1.336681,0.248685,0.014508,0.041081,-0.124922
1765410095.728021,-10.007172,-1.221903,0.183525,0.018784,0.052534,-0.125838
1765410095.731030,-10.007172,-1.221903,0.183525,0.018784,0.042761,-0.125838
1765410095.733133,-9.696915,-1.238642,-0.674318,0.010385,0.031918,-0.137750
1765410095.735967,-9.900764,-1.247011,-0.386179,0.018173,0.033598,-0.131794
1765410095.738032,-9.736967,-1.028216,-0.115375,0.019395,0.055283,-0.130878
1765410095.740080,-9.660448,-1.067671,-0.266021,0.015882,0.050091,-0.129045
1765410095.742977,-9.856527,-1.067671,-0.036466,0.015882,0.038943,-0.129045
1765410095.744084,-9.774031,-1.353419,-0.384385,0.017257,0.035125,-0.124922
1765410095.746976,-9.461381,-1.323529,-0.827355,0.022144,0.042302,-0.129656
1765410095.748985,-9.902557,-1.319345,0.198470,0.016493,0.053451,-0.130878
1765410095.753013,-9.904947,-1.315160,0.325203,0.020006,0.047342,-0.129351
1765410095.756008,-9.845766,-1.344452,-0.228957,0.010537,0.034361,-0.137903
1765410095.758056,-9.479913,-1.018651,-0.948111,0.012370,0.036346,-0.138514
1765410095.761019,-9.770443,-1.092778,-0.318030,0.016646,0.033750,-0.132863
1765410095.763045,-10.039454,-1.110115,0.450741,0.017257,0.050549,-0.129962
1765410095.766031,-9.921089,-1.229077,0.160210,0.011912,0.052534,-0.128587
1765410095.768004,-9.636537,-1.482544,-0.560736,0.006720,0.043371,-0.131794
1765410095.771026,-9.836202,-1.298422,-0.289335,0.013592,0.028711,-0.134696
1765410095.773033,-10.084887,-1.292444,0.212219,0.010996,0.042761,-0.135459
1765410095.776000,-9.703490,-1.160928,-0.176949,0.011301,0.052229,-0.135459
1765410095.776961,-9.569583,-1.144189,-0.425634,0.009774,0.040317,-0.135154
1765410095.780985,-9.701696,-1.163319,-0.364060,0.010843,0.032529,-0.134696
1765410095.782997,-9.738162,-1.080822,-0.395744,0.012065,0.036346,-0.132100
1765410095.784003,-9.629362,-1.324725,-0.297704,0.008858,0.053298,-0.125991
1765410095.787007,-9.891797,-1.312769,0.155428,0.013286,0.050244,-0.130725
1765410095.791005,-9.871471,-1.600311,-0.143472,0.011148,0.036652,-0.133016
1765410095.793053,-9.852941,-1.207556,-0.395744,0.009621,0.037568,-0.143401
1765410095.796023,-9.530128,-1.066475,-0.566714,0.016493,0.045968,-0.133016
1765410095.796523,-9.856527,-1.082018,0.245098,0.013744,0.045968,-0.124006
1765410095.801006,-10.012553,-1.299617,0.222382,0.010385,0.044593,-0.125686
1765410095.802962,-9.740554,-1.504065,-0.426829,0.005651,0.047647,-0.125227
1765410095.804060,-9.399808,-1.566236,-1.059302,0.013897,0.050855,-0.132252
1765410095.808054,-9.812290,-1.430536,-0.263032,0.016493,0.047953,-0.135612
1765410095.811055,-10.450740,-1.521999,0.852463,0.012217,0.059712,-0.138666
1765410095.811555,-10.045432,-1.391081,0.316834,0.014966,0.061392,-0.139735
1765410095.816059,-9.385460,-1.337876,-0.785509,0.005651,0.053909,-0.144011
1765410095.818025,-9.488282,-0.926590,-0.814204,0.010843,0.037721,-0.141110
1765410095.821043,-10.264226,-1.261358,0.423242,0.013286,0.061087,-0.131641
1765410095.823043,-10.280965,-1.474175,0.719751,0.019242,0.061087,-0.130878
1765410095.824080,-9.819464,-1.376136,-0.021521,0.013286,0.057879,-0.136834
1765410095.828900,-9.430893,-1.533357,-0.656384,0.003971,0.037110,-0.140346
1765410095.831130,-9.820659,-1.207556,-0.593018,0.008247,0.019548,-0.144470
1765410095.833073,-9.919893,-1.243424,-0.089670,0.009163,0.044440,-0.139735
1765410095.836094,-9.684958,-1.073051,-0.108800,0.011912,0.067959,-0.137292
1765410095.838152,-9.417742,-1.211143,-0.417264,0.007636,0.050396,-0.131489
1765410095.840106,-9.919296,-1.243424,-0.153037,0.006567,0.036194,-0.133474
1765410095.841113,-9.919893,-1.304400,-0.432807,0.011912,0.038637,-0.131031
1765410095.846011,-9.919893,-1.304400,-0.432807,0.011912,0.055131,-0.131031
1765410095.847112,-9.556431,-1.512434,-0.420851,0.007483,0.054672,-0.130267
1765410095.851066,-10.133906,-1.388092,0.051411,0.007483,0.032223,-0.130267
1765410095.851566,-10.005379,-1.286466,-0.251076,0.012828,0.046426,-0.138056
1765410095.855047,-9.678382,-1.129842,-0.585844,0.013286,0.046426,-0.132252
1765410095.857988,-9.678382,-1.129842,-0.585844,0.013286,0.053451,-0.132252
1765410095.861040,-9.813485,-1.410808,-0.068149,0.004429,0.042455,-0.132558
1765410095.863059,-9.725011,-1.611669,-0.536824,0.004887,0.036041,-0.137445
1765410095.866037,-9.274270,-1.426351,-0.979794,0.008399,0.051924,-0.137903
1765410095.866537,-9.854733,-1.385700,-0.002391,0.007178,0.051924,-0.139735
1765410095.871050,-10.072930,-1.322334,0.475849,0.009927,0.048106,-0.138208
1765410095.873016,-9.748923,-1.403634,-0.616930,0.005651,0.041386,-0.139430
1765410095.876072,-9.527737,-1.302606,-1.090387,0.007789,0.041692,-0.139583
1765410095.878037,-9.967718,-1.282281,0.118364,0.012828,0.062919,-0.134849
1765410095.881068,-10.117167,-1.391678,0.615734,0.014966,0.062919,-0.129351
1765410095.883040,-9.891797,-1.512434,-0.167384,0.003360,0.054062,-0.139277
1765410095.884076,-9.699903,-1.472979,-0.688068,0.005040,0.041844,-0.138666
1765410095.888031,-9.591104,-1.649330,-0.725729,0.010232,0.041844,-0.136223
1765410095.891042,-10.186513,-1.161525,0.630081,0.010232,0.047953,-0.136223
1765410095.893061,-9.808105,-1.177666,0.120756,0.003054,0.067653,-0.138361
1765410095.894006,-9.500237,-1.323529,-0.720947,0.009927,0.040470,-0.133627
1765410095.898003,-9.533117,-1.264945,-0.939144,0.007941,0.038179,-0.131794
1765410095.901013,-9.924676,-1.521999,-0.074127,0.009316,0.049175,-0.131794
1765410095.903088,-9.924676,-1.521999,-0.074127,0.009316,0.064141,-0.131794
1765410095.906081,-9.677187,-1.906982,-0.193089,0.003360,0.047189,-0.138514
1765410095.906581,-9.826636,-1.479555,-0.395744,0.002596,0.049480,-0.151647
1765410095.911055,-9.823050,-1.200382,-0.523075,0.016188,0.052229,-0.140957
1765410095.913099,-9.985652,-1.159732,0.188905,0.014508,0.059254,-0.133169
1765410095.916075,-9.985652,-1.159732,0.188905,0.014508,0.053756,-0.133169
1765410095.918091,-9.870873,-1.612267,-0.364060,-0.000305,0.044746,-0.132252
1765410095.921036,-9.538497,-1.688785,-1.042563,0.006261,0.051313,-0.132863
1765410095.923081,-9.808105,-1.679818,-0.236729,0.009927,0.072846,-0.139888
1765410095.926529,-10.215207,-1.520205,0.682688,0.007483,0.072846,-0.147829
1765410095.929340,-9.855929,-1.320540,-0.222382,0.011301,0.063530,-0.140804
1765410095.931064,-9.497847,-1.339072,-0.851267,0.006720,0.045357,-0.140194
1765410095.933023,-9.445839,-1.377331,-0.958871,0.011454,0.041692,-0.134543
1765410095.935062,-10.199663,-1.391678,0.524868,0.011606,0.068570,-0.135765
1765410095.938053,-9.937828,-1.620038,0.320421,0.010385,0.068570,-0.131183
1765410095.941072,-9.945002,-1.581779,-0.365854,0.000611,0.046273,-0.143706
1765410095.942058,-9.675393,-1.675036,-0.794476,0.005040,0.044746,-0.141568
1765410095.946073,-9.546268,-1.394070,-0.675514,0.011606,0.050396,-0.141415
1765410095.948084,-9.546268,-1.394070,-0.675514,0.011606,0.063072,-0.141415
1765410095.949061,-9.965326,-1.131635,0.019727,0.002902,0.056658,-0.132405
1765410095.953071,-10.040649,-1.689383,-0.274988,0.001374,0.039859,-0.122173
1765410095.956092,-9.754900,-1.745576,-0.524868,0.011606,0.045204,-0.128434
1765410095.957084,-10.074127,-1.770684,0.053204,0.010079,0.044746,-0.135612
1765410095.961015,-10.087276,-1.640363,0.289335,0.007636,0.053451,-0.140346
1765410095.962054,-9.731586,-1.604495,-0.450741,0.008858,0.043371,-0.141873
1765410095.966061,-9.389048,-1.469392,-0.948111,0.006872,0.031307,-0.146455
1765410095.968067,-9.763269,-1.096963,-0.262434,0.007941,0.040470,-0.144011
1765410095.971012,-9.996411,-1.306193,0.302487,0.014050,0.049022,-0.129809
1765410095.972982,-9.569583,-1.792204,-0.506934,0.005803,0.045815,-0.134390
1765410095.976002,-9.618005,-1.600909,-0.760402,0.004581,0.044746,-0.143248
1765410095.977098,-9.719033,-1.831061,-0.522477,0.006567,0.042761,-0.140957
1765410095.981044,-10.290529,-1.450263,0.483022,0.012675,0.056658,-0.146760
1765410095.982998,-10.102820,-1.327116,0.276184,0.007789,0.056658,-0.144622
1765410095.986018,-9.720826,-1.334290,-0.560736,0.003207,0.041539,-0.140804
1765410095.986518,-9.402797,-1.431133,-1.238642,0.011148,0.034819,-0.132100
1765410095.991011,-9.870873,-1.774271,-0.214012,0.010690,0.043524,-0.134390
1765410095.993006,-10.487803,-1.586561,0.741870,0.014050,0.065668,-0.136834
1765410095.995997,-10.191893,-1.635581,0.200861,0.008705,0.051465,-0.138972
1765410095.998059,-9.839788,-1.588355,-0.659971,0.000305,0.045051,-0.144470
1765410096.001042,-9.627569,-1.290650,-0.711382,0.008399,0.047800,-0.138666
1765410096.001542,-10.043041,-1.388092,0.138092,0.009927,0.048258,-0.138666
1765410096.006127,-10.180533,-1.390483,0.431014,0.004429,0.056810,-0.137292
1765410096.008118,-9.846365,-1.773673,-0.384983,0.002291,0.046120,-0.136987
1765410096.011134,-9.557029,-1.785031,-0.866212,0.005040,0.039401,-0.140652
1765410096.013091,-9.839788,-1.793998,-0.130320,0.010385,0.043677,-0.144011
1765410096.016082,-10.112385,-1.576399,0.503348,0.003207,0.061392,-0.148135
1765410096.016582,-9.653872,-1.624820,-0.484816,0.000764,0.051007,-0.147829
1765410096.019066,-9.778812,-1.287661,-0.732305,0.003207,0.037110,-0.149357
1765410096.023085,-9.800931,-1.539933,-0.263032,0.008858,0.041692,-0.137292
1765410096.026571,-9.999999,-1.414395,0.383788,0.011301,0.050855,-0.136834
1765410096.027071,-9.790769,-1.792204,-0.090866,-0.001374,0.050855,-0.139583
1765410096.031021,-9.790769,-1.792204,-0.090866,-0.001374,0.029932,-0.139583
1765410096.033009,-9.557627,-1.839431,-0.903276,0.010537,0.034667,-0.141721
1765410096.034070,-9.750119,-1.403634,0.021521,0.009468,0.055436,-0.147219
1765410096.038038,-9.984456,-1.282879,0.383788,0.007483,0.039706,-0.140499
1765410096.041069,-9.666426,-1.471784,-0.638450,0.003665,0.039706,-0.136528
