time,acc_x_g,acc_y_g,acc_z_g,gyro_x_rad_s,gyro_y_rad_s,gyro_z_rad_s
1765408047.999424,-9.601819868570516,-1.6282128929527058,-1.8584539336497627,-0.007894119544542841,-0.007438007463377529,0.0010175543774005645
1765408047.999624,-9.606076483336139,-1.6141210867125848,-1.8748758900913594,-0.007729226273298403,-0.0069303272336135755,0.0011609271858673037
1765408047.999824,-9.61171256633369,-1.6003526505738823,-1.8905238488633391,-0.007488047886153068,-0.006416066835905935,0.0013350100993094378
1765408048.000024,-9.619959050100562,-1.5869844574596994,-1.9049677570772232,-0.007164004471639783,-0.005935868453161447,0.0015249834676552187
1765408048.000209,-9.631951926807405,-1.5741254617660188,-1.9178643705605356,-0.006756472913194693,-0.005533438035992436,0.0017092925317741734
1765408048.000459,-9.648670381628595,-1.5619236967652352,-1.9289784952241222,-0.006272003098405346,-0.00525455639610435,0.0018596293255282175
1765408048.000709,-9.670884888050116,-1.5505674979137631,-1.9381963215143105,-0.005725250313069123,-0.005146010263784597,0.0019413435546346948
1765408048.000959,-9.699118237718329,-1.540280211723964,-1.9455302176030642,-0.0051395215247467775,-0.005254471026110593,0.001914300270643869
1765408048.001206,-9.733621676400523,-1.5313083417599325,-1.9511149268502797,-0.0045468475215749895,-0.005625357843457902,0.0017341719407709235
1765408048.001456,-9.774367492222884,-1.5239039162302124,-1.9551954143409132,-0.0039875229541630145,-0.006301728963033177,0.0013541248437862765
1765408048.001706,-9.821058455872869,-1.5183027837350498,-1.9581069134140001,-0.003509097928119174,-0.007323249778373939,0.0007268342657299783
1765408048.001956,-9.873153356300598,-1.514701438882953,-1.9602482540868849,-0.0031648510848937676,-0.008725289603649032,-0.00019326399577801953
1765408048.002241,-9.929906602205367,-1.5132356485057241,-1.9620502185787991,-0.003011819163039983,-0.010538200671860171,-0.0014476077154708684
1765408048.002441,-9.990418736301132,-1.5139643067994633,-1.9639412101560931,-0.0031084955041652262,-0.012786829342930343,-0.0030711775276008554
1765408048.002641,-10.053693979492484,-1.5168613274845941,-1.9663127881629152,-0.003512332710171941,-0.015490296828291252,-0.005090370928933517
1765408048.002841,-10.118700619256714,-1.5218169715642018,-1.969487613823506,-0.004277190982330997,-0.01866206255225417,-0.007521255724725986
1765408048.003041,-10.184430035439233,-1.5286482038836813,-1.9736921333546908,-0.005450871513429166,-0.022310251024064906,-0.010368360773543901
1765408048.003241,-10.24995028559223,-1.5371161017911623,-1.9790359966571793,-0.007072873278402711,-0.026438193014122775,-0.01362411886209221
1765408048.003574,-10.314450453319221,-1.546947529837236,-1.9854998812536255,-0.009172511066379584,-0.03104511392824545,-0.01726901184382729
1765408048.003908,-10.377272527735771,-1.5578584016805581,-1.9929330256893885,-0.011767521143244098,-0.036126898039095995,-0.02127239643004397
1765408048.004233,-10.437928621425595,-1.569576539406747,-2.001061056884926,-0.014863247756472442,-0.04167685941745631,-0.02559392961025512
1765408048.004483,-10.496102899011133,-1.5818627434256143,-2.0095033435241767,-0.01845245015809657,-0.04768645188522347,-0.030185476915127678
1765408048.004733,-10.55163934186508,-1.5945287301733304,-2.017797506232871,-0.02251571025195546,-0.05414585400035147,-0.03499336853796902
1765408048.004983,-10.604517796255546,-1.6074502443985317,-2.025427864102618,-0.027022372781836706,-0.06104438128431723,-0.03996085255166425
1765408048.005172,-10.654821259842253,-1.620573523223971,-2.0318551028489638,-0.03193192136817372,-0.06837070821853229,-0.04503057537081079
1765408048.005422,-10.702697278672707,-1.6339138369771304,-2.036545750738473,-0.03719567954503079,-0.07611291192559118,-0.05014690666962334
1765408048.005672,-10.748316225665356,-1.647546004019216,-2.039000938765555,-0.04275871675919475,-0.08425836045616363,-0.0552579330383604
1765408048.005922,-10.791829418918155,-1.661588156769589,-2.0387837947970864,-0.048561833625717546,-0.09279346070704357,-0.060316979194246494
1765408048.006137,-10.833330283816059,-1.6761811460839935,-2.0355441737463487,-0.054543505466435,-0.10170327168832764,-0.06528357451958486
1765408048.006387,-10.872821664969168,-1.6914664755686817,-2.029039135481337,-0.06064168353566838,-0.11097099665813574,-0.07012385190758173
1765408048.006637,-10.910191910718352,-1.7075654989673317,-2.0191478929573035,-0.0667953875528381,-0.12057739429277006,-0.07481042702186563
1765408048.006887,-10.94520180868297,-1.724562056027502,-2.0058803278906097,-0.07294606342695793,-0.13050017655612456,-0.07932184977414465
1765408048.007153,-10.977484001999372,-1.7424901760814056,-1.9893781847703151,-0.0790387142731704,-0.14071346939953827,-0.08364174928419894
1765408048.007486,-11.006555865077265,-1.7613281493507362,-1.969908127158141,-0.08502282907240698,-0.15118740193801575,-0.08775781451801101
1765408048.00782,-11.031845673665677,-1.7809999161834555,-1.9478466037316473,-0.09085312775346657,-0.16188787551012668,-0.09166076440877079
1765408048.008143,-11.052730507328643,-1.8013838790411336,-1.9236576154926568,-0.09649012215386236,-0.172776550550431,-0.09534345651397017
1765408048.008393,-11.06858318425631,-1.8223277509653026,-1.897865020664797,-0.10190047479027681,-0.18381106666956898,-0.09880025474692804
1765408048.008643,-11.07882478854415,-1.8436664414313644,-1.8710207535266896,-0.10705713490049977,-0.19494548039218926,-0.10202672333508776
1765408048.008893,-11.082978738071759,-1.865239150300608,-1.8436702123277104,-0.11193924583556841,-0.20613088421491535,-0.10501964414330209
1765408048.009123,-11.080721734434814,-1.8869023483038467,-1.8163168464519555,-0.11653183905826033,-0.21731617069716228,-0.10777728380393982
1765408048.009373,-11.071926680929462,-1.9085368523051611,-1.789389097217849,-0.12082534501049605,-0.22844891425494362,-0.11029978529701262
1765408048.009623,-11.05669321986298,-1.9300488230974158,-1.7632131527401973,-0.12481495864526837,-0.23947634853369643,-0.11258954031461946
1765408048.009873,-11.035362936731518,-1.951365544180657,-1.7379941411226136,-0.1284999063783647,-0.2503464233834285,-0.1146514133950823
1765408048.010128,-11.008517972028665,-1.9724273323246162,-1.7138071355887208,-0.13188267413336005,-0.2610089367005898,-0.11649272320153509
1765408048.010461,-10.976963232249794,-1.9931771951331765,-1.6905982873398815,-0.13496826220339328,-0.27141673832383073,-0.1181229277089219
1765408048.010795,-10.94169349513804,-2.013549905150807,-1.6681953470293773,-0.1377635229898112,-0.2815269805537051,-0.11955300090648183
1765408048.011205,-10.903847602429893,-2.0334619464497825,-1.646325584320987,-0.14027661994476728,-0.29130235247837544,-0.12079452309596436
1765408048.011455,-10.864652635501317,-2.052803576294046,-1.624638265223876,-0.14251663415278437,-0.300712211471888,-0.12185853331018695
1765408048.011705,-10.825361391047325,-2.0714343505059962,-1.6027291363701295,-0.1444933394235911,-0.3097335315190707,-0.12275421612549337
1765408048.011955,-10.787186720598442,-2.08918371588547,-1.5801655122039737,-0.14621715574541988,-0.31835161383666377,-0.12348752137323941
1765408048.012196,-10.751236611012308,-2.105858123472389,-1.5565114480846822,-0.147699268865593,-0.3265605293607361,-0.12405984095912757
1765408048.012529,-10.7184542658176,-2.121255295612846,-1.5313524313791953,-0.14895187809351346,-0.33436327588233505,-0.12446688209590481
1765408048.012863,-10.689567516879274,-2.1351851473394134,-1.5043184397621463,-0.14998851307595512,-0.34177163940332106,-0.12469787078660936
1765408048.013149,-10.665051195284146,-2.147495956860057,-1.475104015967851,-0.1508243428056077,-0.34880575720355883,-0.12473519258748214
1765408048.013399,-10.645104573332809,-2.1581037293159535,-1.4434846066500238,-0.15147638740948846,-0.3554933946999298,-0.12455454082434826
1765408048.013649,-10.629644185007027,-2.1670218883764396,-1.4093293698509195,-0.1519635449358327,-0.36186896916724415,-0.12412560551346935
1765408048.013899,-10.618310915888602,-2.174387432927345,-1.3726113591177558,-0.152306367806238,-0.3679723712888334,-0.12341329539741722
1765408048.014187,-10.61048953814031,-2.180479113323403,-1.3334162416343567,-0.15252656136231618,-0.37384763810214827,-0.12237943606594416
1765408048.014437,-10.605338831059258,-2.1857234395106864,-1.2919503312299438,-0.1526462217261524,-0.3795415151691569,-0.12098483901286261
1765408048.014687,-10.601830901368775,-2.19068528912944,-1.248547487477416,-0.1526868769371811,-0.38510192326751297,-0.11919160172561574
1765408048.014937,-10.598798879407058,-2.196041447604963,-1.2036728113406474,-0.1526684372243257,-0.3905763334032804,-0.11696547812467692
1765408048.015211,-10.59499228024147,-2.2025377033725553,-1.1579201033960738,-0.1526081867502703,-0.3960100596804326,-0.11427815160425969
1765408048.015544,-10.589138863170124,-2.2109327373046694,-1.1120002059062177,-0.15251995036905033,-0.4014444947020088,-0.11110925543569543
1765408048.015878,-10.58001121352616,-2.221933977950669,-1.066718177591522,-0.15241354289025488,-0.4069153328611199,-0.10744801728624188
1765408048.016143,-10.566495756505006,-2.2361312192962197,-1.0229383543113886,-0.15229456501443606,-0.4124508546586221,-0.10329444290985897
1765408048.016393,-10.547660980423053,-2.2539334951039147,-0.9815380517594781,-0.1521645638012983,-0.41807037082078924,-0.09865998169666973
1765408048.016643,-10.52281970452664,-2.2755142342207075,-0.9433533053759673,-0.15202153319409348,-0.4237829360909049,-0.09356762690532168
1765408048.016893,-10.491578025529073,-2.3007693025334777,-0.9091228426790048,-0.15186069233429267,-0.4295864425869674,-0.08805140674426513
1765408048.017221,-10.453863119541374,-2.329291911124474,-0.8794378445931077,-0.15167544921546922,-0.4354671975577249,-0.0821552400048126
1765408048.017554,-10.409924495460011,-2.360367531555126,-0.8547042245342541,-0.15145844068887745,-0.4414000675915943,-0.07593117398326475
1765408048.017888,-10.360307523983158,-2.3929912057077325,-0.8351219542932664,-0.1512025394852043,-0.4473492163830403,-0.06943708594006233
1765408048.018164,-10.305802233425814,-2.4259089003552305,-0.8206834584851591,-0.15090173146119848,-0.453269388296705,-0.06273399585528824
1765408048.018414,-10.247373697548591,-2.457683169901994,-0.8111903579536592,-0.15055178615049059,-0.4591076263866197,-0.055883194830960436
1765408048.018664,-10.186082911687237,-2.4867806811204396,-0.8062846723563927,-0.15015066769354254,-0.4648052813340966,-0.0489434285730868
1765408048.018914,-10.123008569682106,-2.5116753003442494,-0.8054877248493537,-0.1496986626332929,-0.47030016612458575,-0.041968373421410105
1765408048.019322,-10.059180051122553,-2.5309568342665876,-0.8082387052824095,-0.14919823776451432,-0.47552873241564625,-0.03500459386020228
1765408048.019572,-9.99553007035654,-2.543433900280571,-0.8139257851258335,-0.14865368033242166,-0.48042818427653594,-0.028090087427047106
1765408048.019822,-9.932872038573821,-2.548220492851732,-0.8219055467634572,-0.148070602557325,-0.48493849632978203,-0.021253436409219267
1765408048.020072,-9.871902572366304,-2.544799014615668,-0.8315105276467055,-0.1474554016630864,-0.4890043482319971,-0.014513523215704089
1765408048.020174,-9.813224615098608,-2.533056724930969,-0.8420487327614633,-0.14681475136973424,-0.4925770057908489,-0.00787973637637643
1765408048.020424,-9.757383022881331,-2.5132964121846606,-0.8528013602704355,-0.14615516689651123,-0.4956161655333776,-0.0013525911265809495
1765408048.020674,-9.704903623617552,-2.486224283207994,-0.8630245942954905,-0.1454826469419778,-0.49809174170857645,0.005075299622971107
1765408048.020924,-9.65632815019749,-2.4529180654808678,-0.8719591127615667,-0.14480236801304153,-0.49998551905514194,0.0114179591507636
1765408048.021224,-9.612239035657076,-2.4147770834404043,-0.8788490297437896,-0.14411839768596327,-0.5012925308266482,0.017694551380891533
1765408048.021557,-9.573268822243342,-2.373455371025803,-0.8829708831084967,-0.14343340469034366,-0.5020219735269769,0.023927753810030632
1765408048.021891,-9.540089893561888,-2.330779870558803,-0.8836718249403174,-0.14274836883358588,-0.5021974638248237,0.03014213178847331
1765408048.02218,-9.513382597039302,-2.2886580147157147,-0.8804139372442942,-0.14206232073226413,-0.5018564864592397,0.036362656801370845
1765408048.02243,-9.493783387991838,-2.2489809387447925,-0.8728196391569257,-0.14137215711286255,-0.5010489651538592,0.04261348154013008
1765408048.02268,-9.481818549731452,-2.213528989478586,-0.8607120691506347,-0.14067257556716567,-0.4998349973547157,0.0489170234840655
1765408048.02293,-9.47783282240681,-2.1838850416751967,-0.8441434183461693,-0.13995615705892375,-0.4982819038671129,0.055293334376759956
1765408048.023132,-9.481925032582332,-2.1613592340358387,-0.8234036109569658,-0.1392136058874953,-0.4964608275504918,0.06175966686881272
1765408048.023382,-9.493902954510533,-2.146927070834259,-0.7990033946588274,-0.1384341448477945,-0.49444316705122016,0.06833011925291407
1765408048.023632,-9.513266517321995,-2.1411819162767984,-0.7716306559695427,-0.13760606072559342,-0.49229716594902534,0.07501526063779163
1765408048.023882,-9.539223359108501,-2.1443026230166344,-0.7420845677534498,-0.13671739551076115,-0.490084982241485,0.08182169902496836
1765408048.024227,-9.570735110923572,-2.1560370950750287,-0.7111964818785075,-0.13575677180356363,-0.48786050495597205,0.08875162458033976
1765408048.024477,-9.60658722342707,-2.1757029138206847,-0.6797486444448378,-0.13471432660235694,-0.4856680657211822,0.09580241424056199
1765408048.024727,-9.645470371186645,-2.202206561228828,-0.6484023504624536,-0.1335827160908572,-0.4835420618758534,0.10296640564031201
1765408048.024977,-9.686059202712467,-2.2340827323678947,-0.6176464036087248,-0.13235814884787125,-0.4815074134074271,0.11023093788494745
1765408048.025198,-9.727075840202064,-2.2695544209315646,-0.5877746118177217,-0.13104139661543673,-0.47958072758205095,0.1175787282794475
1765408048.025448,-9.767330590810698,-2.3066130954985433,-0.5588972591116079,-0.1296387109360586,-0.4777720107077607,0.12498862155677574
1765408048.025698,-9.805738662678573,-2.3431166872657005,-0.5309860408678575,-0.12816254311210637,-0.4760867083209501,0.13243671567505141
1765408048.025948,-9.841317044707319,-2.3769014539658464,-0.5039456288232308,-0.1266319381908472,-0.47452777153054065,0.1398978350118315
1765408048.026174,-9.873168942452253,-2.405902236740712,-0.4776994803422394,-0.12507246894956556,-0.47309738348407293,0.14734728466772248
1765408048.026507,-9.900464067918987,-2.42827443702949,-0.45227455544577927,-0.123515603257187,-0.4717979934048451,0.15476277353727572
1765408048.026841,-9.92242199041153,-2.4425104260714514,-0.4278702743396044,-0.12199745263245931,-0.4706324171355241,0.16212633685956787
1765408048.027243,-9.938303571207642,-2.4475429855487523,-0.4049006827795861,-0.12055691688508889,-0.4696029387313598,0.16942602778493854
1765408048.027493,-9.947413431844394,-2.4428282974344726,-0.3840034365357637,-0.1192333081915147,-0.4687095261255206,0.17665710181779665
1765408048.027743,-9.949114936122905,-2.428400678555808,-0.3660134446141421,-0.1180636034756728,-0.46794741278661856,0.18382242072556318
1765408048.027993,-9.94285778404638,-2.4048912854037727,-0.35190293098255265,-0.11707953317161182,-0.46730439394734485,0.19093188010903653
1765408048.028229,-9.928216521279692,-2.373504415656223,-0.34269374611078873,-0.11630476045925393,-0.4667582524815119,0.19800081038252842
1765408048.028479,-9.904936284151105,-2.3359481920730114,-0.3393516138526824,-0.11575242798023094,-0.4662747585885002,0.20504747609887933
1765408048.028729,-9.872980542046166,-2.2943209239780904,-0.34267468996441136,-0.11542333938959734,-0.46580665608854754,0.2120899592712156
1765408048.028979,-9.832574991810784,-2.2509596823137663,-0.35318946532692364,-0.11530499625706063,-0.4652939444034106,0.21914282566144805
1765408048.029239,-9.784242191037073,-2.2082629741617152,-0.3710655865033545,-0.1153716300622605,-0.46466560319254374,0.22621401996722515
1765408048.029572,-9.728822508018762,-2.168503933971125,-0.3960586060352197,-0.11558526803919036,-0.46384272267922727,0.23330240753882847
1765408048.029906,-9.667477990324553,-2.133652827164721,-0.4274870044655004,-0.11589777101264898,-0.46274283255972787,0.24039627819281217
1765408048.030165,-9.601676688569095,-2.1052268307830606,-0.4642470229008675,-0.11625369434621877,-0.4612850749474752,0.2474729773260049
1765408048.030415,-9.533155743967797,-2.084181237754751,-0.5048657124950526,-0.11659375044395896,-0.45939573723737087,0.2544996797366195
1765408048.030665,-9.463862111833636,-2.0708508453418513,-0.5475893210480588,-0.1168585945988483,-0.45701356514454083,0.26143521005361087
1765408048.030915,-9.39587084564668,-2.064944755137396,-0.5905003423108819,-0.11699262239323614,-0.4540942498167417,0.26823274403041236
1765408048.031234,-9.331283586902451,-2.06559296321927,-0.6316516305228301,-0.11694745918817047,-0.45061355099159883,0.2748431832600108
1765408048.031484,-9.272114284492352,-2.071439492896682,-0.669201007330835,-0.11668484127361288,-0.44656868245241854,0.281218964973021
1765408048.031734,-9.220173143308129,-2.080774481587824,-0.7015278721020547,-0.11617863820135184,-0.4419778279054071,0.2873180263883807
1765408048.031984,-9.176960866676643,-2.09169573475098,-0.7273169466835745,-0.11541584347033859,-0.43687793865150554,0.2931075785102108
1765408048.032233,-9.143582950047575,-2.102287706037203,-0.7456025543347894,-0.1143964515624179,-0.4313212363568142,0.2985672790246859
1765408048.032566,-9.120689975965576,-2.1108024865470743,-0.755775911328087,-0.11313223569189494,-0.4253710384474115,0.3036913726149784
1765408048.0329,-9.108446513324049,-2.1158242509622793,-0.7575641299654938,-0.11164454808218095,-0.4190975782733773,0.30848942833942494
1765408048.033156,-9.106528661198713,-2.116397504618478,-0.7509920116655937,-0.10996138112997618,-0.41257438675895375,0.3129854623527885
1765408048.033406,-9.114147874393453,-2.1121021102455426,-0.7363375502528897,-0.10811403096203366,-0.405875579082921,0.3172154698384385
1765408048.033656,-9.130096418001557,-2.1030649204467236,-0.7140908134090406,-0.10613376610824836,-0.3990741307324991,0.3212236440995787
1765408048.033906,-9.152808438308014,-2.089907411107005,-0.6849238880105439,-0.10404890690819094,-0.3922410066494439,0.32505775943128223
1765408048.034216,-9.180430950332687,-2.0736382529543915,-0.6496764422734133,-0.10188266260881303,-0.3854448590777206,0.32876428941365077
1765408048.034466,-9.210900819544403,-2.0555068408108084,-0.6093568154960622,-0.09965195827664847,-0.3787519249315139,0.3323838243257829
1765408048.034716,-9.242025940117836,-2.0368373485037066,-0.565153040187232,-0.09736733233339732,-0.3722257135528272,0.3359472757558265
1765408048.034966,-9.271570149061592,-2.018863177205116,-0.5184438399988303,-0.09503383424125512,-0.3659260928245718,0.33947324963510705
1765408048.035149,-9.297341703538779,-2.0025797005585555,-0.4707984610921589,-0.09265273308404841,-0.35990749013550616,0.3429668490977838
1765408048.035399,-9.317284917986914,-1.988629993439633,-0.42395616203128406,-0.09022376725047664,-0.3542161279452232,0.34642003855857667
1765408048.035649,-9.329574124755391,-1.9772344674165614,-0.3797793217713665,-0.08774761362717724,-0.3488864580736955,0.3498135553126898
1765408048.035899,-9.332708093196446,-1.9681712476915765,-0.3401770420948109,-0.08522823382795265,-0.3439371748611174,0.3531201897658269
1765408048.03618,-9.325601159457658,-1.9608094779042657,-0.3069994983446272,-0.08267477581802402,-0.33936734364913773,0.356309079261291
1765408048.036513,-9.30766528423232,-1.954192309565053,-0.2819081712099061,-0.08010276878519064,-0.3351532770711284,0.3593505035182604
1765408048.036847,-9.278876089305662,-1.9471603780361002,-0.266232771016044,-0.07753443161131121,-0.3312468061139275,0.3622205679965605
1765408048.037341,-9.239815811969203,-1.9385007960071463,-0.26083026199054254,-0.07499801258970792,-0.327575482547327,0.3649051413177666
1765408048.037591,-9.191686464696778,-1.9271021506573125,-0.2659638271324546,-0.07252619263917051,-0.3240450175155601,0.36740248938711395
1765408048.037841,-9.13628695828569,-1.9120939717035277,-0.28121994924134397,-0.07015371301343173,-0.32054398279537527,0.3697242220620168
1765408048.038091,-9.075948913916429,-1.8929507144358135,-0.3054800261197989,-0.06791450852634374,-0.3169505427315124,0.3718944147316988
1765408048.038185,-9.013427936183176,-1.8695456174378795,-0.3369586347338058,-0.06583870350512873,-0.3131407422436732,0.37394704367146414
1765408048.038435,-8.9517507241842,-1.8421478526035804,-0.37331339820153736,-0.06394984139508726,-0.3089976341423318,0.3759221260589385
1765408048.038685,-8.89402400543664,-1.8113654833136819,-0.41182162085265567,-0.062262681431236484,-0.3044203332443985,0.3778611301179197
1765408048.038935,-8.843218583024761,-1.7780451649459972,-0.44960771407973615,-0.06078182437670954,-0.2993320120763932,0.37980228946248007
1765408048.03919,-8.80194885207465,-1.7431458302332778,-0.48389560019599126,-0.05950132904159047,-0.2936859401127841,0.38177642334364553
1765408048.039523,-8.772272358997876,-1.7076065296132286,-0.5122544967678936,-0.05840536081135394,-0.28746890122193036,0.3838037524774006
1765408048.039857,-8.755533986124226,-1.672227440855407,-0.5328058882981895,-0.05746979435862167,-0.2807016641028032,0.38589203609330014
1765408048.040182,-8.752275194122978,-1.637578686778489,-0.5443640788645331,-0.05666459214872739,-0.2734365737294771,0.3880361765632038
1765408048.040432,-8.762220780457326,-1.6039462596943082,-0.5464924569250607,-0.05595670262613715,-0.26575270289100084,0.39021927438192916
1765408048.040682,-8.78434456465702,-1.5713198504488444,-0.5394714965703743,-0.05531316920759421,-0.2577492758517358,0.3924149737776063
1765408048.040932,-8.817003539540213,-1.5394237193725901,-0.524189211260383,-0.05470411624754784,-0.24953821188677974,0.39459080748376835
1765408048.041215,-8.858120567259526,-1.5077877871992915,-0.5019758762933303,-0.054105281845385454,-0.24123663733993017,0.3967121254508122
1765408048.041465,-8.905390618458375,-1.475851162978647,-0.4744101657367865,-0.053499803629827765,-0.23296009724216798,0.3987460898298423
1765408048.041715,-8.956484483235723,-1.4430849021920316,-0.4431246224902039,-0.05287903992459493,-0.2248169902338032,0.40066516615745845
1765408048.041965,-9.00922566902129,-1.4091163300169396,-0.4096367373466997,-0.052242325970910636,-0.21690450856202328,0.40244957404234233
1765408048.042263,-9.06172063822417,-1.3738352157089813,-0.3752280800834049,-0.05159571051825293,-0.2093061361973183,0.4040882996231039
1765408048.042513,-9.112429938166017,-1.3374633701100394,-0.3408865700246101,-0.05094986659152699,-0.2020905452243602,0.40557850713933263
1765408048.042763,-9.160177576076595,-1.3005741902547352,-0.30731576589954696,-0.05031749058875572,-0.19531153052362044,0.4069234862110107
1765408048.043013,-9.204106511567002,-1.2640567900848387,-0.27500213638904975,-0.04971057084511983,-0.1890084850033055,0.4081295768897702
1765408048.043145,-9.24359724974735,-1.2290290445663925,-0.24432033078511148,-0.04913790688911561,-0.18320691212334844,0.4092027385106061
1765408048.043478,-9.278172216947224,-1.1967128935775722,-0.21565042766472398,-0.048603194170230166,-0.17791860690437888,0.4101454924945015
1765408048.043812,-9.307409473852445,-1.1682915151814972,-0.18948061930197296,-0.04810387610304202,-0.1731413454030342,0.4109548570638984
1765408048.04421,-9.330885069957544,-1.144770158676748,-0.16647285533053682,-0.047630839811994244,-0.1688581343198863,0.41162165519153016
1765408048.04446,-9.348155089925031,-1.1268604559286484,-0.14747673044263543,-0.04716891882484119,-0.16503625903387334,0.4121313006239676
1765408048.04471,-9.35877852879587,-1.1149031594605856,-0.13348735986548357,-0.04669807074784055,-0.1616265223009692,0.4124659221061001
1765408048.04496,-9.362373293755084,-1.1088381961967282,-0.1255538449167849,-0.0461950202493952,-0.15856315544125502,0.41260750132010793
1765408048.045301,-9.35869178534223,-1.1082247389622808,-0.12465329899301465,-0.045635102042159266,-0.1557648636880133,0.41254156899244243
1765408048.045551,-9.347700165164522,-1.112307847199777,-0.13154994669412903,-0.04499401565504539,-0.1531373294342303,0.41226091602593556
1765408048.045801,-9.329646162918309,-1.1201219991982008,-0.14666013070574993,-0.04424922912994468,-0.15057728068370355,0.4117687365264841
1765408048.046051,-9.305103321107547,-1.1306159947011838,-0.16994323222473676,-0.04338085087638329,-0.1479779819768302,0.4110806464780678
1765408048.046182,-9.274983674031866,-1.142779601182036,-0.2008360396487,-0.042371913916417286,-0.1452357489640713,0.4102251382396495
1765408048.046432,-9.240514744454801,-1.1557514433580272,-0.2382437922208016,-0.0412081540444131,-0.14225685454438683,0.40924223986302477
1765408048.046682,-9.203180241047075,-1.1688905491747874,-0.2805943811028527,-0.039877482861098,-0.13896403142521885,0.40818042488550277
1765408048.046932,-9.164627949115715,-1.181800139559908,-0.3259528334740818,-0.03836943298935758,-0.1353017394011986,0.40709212401464323
1765408048.047261,-9.12655371448768,-1.1943007394862928,-0.37218229528972613,-0.036674865617878576,-0.13123949092049317,0.4060284717510174
1765408048.047511,-9.090575984812846,-1.2063593502121535,-0.41712789808380013,-0.03478617133767606,-0.1267728024946373,0.4050341046370621
1765408048.047761,-9.05811831905589,-1.2179904005894624,-0.45879493077293726,-0.03269807482498016,-0.12192170870034154,0.40414284700079944
1765408048.048011,-9.030315440728792,-1.22914995646234,-0.4954954866426865,-0.030409003589471,-0.11672717682084689,0.4033749582472771
1765408048.048168,-9.007952400284337,-1.2396454464201014,-0.525947502183871,-0.027922840294777287,-0.11124612021710192,0.4027363172805002
1765408048.048418,-8.991439125024614,-1.249079342854048,-0.5493226271426757,-0.025250772789808636,-0.10554592658553541,0.4022195670410913
1765408048.048668,-8.980816868519696,-1.256838658428617,-0.5652497659076091,-0.0224128928256763,-0.09969940512090131,0.4018069185613008
1765408048.048918,-8.975789883374857,-1.2621342000577007,-0.5737865004252403,-0.019439178631594858,-0.09378081573372404,0.40147407295470594
1765408048.049176,-8.975774487151288,-1.2640848764594907,-0.5753709984325375,-0.016369541139892762,-0.0878632792486046,0.4011945862569462
1765408048.049426,-8.979957687190879,-1.2618339961145622,-0.5707645867381692,-0.01325272888523257,-0.08201751836628628,0.4009439871404988
1765408048.049676,-8.987358384212683,-1.2546782841413937,-0.5609921624813394,-0.01014406200695902,-0.07631163140536354,0.4007030547988095
1765408048.049926,-8.996885807858803,-1.2421878722402182,-0.547285000782726,-0.007102161664018046,-0.07081145912723744,0.40045984329801604
1765408048.050174,-9.007391845829591,-1.2242970407500877,-0.5310281395402259,-0.004185006505056143,-0.0655810368337223,0.40021025913215785
1765408048.050424,-9.017716007915514,-1.201350252388519,-0.5137119106277069,-0.0014457532578307048,-0.0606826214611644,0.3999572266270745
1765408048.050674,-9.026723926982218,-1.1740950477672667,-0.4968846128762859,0.0010711996068627483,-0.056175868862006345,0.39970868517676295
1765408048.050924,-9.033342277554079,-1.1436216648712365,-0.4821020714320167,0.0033334492086837574,-0.05211592046566257,0.3994748290495121
1765408048.051146,-9.0365941735103,-1.111257480724159,-0.47087065124118954,0.0053227614009432305,-0.04855040951493375,0.39926509967940876
1765408048.051396,-9.0356390326811,-1.0784311293635367,-0.46458224818130556,0.007035960579190961,-0.04551565107835017,0.3990854524315403
1765408048.051646,-9.029819321039032,-1.0465253301877127,-0.46444178519401585,0.008484489640224796,-0.04303247868278324,0.39893634097800446
1765408048.051896,-9.01871351604984,-1.0167383527038927,-0.4713900715010642,0.009692760446484202,-0.04110230859195739,0.39881170889090156
1765408048.052247,-9.002190883299495,-0.9899714771275254,-0.4860277747548117,0.010695548162201992,-0.039704046890647854,0.3986990871026664
1765408048.052497,-8.980460838389567,-0.9667547066541178,-0.5085484615521964,0.011534763923623,-0.03879239828137329,0.3985807184843951
1765408048.052747,-8.954108904527908,-0.9472171994112648,-0.5386889199803722,0.01225596724466401,-0.03829798442713459,0.39843550480123224
1765408048.052997,-8.92411229718627,-0.9311038422706648,-0.5757037662309266,0.012904963446925388,-0.038129455505169815,0.39824149632723566
1765408048.053189,-8.89182976787879,-0.9178350490384459,-0.618369994944056,0.013524787019477279,-0.03817753364725992,0.39797859442233435
1765408048.053439,-8.858961685808818,-0.906602359032213,-0.6650259878842244,0.014153310124785034,-0.03832071360078502,0.3976311011471499
1765408048.053689,-8.827477678660891,-0.8964875710977425,-0.713647652189478,0.014821641118574416,-0.038432182690859816,0.39718974991121425
1765408048.053939,-8.799511395858906,-0.8865892134794534,-0.7619610243468881,0.015553390226543373,-0.03838740148200322,0.39665291680827375
1765408048.054182,-8.777225700658914,-0.8761388584116735,-0.8075861459882249,0.01636477914627815,-0.03807171459691024,0.3960268413049429
1765408048.054432,-8.762656480482848,-0.864591924605689,-0.8482023081035733,0.017265470533305547,-0.037387365042318536,0.3953248391552115
1765408048.054682,-8.757547950934306,-0.8516825408252909,-0.8817207698166399,0.018259914905874353,-0.0362593768316618,0.3945656273506702
1765408048.054932,-8.763195336700624,-0.8374382393835668,-0.9064483976657065,0.019348972605962973,-0.03463992492118002,0.3937709784277026
1765408048.055158,-8.780311624794638,-0.822156024970495,-0.9212248970069764,0.020531563579057645,-0.032510985826247,0.39296297918121004
1765408048.055408,-8.808934026435626,-0.8063457356536277,-0.925518027129437,0.02180611688987674,-0.029885220795073334,0.39216120176364705
1765408048.055658,-8.848382893127237,-0.7906496627413465,-0.9194658267564372,0.023171635285252633,-0.026805166213120766,0.39138011786435123
1765408048.055908,-8.897281012211645,-0.7757494793422696,-0.9038617139870212,0.02462826191777742,-0.023340888728101295,0.3906270912935424
1765408048.056218,-8.95363541502307,-0.7622724887994768,-0.8800850030645059,0.02617732574013273,-0.01958631099471226,0.3899012459401431
1765408048.056418,-9.014978412558069,-0.7507089104842282,-0.8499837856167696,0.027820927548178144,-0.015654438523774634,0.3891934150811753
1765408048.056618,-9.07855923066177,-0.7413508530922517,-0.8157199611101376,0.029561195224922534,-0.011671735829074313,0.38848724696996767
1765408048.056818,-9.141570921724501,-0.7342621029089884,-0.77958996202243,0.031399379478231,-0.007771931279034865,0.3877613805109005
1765408048.057018,-9.20138965189062,-0.729285117298602,-0.7438397599226685,0.033334981234860214,-0.004089579981975551,0.3869924181609166
1765408048.057111,-9.25579821718126,-0.7260864681876941,-0.7104961022275735,0.03536510287024266,-0.000753753823504424,0.3861582382506842
1765408048.057361,-9.303165761544074,-0.7242343486086301,-0.6812345578972233,0.03748419488770434,0.002117791010363896,0.3852410639211391
1765408048.057611,-9.34256122691554,-0.7232933673328968,-0.6572987538875157,0.03968431140541209,0.004423713324929431,0.38422970098736964
1765408048.057861,-9.373786835847392,-0.7229156389088589,-0.6394765669816733,0.041955880563167666,0.006083320635132842,0.38312050276722154
1765408048.058118,-9.397327901482297,-0.7229060639731537,-0.6281304805223843,0.044288860227697915,0.007039883480050623,0.3819168996837945
1765408048.058368,-9.414225695777725,-0.7232452134450478,-0.623272058037267,0.04667403398864865,0.007262986840105633,0.3806276716664736
1765408048.058618,-9.425890288269187,-0.7240641700714795,-0.6246649787976968,0.049104150618474535,0.006749861595337804,0.3792644277810624
1765408048.058868,-9.43387867284554,-0.7255781592323639,-0.631937862031982,0.051574635242337914,0.0055256491803559946,0.37783889463822007
1765408048.059185,-9.439668409681888,-0.7279953484736661,-0.6446878578356003,0.05408369030994015,0.0036425811762764325,0.37636058292112584
1765408048.059435,-9.44445755124589,-0.7314211892916507,-0.6625588572190689,0.05663173358607242,0.0011780693370385732,0.3748352507220156
1765408048.059685,-9.449017916093613,-0.7357772466762782,-0.6852833334485204,0.05922025556994251,-0.0017683001197002334,0.373264386000304
1765408048.059935,-9.453621315651718,-0.7407488637537113,-0.7126830473337544,0.06185028862579886,-0.0050788556088215775,0.3716457442939118
1765408048.060234,-9.458047652625604,-0.7457709562714777,-0.7446306081213834,0.06452074713715114,-0.008622941605011102,0.36997482467064147
1765408048.060484,-9.46167110124074,-0.7500568045826518,-0.7809810536937343,0.06722691935724114,-0.012262879390730851,0.36824703644597884
1765408048.060734,-9.463608518441083,-0.7526697752016996,-0.8214888165186789,0.06995937142847113,-0.015860544781137263,0.3664601869330359
1765408048.060984,-9.462905992897026,-0.7526312596657695,-0.8657280079282773,0.07270346759829094,-0.019284212850776514,0.36461682653813404
1765408048.06123,-9.458736222260457,-0.749050797240633,-0.9130316171982322,0.07543962338027156,-0.022415192937433482,0.36272597023175535
1765408048.06148,-9.450579748787437,-0.7412589513001978,-0.9624598654196125,0.07814429947005846,-0.02515368569529696,0.3608038016213723
1765408048.06173,-9.438365364899518,-0.7289217951969007,-1.0128024523689376,0.08079163210725387,-0.027423320668454803,0.35887313897281464
1765408048.06198,-9.422549681066254,-0.7121178800478862,-1.0626146602913904,0.08335550561225441,-0.029174008389095004,0.3569616573809562
1765408048.062268,-9.40412399955712,-0.6913636218213091,-1.1102827316514983,0.08581182216058778,-0.030383009032963242,0.3550990744275769
1765408048.062518,-9.384547266235522,-0.6675805147642176,-1.1541103973840905,0.08814070854192109,-0.031054385846175318,0.3533136824639664
1765408048.062768,-9.365614263302847,-0.642006619499958,-1.1924176653754188,0.09032840459447321,-0.031217203721345926,0.35162872271727597
1765408048.063018,-9.349276472212164,-0.6160639567887023,-1.2236448048971438,0.09236860169926883,-0.03092291503344368,0.35005912936194206
1765408048.063261,-9.337438866748965,-0.5912008149867714,-1.2464562401985753,0.09426305772760031,-0.0302423373234017,0.34860911877772055
1765408048.063511,-9.331758963390978,-0.5687316359201393,-1.2598387578335783,0.09602141215481436,-0.02926249462326238,0.34727096559469306
1765408048.063761,-9.33347361550172,-0.5496960073638146,-1.263186816357392,0.0976602378192672,-0.02808342664645688,0.3460251232040192
1765408048.064011,-9.343273640202337,-0.5347529455512371,-1.2563671117355137,0.09920146077134089,-0.02681493813540599,0.344841665679315
1765408048.064238,-9.361237635267749,-0.5241194359671183,-1.2397561310467433,0.10067034088572363,-0.02557320159669919,0.3436828931032454
1765408048.064488,-9.386826939700688,-0.517555869370225,-1.214247495179507,0.10209323541441188,-0.024477126192533623,0.34250685403105563
1765408048.064738,-9.41893605082106,-0.5143968489850499,-1.1812287915066293,0.1034953732885841,-0.023644425597434196,0.3412714690637882
1765408048.064988,-9.455988023450274,-0.5136232610743281,-1.1425291734068446,0.104898857513948,-0.02318734612528303,0.33993886883371194
1765408048.065265,-9.496062223640555,-0.5139692952213318,-1.1003393212466999,0.10632109007052576,-0.02320807976145731,0.33847949579555603
1765408048.065515,-9.537041266506431,-0.5140555327918066,-1.0571056998472335,0.10777377471530844,-0.02379400598789034,0.3368754879947237
1765408048.065765,-9.576763991805786,-0.5125361221398763,-1.015402857187203,0.10926259264928112,-0.025013057668396885,0.3351228924178279
1765408048.066015,-9.613171856887115,-0.5082448954648623,-0.9777905437201891,0.11078756657791736,-0.02690962946459121,0.33323236196095907
1765408048.066184,-9.644437987403226,-0.5003232135828553,-0.9466646844705322,0.11234404190709564,-0.02950148322071003,0.33122816989382137
1765408048.066434,-9.669071550025011,-0.48831264191575185,-0.9241115638514129,0.11392413311847889,-0.03277803643935859,0.32914560625002065
1765408048.066684,-9.685994049579136,-0.4721990508818803,-0.9117740308017079,0.11551841972817115,-0.036700285218295124,0.3270270660554042
1765408048.066934,-9.69458749136147,-0.4524014838964827,-0.9107381923533452,0.1171176425678274,-0.04120246507670936,0.32491735499872626
1765408048.06717,-9.694716737894167,-0.429708239601677,-0.9214484659809584,0.11871416200781262,-0.046195409823132416,0.3228588738168912
1765408048.06737,-9.686729554908855,-0.40517183913796,-0.9436574347323056,0.12030299697812048,-0.05157141630709239,0.32088735492458803
1765408048.06757,-9.671437327714747,-0.37998104457125803,-0.9764153769176214,0.12188234762399187,-0.057210266166725324,0.31902870208502376
1765408048.06777,-9.65007746955754,-0.35533008013904566,-1.0181034749394615,0.12345359060049037,-0.06298593823989859,0.3172972632387857
1765408048.06797,-9.624256331898604,-0.33230293269535083,-1.0665140453323418,0.12502081471776483,-0.0687735047324667,0.31569561580364863
1765408048.068158,-9.595870329332056,-0.3117856772699121,-1.118978941773773,0.12659003474312208,-0.07445572515715107,0.3142157218716167
1765408048.068408,-9.567003868164065,-0.2944139787609167,-1.172542172251087,0.12816827212134277,-0.07992889407504397,0.31284114722019163
1765408048.068658,-9.539805570535927,-0.2805576682943756,-1.2241653597442086,0.12976270531643447,-0.08510755708310072,0.31154993898355215
1765408048.068908,-9.516348411455779,-0.27034016667780125,-1.2709476089824565,0.13138006220152962,-0.08992781195364674,0.3103177152496286
1765408048.069159,-9.498483637618984,-0.26368687260591245,-1.3103372784673362,0.1330263631904195,-0.09434906455532363,0.309120525083936
1765408048.069409,-9.487701995987557,-0.26039244352812574,-1.3403129427456408,0.13470704285875262,-0.09835428132669491,0.30793708721409585
1765408048.069659,-9.485018231185132,-0.26019277018172876,-1.3595138391451282,0.1364273888093105,-0.10194893288985601,0.3067501171122167
1765408048.069909,-9.490894765510795,-0.2628258318680777,-1.3673057564288449,0.13819314920793696,-0.1051589272661141,0.3055466072072215
1765408048.070216,-9.50521669738252,-0.26806833049005185,-1.3637764977966185,0.14001109764249436,-0.10802786696717338,0.3043171152553951
1765408048.070466,-9.527323194686092,-0.27574115650285713,-1.3496647178126904,0.1418893310540885,-0.11061393304987376,0.3030543046457183
1765408048.070716,-9.55609242553895,-0.2856838999274649,-1.3262345974536094,0.14383711964774631,-0.11298662455356549,0.3017511274742941
1765408048.070966,-9.590070494902811,-0.29770510060100785,-1.2951144726329775,0.14586421229823038,-0.11522349340628978,0.30039911598635394
1765408048.071292,-9.627629642546513,-0.3115200877339666,-1.2581204143799527,0.1479796041774893,-0.11740693748001442,0.29898722931949184
1765408048.071542,-9.667136878271835,-0.32669137116124214,-1.217086728359597,0.15018987318090662,-0.11962106629984177,0.29750158300638674
1765408048.071792,-9.707112266857596,-0.3425867947987919,-1.1737236795186201,0.1524972745209376,-0.12194864037953157,0.2959261911051191
1765408048.072042,-9.746357502648543,-0.3583679813544093,-1.1295175702779499,0.1548978452358458,-0.12446809164185466,0.2942446261934505
1765408048.072199,-9.784039850073478,-0.37301660698846645,-1.0856808583069484,0.1573798093657216,-0.12725063658053842,0.2924423021256464
1765408048.072532,-9.819722512318506,-0.3853993102894169,-1.0431525140354656,0.15992257930865686,-0.1303574918632695,0.29050894481731715
1765408048.072866,-9.853339419312706,-0.3943642763083712,-1.0026420476605702,0.1624966060308736,-0.13383721353983485,0.28844076692562054
1765408048.073157,-9.885120474795844,-0.39885544147512164,-0.9647042641145723,0.1650642356640724,-0.1377232215467187,0.28624191916589187
1765408048.073407,-9.91548157835914,-0.3980261469274749,-0.9298264641443579,0.1675815935256454,-0.14203163163333163,0.2839249336963105
1765408048.073657,-9.944899699120779,-0.39133419729546887,-0.8985073759099141,0.17000136298871565,-0.14675957712767754,0.28151005102517174
1765408048.073907,-9.973794555639314,-0.37860396958297093,-0.8713091082899875,0.1722761827792014,-0.1518842530289081,0.27902348364878654
1765408048.074162,-10.002434891795541,-0.36004667812061186,-0.8488697971066301,0.1743622762828706,-0.1573629484996745,0.27649480013660355
1765408048.074412,-10.030880858760982,-0.3362357404780971,-0.8318737602645172,0.1762228741739105,-0.16313432945099582,0.2739537173621713
1765408048.074662,-10.058966952054892,-0.3080399170433584,-0.8209852438484263,0.17783101358308065,-0.1691211588739927,0.2714266680725362
1765408048.074912,-10.086323862069195,-0.276522339256731,-0.8167583940861642,0.1791713873382351,-0.175234488070556,0.26893355448590206
1765408048.075167,-10.112433016673368,-0.2428181643951325,-0.8195387618124398,0.18024104882153202,-0.18137914718527093,0.2664850907311836
1765408048.075417,-10.136704314563874,-0.20800653096379323,-0.8293718912196377,0.181048921846133,-0.1874601623278277,0.2640810719236626
1765408048.075667,-10.158565384029956,-0.17299307041931017,-0.8459341526342475,0.18161420162886252,-0.19338956934240692,0.2617097937138533
1765408048.075917,-10.177550066787504,-0.1384174208903988,-0.868499373891525,0.18196385451024225,-0.19909299183054627,0.2593487034392895
1765408048.076194,-10.193375011971828,-0.10459659031262589,-0.895950286820359,0.18212952358935067,-0.20451530471538854,0.25696621694853833
1765408048.076444,-10.205995573573508,-0.07151047580259423,-0.9268365293957949,0.18214421080789667,-0.20962473029579243,0.25452450072007393
1765408048.076694,-10.215634851017258,-0.038830912014819835,-0.9594729001955347,0.18203911884582433,-0.21441483863793864,0.2519829056206315
1765408048.076944,-10.222783072286912,-0.005990471631701174,-0.9920643171005422,0.18184099638227214,-0.2189041604655476,0.24930165818473113
1765408048.077177,-10.228168958571462,0.027717761894820326,-1.0228388776081183,0.1815702473246881,-0.2231334416216343,0.24644538408689273
1765408048.077427,-10.23270875914713,0.06302229152140142,-1.0501698197212919,0.18123995156824912,-0.22716090945146078,0.24338606395251178
1765408048.077677,-10.237440233034084,0.10055242802071089,-1.0726721196802589,0.18085581866932826,-0.2310562069594031,0.2401050975334148
1765408048.077927,-10.243447986381332,0.14073037991927595,-1.0892674747529385,0.18041697718330427,-0.23489381865562403,0.2365942674924581
1765408048.078181,-10.251785116300804,0.18369050838682935,-1.0992184335456283,0.17991740631090705,-0.23874682877578865,0.23285553417141647
1765408048.078514,-10.263395277997907,0.22923678717269172,-1.1021364452848084,0.17934775067349748,-0.24268172083133444,0.22889973905073668
1765408048.078848,-10.27903875724289,0.27684469947341783,-1.0979702153766313,0.1786972325477929,-0.24675469350407123,0.22474443135491212
1765408048.079147,-10.299225309162257,0.32570779712559284,-1.0869812263612397,0.17795539425494056,-0.2510097009953159,0.22041114369417353
1765408048.079397,-10.324155539760572,0.37482264163590995,-1.0697132088735588,0.17711345796723432,-0.2554781722517887,0.21592250671389285
1765408048.079647,-10.353672047630116,0.4231000767984185,-1.0469616586702761,0.1761651669244173,-0.2601801353055705,0.21129959637301848
1765408048.079897,-10.387222020162561,0.46948709811810313,-1.0197477649113262,0.17510706206539853,-0.26512628599538224,0.20655985996101436
1765408048.080152,-10.42383474212311,0.5130826776274559,-0.9892981194347857,0.1739382399715248,-0.27032042656022376,0.20171588573947186
1765408048.080402,-10.462119843770195,0.553232391184957,-0.9570279886925759,0.17265971498043634,-0.27576168004680895,0.19677517632209393
1765408048.080652,-10.500293527737924,0.5895895617777057,-0.9245230763996386,0.17127355801634062,-0.2814459640118063,0.19174095961020174
1765408048.080902,-10.536239235535703,0.6221343084486147,-0.8935133002188068,0.1697820015057366,-0.28736637733989384,0.18661392051640094
1765408048.08113,-10.567606297934573,0.651146782919224,-0.8658317941868873,0.16818668545292023,-0.2935123943660903,0.18139456906959106
1765408048.08138,-10.591945884650812,0.6771374982148872,-0.843352910320484,0.1664881867402341,-0.2998680220466591,0.17608581209073967
1765408048.08163,-10.606878763498548,0.7007452659175278,-0.827905106426708,0.1646859312507334,-0.3064093075778464,0.17069522192070913
1765408048.08188,-10.61028455169132,0.7226196046408939,-0.8211588722176475,0.16277852973558665,-0.313101749097846,0.16523653710305386
1765408048.08217,-10.600497736123724,0.743307036093785,-0.8244958680455912,0.160764500763255,-0.31989823110981924,0.1597300852006507
1765408048.08242,-10.57649211956023,0.7631585157456546,-0.8388719468524561,0.15864326777082144,-0.3267380581664936,0.1542020359972703
1765408048.08267,-10.53803326972981,0.7822699347659892,-0.8646917621671106,0.1564162657340955,-0.3335475015214197,0.14868259674709267
1765408048.08292,-10.485779192393508,0.8004619451082277,-0.9017143698081592,0.15408796982282455,-0.34024204231528,0.14320340035008366
1765408048.083235,-10.421313358090321,0.8173007046487518,-0.9490071063629034,0.15166665479509345,-0.3467302424258284,0.13779441897380004
1765408048.083485,-10.347100620816734,0.8321568539879622,-1.0049598571259102,0.14916470876219592,-0.352918934965954,0.1324807865374684
1765408048.083735,-10.266364249166923,0.8442953093682908,-1.0673643604607113,0.14659836885617525,-0.3587192130365489,0.12727993379382396
1765408048.083985,-10.182890555039751,0.8529840238656179,-1.1335540446239016,0.14398682495143963,-0.36405253070602595,0.12219940613635628
1765408048.084222,-10.100776098932428,0.8576074192121019,-1.2005904699657153,0.14135073796646883,-0.3688561671090602,0.11723563801280075
1765408048.084472,-10.024140338595899,0.8577705960964132,-1.2654748383324637,0.1387103186584778,-0.37308738336577485,0.11237382705985818
1765408048.084722,-9.956832306588465,0.8533828813432537,-1.325358930646347,0.13608319207584146,-0.3767258036716474,0.10758892941153539
1765408048.084972,-9.902161723723557,0.8447120620869248,-1.377730130763223,0.13348231407960717,-0.3797738186166339,0.10284770103054934
1765408048.085224,-9.862681769613967,0.8324028432377678,-1.4205502251076287,0.1309141964117045,-0.3822550892776508,0.0981116179731802
1765408048.085474,-9.840042728864816,0.8174553214499513,-1.4523369323426283,0.1283776458559572,-0.3842114820235541,0.09334040292522977
1765408048.085724,-9.834924837788785,0.8011630034444995,-1.4721882994251534,0.12586316102865305,-0.38569893848095516,0.08849578158435042
1765408048.085974,-9.847048005874093,0.7850154659461485,-1.479759375983885,0.12335307426442442,-0.3867828486236973,0.08354503280867526
1765408048.08625,-9.875248332797446,0.7705766209494549,-1.475205085336567,0.1208224678986681,-0.3875334558376149,0.0784639218419909
1765408048.0865,-9.917607292711635,0.7593532671513757,-1.459102923850592,0.11824082315051483,-0.3880217272788051,0.07323872173593902
1765408048.08675,-9.971618241464927,0.7526687624700052,-1.4323661579477378,0.11557427991167558,-0.38831601323782666,0.06786718885947833
1765408048.087,-10.034374971122583,0.7515538840142907,-1.3961552519709501,0.11278831364191842,-0.3884797015596598,0.062358500977510216
1765408048.087262,-10.102767203003093,0.7566631433408509,-1.3517942272429166,0.10985058907145356,-0.38856993541408325,0.056732258736670066
1765408048.087512,-10.173668288892099,0.7682215820331989,-1.300698928353306,0.10673373569097894,-0.38863730970224036,0.0510166995172235
1765408048.087762,-10.244102158994162,0.7860048013972688,-1.244323046186397,0.1034177997024911,-0.38872631645537964,0.04524629671509506
1765408048.088012,-10.31138011500973,0.8093531094743376,-1.1841239266166275,0.099892153237269,-0.38887620279676016,0.039458935977304044
1765408048.08822,-10.37320210780828,0.8372184930865405,-1.1215457841774885,0.09615668385064698,-0.3891218674045726,0.03369288082451209
1765408048.08847,-10.42772029991469,0.8682405474960148,-1.0580155351980525,0.092222148514289,-0.3894944635665747,0.027983758509910125
1765408048.08872,-10.473565223430755,0.9008449414751989,-0.994945998834933,0.08810965650266762,-0.39002147150379496,0.022361805068469666
1765408048.08897,-10.50983772152038,0.9333558568635935,-0.9337410432918944,0.08384933629272318,-0.3907261099195642,0.01684960095970774
1765408048.0892,-10.536073162088845,0.9641124346594009,-0.8757967774835181,0.07947832653552946,-0.3916260644347692,0.011460495765880607
1765408048.08945,-10.55218688900723,0.9915790492230186,-0.8224930332517499,0.07503829686056869,-0.39273163241085846,0.006197853709260531
1765408048.0897,-10.558410306442667,1.014440557176961,-0.7751712404558702,0.07057274494209834,-0.39404352169175855,0.0010551607177677533
1765408048.08995,-10.55522564291448,1.031676217865605,-0.7350980269895777,0.06612432639562399,-0.39555066297990404,-0.003983057440545007
1765408048.093056,-10.543305767757149,1.0426089334538062,-0.703416607262441,0.06173244877263555,-0.39722845437981497,-0.008939627995980026
1765408048.093306,-10.523464197025008,1.046929155767055,-0.6810889318985641,0.05743130537637453,-0.39903782567928814,-0.01384260159503612
1765408048.093556,-10.496618854625403,1.0446950296629245,-0.6688315469591609,0.053248454203755666,-0.4009254028347918,-0.01872278482039341
1765408048.093806,-10.463770231543318,1.0363119456021617,-0.6670490857186047,0.04920397797330178,-0.4028249114646561,-0.02361111532540987
1765408048.093192,-10.425990491401695,1.0224954025590072,-0.675772004724321,0.04531020236160895,-0.40465982267446116,-0.028536043830548464
1765408048.093442,-10.384416202521859,1.0042208830030523,-0.6946083223323515,0.04157190370692913,-0.40634713379378534,-0.03352107185345367
1765408048.093692,-10.340235579441368,0.9826637800089861,-0.7227203640762332,0.03798690524622686,-0.4078020832607237,-0.038582588922497205
1765408048.093942,-10.294662726796133,0.9591320424972787,-0.7588350803689952,0.03454694587578595,-0.4089435029633999,-0.04372815482198072
1765408048.094197,-10.248896193496735,0.9349945445352502,-0.8012907567102262,0.03123870928872185,-0.40969940508844865,-0.048955366947574644
1765408048.094447,-10.204065120883651,0.9116090629329254,-0.8481164675007032,0.02804491851630155,-0.41001230524694626,-0.05425142762097128
1765408048.094697,-10.161170585584435,0.8902546258282492,-0.8971362815964372,0.024945423605829794,-0.409843739379372,-0.05959347582020013
1765408048.094947,-10.12103057734652,0.8720733075016742,-0.9460890163949517,0.021918235253987766,-0.4091774675935428,-0.06494967123952965
1765408048.09527,-10.084234761260442,0.8580259213805059,-0.9927550721501545,0.018940481092414554,-0.40802096913670205,-0.07028092420794296
1765408048.09552,-10.05111186984757,0.8488644284682382,-1.035082553744314,0.015989275115688813,-0.4064049912446417,-0.07554307542345286
1765408048.09577,-10.021710430698436,0.8451213853096963,-1.0713044563646927,0.013042487581469886,-0.40438110314417514,-0.08068927279354449
1765408048.09602,-9.995793308001469,0.8471138894472073,-1.1000378617665802,0.010079387136682319,-0.4020174231778153,-0.08567229087533972
1765408048.096277,-9.972847433229084,0.8549573073297762,-1.1203563719636298,0.007081115547929298,-0.3993929078861603,-0.09044659764781263
1765408048.09661,-9.952110657818594,0.8685836829121849,-1.1318291461079977,0.004030965092959567,-0.39659076080019035,-0.0949700698770554
1765408048.096944,-9.93261678923532,0.8877610684843391,-1.134523515354891,0.0009144582460505986,-0.39369159675260673,-0.09920534522946194
1765408048.097253,-9.913257624352386,0.9121118577705944,-1.1289722745197104,-0.002280740059060946,-0.39076699164516054,-0.10312084491890436
1765408048.097503,-9.892858162650896,0.9411294561320932,-1.1161104442039504,-0.005565027734957213,-0.38787397846462274,-0.10669150912037831
1765408048.097753,-9.870259141433449,0.974193251265676,-1.0971889936595811,-0.008947124800042488,-0.3850509289416709,-0.1098992778394627
1765408048.098003,-9.844400126508395,1.010582369500862,-1.0736742945562758,-0.012434310719970197,-0.3823151012228337,-0.11273333545905807
1765408048.098211,-9.814396755665372,1.0494892417219173,-1.0471416012484807,-0.016032561176792946,-0.3796619594514047,-0.11519012206678451
1765408048.098461,-9.77960679604762,1.0900340632238914,-1.0191693188722406,-0.019746520030808134,-0.37706620284912473,-0.1172731001563879
1765408048.098711,-9.739680425166842,1.1312804803773677,-0.9912398323465028,-0.023579271952183352,-0.3744843008660001,-0.11899226019918785
1765408048.098961,-9.694590440916143,1.1722518278324665,-0.9646526618338833,-0.027531917864673485,-0.37185823402607265,-0.12036336640162411
1765408048.099197,-9.644639040856768,1.211946964239041,-0.9404554108174035,-0.031602987964083,-0.3691200925058618,-0.12140698167664929
1765408048.099447,-9.590440175448522,1.2493555577229016,-0.9193965245998267,-0.03578774949715116,-0.3661971756037717,-0.12214734698266828
1765408048.099697,-9.532879537451404,1.2834739546256824,-0.9019019348233849,-0.040077482830392315,-0.36301723612078474,-0.12261120704704538
1765408048.099947,-9.473056500614447,1.313323571392266,-0.8880760597828733,-0.0444588125493628,-0.3595135011674836,-0.12282666435727306
1765408048.100152,-9.412213091740744,1.3379733509440834,-0.8777262033727914,-0.04891318313791265,-0.3556290950768582,-0.1228221039866924
1765408048.100402,-9.351655036408783,1.3565661115931746,-0.8704075268434491,-0.053416554827585616,-0.3513205327493309,-0.1226251805954128
1765408048.100652,-9.29267005713057,1.3683463814257055,-0.8654835011687577,-0.057939367176934,-0.34656004546305524,-0.12226183469529589
1765408048.100902,-9.236449029661694,1.372685891049096,-0.8621949867061895,-0.062446782132037075,-0.3413366117101243,-0.1217553325042708
1765408048.101146,-9.184015646606715,1.3691031710839572,-0.8597305904163342,-0.06689918397237556,-0.33565567639835736,-0.12112538518967572
1765408048.101479,-9.136169484462021,1.3572754630459587,-0.8572916649396947,-0.07125289354364324,-0.32953765932233425,-0.12038745733180847
1765408048.101813,-9.093446025317167,1.337043451152941,-0.8541469099963853,-0.07546105423822043,-0.32301546848791,-0.11955238643952412
1765408048.102126,-9.05609572029311,1.3084111449832474,-0.849673652784004,-0.07947465999304713,-0.31613131685220025,-0.11862639429159909
1765408048.102376,-9.02408308964185,1.271543872362867,-0.8433847057673938,-0.08324371002561275,-0.308933177759055,-0.11761149268101953
1765408048.102626,-8.997106233427358,1.2267665459379522,-0.8349406383923117,-0.08671848258854281,-0.3014712132112347,-0.1165062046245713
1765408048.102876,-8.974636270936044,1.174562621334553,-0.8241480256247922,-0.08985091451723756,-0.2937944796878903,-0.11530646863149631
1765408048.103201,-8.955974332377968,1.115572434936924,-0.8109456867779065,-0.09259605532714733,-0.2859481610613898,-0.11400657964417808
1765408048.103451,-8.940321184225027,1.050588541274986,-0.795382544277507,-0.09491354260034722,-0.27797150660555303,-0.11260003672429134
1765408048.103701,-8.926852786722893,0.9805451833611031,-0.7775910438459981,-0.09676902644690111,-0.26989658005191003,-0.1110802007415708
1765408048.103951,-8.914794810333815,0.9064989593399287,-0.7577589272266992,-0.09813545527164344,-0.26174785392136013,-0.1094407109652592
1765408048.104233,-8.90348970566033,0.8295984932234831,-0.7361010829688113,-0.0989941230549826,-0.253542596770864,-0.107675667019217
1765408048.104483,-8.892450432026813,0.7510429155970598,-0.7128333998803581,-0.09933537498030506,-0.24529190298007478,-0.10577964050440478
1765408048.104733,-8.881395614843006,0.6720317206895923,-0.6881513581878388,-0.09915888098621478,-0.23700214092958816,-0.10374761906949086
1765408048.104983,-8.870262613299163,0.5937108216256105,-0.6622161090293442,-0.09847341999551407,-0.2286765767946336,-0.10157499397196476
1765408048.105148,-8.859197824950808,0.5171205548391851,-0.63514965712689,-0.09729616647036915,-0.22031696332716497,-0.09925768140318324
1765408048.105398,-8.848526535457605,0.44315120647675516,-0.6070391584057941,-0.09565152327723218,-0.21192494267252265,-0.09679242276923905
1765408048.105648,-8.838706934963998,0.37251085720610827,-0.5779487200824751,-0.09356959216585142,-0.20350318092946115,-0.09417724882012964
1765408048.105898,-8.830274518485881,0.30570895150605926,-0.5479355994960652,-0.09108441399808614,-0.19505621479277763,-0.0914120352560536
1765408048.106127,-8.823783805490166,0.24305673698134544,-0.5170670985147152,-0.08823214006707376,-0.18659103275562833,-0.08849904426203024
1765408048.106377,-8.819753773590836,0.18468297066671124,-0.48543535163932827,-0.08504930298259142,-0.17811742978434753,-0.08544335017959141
1765408048.106627,-8.818622000720175,0.13056119888574733,-0.4531686231468748,-0.08157133678126492,-0.16964817102374366,-0.08225308429814292
1765408048.106877,-8.820711177450804,0.08054432186976121,-0.4204381994650874,-0.07783145823239215,-0.16119898630480028,-0.07893947959718742
1765408048.107144,-8.826210484858356,0.03440267441682564,-0.387459700871997,-0.07385997561940412,-0.15278840173641822,-0.07551672307950015
1765408048.107394,-8.835172703691573,-0.008137517442196412,-0.3544878704661171,-0.06968404621528355,-0.14443740545819023,-0.07200162528110642
1765408048.107644,-8.8475258576691,-0.04735819982581722,-0.32180477086918896,-0.06532786495627797,-0.13616894971278526,-0.06841311260375539
1765408048.107894,-8.863096522802875,-0.08351892452119826,-0.28970212033881243,-0.06081323777214008,-0.12800731612644223,-0.06477155895125021
1765408048.108124,-8.881641021345352,-0.11683427384443403,-0.25845930459254385,-0.05616047242632117,-0.11997740697624978,-0.061098003270355895
1765408048.108374,-8.902880124377337,-0.14746110909887963,-0.22831994753719864,-0.05138950145554997,-0.11210404700652672,-0.05741333780072278
1765408048.108624,-8.926532493127633,-0.17549585077070465,-0.1994711422925386,-0.0465211336780114,-0.10441136757185472,-0.053737580005501426
1765408048.108874,-8.952342553684975,-0.2009798154017618,-0.17202901675802976,-0.04157832050700619,-0.09692230341014636,-0.05008934122537818
1765408048.109243,-8.980100057026581,-0.22390895926998072,-0.1460321885560479,-0.036587327757802275,-0.08965818775248581,-0.04648556636438394
1765408048.109493,-9.009650323097365,-0.24424430931702618,-0.12144268773492684,-0.03157871684019406,-0.0826384069665393,-0.04294154947163365
1765408048.109743,-9.040895257736945,-0.2619208739628879,-0.09815335185828712,-0.0265880490005848,-0.07588007874227168,-0.03947115841814268
1765408048.109993,-9.073785948964497,-0.2768547484356443,-0.07600073463183936,-0.021656229193552326,-0.06939773910830545,-0.03608715803340586
1765408048.110186,-9.108308586424458,-0.2889493168617814,-0.05478202314521952,-0.016829412319789246,-0.06320304947585684,-0.03280151706045636
1765408048.110436,-9.144466335440818,-0.2981016581316834,-0.0342736414220778,-0.012158416275669007,-0.05730456001499429,-0.029625612212383665
1765408048.110686,-9.1822599072866,-0.3042099015627185,-0.014249287265485895,-0.00769762359537562,-0.05170759100584462,-0.026570284059495398
1765408048.110936,-9.22166887913371,-0.3071818298229507,0.005503744166688414,-0.003503395903450002,-0.046414310052037826,-0.023645737711848986
1765408048.111113,-9.262635056935,-0.30694475290775064,0.025169999688630502,0.00036793512666098666,-0.041424067579680375,-0.020861310469792643
1765408048.111363,-9.305048789337542,-0.3034565920176227,0.04489280676840554,0.0038624019311287623,-0.036733995013907554,-0.018225150952164804
1765408048.111613,-9.348738945705758,-0.29671800492081607,0.06476274602320466,0.006930932810814546,-0.032339791537149186,-0.01574387036937787
1765408048.111863,-9.393467155728375,-0.28678498427262733,0.08480829350233447,0.009531930450989505,-0.028236565661692928,-0.013422233841706354
1765408048.112171,-9.438927042563218,-0.2737806649615466,0.10499009037083844,0.01163372740367362,-0.024419580136266824,-0.011262954534242439
1765408048.112371,-9.484749336792948,-0.2579045067714933,0.12520079215656355,0.013216734627929647,-0.020884771461975385,-0.009266633841524577
1765408048.112571,-9.5305133220941,-0.23943704653856215,0.1452717693583345,0.014275095642385311,-0.017628968155382157,-0.007431861310980373
1765408048.112771,-9.575764022391398,-0.21873900388171028,0.16498624024104544,0.014817673712701705,-0.014649801520987486,-0.0057554605479819216
1765408048.112971,-9.62003363612485,-0.1962441780564369,0.18409698581449727,0.014868238191492156,-0.011945365634822284,-0.004232850895245997
1765408048.113147,-9.66286539195637,-0.1724459796833724,0.2023464062028996,0.014464778662824307,-0.0095137148170864,-0.0028584856794207423
1765408048.113347,-9.703837892860799,-0.14787785105095672,0.21948687368911074,0.01365795466426731,-0.007352284691081846,-0.0016263176018163669
1765408048.113547,-9.742587766221,-0.12308867149697585,0.2352994699889398,0.012508772282192293,-0.005457309436962682,-0.0005302304778660967
1765408048.113747,-9.778828247253673,-0.09861547031818566,0.24960925668708295,0.011085655281781927,-0.0038233035214441805,0.00043562502162990704
1765408048.113947,-9.812361543061037,-0.07495671648160729,0.2622954716618892,0.009461137607711428,-0.002442677728377295,0.0012766353881409846
1765408048.11417,-9.843083477156638,-0.052549436117274986,0.2732955370520242,0.0077084355248359816,-0.0013055496618318892,0.0019976755237829467
1765408048.11437,-9.870979899778638,-0.031752348212109115,0.2826025921585325,0.005898154326685135,-0.0003997813103873416,0.0026031760906088815
1765408048.11457,-9.896115651032495,-0.012835636416465084,0.29025755287579136,0.004095349178336713,0.00028876096482502694,0.0030972529001432733
1765408048.11477,-9.918618168528338,0.004023403645052905,0.29633803563494615,0.0023571033818721573,0.0007757654214050998,0.0034838467334820434
1765408048.11497,-9.938658434222775,0.018740228668614484,0.30094694558632745,0.0007307229534620415,0.0010779233556538845,0.0037668461993062862
1765408048.115223,-9.956431554272761,0.03131947149895186,0.30420279619770857,-0.0007474149665267885,0.001212350004192078,0.003950196936816299
1765408048.115423,-9.972138443663615,0.041848021416538914,0.30623267423267514,-0.002052371418869358,0.0011960526623312534,0.004038018707012577
1765408048.115623,-9.985969567334658,0.05048414703981811,0.3071679876729387,-0.0031705565812142995,0.0010455003041714703,0.004034747417370362
1765408048.115823,-9.998091517865936,0.057442264920487,0.30714266998004164,-0.00409910614620939,0.0007763294413346925,0.003945298635972281
1765408048.116023,-10.008637058023629,0.06297393938710881,0.3062930540108212,-0.0048448024257054245,0.00040320290338175977,0.0037752303888493877
1765408048.116171,-10.017699077495964,0.0673466255261941,0.3047583886265631,-0.005422633204250403,-6.0185433271125555e-05,0.0035308782153176585
1765408048.116371,-10.025328806790835,0.07082196234977446,0.30268122430329625,-0.005854089016581455,-0.0006009923657991743,0.0032194422129943837
1765408048.116571,-10.031538420136513,0.07363524687663726,0.30020732055611443,-0.006165299600982881,-0.0012070395877168752,0.002849013866419208
1765408048.116771,-10.036307656283208,0.07597752774104297,0.2974848912587856,-0.006385107806776705,-0.0018666041354815103,0.002428533941162525
1765408048.116971,-10.039593545546275,0.07798168928784725,0.29466302862425475,-0.0065431779835262265,-0.0025682197953951066,0.001967674555972943
1765408048.117177,-10.041342128663,0.07971376091559852,0.2918893392481726,-0.006668233265550925,-0.0033005165982239906,0.0014766447338123584
1765408048.117377,-10.041501126113054,0.0811703027754662,0.2893070698626778,-0.006786507665721877,-0.004052118956688645,0.0009659310245718582
1765408048.117577,-10.040032567656334,0.08228209060487036,0.28705204522314287,-0.00692048247881718,-0.0048116168544009245,0.0004459988659479473
1765408048.117777,-10.036924405834862,0.08292359128254646,0.28524966342639824,-0.007087952939697379,-0.00556761999613194,-7.3010924141823e-05
1765408048.117977,-10.0322002691557,0.08292709573386066,0.28401215091616266,-0.007301443988238127,-0.00630889791273868,-0.000581557455304056
1765408048.11823,-10.025926698021587,0.08210002589425101,0.2834361913993685,-0.007567968674518528,-0.007024594754339699,-0.0010709234109735305
1765408048.11843,-10.018217308259738,0.08024386634171642,0.2836008605375571,-0.007889103258768473,-0.007704491773540635,-0.001533374868646103
1765408048.11863,-10.009233432274877,0.07717324907269738,0.2845656977058627,-0.008261340949644777,-0.008339284225215206,-0.001962253617723119
1765408048.11883,-9.999181041674483,0.07273380075758344,0.28636881980120427,-0.008676680720529876,-0.008920843356694713,-0.0023520053562169603
1765408048.11903,-9.988304100291966,0.06681742765289142,0.28902509943830934,-0.009123405430621094,-0.009442440694929421,-0.002698155917828818
1765408048.119249,-9.976874837866312,0.05937386607698624,0.29252454553753,-0.009587000146864288,-0.009898917384922197,-0.002997257047198716
1765408048.119449,-9.965181803499336,0.05041767884795775,0.29683123481068363,-0.010051155851319014,-0.010286786911569952,-0.00324682761847219
1765408048.119649,-9.953516904813103,0.04003041825860816,0.301883349562354,-0.010498799483590445,-0.010604264005256311,-0.003445311164674208
1765408048.119849,-9.942162730577156,0.02835822767614977,0.30759479878123885,-0.010913093303604068,-0.010851214594194955,-0.0035920578509258
1765408048.120049,-9.93138117742412,0.015605516266664695,0.3138584916847113,-0.011278354735598134,-0.011029024235147475,-0.0036873252648647117
1765408048.120196,-9.921403946891772,0.00202547517912057,0.3205508533965356,-0.011580857520636516,-0.011140388540765468,-0.0037322836649594073
1765408048.120396,-9.912425093799449,-0.012091773261832313,0.32753683509538023,-0.01180948318776796,-0.011189037697718455,-0.003729009155006745
1765408048.120596,-9.904595569473877,-0.026432577915790963,0.33467455950276864,-0.011956199584803944,-0.0111794162802474,-0.003680450736781529
1765408048.120796,-9.898019629071314,-0.04067385484051365,0.3418189549710333,-0.012016351459201645,-0.011116348379590564,-0.003590362066309757
1765408048.120996,-9.892753072887901,-0.05449699143016352,0.3488242347537769,-0.011988756264308837,-0.011004724289407282,-0.003463194408292793
1765408048.121235,-9.88880344639964,-0.06760070963727577,0.355545542993881,-0.011875607087447101,-0.01084924505707573,-0.0033039523199140646
1765408048.121435,-9.886132343684604,-0.07971218691863827,0.36184023257348535,-0.011682195044869517,-0.010654253910893233,-0.003118017297833046
1765408048.121635,-9.884659830037691,-0.09059596863014115,0.3675691936464091,-0.011416474873476839,-0.010423670209660984,-0.002910948050862153
1765408048.121835,-9.884270841245526,-0.10006041218906095,0.37259866716869344,-0.011088508071894149,-0.010161023941980896,-0.002688270715380737
1765408048.122035,-9.884823229263858,-0.10796150453131399,0.37680297403468815,-0.010709826606122299,-0.009869570765166959,-0.0024552772082822704
1765408048.122208,-9.886156850791293,-0.11420397524565461,0.38006835797637767,-0.010292765549533654,-0.0095524566773908,-0.0022168516258176986
1765408048.122408,-9.888102887432833,-0.11873983543958434,0.3822977954528451,-0.009849814380569316,-0.009212903318964731,-0.0019773413048108763
1765408048.122608,-9.890492674104888,-0.12156479469525197,0.38341644151093723,-0.00939303456980776,-0.008854394752598036,-0.0017404823946767125
1765408048.122808,-9.893165616988604,-0.12271324531713176,0.3833772981647998,-0.008933584789222399,-0.008480851795886462,-0.001509381144595705
1765408048.123008,-9.895975982562637,-0.12225250414625258,0.3821664542928687,-0.0084813821428246,-0.008096775486454343,-0.0012865415292985024
1765408048.123162,-9.898798362408238,-0.1202768527618245,0.37980697652729734,-0.008044908846249721,-0.007707336051426256,-0.0010739203498967773
1765408048.123362,-9.901531718997587,-0.11690180580590921,0.3763606703805936,-0.007631154506792469,-0.00731838748464847,-0.000872990241156837
1765408048.123562,-9.904102165060012,-0.11225900256444375,0.3719274953619919,-0.007245670667194509,-0.006936398413089132,-0.0006848019782849983
1765408048.123762,-9.906464691903752,-0.10649203195046159,0.3666428331473732,-0.0068927080290215855,-0.00656830027557169,-0.0005100515192524898
1765408048.123962,-9.908603734472686,-0.09975328559302048,0.360672728206776,-0.006575405426845558,-0.0062212625379061085,-0.0003491630555489032
1765408048.124175,-9.910532086147512,-0.09220166349547905,0.35420701806496063,-0.006296000825257881,-0.005902413153649265,-0.00020239418824156575
1765408048.124375,-9.912287730420358,-0.08400075845558229,0.34745042854084995,-0.006056037581737213,-0.005618528223919725,-6.9958068402679e-05
1765408048.124575,-9.913928628529138,-0.0753170924136354,0.34061218206055677,-0.005856544164498718,-0.00537571445238473,4.7853962314334824e-05
1765408048.124775,-9.915525988668,-0.06631808827756175,0.33389511405237704,-0.005698172528781187,-0.0051791040609726665,0.00015057222290983251
1765408048.124975,-9.917156778679256,-0.057169685990116605,0.32748553216224235,-0.005581288296386244,-0.005032580060054668,0.00023749250968279004
1765408048.125174,-9.918896238451445,-0.048033722271876106,0.321545009013375,-0.005506012688720883,-0.004938550536199226,0.0003076754832133499
1765408048.125374,-9.920810965672484,-0.039065273313922955,0.31620486844492307,-0.005472220814525628,-0.004897789317950157,0.00035999911207572826
1765408048.125574,-9.922952902095345,-0.03041012159934823,0.31156343970971734,-0.0054795038612859585,-0.004909356026585491,0.0003932503141508125
1765408048.125774,-9.925354458537718,-0.022202454934405057,0.3076856655505341,-0.005527104118874457,-0.004970604719287846,0.0004062384903334138
1765408048.125974,-9.92802515370467,-0.014562889576902664,0.3046046031638581,-0.005613831288349348,-0.0050772870243075375,0.0003979172882565623
1765408048.126163,-9.930950228825122,-0.007596897019719933,0.3023244677395156,-0.0057379676017855555,-0.005223747803519051,0.00036750639688796013
1765408048.126363,-9.934091461465602,-0.0013936765023634609,0.30082480939449674,-0.005897170238682586,-0.005403198265931771,0.00031460820348968557
1765408048.126563,-9.937389943170812,0.003974532555030469,0.3000652667633816,-0.006088381774879502,-0.00560804040101145,0.0002393143872604163
1765408048.126763,-9.940770211956124,0.008452743742222595,0.29999031298387124,-0.0063077599991894105,-0.005830213787282917,0.00014229654695268188
1765408048.126963,-9.94414498632594,0.012003188013663449,0.30053350546905006,-0.006550637606779614,-0.006061539883470064,2.487380986145468e-05
1765408048.127141,-9.947419836130198,0.01460500186365941,0.30162093675416807,-0.006811523576322596,-0.006294045649699274,-0.00011095022798776784
1765408048.127341,-9.950497447931633,0.01625365917795509,0.3031739053585345,-0.007084161613929013,-0.006520254637738746,-0.00026248763971835283
1765408048.127541,-9.953281579032312,0.01696015230577821,0.3051111723401181,-0.007361661612162438,-0.006733436366811668,-0.0004264059174413275
1765408048.127741,-9.955681052025403,0.01674994529460022,0.30735127864108147,-0.007636713069667802,-0.006927803867620423,-0.0005988050937420096
1765408048.127941,-9.957614033404294,0.015661753905998377,0.30981520287303105,-0.007901875742219767,-0.007098650775455096,-0.0007753277345673749
1765408048.128166,-9.959012486734832,0.013746244213345237,0.31242931219815684,-0.00814992719878902,-0.007242427822675189,-0.0009512982069914009
1765408048.128366,-9.959826349683736,0.011064770793527523,0.3151282415220939,-0.00837423502082393,-0.007356769242586434,-0.001121887957979979
1765408048.128566,-9.960026830245646,0.007688245505924106,0.3178571221396293,-0.008569117403723943,-0.0074404839387258,-0.001282300274517509
1765408048.128766,-9.959608336718926,0.0036961082591691723,0.32057264545415454,-0.008730159863956699,-0.0074935220281288056,-0.0014279632777703497
1765408048.128966,-9.95858891334577,-0.0008247619851413636,0.3232428246217335,-0.008854462345326445,-0.007516918280966287,-0.0015547180745855067
1765408048.129129,-9.957009403372684,-0.005781375669004187,0.3258456853754433,-0.008940795114208575,-0.007512704564152898,-0.0016589910514750552
1765408048.129329,-9.954931632822495,-0.011076250954757404,0.3283671759429444,-0.008989644739189399,-0.0074837788769646476,-0.0017379422908685247
1765408048.129529,-9.952435742060436,-0.016609202456453438,0.3307984803707101,-0.009003138951472497,-0.007433723943445079,-0.0017895833052281095
1765408048.129729,-9.949616666514835,-0.022279105926103628,0.33313293807026634,-0.008984853386872051,-0.007366581286864138,-0.0018128574527138007
1765408048.129929,-9.94657980486163,-0.02798550428853822,0.3353628626475308,-0.008939519350144542,-0.007286597232419683,-0.0018076776852729553
1765408048.130133,-9.943436025131183,-0.03363003904512141,0.33747654249272335,-0.008872663329311657,-0.007197960004392453,-0.0017749187544687992
1765408048.130333,-9.94029632437838,-0.03911776599084207,0.33945572260993895,-0.008790213281662799,-0.007104547371592937,-0.0017163633071718269
1765408048.130533,-9.937266703697967,-0.044358414410144466,0.34127406570656205,-0.008698105094407188,-0.007009706681840895,-0.0016346033331863467
1765408048.130733,-9.934443963884437,-0.04926760953912729,0.3428972057143865,-0.008601918489664852,-0.006916088774881468,-0.0015329011434966982
1765408048.130933,-9.931912900806052,-0.0537680356051209,0.3442846984416729,-0.008506567886607678,-0.006825550111794653,-0.0014150176833809993
1765408048.131208,-9.929744862509482,-0.05779049387910625,0.3453936153143701,-0.00841607000018054,-0.006739129236218134,-0.0012850194746342285
1765408048.131408,-9.927997217455706,-0.0612748194393334,0.34618316012855604,-0.008333402860300867,-0.006657100257078939,-0.0011470773691388797
1765408048.131608,-9.926713182852106,-0.0641706411192678,0.3466195798270248,-0.008260458850065152,-0.0065791034217222355,-0.0010052701984898178
1765408048.131808,-9.925921535431248,-0.06643797197691655,0.3466805622884843,-0.008198081273758389,-0.006504344897645583,-0.0008634057281059335
1765408048.132008,-9.92563586398169,-0.06804762014270105,0.3463583152967764,-0.008146166408645615,-0.006431846529521029,-0.0007248714464241175
1765408048.132232,-9.92585331302446,-0.06898144255959046,0.3456608512289343,-0.00810381313596772,-0.006360717394906245,-0.0005925277759943939
1765408048.132432,-9.926553196706802,-0.06923250142961535,0.3446115573919277,-0.008069505803835619,-0.006290414195402283,-0.00046865416118639967
1765408048.132632,-9.92769616545603,-0.06880518081066643,0.34324749788177816,-0.00804131744769878,-0.00622095638643822,-0.0003549532638887331
1765408048.132832,-9.929224588888326,-0.06771528717862571,0.34161693373773205,-0.008017118905192076,-0.00615306627206785,-0.00025261094574732443
1765408048.133032,-9.931064585760861,-0.06599012371652174,0.33977650834076434,-0.007994777858332863,-0.006088215306530199,-0.00016240142409595327
1765408048.133118,-9.933129838902895,-0.0636684887985226,0.3377885382532125,-0.007972333151384296,-0.006028571780655602,-8.481982217264965e-05
1765408048.133318,-9.935326932729263,-0.060800496922003205,0.3357186839142895,-0.00794813377203171,-0.005976857070828771,-2.021983754311598e-05
1765408048.133518,-9.937561462945268,-0.057447090293475785,0.3336339232906229,-0.007920937034449325,-0.005936127876096833,3.106659321774679e-05
1765408048.133718,-9.939743908739855,-0.05367913484378534,0.33160056085409206,-0.007889965650883585,-0.005909511597513512,6.864727886978223e-05
1765408048.133918,-9.941794446692315,-0.04957605176091359,0.3296821555443391,-0.007854928209880757,-0.005899926749047079,9.203733456740934e-05
1765408048.134182,-9.943646266447523,-0.0452239774456293,0.32793742158591344,-0.007816011506140978,-0.005909815712226131,0.0001006780435913943
1765408048.134382,-9.945247159202744,-0.04071346999233515,0.32641805763308723,-0.007773854956801984,-0.00594090829183356,9.399929803552675e-05
1765408048.134582,-9.946559257808225,-0.036136833042866245,0.32516634899879027,-0.007729516290684915,-0.005994030176929293,7.151235641274295e-05
1765408048.134782,-9.947557110444125,-0.031585229250340435,0.3242126317388749,-0.007684434313328154,-0.006068971165413401,3.2919058026844846e-05
1765408048.134982,-9.948224729779541,-0.027145862006156665,0.3235731381802459,-0.0076403896231654785,-0.006164426944478143,-2.1774004046216275e-05
1765408048.135236,-9.948552505649472,-0.022899541231987026,0.32324887331003693,-0.007599458487412879,-0.00627802139340224,-9.214613849774521e-05
1765408048.135436,-9.948534726105033,-0.018918878345807456,0.32322588227855326,-0.00756395035453623,-0.006406407367934281,-0.00017726908537290693
1765408048.135636,-9.94816813491375,-0.015267210154688491,0.3234769095128566,-0.0075363177155891746,-0.006545437464389992,-0.0002756434831602303
1765408048.135836,-9.947451706263934,-0.01199820948893036,0.3239642948221101,-0.00751902933312057,-0.006690391588902971,-0.0003851798473122555
1765408048.136036,-9.946387607007367,-0.009156056386276226,0.3246438708604704,-0.007514404683952838,-0.006836241788664052,-0.0005032329386620672
1765408048.136186,-9.944983012040964,-0.00677601196274529,0.3254693793181888,-0.007524418327307365,-0.0069779273924939385,-0.0006266874493796401
1765408048.136386,-9.943252134734168,-0.004885221513419557,0.3263966099894035,-0.007550494386881923,-0.007110610727903967,-0.0007520824215875919
1765408048.136586,-9.94121780151441,-0.0035035559862162196,0.3273864550945716,-0.007593317979019766,-0.00722989034966597,-0.000875757205628071
1765408048.136786,-9.938912195370955,-0.0026443012750968944,0.32840646679227725,-0.007652689301946837,-0.0073319626853856,-0.0009940034711023386
1765408048.136986,-9.936376725430758,-0.002314548522763525,0.32943095546824447,-0.007727438724554247,-0.00741373596758283,-0.0011032123629598244
1765408048.137162,-9.9336610819731,-0.0025152081967913602,0.3304398391963501,-0.00781541138416682,-0.007472906029585058,-0.001200010778080445
1765408048.137362,-9.930821517195005,-0.003240628091212496,0.3314164853743794,-0.007913521389339975,-0.007508003570308657,-0.001281385233699654
1765408048.137562,-9.927918530837813,-0.0044778565077383025,0.33234500499047737,-0.008017870664062942,-0.007518421822423393,-0.0013447947681558884
1765408048.137762,-9.925014431736596,-0.006205697006445137,0.33320783745273863,-0.008123924677080688,-0.007504432675619113,-0.0013882741542935492
1765408048.137962,-9.922171361337481,-0.008393809478596801,0.3339845766771903,-0.008226735284249337,-0.007467194526006794,-0.0014105254509361432
1765408048.13817,-9.919450071917105,-0.011002127646781565,0.3346525561655052,-0.008321200244262745,-0.00740874627397454,-0.0014109915074059691
1765408048.13837,-9.916909250043927,-0.01398076917816967,0.33518898633155536,-0.008402349680043216,-0.007331974522457914,-0.001389901600529525
1765408048.13857,-9.914604896180132,-0.01727049373985092,0.33557393769764315,-0.008465648980895472,-0.0072405392683176206,-0.0013482781532190538
1765408048.13877,-9.91258937812993,-0.02080368113861635,0.3357933835751971,-0.008507302910911922,-0.0071387463601938275,-0.0012878952552650375
1765408048.13897,-9.910910042360861,-0.024505749963790357,0.3358416706562124,-0.008524538944056689,-0.007031362168697417,-0.0012111852146394545
1765408048.139216,-9.909607470907577,-0.02829690771519133,0.3357230564430867,-0.00851584376783942,-0.006923378543570712,-0.0011210981763675558
1765408048.139416,-9.908713625469636,-0.03209413643028827,0.33545234140847563,-0.008481127761874362,-0.006819750817532682,-0.0010209293327931904
1765408048.139616,-9.908250224926853,-0.03581335789383263,0.3350549047916299,-0.008421796598168448,-0.006725139242049223,-0.0009141348218416807
1765408048.139816,-9.90822762912946,-0.03937172564483611,0.3345663299318285,-0.008340715529474565,-0.0066436791165297195,-0.0008041586778733178
1765408048.140016,-9.908644288230436,-0.04268993962339947,0.33403145678942325,-0.008242061055270887,-0.00657879172523203,-0.0006942886329320955
1765408048.140185,-9.909486741657984,-0.04569443978052353,0.3335026234818761,-0.008131066597940773,-0.006533037258962809,-0.0005875495864128459
1765408048.140385,-9.910730309170843,-0.048319360579337056,0.33303713118351924,-0.0080136817053114,-0.006508007317149863,-0.0004866340004781816
1765408048.140585,-9.912340725049548,-0.05050818654009529,0.3326941776056935,-0.007896175484846299,-0.00650425602171506,-0.0003938626262322499
1765408048.140785,-9.914276804526676,-0.05221508390620026,0.33253147436039526,-0.007784721837350227,-0.006521272512035616,-0.00031116764399251513
1765408048.140985,-9.916493971170102,-0.05340589266781017,0.3326017642142715,-0.007685004468354778,-0.006557503199310157,-0.00024009097645690726
1765408048.141152,-9.918948338347162,-0.05405877302698014,0.33294959941168273,-0.007601873688579404,-0.006610435970329379,-0.00018179155065977643
1765408048.141402,-9.921600938182701,-0.0541645190522875,0.33360872862075386,-0.007539077866254475,-0.006676754402604914,-0.0001370568932963472
1765408048.141652,-9.924421491272007,-0.053726577506378784,0.3346001239739568,-0.0074990841157323105,-0.006752558690403866,-0.00010631607193313869
1765408048.141902,-9.927390991048801,-0.05276083377327665,0.3359304333033029,-0.007482996461574503,-0.006833639036501262,-8.965146278279808e-05
1765408048.142146,-9.930502581005548,-0.051295221458819415,0.3375907927355894,-0.007490572939620993,-0.0069157802857125715,-8.68071804252815e-05
1765408048.142346,-9.933760575039097,-0.049369157119533866,0.33955619153420435,-0.007520334232482174,-0.0069950705145331565,-9.71945651704022e-05
1765408048.142546,-9.937177648810344,-0.04703272131349568,0.34178547373485557,-0.007569747567735632,-0.007068181028026256,-0.00011989955890155099
1765408048.142746,-9.940770231670063,-0.04434545275053298,0.34422172391577194,-0.007635464448569962,-0.007132586983649727,-0.00015369995714761727
1765408048.142946,-9.944552321486775,-0.04137463019919139,0.34679276976858403,-0.007713590479670358,-0.00718671008484891,-0.0001971002296762059
1765408048.143175,-9.948528397580318,-0.03819299103759675,0.3494119291986157,-0.007799967258596716,-0.007229980845407875,-0.00024838840548934555
1765408048.143375,-9.952686408812239,-0.03487595454120452,0.35197942532822923,-0.00789044663105149,-0.0072628276404926705,-0.00030571518234485116
1765408048.143575,-9.956991680767084,-0.03149855712501571,0.3543847880395688,-0.007981137266698576,-0.007286600894269503,-0.0003671917478215385
1765408048.143775,-9.961382270285373,-0.02813243586246014,0.35651036094845984,-0.008068606186657739,-0.007303438830279099,-0.00043100065767993933
1765408048.143975,-9.965766152141066,-0.024843256789367513,0.35823603866587056,-0.00815002447392232,-0.007316079752402684,-0.0004955118467164927
1765408048.144201,-9.970020582100808,-0.02168891270371549,0.35944534120406346,-0.00822325401292262,-0.00732762460090596,-0.0005593910339245885
1765408048.144401,-9.973993778213726,-0.018718618909474644,0.3600325885155571,-0.008286878157415228,-0.0073412552050202,-0.0006216820890881376
1765408048.144601,-9.977508764903614,-0.015972810016225428,0.3599105170994767,-0.008340183184631424,-0.007359922026571498,-0.0006818440123391957
1765408048.144801,-9.98036913975117,-0.013483589307153583,0.3590176554853991,-0.00838309969267177,-0.007386026301238163,-0.0007397305354560037
1765408048.145001,-9.982366666146397,-0.011275438378105221,0.3573250856732848,-0.008416114344496949,-0.007421125757726208,-0.0007955134371502728
1765408048.145118,-9.983290642124812,-0.009365937172065771,0.35484237147019815,-0.008440162330804952,-0.007465687599826381,-0.0008495633113547204
1765408048.145318,-9.982938812473085,-0.007766347370740184,0.3516223170186236,-0.008456509318525578,-0.00751890394937788,-0.0009023089910417071
1765408048.145518,-9.98112943781715,-0.006482046515118776,0.34776421877783864,-0.008466630529832988,-0.007578579904705873,-0.0009540986709233776
1765408048.145718,-9.977714184391303,-0.005512902811518398,0.3434155171725532,-0.008472096249870022,-0.007641102130268498,-0.001005084208079947
1765408048.145918,-9.9725914947926,-0.004853684521078922,0.3387718110814936,-0.008474475472421751,-0.007701493538374069,-0.001055146166118885
1765408048.146162,-9.965719772244691,-0.004494518996772036,0.3340748237704208,-0.008475268306491724,-0.007753557524292937,-0.0011038698909275819
1765408048.146362,-9.957129266565126,-0.004421352143096216,0.329607530006777,-0.008475872275728918,-0.007790114412182836,-0.0011505721828412596
1765408048.146562,-9.946931396783057,-0.004616371795037976,0.32568574625051444,-0.008477580423847386,-0.007803330266137906,-0.0011943673981298641
1765408048.146762,-9.935324407921835,-0.005058418310225964,0.3226459012262871,-0.008481603069895864,-0.007785129356579024,-0.0012342558670234603
1765408048.146962,-9.922594455374782,-0.005723464981918757,0.3208290400815026,-0.00848910135720566,-0.0077276673614663765,-0.0012692176832458655
1765408048.147157,-9.909111364359026,-0.006585292618883639,0.320561371939834,-0.008501218869965558,-0.007623830765330925,-0.0012982984934571974
1765408048.147357,-9.895318589659547,-0.007616473263790209,0.322132086051015,-0.008519096597077096,-0.00746772459599683,-0.0013206784664453349
1765408048.147557,-9.8817172924436,-0.008789679400660536,0.32576966952478453,-0.008543856886376202,-0.007255112030235048,-0.0013357209926121323
1765408048.147757,-9.868844741430404,-0.010079194154551085,0.3316182914847694,-0.00857654522589774,-0.006983769888018281,-0.0013430033746261972
1765408048.147957,-9.857247442731849,-0.011462415919773072,0.3397160033118786,-0.008618025067171733,-0.006653725856539724,-0.0013423356617441198
1765408048.148159,-9.847449789008577,-0.012921138779631126,0.3499767798188218,-0.008668829590280178,-0.0062673518436264794,-0.0013337742585418822
1765408048.148359,-9.839919681500762,-0.014442365090121544,0.3621786922646175,-0.008728984472432255,-0.005829301849914114,-0.0013176343884364046
1765408048.148559,-9.835033290686598,-0.016018340951257204,0.3759603895381853,-0.008797826107448822,-0.005346296628707367,-0.0012945008595408398
1765408048.148759,-9.833041792672025,-0.017645482042027944,0.39082756120740436,-0.008873847849772541,-0.0048267687279735716,-0.0012652303601545015
1765408048.148959,-9.834043702684182,-0.019321984472390415,0.40617052099458495,-0.008954610222201547,-0.004280389620423197,-0.001230931855930196
1765408048.14919,-9.837967163048775,-0.021044266333910523,0.42129349993957554,-0.009036748026879128,-0.003717504475307997,-0.001192907684983816
1765408048.14939,-9.844566489566258,-0.022802951616398268,0.43545525558473674,-0.009116096800138213,-0.003148503558187012,-0.001152542023184143
1765408048.14959,-9.853435746740482,-0.02457963389016767,0.44791897189188595,-0.009187943362004078,-0.002583171439424844,-0.0011111411471860268
1765408048.14979,-9.864039220018567,-0.02634562726490843,0.45800736657130936,-0.009247383094220045,-0.0020300770028861396,-0.0010697590056428718
1765408048.14999,-9.875755297126007,-0.02806306367083818,0.4651569128185686,-0.009289743671080266,-0.0014960817714270846,-0.0010290636029838482
1765408048.150145,-9.88792765721549,-0.02968754212444357,0.46896396721466893,-0.009311016300275457,-0.0009860314782183317,-0.0009892920108485741
1765408048.150345,-9.899916751127643,-0.031171000827222264,0.46921638597684706,-0.009308230551530686,-0.000502656836743006,-0.0009503045524340177
1765408048.150545,-9.911145541756179,-0.03246399080882058,0.4659069786643355,-0.009279725028218215,-4.666712105059186e-05,-0.0009117086643106803
1765408048.150745,-9.92113553909897,-0.03351764691163732,0.45922846958284635,-0.009225294856914394,0.0003830019386694952,-0.0008730069579549033
1765408048.150945,-9.929531104796641,-0.03428641746111657,0.44955196220442656,-0.009146217011772397,0.000788823990699435,-0.0008337373342153376
1765408048.151143,-9.936111390896167,-0.03473219631381588,0.43739223361757573,-0.00904515786045857,0.0011742346728221423,-0.0007935993534159623
1765408048.151343,-9.940790532334539,-0.03482906536844772,0.4233643981942513,-0.008925969718878025,0.001543138356896142,-0.000752573989460129
1765408048.151543,-9.94360793754008,-0.0345667986116751,0.4081373329144012,-0.008793398547969268,0.0018994133111488575,-0.0007110283930540193
1765408048.151743,-9.944711198581228,-0.03395187152497012,0.39238874354605324,-0.008652742761798426,0.0022464566338013816,-0.0006697705382216405
1765408048.151943,-9.94433413748914,-0.03300644477925642,0.3767651756015986,-0.00850950488204307,0.002586799418632143,-0.0006300175230582986
1765408048.152159,-9.942772365599058,-0.0317667829492188,0.36184903553154524,-0.008369064167696217,0.002921814340190971,-0.0005932783364307262
1765408048.152359,-9.940358705807519,-0.03028185620380902,0.3481341094987237,-0.008236385831323812,0.0032515346810438875,-0.0005611946747169192
1765408048.152559,-9.937440499000607,-0.028611502812106126,0.3360102639811991,-0.008115779908768663,0.0035745996686896114,-0.000535390585896209
1765408048.152759,-9.934359988813465,-0.026823197395316824,0.32575675871691473,-0.00801072436817174,0.0038883319617355225,-0.0005173511493012678
1765408048.152959,-9.931438120276873,-0.024987536344568902,0.31754267246707435,-0.007923763607862537,0.0041889411439473044,-0.000508318195815947
1765408048.153177,-9.928961612549674,-0.023173800853626816,0.3114326807015142,-0.007856482572479681,0.004471835372347122,-0.0005091882193064071
1765408048.153377,-9.927172958826876,-0.021447053272408045,0.30739643175709114,-0.007809542951769206,0.004732013455724733,-0.000520419688887255
1765408048.153577,-9.926262931614703,-0.019867055275937438,0.3053199722585378,-0.007782759904260323,0.00496450225259193,-0.0005419758790823121
1765408048.153777,-9.926365405111909,-0.018487944831399376,0.30501841577126904,-0.007775201402747554,0.005164799246073931,-0.0005733251981835168
1765408048.153977,-9.927554825678028,-0.0173572367612598,0.30625003624932085,-0.007785304087153802,0.005329276463387914,-0.0006134988322370608
1765408048.154137,-9.929846954666642,-0.01651356058006839,0.30873225655672487,-0.00781100879612947,0.00545550010289327,-0.0006611856176158034
1765408048.154337,-9.933203176549524,-0.01598381983474278,0.31215926663423404,-0.007849918662930461,0.0055424239244553026,-0.0007148412763532158
1765408048.154537,-9.937537943944333,-0.015781049112916088,0.3162200111071239,-0.007899474660716945,0.005590426920561344,-0.0007728014633904579
1765408048.154737,-9.942728341114387,-0.01590372227727123,0.3206148819061228,-0.007957134176322525,0.005601186514200106,-0.0008334005642316345
1765408048.154937,-9.948624544453056,-0.016336241802488823,0.32506972031109366,-0.008020533562571016,0.005577404133269636,-0.000895096752907944
1765408048.155126,-9.955060116333339,-0.01704987757691368,0.32934632202744296,-0.008087618617869661,0.005522425164711959,-0.000956588698663364
1765408048.155376,-9.961861487389305,-0.018003942018412548,0.3332493120941281,-0.008156734409445287,0.005439812672751859,-0.001016896599158655
1765408048.155626,-9.968856451861761,-0.01914780034194614,0.3366297974900086,-0.008226670545548298,0.005332937966855433,-0.001075386453602079
1765408048.155876,-9.97588169631379,-0.020424400627549362,0.3393863210832278,-0.008296657450116061,0.005204640684608533,-0.001131739690083095
1765408048.156161,-9.982789198827154,-0.021775171665163316,0.34146338423878936,-0.008366308976204785,0.005056991259504708,-0.0011858903070183853
1765408048.156361,-9.989451087588494,-0.02314518238197147,0.34284767202873956,-0.008435512656250154,0.004891167514049735,-0.0012379520287994277
1765408048.156561,-9.99576258448541,-0.024487271603296386,0.3435623557084846,-0.008504279941671425,0.0047074427747547404,-0.0012881429261432987
1765408048.156761,-10.001642958704808,-0.025764533169583267,0.3436601334158524,-0.00857257891850819,0.00450527719163442,-0.0013367026794616755
1765408048.156961,-10.007034753087382,-0.026951403605641536,0.34321570202488294,-0.008640176359773244,0.0042835007084013315,-0.0013837998077984126
1765408048.157169,-10.011901792330233,-0.028033933032977017,0.3423182551910527,-0.008706513549604613,0.004040568921211358,-0.0014294379755235246
1765408048.157369,-10.016226525213652,-0.029009515065223403,0.34106448600479855,-0.008770632993385366,0.0037748615743508204,-0.0014733789193852854
1765408048.157569,-10.020006976058777,-0.02988587600736668,0.3395522932096665,-0.008831164559964532,0.003484981563299169,-0.0015150972446050296
1765408048.157769,-10.023253151950655,-0.030678967768072316,0.3378749956829344,-0.008886373086222048,0.003170005803486956,-0.0015537724711834882
1765408048.157969,-10.025982622843607,-0.03140966470426606,0.3361157690442223,-0.00893426504174007,0.002829646108223603,-0.0015883140128434884
1765408048.158156,-10.028215382503532,-0.03209959780322924,0.33434246380409516,-0.008972746676822052,0.0024643022335630463,-0.0016174101458375305
1765408048.158356,-10.029968713500082,-0.03276680061654678,0.3326035876852034,-0.008999818368347394,0.0020750205621445548,-0.001639592718770433
1765408048.158556,-10.03125314088069,-0.033421945782231885,0.3309264558877774,-0.00901378101502038,0.0016633919726826286,-0.0016533132149462197
1765408048.158756,-10.032070418048626,-0.034065803872054747,0.32931810017070673,-0.009013423893440727,0.001231423704409026,-0.0016570300684001621
1765408048.158956,-10.032413889765857,-0.034688240575426084,0.32776869770486655,-0.008998162986981278,0.0007814118192679411,-0.001649309103950735
1765408048.159182,-10.032270794990163,-0.03526872779489854,0.32625648627839976,-0.008968105522451711,0.0003158333291299584,-0.0016289370657110636
1765408048.159382,-10.031625534600066,-0.035778113454199276,0.3247528421771227,-0.008924028336125562,-0.00016273008802994486,-0.0015950431030024002
1765408048.159582,-10.03046293953109,-0.036181321150085696,0.3232266080329428,-0.008867272272231887,-0.0006516340947737505,-0.0015472168692525121
1765408048.159782,-10.02877099921813,-0.03644068381765678,0.32164754771829707,-0.008799570336042003,-0.0011481845384896298,-0.001485607242238785
1765408048.159982,-10.026542910811536,-0.03651966784768828,0.31998934797455597,-0.008722841093427119,-0.001649628869672865,-0.0014109860217063883
1765408048.160144,-10.023778447855074,-0.036386739540728366,0.3182325655564936,-0.008638986168505784,-0.002153133483168786,-0.0013247680447477858
1765408048.160344,-10.02048467158626,-0.03601902011726455,0.3163675767440809,-0.00854972683721324,-0.002655753666452855,-0.001228988900845996
1765408048.160544,-10.016676098807721,-0.03540522935669424,0.3143972966996798,-0.00845649941664625,-0.003154400087783124,-0.0011262456429159302
1765408048.160744,-10.012374539034012,-0.034547433157441465,0.3123393094643908,-0.00836040983414253,-0.0036458010066247677,-0.0010196013960525325
1765408048.160944,-10.007608832682326,-0.03346142567385794,0.31022705624810004,-0.0082622345387535,-0.0041264596351048574,-0.0009124488204719319
1765408048.161192,-10.002414715956828,-0.032176011126562494,0.3081098540160356,-0.008162451761566701,-0.004592615619979955,-0.0008083302359858817
1765408048.163124,-9.99683500524259,-0.030731628375434777,0.30605165534926915,-0.008061290440405969,-0.005040230556694897,-0.0007107248312683673
1765408048.165132,-9.990920125234775,-0.02917853367810863,0.3041285076867633,-0.007958789113393126,-0.005465018090288723,-0.0006228257805592277
1765408048.168132,-9.98472876387975,-0.027574378512078074,0.30242474223441623,-0.007854862039060412,-0.0058625280811304996,-0.0005473318618604053
1765408048.170171,-9.978328345924993,-0.025980896428491256,0.30102816342004957,-0.007749374101985942,-0.006228279685663049,-0.00048626891423715423
1765408048.171169,-9.971795067841837,-0.024459728413084553,0.3000247239405318,-0.007642227912967139,-0.006557927281403772,-0.0004408458749575893
1765408048.176187,-9.965213185862964,-0.02306795789213509,0.29949306306246043,-0.0075334644772317196,-0.006847438639676952,-0.00041134834206214377
1765408048.178194,-9.95867307918696,-0.021854243489007497,0.29949897942065395,-0.007423373395104582,-0.007093267485543868,-0.0003970805260738492
1765408048.180169,-9.952267627488062,-0.020856225194827313,0.30008979455705737,-0.007312601428605356,-0.007292510432958252,-0.00039637514261928414
1765408048.183154,-9.946086811730614,-0.020099275926713133,0.30128873710893755,-0.007202242259491936,-0.0074430438327546915,-0.00040668952942151597
1765408048.185179,-9.9402109796406,-0.019596167774470732,0.303089751303788,-0.007093889503723931,-0.007543633011998623,-0.0004247916889705801
1765408048.187298,-9.934703677624457,-0.019347221168861232,0.3054534298368965,-0.006989641009509772,-0.00759399780912038,-0.000447019325268967
1765408048.190153,-9.929605252136442,-0.019340914182150625,0.3083050565518199,-0.006892050793335641,-0.007594813434447823,-0.00046958082264475704
1765408048.19318,-9.92492844650808,-0.019555252799481098,0.3115357361013233,-0.006804029818676197,-0.007547630811360439,-0.0004888667193662595
1765408048.195251,-9.920656823129974,-0.019960063726315355,0.31500702978761863,-0.006728697536431467,-0.00745471684052651,-0.0005017486739310399
1765408048.19624,-9.916746180314448,-0.020519887036285288,0.3185586715551634,-0.006669187576325191,-0.007318838631595127,-0.0005058481523645193
1765408048.200174,-9.913128623993149,-0.021196779527258822,0.3220183555862004,-0.006628418007639715,-0.0071430357359285376,-0.0004997526932266924
1765408048.202259,-9.909718786422859,-0.021952442857468005,0.32521244454670495,-0.006608847919144751,-0.006930428320874479,-0.00048315024936193784
1765408048.203168,-9.906421677711387,-0.022749587798246877,0.3279765470146767,-0.006612250186735233,-0.006684095842045073,-0.0004568547445502626
1765408048.20824,-9.903141656007392,-0.023552905011610004,0.3301651729434011,-0.006639528685240365,-0.006407041464517474,-0.000422714038905711
1765408048.20914,-9.899792024885976,-0.024330047928162974,0.3316600912226559,-0.006690598080723106,-0.006102241674781899,-0.00038341639342549805
1765408048.212173,-9.896304724871548,-0.025052680688627486,0.3323772985982754,-0.006764332848996544,-0.005772767173391862,-0.0003422284631450835
1765408048.215178,-9.89263933390786,-0.025697310708675897,0.3322723860309671,-0.006858585448232717,-0.00542194802354849,-0.00030269952284824855
1765408048.218207,-9.888790307418024,-0.026245650071670543,0.3313437975632475,-0.006970272378287221,-0.005053548065974531,-0.00026835870685184567
1765408048.22014,-9.884791461507445,-0.02668456316750052,0.32963348344453075,-0.0070955268792370855,-0.004671915048605557,-0.00024242549587971625
1765408048.223153,-9.88071716898756,-0.02700590199563938,0.32722477830940183,-0.007229913236421348,-0.004282078843237078,-0.00022755340396758087
1765408048.22515,-9.876680247271397,-0.027206466921781483,0.3242376690925337,-0.007368689697491731,-0.003889774231275215,-0.00022562855610863336
1765408048.228158,-9.872826869518788,-0.02728806727074351,0.3208218733179993,-0.007507099325058578,-0.003501370310122026,-0.0002376414265716941
1765408048.231112,-9.869329101217323,-0.027257471820611733,0.31714843476085747,-0.0076406641799877,-0.003123701962384352,-0.0002636390063558299
1765408048.233121,-9.866375810415294,-0.02712606670874696,0.3134006953714009,-0.007765457296412485,-0.0027638160248245475,-0.0003027507767673173
1765408048.235246,-9.86416253582384,-0.026909186332311295,0.30976523692641705,-0.0078783273258922,-0.002428655885657909,-0.00035327244737243306
1765408048.238116,-9.862880538779677,-0.02662519854689692,0.306422894950818,-0.007977053004339003,-0.00212471224174348,-0.00041278998443211704
1765408048.240102,-9.862705137070822,-0.02629442790668551,0.3035397896907327,-0.008060410224891417,-0.0018576704097944402,-0.0004783306303986973
1765408048.241171,-9.86378366973916,-0.025937914149775303,0.30125862041264195,-0.008128144380962413,-0.0016320857077541482,-0.0005465321161153134
1765408048.245126,-9.866223739983083,-0.025575949167118195,0.2996907416469532,-0.00818085455583699,-0.0014511148667757244,-0.0006138221962173249
1765408048.246153,-9.870082466385929,-0.025226426556209235,0.29890947975292137,-0.008219811611233701,-0.0013163270932103643,-0.0006765985701519986
1765408048.250172,-9.875357525668408,-0.024903224756732567,0.29894507123814845,-0.0082467440405176,-0.001227617390159092,-0.000731398678888374
1765408048.253126,-9.881981005278293,-0.024614950044226987,0.29978178772798425,-0.008263628501706088,-0.0011832409184719481,-0.0007750530183103196
1765408048.255168,-9.889817285908398,-0.0243642854877264,0.3013579565983434,-0.00827251571588557,-0.0011799730876053802,-0.0008048220617772496
1765408048.258155,-9.898665970945371,-0.024147994399889603,0.3035693331960432,-0.00827541090447112,-0.0012133802956959825,-0.0008185201602310257
1765408048.260124,-9.908270239218613,-0.02395745590290974,0.30627579146186806,-0.008274214844982643,-0.0012781713452306007,-0.0008146277040754277
1765408048.263148,-9.918330179102197,-0.023779554963363616,0.30931089259275363,-0.008270718438936623,-0.001368592468823339,-0.0007923882813568582
1765408048.265195,-9.928519874860058,-0.023597792236740474,0.3124935308811195,-0.008266632585372663,-0.0014788255280502507,-0.0007518845606682937
1765408048.268274,-9.93850639968052,-0.023393537211103488,0.31564044425987864,-0.008263629706669787,-0.0016033484365765144,-0.0006940861871210061
1765408048.270135,-9.947968659735801,-0.02314737138274887,0.31857817518428955,-0.00826337476216896,-0.0017372234603300065,-0.0006208632696837159
1765408048.272257,-9.956614382792873,-0.02284048034582778,0.3211533499615355,-0.008267529671701428,-0.0018762932986974542,-0.0005349589827139934
1765408048.275132,-9.9641942001742,-0.02245607744319837,0.32324069499492625,-0.00827772323405622,-0.002017279836312575,-0.0004399157880496698
1765408048.278126,-9.97051227370071,-0.02198084324197499,0.3247485955712412,-0.008295487760397137,-0.0021577910892675487,-0.00033995289512915046
1765408048.279232,-9.97543316189247,-0.02140630837588933,0.32562217092033086,-0.00832217168354808,-0.002296250905972715,-0.00023979665205987289
1765408048.283223,-9.978884872797375,-0.020730021705293696,0.3258440201441724,-0.008358841527545883,-0.0024317751226281747,-0.00014446917617950798
1765408048.283723,-9.980858435012026,-0.019956322668759557,0.32543301225038257,-0.008406187106278575,-0.0025640211986637726,-5.904369661501474e-05
1765408048.286164,-9.981404627476902,-0.01909664066285674,0.32444158131760137,-0.008464444155173799,-0.002693032033650717,1.1621824021282148e-05
1765408048.290154,-9.980628575232615,-0.018169401071454178,0.32295193969456576,-0.008533350159593866,-0.0028190854305517273,6.315875361720624e-05
1765408048.292226,-9.97868278407335,-0.017199656990943276,0.32107154017485445,-0.008612148361013316,-0.002942557005286872,9.195470899334067e-05
1765408048.295132,-9.975758914458282,-0.016218434614669684,0.31892794896215865,-0.008699647551578156,-0.0030638059779248034,9.539930048857845e-05
1765408048.296228,-9.972078260143244,-0.01526162668190646,0.31666298368704887,-0.008794331861682611,-0.0031830949135715023,7.209521823329636e-05
1765408048.300164,-9.967880721555172,-0.014368264851728001,0.31442573205694213,-0.008894500992096955,-0.0033005524878998794,2.2019493086692727e-05
1765408048.302284,-9.963412240063686,-0.013578176433055754,0.31236415311812155,-0.00899841447086011,-0.0034161810798365756,-5.3383523791353315e-05
1765408048.309031,-9.958911093635278,-0.012929279825776675,0.3106153622338584,-0.009104417376354708,-0.0035299001218301964,-0.00015119737414595296
1765408048.309531,-9.954593888007773,-0.012454940205088938,0.3092952070465879,-0.00921103562976487,-0.0036416077382569554,-0.000267133167316973
1765408048.310982,-9.950642357784222,-0.012181777250761557,0.30848817223795555,-0.009317037063084394,-0.0037512415289328877,-0.00039574026441880294
1765408048.313143,-9.947192204579393,-0.012128123971110842,0.3082388914086909,-0.009421455473566199,-0.0038588224566114336,-0.0005307198723085133
1765408048.315172,-9.9443251609416,-0.012303151757760264,0.30854654114761965,-0.009523574209009067,-0.003964470197849991,-0.0006653176736205475
1765408048.31712,-9.942065270081583,-0.01270664231165581,0.30936313559487755,-0.009622870839458588,-0.0040683831020575595,-0.0007927605200923597
1765408048.318181,-9.940379970277487,-0.013329469732850378,0.31059620242440666,-0.00971893447970156,-0.004170781524103285,-0.0009066990761624511
1765408048.323145,-9.939185969289431,-0.01415488260587837,0.31211554917600043,-0.009811374523825148,-0.004271820399087701,-0.0010016210988841431
1765408048.324204,-9.938359240129575,-0.01516051162584783,0.3137631122002995,-0.009899738212392255,-0.004371484864629015,-0.0010732048165400466
1765408048.32814,-9.93774798417769,-0.016320749588805618,0.31536456701637877,-0.00998344710090396,-0.004469487476971459,-0.0011185870978589149
1765408048.330149,-9.937187175239236,-0.01760899400956462,0.3167414984655775,-0.010061756399510959,-0.004565182870262655,-0.0011365279670901283
1765408048.333162,-9.936513292794633,-0.018999337995616893,0.31772325230948856,-0.010133739854798948,-0.004657507291677918,-0.0011274625469417695
1765408048.335155,-9.935578069696975,-0.020467531613109886,0.3181579351413743,-0.010198303414931944,-0.004744942803041665,-0.001093442011943615
1765408048.337212,-9.934260431300746,-0.02199124421943668,0.31792225075927355,-0.010254229623694216,-0.004825502716517295,-0.0010379732829310449
1765408048.340134,-9.932476046614191,-0.02354979290141362,0.31692980484602856,-0.01030025207243236,-0.004896734811441071,-0.0009657719743410513
1765408048.342313,-9.930183941070897,-0.025123577706479716,0.31513727198985547,-0.010335157694881329,-0.004955740939087816,-0.0008824465239037257
1765408048.345219,-9.92738965325672,-0.026693462044824968,0.31254775169046833,-0.010357913734641792,-0.004999215891327044,-0.0007941346779622839
1765408048.348146,-9.92414467887934,-0.028240262248051453,0.30921090279042923,-0.010367813065548811,-0.005023512713177829,-0.0007071156321062223
1765408048.350136,-9.920542374142947,-0.02974442528817642,0.30521986586853905,-0.010364625411104441,-0.0050247426032405595,-0.0006274223910426264
1765408048.353156,-9.916710927323049,-0.031185917063651796,0.3007054155532405,-0.010348736004283973,-0.0049989155638868465,-0.0005604812514933082
1765408048.355124,-9.912804388123899,-0.032544300307603524,0.29582820790090214,-0.010321251989631302,-0.004942126680671057,-0.0005108076907605211
1765408048.358104,-9.908992964057392,-0.03379892948723682,0.29077022912830297,-0.01028406229314264,-0.004850793396149189,-0.00048178517586874674
1765408048.360116,-9.90545366793311,-0.034929132946373814,0.2857263749083273,-0.010239845815966242,-0.004721948126697466,-0.00047554221012696267
1765408048.362176,-9.902361943739145,-0.035914220865610934,0.2808965998725129,-0.010192030330255467,-0.004553585211172022,-0.0004929264457192964
1765408048.365188,-9.89988440224529,-0.03673319609566333,0.27647865551214973,-0.010144707305457482,-0.004345051622340949,-0.000533559448391084
1765408048.368142,-9.898172519977651,-0.03736417119788461,0.27266126795905865,-0.0101025073859992,-0.004097457089080758,-0.0005959466156857627
1765408048.370148,-9.897357111163684,-0.037783678718010555,0.26961760293484577,-0.010070441109886228,-0.0038140611362770084,-0.0006776155789363634
1765408048.373362,-9.89754349365539,-0.03796624236550884,0.26749894645684985,-0.010053711559783785,-0.0035005770271833627,-0.000775262370146307
1765408048.375244,-9.898807484265607,-0.03788467148760058,0.2664286914626064,-0.010057507792217318,-0.0031653252600602312,-0.0008848952454519445
1765408048.377247,-9.901192560237604,-0.03751145594456114,0.2664968784139653,-0.010086787070476909,-0.002819178568532995,-0.0010019778163512898
1765408048.380182,-9.904708541718753,-0.03682134096771674,0.2677555965008962,-0.010146050672460816,-0.0024752652926736066,-0.0011215815473094562
1765408048.383224,-9.90933194362052,-0.035794761574937634,0.270215553535744,-0.01023911598604714,-0.0021484318402031845,-0.0012385588036447988
1765408048.385141,-9.915007841082687,-0.034421523518192,0.27384414813591407,-0.010368889536003302,-0.0018544984496066902,-0.0013477415970970894
1765408048.388147,-9.921652824942154,-0.03270407624964174,0.2785653783233541,-0.010537151047885659,-0.001609367533663074,-0.001444162453967202
1765408048.390124,-9.929158446172616,-0.03065989259604147,0.284261780931143,-0.010744364383882389,-0.0014280577323458564,-0.0015232869659188302
1765408048.392908,-9.93739450567464,-0.028322695002676555,0.29077832248770674,-0.010989533493627867,-0.0013237418175137854,-0.0015812441932428355
1765408048.395208,-9.946211710136073,-0.02574244203415453,0.29792791120731676,-0.0112701189676019,-0.0013068658523507225,-0.0016150404472318157
1765408048.398161,-9.955443588228244,-0.022984103314258892,0.30549810395501487,-0.011582025027110966,-0.001384420778305886,-0.0016227422285630987
1765408048.400146,-9.964907983159325,-0.020125329984681806,0.31325860633017866,-0.01191966110823788,-0.0015594240304931273,-0.0016036137087552637
1765408048.402312,-9.974408676435708,-0.01725318533499588,0.32096919899761034,-0.012276079023996035,-0.0018306474724841045,-0.001558194000855666
1765408048.405186,-9.983737667700204,-0.014460149240250658,0.32838776578647316,-0.012643186115178093,-0.002192602834508637,-0.0014883027599710355
1765408048.408187,-9.992678450308802,-0.011839642421945799,0.33527820601104263,-0.013012035360707183,-0.0026357738604333037,-0.001396970915555544
1765408048.410168,-10.001010422359661,-0.00948129415566504,0.3414181216547597,-0.013373193580559328,-0.003147069943353266,-0.0012883030516131358
1765408048.413188,-10.008514404317017,-0.007466100986083428,0.34660615732298283,-0.013717186712632891,-0.0037104675949933812,-0.0011672831496653698
1765408048.415209,-10.014979116847524,-0.005861591316979289,0.35066878906563836,-0.01403501417480371,-0.0043077991578482884,-0.0010395341662694933
1765408048.418149,-10.020208450835554,-0.004717232926229789,0.35346639556051884,-0.014318711768473904,-0.0049196402401091134,-0.0009110387628913744
1765408048.419145,-10.024029416866114,-0.004060580350619892,0.3548986396486616,-0.014561926595622788,-0.005526239289612807,-0.0007878297179639821
1765408048.423176,-10.026300654509503,-0.003894881016123432,0.3549093396490037,-0.014760451246901896,-0.006108428268291605,-0.0006756660733842593
1765408048.425191,-10.026921174014161,-0.004198827302733997,0.35349089815867835,-0.014912651532180675,-0.006648457752903431,-0.0005797209050765204
1765408048.428177,-10.025838622014039,-0.004928772869696806,0.35068796906338584,-0.015019716590471788,-0.007130714811844417,-0.0005043116885869735
1765408048.430133,-10.023056006857688,-0.006023161625934259,0.34659960330546463,-0.015085666906564934,-0.007542301838935064,-0.00045269963699304656
1765408048.433156,-10.018635719831519,-0.007408411355959806,0.3413789201936726,-0.015117078773132002,-0.007873469273083527,-0.00042697143806497557
1765408048.435138,-10.012699971655882,-0.009005269666518045,0.3352295603233154,-0.01512252458946752,-0.008117900139750727,-0.00042800158075277574
1765408048.438165,-10.005427355309221,-0.010734786884978606,0.32839867596008543,-0.015111779744734577,-0.008272843708055968,-0.0004554820081403197
1765408048.440147,-9.997045875230206,-0.012523408730969555,0.32116672410268476,-0.015094891481971517,-0.008339095662954215,-0.0005080021447517686
1765408048.443145,-9.987823154757764,-0.0143070041913824,0.31383464856455046,-0.015081227418537575,-0.008320825127711894,-0.0005831673054131125
1765408048.445211,-9.978054561236885,-0.0160336877479541,0.3067091851302891,-0.015078619109227035,-0.008225253976220774,-0.0006777524566017569
1765408048.448118,-9.96804984431564,-0.017665144128353006,0.300087115606562,-0.015092698238477508,-0.008062201609247229,-0.0007878925126246319
1765408048.450123,-9.958118816181134,-0.019176150008568378,0.29423937968307706,-0.015126498313578334,-0.007843518747881485,-0.0009093044904064689
1765408048.453219,-9.948556708486043,-0.020552367300392272,0.2893959864467916,-0.015180364967500954,-0.007582443659398922,-0.0010375251051605882
1765408048.455187,-9.939630036784463,-0.02178712124710553,0.2857326549247574,-0.015252182360355176,-0.007292919719551396,-0.0011681409160125735
1765408048.458133,-9.931563982905724,-0.02287826911371053,0.2833601429873964,-0.015337883957232033,-0.00698891338014107,-0.0012969947210971099
1765408048.458633,-9.924532407678072,-0.023825996432194876,0.2823172958906175,-0.015432178461120797,-0.0066837674072816045,-0.0014203662486676194
1765408048.463183,-9.918651562103078,-0.02463161401811009,0.2825688102192666,-0.015529391659632373,-0.006389616415563939,-0.0015351319111272209
1765408048.465193,-9.913978304059693,-0.025296835260370232,0.28400845664882196,-0.015624307829816768,-0.006116881688448137,-0.0016388987586178397
1765408048.468144,-9.910513126786997,-0.02582309871050761,0.28646803675560356,-0.015712894325011807,-0.005873853404328224,-0.0017300911742015408
1765408048.470163,-9.90820760993367,-0.026211094705528952,0.28973166495836866,-0.015792811045509572,-0.005666365114963477,-0.0018079637062727116
1765408048.473105,-9.90697518138884,-0.02646106455107956,0.2935541442932843,-0.015863639736940556,-0.005497570926040321,-0.0018725284180477403
1765408048.475205,-9.906703604651552,-0.026574147944679834,0.2976815372100864,-0.015926810750533215,-0.005367848237242761,-0.0019244110144154925
1765408048.478153,-9.907267543547418,-0.026554262844118468,0.3018717844703692,-0.01598525035818113,-0.0052748584227307015,-0.00196466786186412
1765408048.480135,-9.90853978565669,-0.02640945237108347,0.30591331434463165,-0.016042813177857898,-0.005213794096688384,-0.001994594007584131
1765408048.483213,-9.910400018242433,-0.026151858612208013,0.30963977751530436,-0.01610359491790843,-0.005177823471933597,-0.0020155366349750223
1765408048.485178,-9.912740398200894,-0.02579632411247056,0.3129393393284262,-0.016171234765126802,-0.0051587164680805256,-0.002028716773532982
1765408048.487229,-9.91546760288151,-0.025358433298740837,0.31575751469630753,-0.016248311747902047,-0.005147609310368632,-0.0020350660948742663
1765408048.490166,-9.918501583849157,-0.02485299502266537,0.31809335252697224,-0.016335917127487845,-0.005135837647554055,-0.00203510077337046
1765408048.495738,-9.921771768840289,-0.024293417455801627,0.3199897084915068,-0.01643345167809811,-0.005115748215094581,-0.002028864688742295
1765408048.496238,-9.925211834691103,-0.02369162165144222,0.32151916960836296,-0.01653866140663517,-0.005081393141559133,-0.002015965264936334
1765408048.498157,-9.928754297086781,-0.023057810825222576,0.3227676954042071,-0.01664789412479848,-0.005029023124745268,-0.0019956976528457265
1765408048.500149,-9.932326020708553,-0.022399838880383736,0.32381814184276236,-0.016756533608378442,-0.004957323139597647,-0.00196722501665246
1765408048.503186,-9.93584544823003,-0.021722604397292098,0.3247356707963388,-0.01685954821322858,-0.004867369169815011,-0.0019297742578775986
1765408048.503686,-9.939222003516766,-0.02102808271183848,0.3255567688654907,-0.016952080429133543,-0.004762318997823715,-0.0018828189275846249
1765408048.508166,-9.942357804373547,-0.020316140426342527,0.32628317550790875,-0.01703000665624936,-0.004646881042764893,-0.001826236539228116
1765408048.51016,-9.945151523972097,-0.01958573625926593,0.3268813651795192,-0.017090410019788654,-0.004526631698322868,-0.0017604304310129707
1765408048.51323,-9.947503966930395,-0.018836077852034176,0.3272874264724014,-0.017131925350067467,-0.00440727035189976,-0.0016864005803353035
1765408048.515187,-9.949324716460573,-0.018067688688531446,0.32741645579722867,-0.01715492854819247,-0.004293907638091439,-0.001605748386629038
1765408048.516202,-9.950539126265202,-0.017283623380790623,0.32717508240663884,-0.01716155328466047,-0.00419047607982294,-0.0015206132192718612
1765408048.520198,-9.951094999586777,-0.01649096158458732,0.3264754932079877,-0.01715553101088221,-0.004099336374522206,-0.0014335544786859746
1765408048.523148,-9.950968460461555,-0.015702352149572416,0.3252493246336026,-0.017141867573949553,-0.004021127565686671,-0.0013474004985997057
1765408048.52516,-9.950168653614396,-0.014937070312425752,0.3234599670029045,-0.017126388689123948,-0.003954873599857676,-0.0012650825217344012
1765408048.528198,-9.948740904391327,-0.014220994155973696,0.32111201935661793,-0.01711520364942289,-0.003898317607220205,-0.001189464813807399
1765408048.530129,-9.946767870335707,-0.013585135108113542,0.31825677333836394,-0.01711415004683277,-0.0038484209967120757,-0.0011231778945059165
1765408048.533165,-9.944368225446468,-0.013062754853206024,0.314992895249803,-0.01712828972433193,-0.0038019449889503017,-0.001068462346166643
1765408048.535128,-9.941692690321377,-0.012685483892956836,0.31146212174191057,-0.01716152332896747,-0.003756025969630434,-0.0010270329149823394
1765408048.538156,-9.938917637639314,-0.012479090488590448,0.3078406059589713,-0.017216373395602714,-0.0037086603945290656,-0.0009999744764356846
1765408048.540154,-9.936236785849173,-0.012459607964097813,0.3043271204568458,-0.017293954443379448,-0.003659031590755067,-0.000987682468912476
1765408048.543223,-9.933851538713357,-0.01263045115473951,0.3011294660056222,-0.017394111252404046,-0.0036076397159358607,-0.0009898597350899109
1765408048.543723,-9.931960480030437,-0.01298095959429002,0.29845033918236663,-0.017515675507397726,-0.003556230351227455,-0.0010055777338369772
1765408048.546201,-9.93074853789202,-0.013486506277583762,0.29647377762722343,-0.017656775848856342,-0.00350754650746129,-0.0010334015281615134
1765408048.550178,-9.93037636688657,-0.014109985325773308,0.295353129682308,-0.017815139833891845,-0.003464947796475137,-0.0010715647588930735
1765408048.553182,-9.930970500199473,-0.014804287664405292,0.2952012510099043,-0.01798834422714023,-0.003431950930800969,-0.0011181665719597715
1765408048.554192,-9.932614840932745,-0.015515379312173583,0.29608339896467534,-0.018173993963415538,-0.0034117500685591283,-0.0011713550601702212
1765408048.558174,-9.93534412538912,-0.016185729591957205,0.2980131281042914,-0.018369831816228584,-0.0034067723541619647,-0.0012294671847194617
1765408048.560162,-9.939140008447554,-0.016757920572080313,0.30095129850948915,-0.01857379516586692,-0.0034183131534579747,-0.0012911106309560344
1765408048.56116,-9.943930285769286,-0.017178243872894388,0.304808047185721,-0.018784041083402783,-0.003446281823481092,-0.0013551893225136494
1765408048.563185,-9.949591462104902,-0.017400079618825906,0.3094473399182979,-0.01899895659787381,-0.0034890762092834884,-0.0014208842387117109
1765408048.568167,-9.955954445917445,-0.017386966991627388,0.31469358733098646,-0.019217160887876738,-0.0035435916192880948,-0.0014876051610080222
1765408048.568667,-9.962812715878838,-0.01711540709053982,0.3203397535688618,-0.019437495878448372,-0.0036053579018311653,-0.0015549317453283852
1765408048.57118,-9.96993205864709,-0.01657733966305192,0.3261564234310297,-0.01965899734491437,-0.0036687896081203804,-0.0016225651764957842
1765408048.575224,-9.977061033385032,-0.015781852746041897,0.33190146011319227,-0.019880843997664634,-0.003727529680160332,-0.0016903092106047655
1765408048.578216,-9.983941573035384,-0.014755323110067154,0.3373301092458852,-0.020102295206818274,-0.0037748636657723073,-0.0017580860430626676
1765408048.578716,-9.990319395805491,-0.013539246639371418,0.3422055415026816,-0.020322640446110304,-0.00380417885680112,-0.0018259720175173137
1765408048.583246,-9.995954086064646,-0.012185620299001072,0.34630977317279,-0.020541186089608067,-0.0038094436400643293,-0.0018942231997095633
1765408048.585203,-10.00062878380031,-0.010750638447742624,0.3494546186290835,-0.020757295362748878,-0.003785685119826518,-0.0019632604658715684
1765408048.588166,-10.004159349086814,-0.009288220506835775,0.35149188901514805,-0.020970479171743737,-0.0037294416600622783,-0.0020335970935018402
1765408048.590214,-10.00640267742143,-0.007845051124872066,0.3523217202685221,-0.0211805160537061,-0.003639159819183729,-0.002105712366857457
1765408048.591216,-10.007263673782704,-0.006458232204387374,0.3518979150807389,-0.02138756612336316,-0.003515498484573825,-0.0021798948131955664
1765408048.596172,-10.006700331140538,-0.005155653002010913,0.35022946086960416,-0.021592242586247045,-0.003361503640223141,-0.0022560906078506354
1765408048.598198,-10.004726377457743,-0.003958373099041649,0.34737779119037715,-0.021795615138582164,-0.0031826248148089735,-0.0023337922008182014
