time,acc_x_g,acc_y_g,acc_z_g,gyro_x_rad_s,gyro_y_rad_s,gyro_z_rad_s
1765407954.687349,-9.881036,-1.732424,0.344931,-0.009010,-0.005498,-0.001069
1765407954.687599,-9.881036,-1.732424,0.344931,-0.009010,-0.005498,-0.001069
1765407954.687849,-9.732782,-1.731827,0.187709,-0.008858,-0.007178,-0.002291
1765407954.688099,-9.767454,-1.747967,0.333572,-0.008858,-0.009774,-0.000764
1765407954.688404,-9.808702,-1.684600,0.246891,-0.004734,-0.008247,-0.000458
1765407954.688604,-9.721423,-1.715686,0.193687,-0.009774,-0.008247,-0.000916
1765407954.688804,-9.721423,-1.715686,0.193687,-0.009774,-0.007483,-0.000916
1765407954.689004,-9.898373,-1.746772,0.392157,-0.009163,-0.008094,-0.000611
1765407954.689204,-9.884624,-1.725849,0.316834,-0.007941,-0.005040,0.000764
1765407954.689372,-9.785987,-1.771879,0.180536,-0.008858,-0.008552,0.000153
1765407954.689622,-9.882831,-1.761119,0.346724,-0.004887,-0.010537,0.002291
1765407954.689872,-10.069344,-1.794596,0.536824,-0.005498,-0.008858,0.002749
1765407954.690122,-10.118362,-1.836442,0.438785,-0.007178,-0.007636,0.000305
1765407954.690386,-10.170969,-1.829866,0.483620,-0.001222,-0.010385,0.002291
1765407954.690586,-10.310855,-1.912960,0.692850,-0.003054,-0.012675,0.005956
1765407954.690786,-10.604972,-2.007412,0.992946,0.001833,-0.013897,0.003665
1765407954.690986,-10.508130,-2.205284,0.835724,0.002291,-0.013897,0.004581
1765407954.691186,-10.511715,-2.134744,0.774749,0.003818,-0.023518,-0.000458
1765407954.691348,-10.790291,-2.161645,1.093974,0.004123,-0.033139,-0.003665
1765407954.691598,-10.816593,-2.250119,0.994739,0.004123,-0.039859,-0.003665
1765407954.691848,-10.811810,-2.256097,0.873984,0.007941,-0.044899,-0.005040
1765407954.692098,-10.981586,-2.322453,1.150167,0.004429,-0.050855,-0.010843
1765407954.692369,-11.180057,-2.502391,1.474773,-0.000764,-0.062156,-0.020159
1765407954.692619,-11.196197,-2.293161,1.270923,-0.004887,-0.065057,-0.026267
1765407954.692869,-11.196197,-2.293161,1.270923,-0.004887,-0.080176,-0.026267
1765407954.693119,-11.029410,-2.442611,1.022238,-0.009621,-0.096822,-0.033598
1765407954.693353,-11.257173,-2.242946,1.119082,-0.011759,-0.096517,-0.033750
1765407954.693603,-11.238641,-2.458153,1.256576,-0.012675,-0.111941,-0.031612
1765407954.693853,-11.342658,-2.513151,1.278096,-0.016035,-0.111941,-0.034667
1765407954.694103,-11.353417,-2.397178,1.305595,-0.019090,-0.117592,-0.036346
1765407954.694304,-11.676230,-2.282400,1.692970,-0.017562,-0.138514,-0.035736
1765407954.694554,-11.600309,-2.423481,1.606886,-0.026725,-0.146760,-0.038179
1765407954.694804,-11.333691,-2.534672,1.092778,-0.028100,-0.167683,-0.037263
1765407954.695054,-11.468195,-2.652439,1.278096,-0.021533,-0.167683,-0.034514
1765407954.695342,-11.614059,-2.638091,1.752750,-0.021228,-0.178373,-0.040775
1765407954.695592,-11.763509,-2.380440,1.753347,-0.014508,-0.188910,-0.040012
1765407954.695842,-11.593734,-2.221425,1.560258,-0.015119,-0.191812,-0.042455
1765407954.696092,-11.380916,-2.344572,1.186035,-0.012828,-0.224035,-0.030696
1765407954.696314,-11.640361,-2.633907,1.687590,-0.007636,-0.224035,-0.033903
1765407954.696564,-11.620037,-2.526303,1.591344,-0.010996,-0.221897,-0.039095
1765407954.696814,-11.791605,-2.318269,1.670253,-0.004276,-0.229838,-0.034056
1765407954.697064,-11.487924,-2.388809,1.563845,0.001374,-0.231823,-0.026878
1765407954.697409,-11.281683,-2.235174,1.365375,0.001222,-0.244346,-0.025962
1765407954.697742,-11.761716,-2.265662,2.207078,-0.003054,-0.255189,-0.023060
1765407954.698076,-11.626614,-2.502391,2.111430,-0.003665,-0.258091,-0.015424
1765407954.698355,-11.156143,-2.996771,1.195002,-0.000764,-0.261603,-0.014661
1765407954.698605,-11.193209,-2.633907,1.537542,0.000611,-0.265421,-0.028711
1765407954.698855,-11.495096,-2.494620,2.129364,0.008858,-0.279624,-0.020464
1765407954.699105,-11.708511,-2.299737,2.022357,0.013897,-0.282831,-0.017715
1765407954.699318,-11.157340,-2.445002,1.679818,0.016035,-0.279318,-0.014050
1765407954.699568,-10.943327,-2.405547,1.365375,0.027642,-0.291230,-0.002443
1765407954.699818,-10.859634,-2.501195,1.158536,0.032987,-0.301462,0.002138
1765407954.700068,-11.000716,-2.327235,1.373744,0.029322,-0.296270,-0.003054
1765407954.700401,-11.089190,-2.291965,1.682209,0.036957,-0.284205,0.002443
1765407954.700651,-10.853658,-2.326638,1.617049,0.046731,-0.283900,0.016341
1765407954.700901,-10.700620,-2.578909,1.489718,0.049022,-0.296270,0.017104
1765407954.701151,-10.517693,-2.560975,1.029412,0.047953,-0.296270,0.011148
1765407954.701294,-10.848875,-2.087518,1.526183,0.054214,-0.294132,0.016035
1765407954.701544,-10.784909,-2.119799,1.819106,0.055283,-0.289703,0.032681
1765407954.701794,-10.279769,-2.838952,1.318747,0.047800,-0.284052,0.031460
1765407954.702044,-10.252868,-3.015303,1.134624,0.045357,-0.298102,0.018021
1765407954.702331,-10.763988,-2.667384,1.679220,0.059407,-0.304974,0.018173
1765407954.702581,-10.590626,-2.478479,1.812530,0.076969,-0.285427,0.026420
1765407954.702831,-9.818267,-2.293161,0.772358,0.062919,-0.283441,0.027184
1765407954.703081,-10.572692,-2.448589,1.477762,0.058796,-0.300393,0.032987
1765407954.703343,-10.282160,-2.952534,1.646341,0.071013,-0.290925,0.036957
1765407954.703593,-9.808105,-2.532281,0.441176,0.079412,-0.286343,0.031765
1765407954.703843,-10.512910,-1.898613,1.641559,0.073151,-0.298866,0.031765
1765407954.704093,-10.536823,-1.792204,1.736609,0.075595,-0.277638,0.049175
1765407954.704299,-9.742945,-2.679340,0.244500,0.078191,-0.277638,0.069944
1765407954.704549,-9.742945,-2.679340,0.244500,0.078191,-0.284663,0.069944
1765407954.704799,-10.665949,-2.483261,1.974533,0.073762,-0.276569,0.055283
1765407954.705049,-11.015063,-2.527498,1.555476,0.080329,-0.273820,0.060628
1765407954.705437,-10.765183,-2.705045,1.868125,0.074067,-0.257022,0.059407
1765407954.705687,-11.055714,-2.652439,1.789813,0.080787,-0.257022,0.061239
1765407954.705937,-11.055714,-2.652439,1.789813,0.080787,-0.251218,0.061239
1765407954.706187,-10.315637,-3.015901,1.367766,0.073762,-0.259160,0.058185
1765407954.706358,-10.946913,-2.826398,1.956002,0.091324,-0.247095,0.057269
1765407954.706608,-10.714968,-2.434242,2.271640,0.096059,-0.249691,0.063835
1765407954.706858,-10.429219,-2.480870,1.257771,0.089492,-0.249691,0.067959
1765407954.707108,-10.790888,-2.898134,1.537542,0.095142,-0.245110,0.075289
1765407954.707395,-10.907459,-3.019488,2.038498,0.087506,-0.237779,0.060934
1765407954.707645,-10.047822,-2.554997,0.285748,0.092241,-0.237779,0.064294
1765407954.707895,-10.549974,-2.244141,1.358799,0.095295,-0.244193,0.059712
1765407954.708145,-10.159015,-2.159254,0.763988,0.106749,-0.221133,0.069333
1765407954.708409,-10.050214,-2.227403,0.022716,0.105222,-0.204029,0.078038
1765407954.708659,-10.960664,-2.938785,1.496891,0.125227,-0.218995,0.084910
1765407954.708909,-10.770562,-2.172405,1.362984,0.125380,-0.201586,0.060170
1765407954.709159,-10.065159,-1.697752,0.389168,0.125380,-0.178220,0.060170
1765407954.710020,-10.956479,-1.471784,1.461621,0.109803,-0.213803,0.081245
1765407954.710270,-11.440697,-1.716882,1.778455,0.109956,-0.217010,0.092852
1765407954.710520,-10.133906,-2.443806,-0.120158,0.095448,-0.178831,0.089950
1765407954.710770,-9.375896,-2.593256,0.019130,0.093462,-0.188910,0.083689
1765407954.710376,-9.375896,-2.593256,0.019130,0.093462,-0.228158,0.083689
1765407954.710626,-10.735292,-2.453371,1.220708,0.088728,-0.229380,0.090408
1765407954.710876,-9.078191,-2.313486,-1.121473,0.071929,-0.178373,0.084758
1765407954.711126,-10.000596,-1.838833,0.616930,0.079871,-0.193033,0.097433
1765407954.711324,-10.431609,-2.388809,1.296030,0.070860,-0.191048,0.102625
1765407954.711574,-10.290529,-2.283596,-0.204448,0.058185,-0.175318,0.102625
1765407954.711824,-10.700620,-2.479077,1.451458,0.056352,-0.185092,0.100182
1765407954.712074,-10.915232,-2.461740,1.318149,0.052993,-0.178984,0.101709
1765407954.712340,-9.832017,-2.831779,-0.106408,0.054520,-0.130114,0.091630
1765407954.712590,-9.393829,-3.315399,-0.039455,0.036652,-0.130114,0.083536
1765407954.712840,-10.792682,-2.644667,2.153276,0.061850,-0.160199,0.083841
1765407954.713090,-10.720347,-2.393591,2.352941,0.073457,-0.144164,0.084910
1765407954.713334,-9.401003,-2.710425,-0.251076,0.069791,-0.116675,0.094684
1765407954.713584,-8.941893,-3.186274,-0.035868,0.088575,-0.136223,0.108581
1765407954.713834,-10.062768,-4.065638,1.972740,0.089186,-0.166766,0.098197
1765407954.714084,-9.540888,-3.284313,0.590626,0.102320,-0.125533,0.082925
1765407954.714288,-9.363939,-3.096604,0.389168,0.094073,-0.119730,0.083994
1765407954.714488,-10.618124,-2.686513,2.438426,0.100487,-0.155160,0.094073
1765407954.714688,-10.679100,-2.611190,1.800573,0.100487,-0.127365,0.094073
1765407954.714888,-10.217599,-2.889765,1.000119,0.084452,-0.112552,0.106291
1765407954.715088,-10.234337,-2.349952,1.317551,0.071624,-0.128129,0.092241
1765407954.715337,-11.244618,-2.358919,1.737207,0.073609,-0.141873,0.107665
1765407954.715587,-10.888329,-2.641081,1.499880,0.066890,-0.114843,0.111636
1765407954.715837,-9.408176,-2.040889,0.008967,0.060781,-0.114537,0.104763
1765407954.716087,-9.088952,-1.975131,-0.041248,0.042913,-0.127671,0.114690
1765407954.716311,-8.742826,-2.694882,-0.175753,0.029627,-0.136376,0.110719
1765407954.716561,-8.821137,-2.786943,-0.866810,0.023366,-0.116217,0.104611
1765407954.716811,-8.623265,-2.589670,-0.704208,0.066432,-0.084452,0.116217
1765407954.717061,-8.621472,-2.563366,-0.207437,0.087048,-0.070097,0.109650
1765407954.717399,-9.650884,-2.737326,0.172764,0.082009,-0.061239,0.110567
1765407954.717649,-9.689142,-3.103180,0.593018,0.096364,-0.066279,0.104305
1765407954.717899,-9.852343,-2.977044,0.255858,0.102014,-0.044899,0.095142
1765407954.718149,-9.165470,-2.185557,-0.807628,0.123700,-0.014508,0.096975
1765407954.718313,-8.950262,-2.409134,0.414275,0.100335,-0.011912,0.099571
1765407954.718563,-10.177545,-1.920731,1.083214,0.100640,-0.007330,0.109498
1765407954.718813,-9.570778,-2.997369,1.223697,0.085521,-0.007178,0.109498
1765407954.719063,-8.432567,-2.706839,0.115973,0.081856,-0.002596,0.104611
1765407954.719315,-7.949545,-2.644070,-0.954089,0.094379,-0.004429,0.113163
1765407954.719515,-7.949545,-2.644070,-0.954089,0.094379,-0.017257,0.113163
1765407954.719715,-9.637134,-3.246652,0.938546,0.085368,-0.015272,0.101404
1765407954.719915,-8.886894,-4.128407,0.111191,0.072998,0.006872,0.100182
1765407954.720115,-9.892395,-3.524629,0.725729,0.100640,-0.006109,0.076816
1765407954.720317,-10.593018,-2.487446,1.361789,0.122631,0.046120,0.075136
1765407954.720567,-8.980151,-2.999760,-0.065758,0.127060,0.076816,0.101556
1765407954.720817,-10.472260,-2.647656,1.639168,0.134390,0.032376,0.086132
1765407954.721067,-10.769367,-3.022477,1.681014,0.118508,0.054520,0.080634
1765407954.721297,-9.673599,-2.179579,0.187111,0.134238,0.087354,0.090408
1765407954.721547,-8.510281,-1.626016,0.047824,0.144470,0.071471,0.098197
1765407954.721797,-8.240075,-1.399450,0.205643,0.101556,0.064904,0.103389
1765407954.722047,-8.064919,-1.501674,-0.899091,0.102931,0.045662,0.130114
1765407954.722395,-8.189860,-3.058345,-0.453730,0.105527,0.045662,0.142942
1765407954.722645,-8.987326,-2.416307,-0.404113,0.097738,0.061850,0.120035
1765407954.722895,-8.934121,-2.095887,0.204448,0.078191,0.089034,0.122784
1765407954.723145,-9.130199,-3.209589,0.254663,0.066279,0.079565,0.140194
1765407954.723377,-10.167382,-3.342898,0.597800,0.113163,0.054672,0.131183
1765407954.723577,-10.924197,-3.589191,1.585366,0.138514,0.100945,0.133474
1765407954.723777,-9.963533,-4.285031,0.108800,0.159894,0.154091,0.134390
1765407954.723977,-10.545193,-3.529412,1.547106,0.178067,0.137597,0.109192
1765407954.724177,-10.945718,-3.292683,1.911764,0.173333,0.137597,0.102320
1765407954.724339,-10.257052,-2.495217,0.072932,0.197462,0.173638,0.105985
1765407954.724589,-10.345527,-1.843615,1.630798,0.188299,0.170126,0.123395
1765407954.724839,-10.551768,-1.741392,2.425275,0.188299,0.178678,0.123395
1765407954.725089,-9.502031,-2.730751,0.363462,0.171348,0.143248,0.148746
1765407954.725305,-9.484097,-2.966284,0.001196,0.157603,0.143248,0.138056
1765407954.725555,-9.646101,-2.601626,-0.408297,0.167530,0.146608,0.139583
1765407954.725805,-9.381275,-2.748684,0.482425,0.146913,0.161879,0.125380
1765407954.726055,-9.710664,-2.438426,0.642037,0.159589,0.178373,0.117744
1765407954.726296,-9.494260,-2.770803,-0.099833,0.200517,0.187383,0.150120
1765407954.726546,-10.286942,-3.714729,0.203252,0.203571,0.181732,0.142179
1765407954.726796,-10.594213,-3.008130,1.279890,0.217010,0.199600,0.124158
1765407954.727046,-10.655188,-2.710425,1.692372,0.232587,0.208305,0.146150
1765407954.727329,-10.304279,-3.458871,2.204686,0.239917,0.208305,0.154549
1765407954.727579,-10.429219,-3.024868,1.972740,0.242666,0.179900,0.140804
1765407954.727829,-9.770443,-2.492826,1.113104,0.239001,0.194713,0.128740
1765407954.728079,-8.271161,-2.250717,-0.857245,0.243735,0.164475,0.151342
1765407954.728337,-8.772715,-1.996652,-0.602582,0.236710,0.135001,0.149204
1765407954.728587,-10.743064,-1.716284,0.064562,0.203113,0.165544,0.152258
1765407954.728837,-10.865015,-1.990674,1.426351,0.197157,0.183565,0.161574
1765407954.729087,-9.918099,-2.630320,-0.328790,0.197768,0.212887,0.164475
1765407954.729330,-9.542084,-2.632711,-0.352702,0.230754,0.209069,0.159130
1765407954.729663,-10.053802,-1.680416,0.557150,0.263283,0.205862,0.148135
1765407954.729997,-8.866570,-1.527977,-0.903874,0.259618,0.271377,0.167377
1765407954.730294,-9.004064,-1.160928,-0.377810,0.277638,0.272751,0.186314
1765407954.730544,-9.627569,-2.343376,0.370636,0.283289,0.247553,0.220064
1765407954.730794,-9.334049,-3.369201,0.127331,0.288328,0.247553,0.221897
1765407954.731044,-8.604733,-4.084768,-0.838116,0.293368,0.272140,0.207694
1765407954.731311,-9.849353,-3.989717,0.953491,0.283289,0.268170,0.175013
1765407954.731561,-10.188903,-2.008010,0.985174,0.285274,0.297186,0.155312
1765407954.731811,-9.258727,-1.756934,0.033477,0.282525,0.270155,0.186772
1765407954.732061,-8.963414,-2.324844,-0.856050,0.263894,0.253814,0.181885
1765407954.732358,-8.941893,-2.180774,-0.836920,0.262977,0.290161,0.181885
1765407954.732608,-9.861309,-2.214251,1.209947,0.298713,0.287107,0.202349
1765407954.732858,-9.913916,-2.006217,0.887733,0.299171,0.285121,0.197462
1765407954.733108,-9.962337,-1.884266,0.326997,0.274889,0.268323,0.189826
1765407954.733342,-8.463653,-1.446676,-0.995337,0.313374,0.250455,0.209679
1765407954.733592,-7.189143,-2.502989,-2.364897,0.320857,0.246026,0.246179
1765407954.733842,-9.177425,-3.162362,-0.543998,0.315817,0.269392,0.239612
1765407954.734092,-10.937350,-3.827713,1.176470,0.317955,0.314596,0.236099
1765407954.734338,-10.157221,-4.632352,0.249880,0.333227,0.303905,0.229074
1765407954.734588,-9.768052,-3.622668,-0.278575,0.331700,0.299782,0.186008
1765407954.734838,-9.579147,-1.799976,1.278096,0.321621,0.319635,0.166919
1765407954.735088,-10.950500,-0.191296,1.918938,0.321162,0.340710,0.195171
1765407954.735393,-9.830223,-1.634983,1.250000,0.300393,0.310167,0.242666
1765407954.735643,-9.958152,-3.037422,-0.328790,0.297339,0.289397,0.217010
1765407954.735893,-8.814561,-3.043998,-1.851985,0.327576,0.289397,0.202196
1765407954.736143,-10.835126,-1.166906,0.584648,0.365603,0.302073,0.192117
1765407954.736364,-10.502748,-0.603778,0.969034,0.362243,0.358425,0.216552
1765407954.736697,-11.176470,-0.862028,-0.181731,0.352469,0.358272,0.263436
1765407954.737031,-10.048421,-2.999163,0.355093,0.368199,0.344833,0.290925
1765407954.737354,-10.847679,-3.544356,0.697035,0.391412,0.344223,0.280234
1765407954.737604,-10.688664,-3.080464,2.164036,0.388816,0.380264,0.258396
1765407954.737854,-9.725011,-1.977522,0.743663,0.374460,0.357051,0.250913
1765407954.738104,-9.725011,-1.977522,0.743663,0.374460,0.294895,0.250913
1765407954.738350,-10.655787,-1.654711,0.940937,0.345139,0.287718,0.273057
1765407954.738600,-11.053921,-2.715208,0.485414,0.334143,0.288481,0.271835
1765407954.738850,-10.668339,-2.428264,0.253467,0.337961,0.312916,0.251676
1765407954.739100,-10.477044,-2.387613,0.248685,0.358425,0.306502,0.251218
1765407954.739331,-10.066953,-1.571616,-0.916427,0.369268,0.320552,0.246637
1765407954.739581,-8.935317,-1.383309,-2.530488,0.353080,0.341168,0.263741
1765407954.739831,-11.886657,-0.899091,1.620038,0.390190,0.341168,0.294590
1765407954.740081,-12.164035,-2.873027,2.572931,0.400880,0.381943,0.335823
1765407954.740375,-10.111788,-3.951458,-0.037661,0.396146,0.365450,0.318872
1765407954.740625,-9.185198,-3.492945,-1.245815,0.389885,0.333838,0.271835
1765407954.740875,-9.976685,-1.661884,0.476447,0.394924,0.322995,0.247095
1765407954.741125,-9.197153,-0.429220,-0.543998,0.403477,0.366519,0.266032
1765407954.741331,-7.618961,-1.030009,-1.917145,0.403477,0.349110,0.266032
1765407954.741581,-8.491152,-2.158058,-0.955882,0.329715,0.309861,0.288634
1765407954.741831,-10.282160,-2.120995,1.147776,0.356134,0.309861,0.291230
1765407954.742081,-11.351027,-1.802965,1.817312,0.368963,0.351706,0.281914
1765407954.742350,-9.626971,-0.308465,-0.131516,0.388968,0.335976,0.291383
1765407954.742683,-9.626971,-0.308465,-0.131516,0.388968,0.268170,0.291383
1765407954.743017,-10.415470,-2.824007,0.386179,0.434478,0.297186,0.376293
1765407954.743359,-9.173840,-3.348876,-2.073170,0.452957,0.297186,0.353233
1765407954.743609,-10.039454,-2.753467,0.673123,0.452957,0.301767,0.310778
1765407954.743859,-11.443686,-1.379722,1.571018,0.439518,0.289856,0.292604
1765407954.744109,-9.747129,-0.913438,-1.350430,0.418595,0.309403,0.301004
1765407954.744314,-10.518888,-0.821377,-1.105332,0.409738,0.346819,0.306502
1765407954.744564,-10.700620,-0.723338,1.892635,0.408822,0.346819,0.325438
1765407954.744814,-10.214609,-1.211143,0.628288,0.399353,0.331547,0.332616
1765407954.745064,-9.574366,-1.539933,-0.565519,0.369879,0.291688,0.313068
1765407954.745374,-8.110353,-1.242229,-3.235293,0.358120,0.304516,0.315970
1765407954.745624,-8.110353,-1.242229,-3.235293,0.358120,0.306196,0.315970
1765407954.745874,-11.565637,-1.918938,1.122668,0.410807,0.363465,0.381638
1765407954.746124,-10.528454,-3.269966,-0.119560,0.404393,0.369115,0.358425
1765407954.746352,-9.360353,-2.544835,-0.854256,0.426231,0.315512,0.347430
1765407954.746602,-10.561333,-1.666667,0.632472,0.430660,0.315512,0.327882
1765407954.746852,-11.289453,0.138690,1.810139,0.430660,0.357203,0.327882
1765407954.747102,-9.176230,-0.150646,-0.438785,0.399964,0.359494,0.370795
1765407954.747387,-9.748923,-1.861549,0.158417,0.388816,0.279471,0.376904
1765407954.747637,-9.950979,-2.058823,-0.640842,0.389427,0.269544,0.357203
1765407954.747887,-10.543996,-1.530368,-0.796270,0.374766,0.290314,0.339794
1765407954.748137,-10.543996,-1.530368,-0.796270,0.374766,0.332005,0.339794
1765407954.748352,-10.963652,-1.157341,-0.552965,0.354302,0.315359,0.383929
1765407954.748685,-9.978478,-3.263988,-0.653993,0.370032,0.313679,0.383318
1765407954.749019,-9.191773,-2.741511,-1.444285,0.419664,0.360716,0.357814
1765407954.749370,-10.517095,-1.269727,1.395863,0.434020,0.360716,0.334296
1765407954.749620,-10.890720,-0.191296,2.008010,0.440892,0.353080,0.336281
1765407954.749870,-8.544953,-0.364658,-1.770684,0.427606,0.294132,0.362701
1765407954.750120,-6.933285,-1.883070,-4.600669,0.430507,0.294132,0.385761
1765407954.750335,-8.328549,-1.501674,-1.145385,0.459218,0.292299,0.366825
1765407954.750585,-8.792442,-1.125060,-0.526064,0.446848,0.353691,0.363007
1765407954.750835,-6.940459,-0.618125,-2.483261,0.414319,0.344833,0.356745
1765407954.751085,-7.140721,-0.783716,-3.284313,0.392634,0.315512,0.373697
1765407954.751343,-8.969392,-1.186035,-0.602582,0.410196,0.289550,0.404393
1765407954.751593,-10.441175,-1.747369,1.213534,0.412334,0.341321,0.408363
1765407954.751843,-9.605451,-1.692970,0.395744,0.394772,0.341474,0.382402
1765407954.752093,-10.833332,-0.569106,0.406504,0.387899,0.289397,0.353996
1765407954.752399,-10.544595,-0.154830,-0.625299,0.408211,0.234878,0.376904
1765407954.752649,-8.083451,-0.449546,-2.337996,0.401491,0.267559,0.379958
1765407954.752899,-8.510879,-0.221186,-2.142515,0.401491,0.293826,0.379958
1765407954.753149,-10.353896,-1.163319,0.236729,0.392175,0.270308,0.392481
1765407954.753442,-10.424437,-1.261358,-1.740196,0.385609,0.290161,0.371864
1765407954.753692,-10.118362,-0.136298,-1.647537,0.383165,0.323606,0.371864
1765407954.753942,-10.047226,0.120756,1.400048,0.395841,0.337350,0.403324
1765407954.754192,-10.041844,-0.745457,-0.182927,0.381485,0.322995,0.438601
1765407954.754333,-8.699185,-2.021760,-2.128766,0.356287,0.292146,0.410501
1765407954.754583,-8.095408,-2.123984,-3.317790,0.333838,0.306960,0.377973
1765407954.754833,-10.504542,-0.208034,-0.050215,0.347888,0.334601,0.362396
1765407954.755083,-11.366570,0.074127,1.428742,0.359494,0.334601,0.375988
1765407954.755377,-11.745574,0.096844,1.134624,0.347735,0.342848,0.381791
1765407954.755627,-10.992347,-1.329507,-0.905667,0.376598,0.306502,0.399200
1765407954.755877,-10.934361,-1.292444,1.627212,0.394924,0.265421,0.372933
1765407954.756127,-11.285867,0.132712,2.367288,0.402866,0.308792,0.370184
1765407954.756347,-11.000716,0.536824,1.627212,0.396299,0.280540,0.388358
1765407954.756680,-9.959349,-0.883548,-0.900287,0.381485,0.245415,0.412181
1765407954.757014,-9.575562,-1.475371,-2.126375,0.392634,0.207083,0.421039
1765407954.757303,-10.703012,-1.796987,0.214610,0.394008,0.231060,0.390037
1765407954.757553,-9.591104,-0.998326,-0.433405,0.373391,0.282678,0.362396
1765407954.757803,-9.050693,-0.045433,-3.191056,0.360563,0.269239,0.350789
1765407954.758053,-8.804399,0.224773,-1.804160,0.353996,0.249997,0.363923
1765407954.758300,-10.442370,-0.053802,0.083692,0.357509,0.278707,0.375835
1765407954.758550,-11.338473,0.444165,1.040770,0.369726,0.337350,0.372933
1765407954.758800,-9.457794,-0.388570,-0.270206,0.344528,0.315512,0.377515
1765407954.759050,-10.121950,-0.147657,-0.998326,0.349873,0.247248,0.361785
1765407954.759329,-8.418220,-0.169775,-3.637613,0.355524,0.259312,0.372475
1765407954.759579,-7.988999,0.801052,-2.305117,0.370184,0.270155,0.378278
1765407954.759829,-8.029052,-0.196078,-0.825562,0.347430,0.323148,0.410960
1765407954.760079,-9.030367,-1.118484,-1.212338,0.326813,0.292910,0.403171
1765407954.760341,-10.517693,-0.931372,-0.798661,0.320246,0.280082,0.358731
1765407954.760591,-11.672046,0.523673,1.238642,0.320246,0.315665,0.358731
1765407954.760841,-10.908655,1.472979,1.230273,0.314443,0.255036,0.383929
1765407954.761091,-11.944045,0.273195,2.410330,0.260229,0.255036,0.388968
1765407954.761343,-10.631275,-0.618125,-0.315638,0.246790,0.262977,0.384998
1765407954.761593,-9.316116,-1.213534,-2.100669,0.296881,0.222355,0.382096
1765407954.761843,-9.216881,-0.362865,-1.061693,0.297797,0.225104,0.344375
1765407954.762093,-9.227044,1.408417,-1.567432,0.315817,0.237168,0.359342
1765407954.762273,-8.128286,0.107604,-2.843137,0.313832,0.237168,0.399200
1765407954.762523,-7.459349,-0.887135,-4.007651,0.310778,0.220217,0.393550
1765407954.762773,-8.292682,-1.159732,-2.369081,0.338572,0.269697,0.397215
1765407954.763023,-9.650884,-1.172884,0.057389,0.344986,0.288939,0.375529
1765407954.763351,-9.830223,0.394548,1.003108,0.311847,0.238390,0.344681
1765407954.763601,-9.557627,0.717360,-0.859636,0.287565,0.231060,0.345139
1765407954.763851,-7.018172,-0.370636,-4.133787,0.281609,0.209527,0.374155
1765407954.764101,-8.617886,-0.474055,-2.637494,0.290772,0.193950,0.357051
1765407954.764373,-10.113581,-0.345528,0.544596,0.277333,0.242514,0.335823
1765407954.764623,-10.113581,-0.345528,0.544596,0.277333,0.245262,0.335823
1765407954.764873,-9.110472,0.756815,-2.544237,0.277944,0.224035,0.342695
1765407954.765123,-8.792442,0.274988,-1.175275,0.279165,0.187841,0.360716
1765407954.765335,-9.707077,0.283357,0.563128,0.295353,0.231212,0.368657
1765407954.765585,-9.658057,0.114778,-0.230751,0.290466,0.231212,0.377973
1765407954.765835,-9.658057,0.114778,-0.230751,0.290466,0.179136,0.377973
1765407954.766085,-9.754900,-0.827355,-0.675514,0.272599,0.137750,0.364839
1765407954.766402,-10.432806,0.002989,-0.460306,0.278707,0.134390,0.339488
1765407954.766652,-9.198349,1.111908,-1.487326,0.256563,0.157145,0.313985
1765407954.766902,-8.828311,1.500478,-1.890244,0.220522,0.138819,0.322690
1765407954.767152,-8.828311,1.500478,-1.890244,0.220522,0.124769,0.322690
1765407954.767336,-9.456000,0.674318,-2.043280,0.189216,0.205556,0.320704
1765407954.767586,-10.089668,1.043759,-1.245815,0.160505,0.205556,0.313679
1765407954.767836,-11.276899,1.427546,0.782520,0.197768,0.185245,0.338572
1765407954.768086,-11.885460,0.640842,2.251315,0.197462,0.162948,0.357051
1765407954.768397,-11.605690,0.207437,0.355093,0.199906,0.151189,0.356593
1765407954.768647,-11.386894,0.343735,0.387972,0.223882,0.143095,0.356745
1765407954.768897,-10.894308,-0.572692,-0.890722,0.221286,0.140041,0.371406
1765407954.769147,-12.259085,0.008369,1.284074,0.233198,0.120799,0.342390
1765407954.769389,-11.561452,-0.763988,1.612864,0.232434,0.164017,0.338114
1765407954.769639,-8.544953,-0.691655,-2.344572,0.214414,0.133016,0.310930
1765407954.769889,-9.343017,0.798661,-1.578192,0.203876,0.082009,0.274584
1765407954.770139,-9.833811,0.978599,0.692252,0.182954,0.109498,0.277333
1765407954.770292,-9.833811,0.978599,0.692252,0.182954,0.117439,0.277333
1765407954.770542,-10.020324,0.425634,-0.817193,0.156840,0.037568,0.287565
1765407954.770792,-11.302605,0.651004,0.203252,0.156382,0.037568,0.262977
1765407954.771042,-10.923002,1.490315,0.115973,0.181122,0.061239,0.280540
1765407954.771357,-9.893590,1.190818,-0.306074,0.188757,0.031918,0.315054
1765407954.771607,-8.940698,0.802248,-1.478957,0.188757,0.041081,0.315054
1765407954.771857,-8.467239,0.658178,-2.930416,0.180205,0.033139,0.319941
1765407954.772107,-7.439023,-0.393352,-3.479196,0.195171,0.032070,0.337503
1765407954.772324,-7.623146,-0.384385,-2.557389,0.179747,0.023518,0.299324
1765407954.772574,-8.838473,0.368245,-1.969153,0.166155,0.084910,0.284052
1765407954.772824,-8.903633,0.064562,-1.842420,0.168904,0.084605,0.301157
1765407954.773074,-9.377091,0.264228,-0.370636,0.152258,0.062614,0.278555
1765407954.773338,-10.646819,0.484218,1.299617,0.129809,0.068111,0.263436
1765407954.773588,-10.099234,0.708991,0.321019,0.124311,0.038332,0.248622
1765407954.773838,-8.994499,1.480153,-1.340268,0.104611,0.023213,0.231365
1765407954.774088,-9.888808,2.004424,-0.534433,0.120493,0.001985,0.254884
1765407954.774330,-10.247488,1.265543,-0.956480,0.131031,-0.016035,0.267712
1765407954.774530,-9.596484,1.133429,-1.438307,0.120340,-0.020922,0.248011
1765407954.774730,-8.377569,2.086322,-2.153873,0.149662,0.037415,0.256105
1765407954.774930,-8.329745,1.213534,-0.717360,0.142484,0.001527,0.292452
1765407954.775130,-9.766259,0.613343,-0.298900,0.124464,-0.035125,0.277944
1765407954.775298,-9.809898,0.793281,-1.014467,0.132252,-0.003512,0.272140
1765407954.775548,-9.809898,0.793281,-1.014467,0.132252,0.003207,0.272140
1765407954.775798,-10.141079,0.242707,-0.099235,0.122326,-0.025809,0.248011
1765407954.776048,-11.780845,0.265423,2.039694,0.103542,-0.037874,0.235183
1765407954.776286,-10.356287,0.245696,-0.223577,0.105069,-0.044593,0.242972
1765407954.776536,-9.594690,0.573290,-0.873984,0.101404,-0.083994,0.230143
1765407954.776786,-10.021520,0.131516,0.877571,0.104458,-0.080787,0.235641
1765407954.777036,-10.862025,-0.142276,-0.125538,0.115454,-0.098655,0.222202
1765407954.777364,-10.945120,0.486609,-0.634864,0.129045,-0.110261,0.199600
1765407954.777614,-10.127929,0.772358,-0.679699,0.118355,-0.110261,0.189979
1765407954.777864,-10.463892,1.850191,-0.589431,0.151495,-0.109192,0.204945
1765407954.778114,-10.190099,0.762793,-0.298302,0.126449,-0.087506,0.213345
1765407954.778320,-10.400524,0.511717,-0.792683,0.120340,-0.108734,0.209221
1765407954.778570,-10.901481,0.895504,-0.459110,0.131489,-0.116675,0.190590
1765407954.778820,-10.044236,0.676112,-1.026423,0.123700,-0.104305,0.188910
1765407954.779070,-9.465566,1.408417,-0.376614,0.118813,-0.089186,0.182191
1765407954.779385,-9.721423,0.989957,0.051411,0.102473,-0.100640,0.182343
1765407954.779635,-9.996411,1.251793,-0.376016,0.089339,-0.134390,0.180053
1765407954.779885,-10.205642,0.876375,-0.208034,0.078649,-0.149662,0.172875
1765407954.780135,-10.982782,1.272716,0.792683,0.070402,-0.151036,0.174555
1765407954.780456,-11.451457,0.543998,1.207556,0.086437,-0.164475,0.176540
1765407954.780706,-11.615254,1.146580,0.854256,0.107512,-0.176387,0.169821
1765407954.780956,-10.662959,1.008489,-0.068149,0.120340,-0.188605,0.161574
1765407954.781206,-9.030367,0.252272,-2.100669,0.113621,-0.187230,0.155771
1765407954.781330,-9.332854,1.267336,-0.744859,0.147524,-0.193797,0.145080
1765407954.781580,-9.521759,0.826160,0.126734,0.132863,-0.159436,0.159894
1765407954.781830,-10.287540,0.842300,-0.198470,0.135307,-0.170737,0.162948
1765407954.782080,-9.903154,0.264228,-0.154232,0.132558,-0.172264,0.149051
1765407954.782328,-9.397416,-0.124342,-1.226088,0.130420,-0.200211,0.142026
1765407954.782578,-9.598277,0.423242,-0.279770,0.134238,-0.200211,0.118813
1765407954.782828,-8.631037,1.080822,-0.753826,0.134238,-0.189368,0.118813
1765407954.783078,-9.309540,1.335485,0.376614,0.115454,-0.212123,0.120188
1765407954.783481,-9.316116,0.852463,-0.668340,0.110261,-0.236558,0.113163
1765407954.783731,-8.895264,0.893113,-1.225490,0.113010,-0.261298,0.111177
1765407954.783981,-8.919176,0.943328,-1.082616,0.126602,-0.261298,0.111177
1765407954.784231,-9.934240,1.042563,0.506934,0.116828,-0.284816,0.098655
1765407954.784395,-9.389048,0.763391,-0.941535,0.117133,-0.253814,0.093004
1765407954.784645,-9.164872,0.869201,-1.013869,0.142484,-0.273362,0.096364
1765407954.784895,-9.450023,0.915830,-0.456719,0.150426,-0.278249,0.094379
1765407954.785145,-9.945600,1.072453,0.008369,0.147066,-0.291994,0.088881
1765407954.785371,-9.925871,0.392755,0.133907,0.155312,-0.300546,0.085368
1765407954.785621,-9.072213,0.634864,-1.774868,0.171500,-0.295964,0.081092
1765407954.785871,-8.851624,0.300096,-1.015064,0.164170,-0.295964,0.069791
1765407954.786121,-10.231348,0.619321,1.018651,0.167072,-0.292757,0.056352
1765407954.786356,-10.550572,0.651602,0.285151,0.159589,-0.294284,0.049022
1765407954.786606,-9.784791,1.013869,-0.335964,0.165697,-0.302836,0.042761
1765407954.786856,-9.918698,0.945720,0.131516,0.149357,-0.304516,0.040470
1765407954.787106,-10.228956,1.244022,0.468675,0.158520,-0.301309,0.047800
1765407954.788495,-9.778812,0.318030,0.573888,0.150273,-0.307113,0.042761
1765407954.788745,-8.605929,0.505739,-1.609278,0.149662,-0.298102,0.024435
1765407954.788995,-8.299855,1.298422,-1.883070,0.158825,-0.310014,0.016493
1765407954.789245,-9.191773,1.506456,0.063367,0.156534,-0.306654,0.021228
1765407954.788541,-9.396221,1.561454,0.032281,0.155007,-0.292452,0.037721
1765407954.788741,-9.580342,1.111908,0.453132,0.155007,-0.315512,0.037721
1765407954.788941,-9.106885,0.489000,-0.154232,0.139430,-0.333991,0.023366
1765407954.789141,-9.357364,1.131038,-0.004782,0.163712,-0.333991,0.013286
1765407954.789341,-9.357364,1.131038,-0.004782,0.163712,-0.330784,0.013286
1765407954.789420,-9.210902,1.212338,-0.340148,0.177304,-0.321926,0.011301
1765407954.789670,-8.943088,0.740674,-0.802845,0.178984,-0.329867,0.006720
1765407954.789920,-9.025584,0.840507,-0.281564,0.176845,-0.323300,-0.004887
1765407954.790170,-9.445839,1.325920,0.101028,0.177456,-0.323300,-0.011454
1765407954.790346,-8.948468,1.091583,-0.234338,0.173638,-0.304211,-0.009621
1765407954.790679,-8.341104,1.526183,-0.891918,0.183718,-0.319330,-0.013439
1765407954.791013,-8.747010,0.944524,-0.107006,0.173028,-0.339488,-0.013592
1765407954.791371,-9.102103,1.002511,0.218795,0.173486,-0.324980,-0.029474
1765407954.791621,-8.980151,1.331898,-0.677905,0.178220,-0.308181,-0.034208
1765407954.791871,-8.654949,1.474175,-0.762793,0.183412,-0.324217,-0.029627
1765407954.792121,-9.442849,1.565638,0.301291,0.174707,-0.330325,-0.037568
1765407954.792381,-9.650884,1.285270,0.701219,0.183260,-0.324675,-0.031154
1765407954.792631,-8.822333,1.036585,-0.346724,0.178220,-0.302073,-0.044899
1765407954.792881,-8.311811,0.963654,-0.841702,0.171806,-0.316428,-0.053145
1765407954.793131,-8.745814,1.575801,0.203252,0.173333,-0.316886,-0.068264
1765407954.793301,-9.019607,1.759923,0.638450,0.175318,-0.308181,-0.061697
1765407954.793551,-9.002869,1.514825,0.664754,0.168293,-0.307418,-0.060018
1765407954.793801,-8.418220,1.414395,-0.284553,0.161116,-0.312916,-0.068722
1765407954.794051,-8.412242,1.230273,-0.398733,0.155007,-0.331547,-0.078802
1765407954.794284,-8.621472,1.881874,0.126734,0.157298,-0.325438,-0.098502
1765407954.794534,-8.854016,2.501195,0.528455,0.162643,-0.311541,-0.087659
1765407954.794784,-8.436154,1.957197,-0.389766,0.146150,-0.310625,-0.075442
1765407954.795034,-8.436154,1.957197,-0.389766,0.146150,-0.325133,-0.075442
1765407954.795321,-9.063844,1.500478,0.456719,0.135154,-0.301920,-0.085521
1765407954.795571,-8.528215,1.812530,-0.266619,0.147982,-0.306960,-0.090103
1765407954.795821,-8.680057,2.215447,-0.259445,0.131794,-0.291230,-0.103847
1765407954.796071,-8.855809,2.361310,0.292922,0.126144,-0.291230,-0.091477
1765407954.796311,-8.824724,1.258369,0.113582,0.113774,-0.295353,-0.085368
1765407954.796561,-8.958034,1.316356,0.104615,0.108429,-0.295811,-0.107665
1765407954.796811,-9.433285,1.624223,0.639048,0.106138,-0.283594,-0.121409
1765407954.797061,-9.300572,1.719273,0.838116,0.105222,-0.278249,-0.112705
1765407954.797360,-8.811572,1.399450,-0.115973,0.099113,-0.296728,-0.114995
1765407954.797610,-8.811572,1.184840,0.260641,0.092852,-0.291841,-0.124922
1765407954.797860,-8.547345,1.151363,-0.026303,0.096975,-0.273209,-0.128434
1765407954.798110,-8.707555,1.443687,0.516499,0.092546,-0.284969,-0.133779
1765407954.798541,-9.099712,1.571018,0.988761,0.081856,-0.275806,-0.139583
1765407954.798791,-8.580822,1.522597,0.087279,0.086132,-0.276417,-0.127213
1765407954.799041,-8.289095,1.086800,-0.111191,0.083078,-0.278860,-0.127213
1765407954.799291,-8.476804,1.365375,0.487207,0.080940,-0.269544,-0.136834
1765407954.799326,-8.579626,1.590148,1.054519,0.076053,-0.256716,-0.135612
1765407954.799576,-8.274748,1.712099,0.367049,0.074373,-0.265574,-0.128282
1765407954.799826,-8.236489,1.483740,0.009565,0.061850,-0.265574,-0.126296
1765407954.800076,-8.409253,1.241631,0.549976,0.061697,-0.244499,-0.123547
1765407954.800304,-8.220946,1.426949,0.431612,0.063225,-0.225257,-0.121409
1765407954.800554,-8.059541,1.245217,0.466284,0.050855,-0.216246,-0.125838
1765407954.800804,-8.197034,1.403037,0.631875,0.047037,-0.217773,-0.127518
1765407954.801054,-8.635818,1.574605,1.200382,0.055894,-0.206778,-0.119119
1765407954.801277,-8.258009,1.325920,0.925394,0.053756,-0.197462,-0.110872
1765407954.801527,-8.153394,1.480153,0.744261,0.039706,-0.192575,-0.117744
1765407954.801777,-8.232902,1.569823,0.725729,0.040623,-0.191048,-0.112399
1765407954.802027,-8.267574,1.389287,0.564323,0.037263,-0.184176,-0.096975
1765407954.802305,-8.232902,1.199785,0.527260,0.035277,-0.169210,-0.098502
1765407954.802555,-8.232902,1.199785,0.527260,0.035277,-0.149967,-0.098502
1765407954.802805,-8.368004,1.469990,0.978001,0.037263,-0.151036,-0.095448
1765407954.803055,-8.510281,1.666667,1.047346,0.036194,-0.151036,-0.083841
1765407954.803374,-8.451697,1.627212,1.123864,0.027794,-0.132558,-0.074220
1765407954.803574,-8.343494,1.280488,0.909852,0.022755,-0.123089,-0.058643
1765407954.803774,-8.268770,0.796270,0.726925,0.022755,-0.128434,-0.058643
1765407954.803974,-8.463055,0.919416,0.810617,0.016341,-0.095906,-0.066126
1765407954.804174,-8.408655,1.135820,0.839909,0.019395,-0.095906,-0.056810
1765407954.804379,-8.316594,1.034194,0.902080,0.017562,-0.087965,-0.052534
1765407954.804629,-8.645982,0.969632,1.166308,0.009010,-0.088728,-0.050549
1765407954.804879,-8.604733,0.864419,0.731109,0.008552,-0.084147,-0.051160
1765407954.805129,-8.379961,0.845887,0.441176,0.011454,-0.074984,-0.045662
1765407954.805376,-8.378167,0.942133,0.637255,0.007789,-0.059865,-0.041539
1765407954.805626,-8.690817,0.983381,0.976805,0.003512,-0.051007,-0.037568
1765407954.805876,-8.699185,0.947513,0.766977,0.001222,-0.040928,-0.028558
1765407954.806126,-8.630439,0.879962,0.479436,-0.001222,-0.040928,-0.022144
1765407954.806312,-8.616690,0.714969,0.546389,-0.003818,-0.029932,-0.015730
1765407954.806512,-8.959229,0.624103,0.850072,-0.005651,-0.024740,-0.012217
1765407954.806712,-9.205523,0.551172,0.908656,-0.007941,-0.019853,-0.010690
1765407954.806912,-9.163676,0.505141,0.637853,-0.010079,-0.003971,-0.009927
1765407954.807112,-9.221663,0.255858,0.697633,-0.012828,-0.003971,-0.005040
1765407954.807356,-9.221663,0.255858,0.673123,-0.012828,-0.006261,-0.005040
1765407954.807606,-9.446436,0.011956,0.523673,-0.008858,-0.001527,-0.005956
1765407954.807856,-9.465566,0.087279,0.502152,-0.006872,0.003665,-0.006720
1765407954.808106,-9.698708,-0.013749,0.772358,-0.008247,0.014661,-0.007789
1765407954.808306,-9.730989,-0.092659,0.563128,-0.006872,0.014661,-0.003665
1765407954.808506,-9.730989,-0.092659,0.563128,-0.006872,0.002749,-0.003665
1765407954.808706,-9.817072,-0.057389,0.306671,-0.005345,0.009316,-0.002749
1765407954.808906,-9.899570,-0.269608,0.309660,-0.000458,0.009316,-0.002749
1765407954.809106,-9.993423,-0.364658,0.347920,-0.001374,0.003818,-0.007025
1765407954.809313,-10.029889,-0.044237,0.132712,0.000458,0.003818,-0.009774
1765407954.809513,-9.910329,0.267217,-0.120756,-0.000458,0.010843,-0.006567
1765407954.809713,-9.891200,0.173362,0.027499,-0.002291,0.013134,0.000458
1765407954.809913,-10.025107,-0.125538,0.194883,-0.003665,0.009010,0.003512
1765407954.810113,-10.025107,-0.125538,0.194883,-0.003665,0.006261,0.003512
1765407954.810286,-9.982065,-0.040053,-0.108202,-0.002443,0.010996,-0.002138
1765407954.810486,-9.855330,-0.047824,-0.131516,-0.004276,0.007941,-0.002443
1765407954.810686,-10.172164,-0.162602,0.261836,-0.003971,0.005040,0.002749
1765407954.810886,-10.227163,-0.118364,0.267217,-0.004887,0.007636,0.000458
1765407954.811086,-10.206240,-0.017934,0.142874,-0.001527,0.006720,-0.004429
1765407954.811360,-10.008368,0.044237,0.025108,-0.006261,0.004734,-0.000611
1765407954.811560,-10.248086,0.062171,0.319225,-0.005345,-0.002596,0.002596
1765407954.811760,-10.335963,0.065758,0.466284,-0.007483,-0.001985,0.001222
1765407954.811960,-10.213414,0.073529,0.214012,-0.007941,-0.001985,0.003207
1765407954.812160,-10.046627,0.053802,0.039455,-0.007941,-0.005192,0.003207
1765407954.812372,-10.236728,-0.060976,0.345528,-0.011148,-0.009468,0.005040
1765407954.812572,-10.332376,-0.166188,0.454328,-0.010079,-0.010537,0.004734
1765407954.812772,-10.198468,-0.159015,0.298302,-0.008705,-0.007789,0.000305
1765407954.812972,-10.050214,-0.051411,0.204448,-0.006567,-0.007789,-0.000764
1765407954.813172,-10.118362,-0.017934,0.371234,-0.006261,-0.017562,0.003054
1765407954.813344,-10.254064,-0.007174,0.506337,-0.006567,-0.018173,-0.000153
1765407954.813544,-10.081897,-0.052606,0.318030,-0.008552,-0.013897,0.002138
1765407954.813744,-9.815877,-0.119560,0.067551,-0.003360,-0.018631,0.000916
1765407954.813944,-9.889405,-0.025108,0.227164,-0.003512,-0.018631,0.000153
1765407954.814144,-10.089668,0.107006,0.454328,-0.002138,-0.021380,-0.002138
1765407954.814266,-10.043041,0.065160,0.407700,-0.005498,-0.018173,0.002596
1765407954.814466,-9.847560,-0.032281,0.118962,-0.003512,-0.017257,0.001985
1765407954.814666,-9.833811,-0.030488,0.148254,-0.005040,-0.018784,-0.001985
1765407954.814866,-10.002390,0.031086,0.428623,-0.004429,-0.020922,-0.000764
1765407954.815066,-10.013150,0.104017,0.447154,-0.002902,-0.015119,-0.003054
1765407954.815325,-9.869678,0.138092,0.270803,-0.007941,-0.013134,-0.000916
1765407954.815525,-9.788378,0.047226,0.211023,-0.006261,-0.017562,0.001374
1765407954.815725,-9.884026,0.054998,0.358082,-0.005498,-0.016952,0.000305
1765407954.815925,-9.997009,0.034075,0.490196,-0.010996,-0.014661,-0.000305
1765407954.816125,-9.970706,0.068149,0.444763,-0.011301,-0.013592,-0.003512
1765407954.816307,-9.904350,0.118364,0.379005,-0.011454,-0.016799,-0.002902
1765407954.816507,-9.817072,0.092061,0.324008,-0.012981,-0.011606,-0.000611
1765407954.816707,-9.808702,0.047824,0.322812,-0.012370,-0.015730,-0.000153
1765407954.816907,-9.891200,-0.066954,0.439981,-0.011912,-0.017410,-0.001374
1765407954.817107,-9.996411,-0.084888,0.558943,-0.012370,-0.015882,-0.001069
1765407954.817364,-9.909132,-0.066954,0.386179,-0.006567,-0.015424,-0.001833
1765407954.817614,-9.799137,-0.001196,0.341942,-0.009927,-0.011759,-0.002138
1765407954.817864,-9.852343,-0.026303,0.469273,-0.010843,-0.014203,-0.000458
1765407954.818114,-9.952174,-0.104017,0.551172,-0.011759,-0.015119,-0.002596
1765407954.818382,-9.908535,-0.144070,0.486609,-0.009010,-0.011148,-0.000764
1765407954.818582,-9.752509,-0.108202,0.306074,-0.008858,-0.008247,-0.002291
1765407954.818782,-9.740554,-0.057389,0.319225,-0.008552,-0.008247,-0.003360
1765407954.818982,-9.851745,-0.026303,0.457915,-0.006567,-0.010232,-0.003360
1765407954.819182,-9.941415,-0.058584,0.546389,-0.005498,-0.006567,0.000000
1765407954.819339,-9.876852,-0.108800,0.465088,-0.009163,-0.004887,-0.002291
1765407954.819539,-9.719630,-0.111191,0.290531,-0.010079,-0.008705,-0.001069
1765407954.819739,-9.720826,0.007771,0.272597,-0.009010,-0.006720,-0.000153
1765407954.819939,-9.748923,0.026303,0.334768,-0.005803,-0.009621,-0.003054
1765407954.820139,-9.845766,-0.034672,0.390961,-0.007025,-0.006261,0.000153
1765407954.820367,-9.851745,-0.024510,0.351506,-0.005651,-0.004581,-0.001833
1765407954.820567,-9.784193,0.010760,0.206839,-0.007636,-0.001527,0.001374
1765407954.820767,-9.814083,-0.034672,0.203850,-0.007941,-0.006414,-0.001527
1765407954.820967,-9.856527,-0.054998,0.398135,-0.009621,-0.002749,-0.001680
1765407954.821167,-9.915112,-0.040053,0.368245,-0.010996,0.001833,0.000305
1765407954.821336,-9.883428,0.010760,0.273792,-0.009621,0.001833,-0.001374
1765407954.821536,-9.883428,0.010760,0.273792,-0.009621,0.003054,-0.001374
1765407954.821736,-9.937828,-0.127331,0.303682,-0.008247,-0.003971,0.001222
1765407954.821936,-10.035269,-0.126734,0.416069,-0.007330,-0.004581,-0.001833
1765407954.822136,-9.985652,-0.028694,0.329986,-0.007330,-0.000611,-0.000764
1765407954.822394,-9.871471,-0.044237,0.136298,-0.005651,-0.000611,0.000000
1765407954.822594,-9.871471,-0.044237,0.136298,-0.005651,-0.004276,0.000000
1765407954.822794,-10.180533,-0.071736,0.541607,-0.008858,-0.005040,-0.000611
1765407954.822994,-10.086679,-0.050215,0.391559,-0.007636,0.001680,0.003207
1765407954.823194,-9.870873,-0.043042,0.205643,-0.004734,-0.005192,-0.001069
1765407954.823365,-9.933045,-0.056193,0.295313,-0.009316,-0.005192,-0.002138
1765407954.823565,-10.120754,-0.005978,0.503348,-0.009468,-0.007025,-0.001527
1765407954.823765,-10.066953,0.062171,0.306074,-0.007025,-0.001374,-0.001222
1765407954.823965,-9.827832,0.054998,0.096246,-0.006414,-0.001374,0.000458
1765407954.824165,-9.849353,0.001196,0.176351,-0.007178,-0.008399,-0.000611
1765407954.824378,-10.051410,-0.031086,0.466284,-0.008858,-0.010079,-0.000153
1765407954.824578,-10.077114,-0.023912,0.461502,-0.007330,-0.006872,-0.002596
1765407954.824778,-9.845766,0.028097,0.128527,-0.008247,-0.000611,-0.002902
1765407954.824978,-9.818267,0.040053,0.096844,-0.005192,-0.005498,-0.000764
1765407954.825178,-9.979673,0.008369,0.385581,-0.009163,-0.009010,-0.000764
1765407954.825421,-10.065758,0.003587,0.447154,-0.011454,-0.008247,-0.001833
1765407954.825621,-9.897178,0.035868,0.203850,-0.006414,-0.002749,-0.000153
1765407954.825821,-9.825441,0.004782,0.112386,-0.009621,-0.006872,-0.001222
1765407954.826021,-9.992227,-0.004782,0.404113,-0.008399,-0.009163,-0.001985
1765407954.826221,-9.992227,-0.004782,0.404113,-0.008399,-0.011454,-0.001985
1765407954.826384,-10.046627,0.018532,0.357484,-0.007941,-0.007789,-0.001069
1765407954.826584,-9.929459,-0.009565,0.214012,-0.009621,-0.007789,-0.001374
1765407954.826784,-9.981467,-0.068149,0.341942,-0.007941,-0.013134,0.000458
1765407954.826984,-10.098038,-0.076518,0.528455,-0.009316,-0.011912,0.000458
1765407954.827184,-10.060975,-0.056193,0.468077,-0.007941,-0.007025,-0.001680
1765407954.827403,-9.848158,-0.011956,0.210426,-0.008247,-0.007636,-0.001680
1765407954.827603,-9.751313,-0.047824,0.221186,-0.009621,-0.007330,0.000000
1765407954.827803,-9.898971,-0.049020,0.358680,-0.008399,-0.013134,-0.003360
1765407954.828003,-9.991630,-0.061573,0.490794,-0.007178,-0.012370,-0.002596
1765407954.828203,-9.878048,-0.026901,0.294118,-0.008247,-0.005803,-0.002902
1765407954.828438,-9.764465,-0.031086,0.176351,-0.007636,-0.006414,-0.001833
1765407954.828638,-9.785987,0.013152,0.277379,-0.009316,-0.009316,-0.003360
1765407954.828838,-9.787780,-0.021521,0.276184,-0.003665,-0.008552,-0.000611
1765407954.829038,-9.878048,-0.047824,0.376614,-0.007789,-0.007636,-0.002443
1765407954.829238,-9.873264,-0.017336,0.376614,-0.005651,-0.006567,0.000153
1765407954.829374,-9.804518,-0.046628,0.246294,-0.007789,-0.007025,0.001069
1765407954.829574,-9.837996,-0.046031,0.282162,-0.006567,-0.007025,-0.000916
1765407954.829774,-9.966521,-0.050215,0.407700,-0.008094,-0.010537,-0.000916
1765407954.829974,-10.038258,-0.055595,0.530846,-0.009468,-0.006414,-0.000305
1765407954.830174,-10.046627,-0.035270,0.443568,-0.009010,-0.002443,-0.001985
1765407954.830308,-9.891200,-0.053802,0.292922,-0.006414,-0.001833,0.001680
1765407954.830508,-9.921089,-0.059780,0.352702,-0.008247,-0.004123,-0.000305
1765407954.830708,-10.044236,-0.062171,0.512912,-0.009774,-0.004429,0.001833
1765407954.830908,-10.070539,-0.037661,0.432807,-0.007789,-0.005498,-0.000764
1765407954.831108,-9.938425,0.003587,0.204448,-0.007941,-0.003512,-0.001833
1765407954.831307,-9.906742,-0.069345,0.248087,-0.006414,-0.005803,-0.001527
1765407954.831507,-9.983858,-0.093257,0.438785,-0.008399,-0.006567,0.000764
1765407954.831707,-10.074127,-0.040650,0.477044,-0.006414,-0.010385,0.000305
1765407954.831907,-9.898971,-0.007174,0.210426,-0.008094,-0.003207,0.000000
1765407954.832107,-9.835006,-0.026303,0.168580,-0.008552,-0.005803,-0.001374
1765407954.832290,-10.011955,-0.046031,0.431612,-0.008247,-0.009010,-0.000916
1765407954.832490,-10.059779,0.001196,0.455524,-0.009468,-0.008858,0.000153
1765407954.832690,-9.899570,0.026901,0.234338,-0.007178,-0.003207,0.000458
1765407954.832890,-9.722619,0.019130,0.078910,-0.006414,-0.001374,0.000611
1765407954.833090,-9.913916,0.032281,0.321616,-0.009316,-0.009621,-0.000611
1765407954.833338,-10.095646,-0.013152,0.574486,-0.009621,-0.010537,0.000611
1765407954.833538,-10.016738,-0.025705,0.361071,-0.006567,-0.006109,-0.000764
1765407954.833738,-9.831419,0.017934,0.127929,-0.007483,-0.002902,-0.000916
1765407954.833938,-9.914514,0.001793,0.300096,-0.007789,-0.012370,0.001833
1765407954.834138,-10.112385,-0.048422,0.578670,-0.004887,-0.012370,-0.001222
1765407954.834300,-10.083690,-0.023912,0.456719,-0.009163,-0.009010,-0.001069
1765407954.834500,-9.807508,0.038259,0.111191,-0.008247,-0.004123,-0.001833
1765407954.834700,-9.772835,-0.044835,0.143472,-0.008094,-0.007789,0.000764
1765407954.834900,-10.015541,-0.074127,0.473458,-0.008705,-0.008399,-0.002596
1765407954.835100,-10.083690,-0.038259,0.547585,-0.008247,-0.008399,-0.001985
1765407954.835453,-10.083690,-0.038259,0.547585,-0.008247,-0.003818,-0.001985
1765407954.835653,-9.717837,-0.019727,0.081301,-0.009163,-0.005651,-0.000611
1765407954.835853,-9.948587,-0.016738,0.454328,-0.010537,-0.010385,-0.000764
1765407954.836053,-10.138689,-0.052606,0.624701,-0.007636,-0.000153,-0.000916
1765407954.836253,-9.956957,-0.022716,0.279770,-0.006567,-0.000153,0.000305
1765407954.836380,-9.956957,-0.022716,0.279770,-0.006567,-0.004276,0.000305
1765407954.836580,-9.650884,-0.081301,0.202056,-0.006720,-0.010537,-0.004123
1765407954.836780,-9.619201,-0.227762,0.504543,-0.009468,-0.010537,-0.003818
1765407954.836980,-9.593494,0.212817,0.295911,-0.010232,-0.007178,-0.010385
1765407954.837180,-9.414154,0.373027,-0.022716,-0.006261,0.011148,-0.000916
1765407954.837432,-9.436871,-0.020923,0.205643,-0.005651,0.011759,0.014203
1765407954.837632,-10.288138,-0.215208,1.327116,-0.013286,0.003818,0.000305
1765407954.837832,-10.418460,-0.117169,0.926590,-0.016646,0.003818,-0.001680
1765407954.838032,-9.632950,-0.436992,-0.510521,-0.008399,0.003512,-0.000611
1765407954.838232,-9.546865,-0.095648,-0.074127,-0.002291,0.000611,-0.011454
1765407954.838347,-10.082495,0.283357,1.012075,-0.002291,0.009316,-0.011454
1765407954.838547,-10.422045,0.365854,1.116690,-0.012523,0.003207,0.004734
1765407954.838747,-10.008368,-0.219990,0.196078,-0.013439,0.003207,0.008399
1765407954.838947,-9.524748,-0.689263,-0.246294,-0.007483,0.003207,0.001374
1765407954.839147,-9.947392,-0.221186,0.566714,-0.003512,-0.003665,-0.013897
1765407954.839407,-10.164991,0.456719,0.775944,-0.007025,0.006261,-0.009163
1765407954.839657,-9.909731,0.343137,0.216404,-0.009621,0.003665,0.003360
1765407954.839907,-9.714250,-0.132114,-0.139885,-0.008399,0.001985,0.008399
1765407954.840157,-9.946198,-0.365854,0.445959,-0.005498,0.002902,0.006109
1765407954.840402,-10.125537,-0.281564,0.711382,-0.009163,0.003207,-0.005956
1765407954.840602,-10.014346,-0.005978,0.230153,-0.007636,0.003207,-0.011148
1765407954.840802,-9.793160,0.254663,0.047824,-0.003971,0.003512,-0.003207
1765407954.841002,-9.875058,0.224773,0.343137,-0.008705,0.003971,0.003360
1765407954.841202,-9.988641,-0.028694,0.526064,-0.008705,0.006414,0.003360
1765407954.841366,-10.023911,-0.279770,0.345528,-0.009468,0.004276,0.004581
1765407954.841566,-9.850550,-0.208632,0.131516,-0.009621,0.004276,-0.004276
1765407954.841766,-9.850550,-0.208632,0.131516,-0.009621,0.010079,-0.004276
1765407954.841966,-9.775226,0.178144,0.316236,-0.009468,0.009316,-0.002902
1765407954.842166,-9.976088,0.164993,0.368843,-0.010996,0.001222,-0.000764
1765407954.842397,-10.032877,-0.028097,0.285748,-0.008552,0.005651,0.004581
1765407954.842597,-9.923481,-0.254663,0.223577,-0.005651,0.013134,0.000458
1765407954.842797,-9.889405,-0.273792,0.372429,-0.008094,0.007636,-0.002291
1765407954.842997,-10.030487,-0.052606,0.522477,-0.010996,0.004581,-0.005803
1765407954.843197,-9.976088,0.197872,0.266619,-0.007941,0.004123,-0.005345
1765407954.843460,-9.689142,0.198470,-0.069345,-0.007483,0.005803,-0.000458
1765407954.843660,-9.806910,0.009565,0.234338,-0.009468,0.009163,0.004276
1765407954.843860,-10.044834,-0.231946,0.557747,-0.008552,0.005651,0.002596
1765407954.844060,-10.251074,-0.242707,0.470469,-0.008858,0.003360,-0.001833
1765407954.844260,-10.095646,0.012554,0.253467,-0.007483,0.005498,-0.005192
1765407954.844323,-9.927068,0.129125,0.214012,-0.006414,0.006567,-0.003207
1765407954.844523,-9.973098,0.089072,0.362267,-0.007178,0.000305,-0.001833
1765407954.844723,-10.157221,0.022716,0.425634,-0.005803,0.000153,-0.000153
1765407954.844923,-10.063964,-0.081301,0.345528,-0.007178,0.003360,-0.000153
1765407954.845123,-10.001792,-0.125538,0.295313,-0.006261,0.009927,0.000916
1765407954.845369,-10.001792,-0.125538,0.295313,-0.006261,0.003207,0.000916
1765407954.845569,-9.989238,0.009565,0.212817,-0.010690,-0.001527,-0.004429
1765407954.845769,-9.944403,0.068149,0.231946,-0.009163,-0.001833,-0.002749
1765407954.845969,-9.911524,-0.002391,0.231946,-0.008552,0.002443,-0.000916
1765407954.846169,-9.882233,0.009565,0.292922,-0.007330,0.001527,0.001222
1765407954.846292,-9.990434,-0.004782,0.325801,-0.007330,0.004734,0.001222
1765407954.846492,-9.972500,-0.105213,0.286944,-0.010690,0.000764,0.000916
1765407954.846692,-10.032877,-0.149450,0.414873,-0.008094,-0.000611,-0.002291
1765407954.846892,-10.087276,-0.032879,0.489000,-0.005192,-0.005040,-0.003512
1765407954.847092,-9.990434,0.043042,0.215208,-0.008247,-0.005040,-0.002138
1765407954.847340,-9.907937,0.002391,0.049020,-0.006872,-0.000458,0.000764
1765407954.847540,-10.007771,-0.068149,0.235533,-0.006261,0.001374,0.001985
1765407954.847740,-10.186513,-0.100430,0.590626,-0.007483,0.002138,0.001527
1765407954.847940,-10.209229,-0.139885,0.540411,-0.010079,-0.000611,-0.002749
1765407954.848140,-9.988043,-0.096246,0.211621,-0.008552,-0.003818,-0.001222
1765407954.848399,-9.903154,-0.011358,0.126734,-0.007483,-0.003360,0.000153
1765407954.848732,-9.964728,0.059182,0.356289,-0.005192,-0.005803,-0.001527
1765407954.849066,-10.058583,0.053802,0.414873,-0.008094,-0.005803,-0.000153
1765407954.849330,-10.065159,0.028694,0.341942,-0.011148,0.000000,0.003054
1765407954.851506,-9.986848,-0.131516,0.240316,-0.009621,0.000000,0.001833
1765407954.854346,-9.912122,-0.151243,0.228957,-0.008399,-0.003971,-0.000458
1765407954.856407,-10.009563,-0.036466,0.358680,-0.007636,-0.007178,-0.005498
1765407954.859467,-9.967718,0.130918,0.299498,-0.009316,-0.006872,-0.002443
1765407954.859967,-9.904350,0.092061,0.204448,-0.007941,-0.007178,0.001985
1765407954.862304,-9.857722,0.046628,0.247489,-0.008247,-0.005040,0.002596
1765407954.866377,-9.948587,-0.060976,0.350311,-0.008247,-0.004123,0.004276
1765407954.869378,-10.008368,-0.157221,0.371234,-0.007330,-0.010385,-0.000305
1765407954.869878,-10.017335,-0.130320,0.312649,-0.007330,-0.010079,-0.000611
1765407954.873995,-9.917501,0.010760,0.334768,-0.009927,-0.006261,-0.001985
1765407954.876842,-9.887612,0.076518,0.322812,-0.010079,-0.001680,-0.001985
1765407954.879406,-9.928263,-0.013152,0.341344,-0.009316,-0.005651,0.002138
1765407954.881386,-10.038258,-0.066954,0.424438,-0.006414,-0.001833,0.000000
1765407954.884381,-10.020324,-0.075323,0.410689,-0.007941,-0.001833,-0.001985
1765407954.886295,-9.873264,-0.115973,0.376614,-0.007941,-0.005803,-0.001985
1765407954.889343,-9.736369,-0.029890,0.063367,-0.006261,-0.004276,-0.001985
1765407954.891289,-9.912720,0.105213,0.301291,-0.006261,-0.006720,-0.001985
1765407954.892371,-10.067551,0.052606,0.535031,-0.007330,-0.001222,0.001680
1765407954.896329,-9.978478,-0.049020,0.425634,-0.008858,-0.001222,0.001374
1765407954.897314,-9.790769,-0.030488,0.198470,-0.007025,-0.001374,-0.001680
1765407954.901295,-9.836202,-0.088474,0.203252,-0.008094,-0.002902,-0.003207
1765407954.904323,-10.013748,-0.121951,0.401124,-0.011606,-0.009316,-0.002596
1765407954.906271,-10.087276,-0.045433,0.487805,-0.005345,-0.001527,-0.002749
1765407954.909384,-9.861907,0.049617,0.286346,-0.006567,-0.001527,-0.001833
1765407954.909884,-9.779410,0.054998,0.186514,-0.009621,-0.004734,0.000000
1765407954.912370,-9.983858,-0.063965,0.384385,-0.008399,-0.007636,0.000305
1765407954.916351,-10.149448,-0.105213,0.631277,-0.008247,-0.007636,0.000000
1765407954.919354,-10.149448,-0.105213,0.631277,-0.008247,0.004123,0.000000
1765407954.919854,-9.755498,-0.012554,0.142874,-0.009316,0.000611,-0.001069
1765407954.922209,-9.777617,0.023912,0.180536,-0.005498,-0.007330,0.000611
1765407954.926503,-9.950979,-0.026303,0.437590,-0.004887,-0.001985,0.000611
1765407954.929284,-9.947392,-0.051411,0.431612,-0.005498,-0.001985,-0.001069
1765407954.931318,-9.846365,-0.020325,0.279770,-0.006567,-0.003054,-0.000764
1765407954.932364,-9.805714,-0.000598,0.289933,-0.009163,-0.003360,-0.000153
1765407954.936309,-9.852343,-0.068747,0.304878,-0.008705,-0.003207,-0.001985
1765407954.939279,-9.900764,-0.106408,0.320421,-0.007025,0.000153,0.001069
1765407954.939779,-9.991630,-0.054998,0.424438,-0.007025,0.000153,-0.000916
1765407954.944296,-10.015541,-0.014347,0.398135,-0.007025,-0.001069,-0.000916
1765407954.946283,-9.960544,0.000000,0.310856,-0.005040,-0.000458,-0.000611
1765407954.947323,-9.953370,-0.017934,0.288737,-0.007941,-0.000458,0.000764
1765407954.951304,-9.979673,-0.044237,0.390961,-0.007025,-0.000305,-0.000611
1765407954.954273,-9.984456,-0.093257,0.331181,-0.006261,-0.000305,0.000916
1765407954.956348,-9.997607,-0.088474,0.347920,-0.007789,-0.001374,0.001985
1765407954.959284,-9.885221,-0.019130,0.271401,-0.006109,0.001985,-0.001680
1765407954.961371,-9.868484,0.038259,0.266619,-0.008247,0.002596,-0.000458
1765407954.963365,-9.916904,-0.022716,0.296509,-0.009163,0.001069,0.000458
1765407954.966325,-9.953967,-0.051411,0.321019,-0.007636,0.002291,0.001374
1765407954.968367,-9.895385,-0.112386,0.291726,-0.010843,0.003054,0.001222
1765407954.971380,-9.771639,-0.111789,0.142874,-0.007483,0.002443,-0.000458
1765407954.973379,-9.850550,-0.053802,0.254663,-0.007025,0.000611,-0.003818
1765407954.976358,-9.850550,-0.053802,0.254663,-0.007025,0.002596,-0.003818
1765407954.979467,-10.028693,0.023912,0.456121,-0.006720,0.002443,0.000305
1765407954.981435,-9.927068,0.004782,0.341942,-0.005040,0.000611,0.000916
1765407954.982303,-9.927068,-0.028694,0.302487,-0.007025,-0.001222,0.002596
1765407954.986307,-10.047822,-0.117169,0.328790,-0.007789,-0.003665,-0.001680
1765407954.987366,-10.047226,-0.107604,0.355093,-0.005803,-0.002749,-0.000611
1765407954.991354,-9.893590,-0.049617,0.222979,-0.006720,0.000764,-0.000611
1765407954.994291,-9.830223,-0.022119,0.189503,-0.005345,0.001680,0.000458
1765407954.994791,-9.981467,0.002391,0.341942,-0.002749,-0.003818,0.001222
1765407954.999339,-10.056191,-0.011956,0.445959,-0.004429,-0.003207,0.002596
1765407955.001311,-9.976088,-0.069345,0.287542,-0.004123,0.001069,0.003360
1765407955.002327,-9.887612,-0.123147,0.188307,-0.007483,-0.001069,0.002902
1765407955.006322,-9.970109,-0.118364,0.326399,-0.005345,-0.006261,-0.001222
1765407955.009305,-9.987445,-0.051411,0.336561,-0.002749,-0.002902,-0.000764
1765407955.011352,-9.909731,0.034672,0.207437,-0.002902,-0.002902,-0.001680
1765407955.014316,-9.872069,0.046031,0.204448,-0.004887,-0.003512,0.002749
1765407955.016362,-10.047822,0.005978,0.402917,-0.004123,-0.006872,0.002596
1765407955.019292,-10.105808,-0.070540,0.418460,-0.002443,-0.005651,-0.000305
1765407955.021308,-9.954566,-0.113582,0.190698,-0.001985,-0.002443,-0.000305
1765407955.024320,-9.884026,-0.058584,0.164395,-0.003818,-0.000305,0.000458
1765407955.026354,-10.032280,-0.009565,0.412482,-0.005192,-0.001222,-0.001374
1765407955.027346,-10.102820,0.011956,0.486609,-0.007330,-0.001985,-0.001527
1765407955.031358,-9.911524,-0.006576,0.254663,-0.004734,0.001222,0.000000
1765407955.034300,-9.780008,-0.005380,0.151841,-0.006720,0.001222,0.001680
1765407955.034800,-9.917501,-0.089670,0.289335,-0.007025,-0.005192,0.002443
1765407955.039361,-10.104015,-0.068149,0.455524,-0.007025,-0.008399,-0.000153
1765407955.041338,-10.003586,-0.032281,0.347920,-0.003665,-0.001222,-0.000153
1765407955.042333,-9.819464,0.003587,0.168580,-0.005803,0.000916,0.000305
1765407955.046316,-9.911524,0.041846,0.320421,-0.007025,-0.002138,0.001985
1765407955.049363,-10.155428,0.022716,0.598996,-0.006414,-0.003971,0.001069
1765407955.051324,-10.095646,-0.074127,0.511717,-0.005345,-0.003971,0.002749
1765407955.054317,-9.849353,-0.131516,0.205643,-0.002749,-0.000458,0.002138
1765407955.056363,-9.818267,-0.139885,0.194883,-0.005345,-0.005192,0.000611
1765407955.057310,-9.942013,-0.032281,0.392157,-0.002443,-0.003512,-0.002596
1765407955.059333,-9.999999,0.023314,0.422047,-0.001833,-0.001374,-0.001527
1765407955.064344,-9.873264,0.013152,0.217599,-0.001833,-0.001985,-0.001527
1765407955.066291,-9.825441,0.095648,0.202654,-0.002138,-0.002291,0.002596
1765407955.068429,-9.935436,-0.015543,0.321616,-0.001985,-0.002291,0.005956
1765407955.071338,-9.935436,-0.015543,0.321616,-0.001985,-0.002902,0.005956
1765407955.072357,-9.960544,-0.140483,0.337159,-0.004581,-0.000916,0.000764
1765407955.076785,-9.899570,-0.021521,0.191894,-0.007178,-0.002291,-0.002443
1765407955.079297,-9.967718,0.054998,0.343137,-0.004123,0.001069,0.000305
1765407955.079797,-10.117765,0.025108,0.556552,-0.006567,0.000611,0.002138
1765407955.084305,-10.154231,-0.056193,0.512912,-0.003054,0.001833,0.002596
1765407955.086367,-9.973696,-0.175753,0.420851,-0.002138,0.002749,0.004734
1765407955.089334,-9.793160,-0.267217,0.224773,-0.003054,0.000458,0.001069
1765407955.091298,-9.915112,-0.011956,0.345528,0.000153,-0.005956,-0.003971
1765407955.092370,-10.188903,0.166188,0.691057,-0.005803,-0.008094,-0.005651
1765407955.096449,-9.910329,0.216404,0.279770,-0.003971,-0.000458,-0.000153
1765407955.099389,-9.615613,0.089072,-0.080105,-0.004123,-0.008858,0.006720
1765407955.101347,-9.794952,-0.098637,0.201459,-0.004123,-0.008858,0.007636
1765407955.104343,-10.093256,-0.194883,0.500956,-0.003360,-0.008858,0.002596
1765407955.106277,-10.074127,-0.162602,0.466284,-0.003512,-0.002443,-0.000305
1765407955.109343,-9.784791,-0.052009,0.083692,-0.004123,0.004123,-0.001069
1765407955.111370,-9.662242,-0.001793,0.059780,-0.001985,-0.003818,-0.000458
1765407955.112334,-9.955761,0.030488,0.358680,-0.003207,-0.003818,0.000916
1765407955.116340,-9.955761,0.030488,0.358680,-0.003207,-0.001833,0.000916
1765407955.119422,-9.903154,-0.117169,0.185916,-0.004581,0.005498,0.004734
1765407955.121427,-9.788378,-0.149450,0.082496,-0.004581,0.001069,-0.000611
1765407955.122337,-9.973696,-0.002391,0.289335,-0.005651,-0.002291,-0.000916
1765407955.126340,-10.105808,0.081301,0.465088,-0.002902,-0.002291,-0.000611
1765407955.129360,-10.105808,0.081301,0.465088,-0.002902,0.002902,-0.000611
1765407955.131338,-9.839788,-0.056193,0.263032,-0.007789,-0.003512,0.003360
1765407955.134296,-9.796746,-0.167384,0.137494,-0.003512,-0.003512,0.001985
1765407955.136401,-9.945600,-0.209828,0.312649,-0.000764,-0.004581,0.001527
1765407955.137303,-10.070539,-0.123745,0.491392,-0.002138,-0.000611,0.001680
1765407955.141316,-10.032280,-0.099833,0.455524,-0.000611,0.001527,0.000153
1765407955.144290,-9.874461,-0.032281,0.206839,-0.001680,0.000153,-0.002443
1765407955.146276,-9.873863,0.058584,0.197274,-0.004734,-0.006261,-0.000916
1765407955.149252,-9.947392,0.129125,0.225968,-0.002291,-0.006109,0.001374
1765407955.151289,-9.961740,0.046628,0.313845,-0.004276,-0.004429,0.006872
1765407955.152353,-9.885221,-0.161406,0.224773,-0.003818,-0.004276,0.008399
1765407955.156324,-9.891200,-0.243902,0.110593,0.000611,-0.002596,0.003818
1765407955.157367,-9.964728,-0.118364,0.248087,0.003207,-0.002596,0.000611
1765407955.161418,-10.077712,-0.035868,0.478240,0.003207,-0.003665,0.000611
1765407955.164416,-9.993423,-0.027499,0.347920,-0.001833,-0.000153,0.001069
1765407955.166308,-9.901959,-0.013152,0.151841,0.001222,-0.003818,0.003512
1765407955.168471,-9.954566,-0.020325,0.259445,0.000458,-0.002443,0.004429
1765407955.171356,-10.084887,-0.050215,0.436394,0.001069,-0.002443,0.005040
1765407955.174287,-10.160210,-0.027499,0.600789,0.001985,0.001680,0.002902
1765407955.176380,-10.031085,-0.055595,0.390961,0.000000,0.000153,0.002596
1765407955.177377,-9.868484,-0.022716,0.227164,0.001527,-0.001374,0.002443
1765407955.182016,-10.045432,0.053204,0.349713,-0.001680,-0.010079,0.002443
1765407955.183388,-10.142276,0.090866,0.558345,-0.001985,-0.010385,0.003360
1765407955.186413,-10.025704,-0.034075,0.324008,-0.002749,-0.005345,0.005803
1765407955.189295,-9.877449,-0.176949,0.050215,-0.000305,-0.007178,0.007025
1765407955.191271,-9.989238,-0.162602,0.173362,0.003054,-0.011148,0.003971
1765407955.193331,-10.071735,-0.039455,0.489000,0.001680,-0.003971,0.003054
1765407955.195377,-9.980869,0.024510,0.402917,0.001222,-0.000305,0.003665
1765407955.197369,-9.876852,0.066954,0.370636,-0.002291,0.000153,0.003512
1765407955.200321,-9.977283,0.043639,0.328790,0.000000,-0.010843,0.006872
1765407955.202311,-9.977283,-0.031086,0.255858,-0.001222,-0.011148,0.005040
1765407955.206284,-9.865494,-0.024510,0.194883,0.000000,0.001833,0.006414
1765407955.209281,-9.714849,-0.038259,0.103419,-0.000916,0.000000,0.005651
1765407955.210286,-9.876852,-0.001196,0.383788,-0.003207,-0.003207,0.001222
1765407955.214270,-10.173959,0.104615,0.672525,-0.003054,-0.000305,0.003360
1765407955.214770,-9.996411,-0.007174,0.301889,-0.000458,-0.000305,0.007025
1765407955.217356,-9.766856,-0.077714,0.026303,0.000000,-0.002749,0.006414
1765407955.221386,-9.785987,-0.127929,0.154232,-0.002443,-0.003512,0.006109
1765407955.222396,-9.933643,-0.087279,0.402917,0.002749,-0.004429,0.006872
1765407955.225298,-9.992825,-0.068149,0.376614,0.001374,-0.003818,0.003512
1765407955.228330,-9.857125,0.089670,0.291726,0.003360,0.006720,0.006261
1765407955.231302,-9.654470,-0.019130,0.079507,0.004429,-0.001374,0.007025
1765407955.234281,-9.880439,-0.078910,0.365854,-0.001374,-0.003971,0.005651
1765407955.234781,-10.028693,-0.095648,0.434601,0.000153,-0.004887,0.003818
1765407955.239334,-10.038258,-0.068149,0.478838,0.001222,-0.005192,0.003818
1765407955.241349,-9.916306,0.006576,0.363462,0.002138,-0.001222,0.004887
1765407955.244343,-9.967119,-0.002989,0.372429,0.000764,-0.001527,0.004429
1765407955.246316,-10.115375,0.023912,0.424438,0.001985,-0.006872,0.004887
1765407955.249283,-10.173959,0.035868,0.535629,-0.000458,-0.009163,0.005498
1765407955.251283,-10.104015,-0.028694,0.372429,-0.001374,-0.002596,0.006872
1765407955.254309,-9.836799,-0.007174,0.134505,-0.000305,-0.003818,0.003512
1765407955.256353,-9.821257,0.020325,0.146461,-0.004276,-0.002138,0.004123
1765407955.259302,-9.864299,0.018532,0.258250,-0.001374,-0.001374,0.007789
1765407955.261320,-9.950381,-0.046628,0.408895,-0.000916,0.002138,0.009010
1765407955.262302,-10.094451,-0.033477,0.564323,-0.003207,0.002902,0.007178
1765407955.266265,-9.977283,-0.093257,0.368843,-0.001833,-0.001833,0.007941
1765407955.269329,-9.781204,-0.047824,0.011956,-0.000305,-0.001527,0.006109
1765407955.269829,-9.656861,0.031683,-0.062769,0.005803,-0.002291,0.009621
1765407955.272355,-10.012553,-0.077714,0.480631,0.004581,0.000764,0.008094
1765407955.276277,-10.011955,-0.140483,0.482425,0.004887,0.000458,0.010079
1765407955.279332,-9.926469,-0.115973,0.318627,0.001374,0.001069,0.006414
1765407955.281335,-9.734576,-0.005978,-0.019727,0.004429,0.003512,0.005040
1765407955.284305,-9.941415,0.040650,0.264825,-0.000458,0.002138,0.005651
1765407955.286347,-10.153036,-0.005978,0.582257,0.000611,0.002138,0.006261
1765407955.287374,-10.153036,-0.005978,0.582257,0.000611,-0.000153,0.006261
1765407955.292117,-9.860114,-0.112984,0.136298,-0.001069,-0.000153,0.003207
1765407955.294295,-9.726207,-0.077714,-0.070540,0.001069,-0.000153,0.004734
1765407955.296339,-9.989238,0.032281,0.428025,0.000611,0.000000,0.005040
1765407955.297363,-10.100429,-0.051411,0.494381,-0.002902,0.002291,0.005803
1765407955.301338,-10.100429,-0.051411,0.494381,-0.002902,0.007941,0.005803
1765407955.304294,-9.870873,-0.143472,0.291726,0.001222,-0.005803,0.010843
1765407955.306261,-9.880439,-0.111191,0.219393,-0.002443,-0.005803,0.005192
1765407955.309290,-10.052606,-0.043042,0.347920,0.003207,-0.004581,0.009163
1765407955.311303,-9.989238,0.000000,0.303682,0.003665,-0.003971,0.006872
1765407955.314297,-9.945002,0.025705,0.302487,0.002291,-0.002138,0.009316
1765407955.315412,-9.793160,-0.015543,0.137494,0.004276,-0.003360,0.012675
1765407955.319337,-9.833811,-0.148852,0.221186,0.003971,-0.003360,0.010232
1765407955.321327,-10.023313,-0.079507,0.345528,0.003207,-0.002596,0.009927
1765407955.324330,-10.045432,-0.032281,0.437590,0.005651,-0.001985,0.007025
1765407955.326286,-9.946198,0.009565,0.184720,0.005040,0.003512,0.005040
1765407955.329317,-9.882831,0.089670,0.185318,0.005040,-0.000916,0.008858
1765407955.331305,-9.869678,-0.026303,0.229555,0.005040,0.002749,0.010537
1765407955.334280,-10.026900,-0.049020,0.390961,0.003818,-0.001222,0.010385
1765407955.334780,-10.175154,-0.179340,0.543998,0.000458,-0.002138,0.007025
1765407955.337319,-10.084289,-0.081899,0.335366,0.002749,-0.002138,0.003818
1765407955.340352,-9.846962,0.084290,0.047824,0.001222,-0.001527,0.005498
1765407955.343414,-9.817670,0.066356,0.222382,-0.000458,-0.003207,0.007178
1765407955.346338,-9.954566,0.032281,0.349713,-0.000458,-0.003054,0.007178
1765407955.349367,-10.106407,-0.166188,0.631875,-0.000611,-0.004276,0.009316
1765407955.351274,-9.933045,-0.150646,0.246294,0.001527,0.001985,0.007789
1765407955.354336,-9.933045,-0.150646,0.246294,0.001527,-0.000611,0.007789
1765407955.354836,-9.775226,0.008967,0.037064,0.006872,-0.007483,0.007178
1765407955.357267,-10.092059,0.200861,0.434003,0.005040,-0.005498,0.009621
1765407955.359384,-10.126732,0.065758,0.432807,0.005651,0.000458,0.013592
1765407955.364397,-9.940218,-0.166188,0.224773,0.004429,-0.002596,0.012675
1765407955.366333,-9.940218,-0.166188,0.224773,0.004429,-0.004581,0.012675
1765407955.369354,-10.138689,-0.109995,0.527260,0.003360,-0.004887,0.005192
1765407955.371365,-10.219989,0.040650,0.520086,0.010385,-0.004887,0.006872
1765407955.374291,-10.084289,0.015543,0.371832,0.006872,-0.003207,0.008858
1765407955.377985,-9.918698,-0.035270,0.202056,0.005192,-0.001833,0.009774
1765407955.379393,-9.720228,-0.089670,-0.023912,0.008552,-0.011148,0.008858
1765407955.381349,-9.949186,-0.069943,0.269010,0.005956,-0.009621,0.005651
1765407955.382266,-10.074127,0.070540,0.423242,0.005651,-0.002138,0.007330
1765407955.386279,-9.959349,-0.065758,0.365854,0.007941,0.005345,0.011606
1765407955.389284,-9.830223,-0.057987,0.285748,0.005651,0.002596,0.011606
1765407955.391336,-9.845168,0.009565,0.187709,0.006261,-0.004734,0.011454
1765407955.394289,-9.864896,0.063367,0.133309,0.007178,-0.011759,0.010385
1765407955.396275,-9.955164,0.061573,0.212817,0.007789,-0.009163,0.012217
1765407955.399256,-9.943806,0.029890,0.264228,0.006872,0.000916,0.016952
1765407955.401306,-9.891200,-0.084888,0.209828,0.007178,0.001985,0.015424
1765407955.404387,-9.832614,-0.113582,0.259445,0.005192,0.001833,0.013592
1765407955.406297,-10.019128,-0.053802,0.375418,0.006261,-0.005345,0.012065
1765407955.407330,-10.157818,-0.066954,0.649211,0.006720,-0.001069,0.012217
1765407955.409279,-10.062170,-0.059780,0.425634,0.006720,-0.003512,0.012217
1765407955.414306,-10.021520,-0.092061,0.312649,0.004276,-0.008399,0.007636
1765407955.416343,-9.985652,0.008369,0.225371,0.010079,-0.007941,0.010232
1765407955.419275,-10.006575,-0.103419,0.312052,0.007330,-0.001833,0.013744
1765407955.421318,-10.016738,-0.071736,0.308465,0.010843,-0.001833,0.012370
1765407955.423390,-10.095049,-0.037064,0.522477,0.004276,-0.004734,0.008094
1765407955.426311,-10.066355,0.107604,0.431612,0.009010,-0.002596,0.009927
1765407955.429273,-9.814680,0.086083,0.010760,0.009468,-0.004123,0.010690
1765407955.431288,-9.811094,-0.010760,0.077714,0.005345,0.000916,0.010232
1765407955.434253,-9.935436,0.003587,0.221186,0.007789,0.000916,0.012828
1765407955.436332,-10.201457,-0.096844,0.730512,0.009774,-0.000305,0.012370
1765407955.437318,-10.070539,0.023912,0.539813,0.008094,0.003360,0.010232
1765407955.441249,-10.070539,0.023912,0.539813,0.008094,-0.001527,0.010232
1765407955.444300,-9.857722,-0.004185,0.173362,0.009927,-0.005040,0.010385
1765407955.446315,-9.937230,0.059182,0.089670,0.009774,-0.011606,0.013286
1765407955.448285,-9.955761,0.011956,0.249880,0.007025,-0.005498,0.011606
1765407955.451375,-10.056191,-0.094452,0.346724,0.006567,-0.004429,0.012828
1765407955.454276,-9.922883,-0.178144,0.237327,0.009774,-0.001985,0.012370
1765407955.456285,-9.760281,0.051411,-0.083692,0.010690,-0.004429,0.006261
1765407955.459335,-9.710664,0.053802,0.007174,0.010537,0.002443,0.012217
1765407955.461348,-9.828429,0.075323,0.182927,0.011759,-0.001985,0.009927
1765407955.462279,-10.362266,0.058584,0.955284,0.008858,0.003971,0.012217
1765407955.466363,-10.153036,0.001793,0.639646,0.012828,0.005651,0.011454
1765407955.469401,-9.964728,-0.158417,0.232544,0.009316,-0.009621,0.012981
1765407955.471358,-9.995814,-0.099235,0.202056,0.009621,-0.006567,0.008552
1765407955.474307,-10.245695,-0.083094,0.528455,0.009163,-0.005803,0.008094
1765407955.476345,-10.139884,0.015543,0.548183,0.010232,-0.001374,0.012675
1765407955.479324,-9.938425,0.004185,0.135103,0.007636,-0.001374,0.012065
1765407955.481390,-9.736369,-0.040650,-0.076518,0.008552,0.001985,0.016341
1765407955.483392,-9.842180,-0.041846,-0.040053,0.012523,-0.002902,0.015882
1765407955.486664,-10.231348,-0.089670,0.844691,0.011301,0.003818,0.016035
1765407955.488478,-9.923481,-0.107604,0.422047,0.012981,-0.000458,0.013592
1765407955.491359,-9.815877,-0.019130,0.237924,0.013897,-0.000458,0.014966
1765407955.494269,-9.589908,-0.110593,-0.060976,0.010843,-0.004887,0.013744
1765407955.496324,-9.944403,-0.059780,0.298900,0.014050,-0.012370,0.014355
1765407955.499392,-9.967718,-0.028694,0.376016,0.014050,0.001527,0.014355
1765407955.499892,-9.935436,-0.005380,0.414873,0.011148,0.000916,0.014661
1765407955.504267,-9.857722,-0.111789,0.319823,0.010996,0.000916,0.015577
1765407955.505289,-9.976088,-0.043042,0.411286,0.009010,-0.010690,0.011912
1765407955.509263,-10.027497,0.002989,0.389168,0.014661,-0.002749,0.014966
1765407955.511293,-10.032280,0.057389,0.284553,0.018173,-0.005192,0.012828
1765407955.514351,-10.032280,0.057389,0.284553,0.018173,-0.003054,0.012828
1765407955.516258,-9.860711,0.034672,0.019130,0.011912,-0.002443,0.011912
1765407955.519275,-9.994021,0.056193,0.398135,0.010079,-0.001374,0.014355
1765407955.521288,-10.043041,-0.078910,0.414275,0.014203,-0.005192,0.018021
1765407955.524262,-10.197272,-0.001196,0.597800,0.011759,-0.005192,0.014966
1765407955.524762,-10.197272,-0.001196,0.597800,0.011759,-0.000458,0.014966
1765407955.529266,-9.855330,0.029890,0.058584,0.011454,-0.005345,0.012370
1765407955.531278,-9.923481,0.033477,0.276184,0.010537,-0.004429,0.016035
1765407955.534261,-10.165589,0.049020,0.509326,0.011301,0.000305,0.014661
1765407955.536329,-9.898971,-0.111789,0.199067,0.012370,0.007025,0.020769
1765407955.539612,-9.719033,-0.065758,-0.002391,0.013744,0.002138,0.014661
1765407955.541288,-9.744141,-0.095050,0.222382,0.011759,0.002596,0.017562
1765407955.544286,-10.006575,-0.030488,0.417264,0.016035,-0.001527,0.014966
1765407955.546287,-9.983260,0.015543,0.389168,0.013592,0.002902,0.014355
1765407955.549278,-9.696915,0.034672,-0.056193,0.011301,0.002902,0.015577
1765407955.550299,-9.696915,0.034672,-0.056193,0.011301,0.000153,0.015577
1765407955.554261,-10.028095,-0.077714,0.489598,0.012828,0.005345,0.021686
1765407955.556303,-10.261834,-0.060976,0.879962,0.014355,0.005345,0.015882
1765407955.559251,-9.879243,-0.077714,0.375418,0.014813,0.005651,0.016799
1765407955.561357,-9.713055,-0.019130,0.110593,0.015272,-0.005498,0.015424
1765407955.564312,-9.757292,0.041248,0.005978,0.014203,-0.009774,0.016188
1765407955.566265,-10.042442,0.011956,0.241511,0.015577,-0.007789,0.018326
1765407955.567294,-10.034670,-0.046628,0.380201,0.012828,0.007789,0.016035
1765407955.571484,-10.034670,-0.046628,0.380201,0.012828,0.012370,0.016035
1765407955.574282,-9.736967,-0.046031,0.260043,0.013592,0.004276,0.019700
1765407955.576335,-9.923481,-0.040053,0.431612,0.012675,-0.004887,0.017257
1765407955.579353,-10.001194,-0.028097,0.370636,0.017715,-0.004887,0.015119
1765407955.581313,-9.720826,-0.030488,-0.034672,0.018479,-0.001222,0.016493
1765407955.584320,-9.720826,-0.030488,-0.034672,0.018479,0.002749,0.016493
1765407955.586272,-9.823050,-0.066954,0.431612,0.014050,0.006261,0.022755
1765407955.589355,-9.793160,-0.141081,0.161406,0.016493,-0.000764,0.021228
1765407955.591302,-9.942610,-0.016738,0.237327,0.017104,0.000153,0.016646
1765407955.592282,-9.894786,-0.056193,0.192492,0.017868,0.005651,0.017868
1765407955.596275,-9.863700,0.032281,0.248685,0.019853,0.006872,0.018021
1765407955.599289,-9.733380,0.014347,0.248685,0.017868,0.008247,0.020311
1765407955.601356,-9.980869,0.023912,0.293520,0.015882,0.002596,0.022755
1765407955.602285,-10.056191,-0.148254,0.321616,0.019242,0.008094,0.022449
1765407955.606331,-9.994021,-0.063965,0.350311,0.018326,0.008094,0.018784
1765407955.607357,-9.665230,-0.010760,-0.059780,0.016188,0.016952,0.018021
1765407955.611343,-9.764465,0.059780,0.163797,0.015272,0.006414,0.015730
1765407955.612316,-10.171567,0.101626,0.587637,0.014050,0.007636,0.020617
1765407955.616357,-10.163795,0.059780,0.664754,0.017410,0.010232,0.023824
1765407955.619324,-9.894786,-0.070540,0.362865,0.013897,0.010232,0.024129
1765407955.621326,-9.782997,-0.233142,0.047226,0.015424,0.005040,0.023060
1765407955.624263,-10.088473,-0.142276,0.385581,0.019242,-0.009163,0.018784
1765407955.626247,-10.109993,0.020325,0.300693,0.015730,0.002443,0.016341
1765407955.628302,-9.826636,0.243902,0.075323,0.018784,0.014966,0.017257
1765407955.631290,-9.585126,0.182329,-0.041846,0.017868,0.014050,0.023976
1765407955.634336,-10.014943,0.053802,0.359278,0.015730,0.004429,0.027489
1765407955.636355,-10.249879,-0.161406,0.695241,0.013286,0.009316,0.026725
1765407955.639357,-9.976685,-0.172166,0.335964,0.018937,0.013134,0.022907
1765407955.641397,-9.765661,-0.036466,0.041846,0.016952,0.006261,0.017104
1765407955.644307,-9.921686,0.000000,0.303682,0.016341,0.002596,0.018326
1765407955.646296,-10.083690,0.161406,0.278575,0.014966,-0.005192,0.018173
1765407955.648352,-10.048421,0.109397,0.120158,0.012981,0.002902,0.024129
1765407955.649286,-9.952174,0.062171,0.137494,0.015882,0.009621,0.023366
1765407955.654258,-9.981467,-0.208034,0.301291,0.019395,0.012065,0.030238
1765407955.656392,-9.971304,-0.300693,0.220588,0.021075,0.000764,0.022449
1765407955.659331,-10.058583,-0.090268,0.401722,0.020769,0.005040,0.015272
1765407955.661376,-9.701099,-0.034075,0.143472,0.023518,0.002291,0.018326
1765407955.662344,-9.711859,0.219990,-0.031683,0.023060,0.002291,0.018479
1765407955.664320,-10.050214,0.234935,0.344333,0.018631,-0.001527,0.020617
1765407955.668333,-10.109993,-0.032879,0.374223,0.019853,0.003360,0.026878
1765407955.671357,-10.007172,-0.159015,0.188905,0.019853,0.002291,0.026878
1765407955.674316,-9.957555,-0.041846,0.337159,0.019090,0.004123,0.013897
1765407955.676308,-10.021520,0.095050,0.376614,0.020922,0.002749,0.019700
1765407955.679359,-10.115973,0.148254,0.350311,0.023366,-0.004276,0.018326
1765407955.681307,-10.062170,0.151841,0.319225,0.023366,0.002291,0.019395
1765407955.686017,-9.974891,0.185318,0.359876,0.024282,0.005651,0.024740
1765407955.686211,-9.815279,-0.000598,0.134505,0.018021,0.001527,0.026114
1765407955.687317,-9.934240,-0.150646,0.072932,0.016493,-0.009774,0.022755
1765407955.691312,-9.933045,-0.099235,0.094452,0.022297,-0.005192,0.023366
1765407955.694273,-9.780008,-0.021521,0.022119,0.022297,0.008399,0.022449
1765407955.696288,-9.872069,0.193687,0.318627,0.021380,0.008399,0.018937
1765407955.699280,-10.060975,0.192492,0.634864,0.018937,0.004734,0.024435
1765407955.701287,-10.157818,0.050215,0.477044,0.021838,-0.002138,0.029627
1765407955.704335,-10.075920,-0.192492,0.282162,0.022755,-0.006567,0.031460
1765407955.704835,-10.026302,-0.223577,0.319823,0.023976,0.005803,0.023671
1765407955.709334,-9.917501,-0.200861,0.184720,0.024893,0.005803,0.022907
1765407955.711349,-10.121950,0.155428,0.559541,0.024893,0.000000,0.022907
1765407955.712308,-10.269009,0.225968,0.726925,0.023518,0.005345,0.021838
1765407955.716373,-10.010758,0.132712,0.377810,0.024587,0.000153,0.029780
1765407955.719324,-9.808702,-0.013152,0.092061,0.022907,-0.001833,0.029474
1765407955.720363,-9.886416,-0.208034,0.143472,0.024129,-0.009621,0.027794
1765407955.724369,-9.886416,-0.208034,0.143472,0.024129,-0.008705,0.027794
1765407955.726303,-10.059779,-0.018532,0.148254,0.028253,0.014966,0.020159
1765407955.729294,-9.885221,0.110593,0.243305,0.027642,0.014966,0.021991
1765407955.731312,-9.925871,0.145863,0.453730,0.026573,0.008399,0.026573
1765407955.734272,-10.145264,0.184122,0.618723,0.023366,0.000000,0.028100
1765407955.736290,-9.968315,-0.096844,0.217599,0.023366,0.000916,0.028100
1765407955.739302,-9.453012,-0.219393,-0.469871,0.026573,0.005803,0.030543
1765407955.739802,-9.619798,-0.025108,0.065160,0.029474,0.005803,0.023976
1765407955.744371,-9.922284,0.095648,0.569106,0.027489,0.008094,0.026267
1765407955.744871,-10.064561,0.151243,0.410689,0.020159,0.003207,0.024435
1765407955.748414,-9.941415,0.113582,0.241511,0.021533,0.007178,0.027642
1765407955.751319,-9.845766,0.033477,0.217599,0.025809,0.006872,0.032681
1765407955.754308,-10.041844,-0.164993,0.551769,0.025045,0.000611,0.031765
1765407955.756302,-10.286942,-0.004185,0.915830,0.023671,0.002138,0.023213
1765407955.759330,-9.927666,0.082496,0.214610,0.024587,-0.005956,0.028100
1765407955.759830,-9.587517,0.096844,-0.250478,0.025045,-0.005956,0.023976
1765407955.762298,-9.934240,0.303682,0.139287,0.023824,-0.001833,0.024282
1765407955.766291,-9.992227,0.096844,0.164993,0.024893,-0.001833,0.032376
1765407955.769292,-9.988043,0.096844,0.200861,0.024893,0.004123,0.032376
1765407955.771325,-9.835006,-0.060976,0.235533,0.021075,0.018326,0.032529
1765407955.773378,-9.871471,-0.198470,0.265423,0.022755,0.004123,0.030543
1765407955.776327,-10.144667,-0.047824,0.447752,0.021991,0.002596,0.022602
1765407955.779352,-9.969511,0.115973,0.338355,0.027489,0.013897,0.028405
1765407955.781310,-9.751313,0.011956,0.140483,0.026878,0.015119,0.031001
1765407955.782281,-9.802128,-0.044237,0.289933,0.025962,0.001833,0.029169
1765407955.786257,-9.933643,-0.174558,0.188307,0.027642,-0.002443,0.028405
1765407955.789322,-9.849353,-0.048422,-0.003587,0.033445,0.001527,0.023213
1765407955.791309,-9.813485,0.078910,0.199665,0.035277,0.014813,0.027794
1765407955.793352,-9.855330,0.054998,0.370636,0.032529,0.009010,0.027184
1765407955.796710,-10.083690,0.187709,0.449546,0.026725,-0.004276,0.021991
1765407955.799418,-9.979673,0.257652,0.302487,0.024740,0.003207,0.029322
1765407955.800388,-9.736369,0.095648,-0.101626,0.029322,0.004887,0.035583
1765407955.804333,-9.777617,-0.105811,0.023912,0.029016,0.002291,0.033445
1765407955.806308,-10.005379,-0.033477,0.253467,0.027947,0.000153,0.028863
1765407955.809405,-9.931850,0.066356,0.239120,0.034514,0.011301,0.029169
1765407955.811324,-9.763867,0.186514,0.111789,0.031460,0.015424,0.031460
1765407955.814341,-9.874461,0.092659,0.165591,0.025198,0.003818,0.029474
1765407955.816338,-10.215207,0.096844,0.517695,0.026878,0.005345,0.029627
1765407955.818357,-10.207435,0.035868,0.571497,0.027489,0.014203,0.033750
1765407955.821382,-9.677187,-0.141081,-0.019130,0.029932,0.002291,0.032987
1765407955.823765,-9.738760,-0.022119,0.022716,0.030849,0.002291,0.026420
1765407955.826283,-9.962935,0.121951,0.345528,0.028558,0.002443,0.026267
1765407955.829262,-9.894786,0.211621,0.200263,0.033903,0.003665,0.029780
1765407955.831284,-9.802725,0.113582,0.147059,0.029016,0.010079,0.030391
1765407955.834362,-9.887015,0.080105,0.300096,0.031001,0.008552,0.032987
1765407955.836330,-10.132710,-0.059780,0.571497,0.031918,-0.000764,0.035125
1765407955.839348,-10.022716,-0.110593,0.166188,0.025962,-0.000458,0.030849
1765407955.841397,-9.665230,-0.043042,-0.230751,0.030391,0.002749,0.029169
1765407955.844275,-9.707077,-0.009565,-0.048422,0.030543,0.003665,0.029780
1765407955.846266,-10.044236,0.211621,0.426829,0.034056,0.003665,0.030391
1765407955.849267,-10.223577,0.160210,0.685079,0.030543,0.010996,0.032834
1765407955.851291,-9.801530,-0.015543,0.129723,0.031001,0.012523,0.038179
1765407955.852316,-9.838593,-0.081899,0.120756,0.030696,0.004123,0.034361
1765407955.856308,-10.029889,-0.001196,0.344333,0.030085,-0.001222,0.029780
1765407955.858271,-10.169774,0.053802,0.576877,0.032223,0.008399,0.029780
1765407955.861343,-9.730989,0.160210,0.149450,0.036499,0.014355,0.028100
1765407955.864343,-9.721423,0.205643,0.179340,0.028711,0.004276,0.031612
1765407955.866284,-10.008368,0.310258,0.457915,0.029474,-0.004276,0.033750
1765407955.867398,-9.966521,0.043042,0.236729,0.031918,0.001374,0.038790
1765407955.871369,-9.544475,-0.212817,-0.350311,0.025045,0.004276,0.036499
1765407955.874322,-9.722619,0.071736,-0.007174,0.026725,0.008705,0.027642
1765407955.876352,-9.953967,0.086083,0.428025,0.030085,0.011759,0.032376
1765407955.879360,-10.139884,0.214610,0.596007,0.033903,0.017410,0.032681
1765407955.881974,-10.011356,0.203252,0.546389,0.027794,0.017410,0.033139
1765407955.884336,-9.759683,0.049020,0.021521,0.027794,0.011454,0.033139
1765407955.886302,-9.930654,-0.109995,0.140483,0.030543,0.001374,0.037568
1765407955.889320,-10.249879,0.053802,0.752032,0.032529,0.011606,0.030849
1765407955.891341,-9.929459,0.099235,0.512912,0.032834,0.016952,0.031307
1765407955.893335,-9.612624,0.142874,-0.058584,0.030391,0.006414,0.031460
1765407955.896319,-9.612624,0.142874,-0.058584,0.030391,0.000611,0.031460
1765407955.899305,-9.948587,0.100430,0.247489,0.035277,0.015424,0.041692
1765407955.901261,-10.248685,0.064562,0.667145,0.034361,0.015424,0.034514
1765407955.904330,-10.248685,0.064562,0.667145,0.034361,0.022602,0.034514
1765407955.905384,-9.600070,-0.069345,-0.269010,0.035430,0.008552,0.031612
1765407955.907349,-9.808702,0.173960,0.004782,0.035736,0.007636,0.029474
1765407955.911319,-9.976088,0.160210,0.422047,0.037110,0.020159,0.034819
1765407955.914260,-10.043041,0.112386,0.390961,0.032223,0.020159,0.033750
1765407955.916374,-10.127330,0.182927,0.747250,0.031154,0.020922,0.031918
1765407955.919275,-10.082495,0.093257,0.651602,0.034208,0.018937,0.035125
1765407955.921297,-9.775824,-0.055595,0.062171,0.035277,0.001985,0.038943
1765407955.924269,-10.013150,0.049020,0.133309,0.030085,0.010843,0.028405
1765407955.926304,-9.946198,0.087279,0.129125,0.033292,0.010843,0.029932
1765407955.927303,-9.762074,0.108800,0.075323,0.040164,0.015424,0.035430
1765407955.929260,-9.840983,0.125538,0.205643,0.029322,0.010385,0.031307
1765407955.934269,-10.117167,0.170971,0.296509,0.031918,0.006720,0.035277
1765407955.934769,-10.126135,-0.027499,0.350311,0.038485,0.012065,0.039248
1765407955.937323,-9.891200,-0.053802,0.170971,0.037110,0.019700,0.035583
1765407955.941259,-9.887612,0.132712,0.308465,0.033139,0.019548,0.029627
1765407955.944273,-9.937828,0.257652,0.222979,0.034056,0.006720,0.034819
1765407955.944773,-10.049019,0.214012,0.243902,0.031154,0.006720,0.035736
1765407955.949303,-10.049019,0.214012,0.243902,0.031154,0.019242,0.035736
1765407955.951318,-9.924676,0.221186,0.331181,0.034056,0.022602,0.039554
1765407955.954268,-9.775824,-0.161406,0.112984,0.036194,0.014050,0.043524
1765407955.957321,-10.063366,0.016738,0.153037,0.034361,0.009010,0.033750
1765407955.959297,-9.968913,-0.008369,0.078910,0.033292,0.009010,0.036041
1765407955.961292,-9.968913,-0.008369,0.078910,0.033292,0.017868,0.036041
1765407955.964252,-9.841581,0.258250,0.126136,0.031001,0.012675,0.036499
1765407955.964752,-10.224771,0.119560,0.479436,0.027794,0.006567,0.037110
1765407955.969354,-10.317431,-0.088474,0.437590,0.038637,0.014355,0.046426
1765407955.971317,-9.890003,-0.264228,0.040650,0.039859,0.017562,0.042761
1765407955.974337,-9.701099,-0.040650,-0.075323,0.036499,0.013286,0.031612
1765407955.976357,-9.896580,0.159015,0.138690,0.033292,0.013592,0.029780
1765407955.979334,-10.126135,0.314443,0.387374,0.042761,0.012065,0.035888
1765407955.981309,-10.007771,0.169775,0.577475,0.035125,0.013897,0.038026
1765407955.986007,-9.930654,0.061573,0.388570,0.034056,0.013897,0.038485
1765407955.986507,-9.714250,-0.123147,-0.179340,0.032987,0.000611,0.041539
1765407955.989286,-9.959946,-0.084888,-0.308465,0.038485,-0.008858,0.035583
1765407955.991254,-10.178144,0.153635,0.252272,0.044135,0.006720,0.036652
1765407955.994308,-10.013150,0.229555,0.447154,0.045204,0.024893,0.037263
1765407955.996296,-10.013150,0.229555,0.273195,0.045204,0.017868,0.037263
1765407955.999279,-9.968315,0.104017,0.282759,0.034056,0.004276,0.041081
1765407956.000328,-10.130320,0.015543,0.151841,0.045968,0.002443,0.041997
1765407956.004293,-10.029889,-0.160808,0.260641,0.041997,0.011148,0.039706
1765407956.006246,-10.029889,-0.160808,0.260641,0.041997,0.012370,0.039706
1765407956.009370,-10.016139,0.179340,0.493783,0.042302,0.008858,0.034972
1765407956.011276,-9.860114,0.214012,0.001196,0.041539,-0.005345,0.037263
1765407956.014262,-10.065758,0.259445,-0.020325,0.036041,-0.008094,0.035430
1765407956.016270,-10.025107,0.172166,0.100430,0.039401,0.009163,0.038637
1765407956.019281,-10.055594,-0.009565,0.518890,0.043524,0.014966,0.046273
1765407956.021259,-9.927068,-0.137494,0.318627,0.041386,0.007789,0.039248
1765407956.024264,-10.124342,0.178144,0.364658,0.038637,-0.002749,0.031307
1765407956.026296,-10.145264,0.350311,0.447154,0.044899,0.010232,0.035430
1765407956.029279,-9.738162,0.266021,0.057389,0.048106,0.010232,0.045357
1765407956.030273,-9.813485,0.105213,0.206839,0.036652,0.002902,0.039859
1765407956.034286,-10.149448,0.065758,0.575681,0.040012,0.002291,0.043982
1765407956.037296,-9.922284,-0.069345,0.072932,0.046273,0.001374,0.048717
1765407956.037796,-9.756096,0.118364,-0.251674,0.044135,0.014661,0.036346
1765407956.041289,-9.776422,0.031086,0.115375,0.040470,0.014661,0.040623
1765407956.044300,-9.933045,0.217599,0.451339,0.045357,0.010537,0.039248
1765407956.046277,-10.209826,0.280966,0.639048,0.040012,0.007178,0.039248
1765407956.049256,-9.935436,0.033477,0.111789,0.032834,0.010537,0.040928
1765407956.051368,-9.917501,0.129125,0.065758,0.041386,0.014203,0.041997
1765407956.054305,-9.929459,-0.147059,0.395744,0.049633,0.014203,0.046731
1765407956.056359,-10.208632,0.050215,0.643233,0.046884,0.006109,0.039401
1765407956.059334,-10.052606,0.178742,0.373027,0.045051,0.010843,0.040928
1765407956.061265,-9.758488,0.109397,-0.106408,0.043371,0.001374,0.042455
1765407956.064307,-9.699306,0.169775,-0.105213,0.042455,0.003512,0.042608
1765407956.067025,-9.919296,0.145863,0.412482,0.041233,0.006261,0.040928
1765407956.069393,-9.944403,0.087877,0.120756,0.044899,0.008399,0.045051
1765407956.071389,-9.745934,-0.043042,-0.230153,0.049633,0.002596,0.043219
1765407956.074313,-9.765661,0.065758,-0.042444,0.049633,0.010079,0.038637
1765407956.076286,-9.906144,0.160210,0.458513,0.050855,0.017868,0.043982
1765407956.079280,-10.077712,0.137494,0.661167,0.048258,0.015882,0.040928
1765407956.081308,-10.023313,0.121951,0.326399,0.047342,0.008858,0.040775
1765407956.083368,-9.814680,0.138690,0.034672,0.047953,0.009468,0.045051
1765407956.086282,-9.813485,0.020325,0.120158,0.052840,0.009468,0.046731
1765407956.089343,-9.831419,0.053204,0.183525,0.052076,0.005956,0.041692
1765407956.091377,-9.890003,0.216404,0.255858,0.053451,0.009163,0.038485
1765407956.094333,-9.851147,0.320421,0.085485,0.053145,0.014508,0.043830
1765407956.096348,-9.818267,0.204448,0.099235,0.049633,0.009010,0.046884
1765407956.097404,-9.970109,0.083692,0.265423,0.044899,0.009010,0.044135
1765407956.101542,-10.047822,0.174558,0.114180,0.049022,0.018173,0.043371
1765407956.104353,-9.999401,0.115973,0.322214,0.046884,0.024740,0.045968
1765407956.106265,-10.108798,0.102822,0.646820,0.048717,0.021228,0.045968
1765407956.109271,-10.209229,0.054998,0.746652,0.048106,0.013744,0.045357
1765407956.111262,-9.946198,0.055595,0.053204,0.049022,0.003512,0.041539
1765407956.112284,-9.780008,0.292324,-0.309063,0.049480,0.005040,0.038637
1765407956.116246,-9.928263,0.256456,0.066954,0.051924,0.018173,0.043371
1765407956.119312,-10.226564,0.071736,0.732903,0.051618,0.018173,0.050855
1765407956.121339,-10.226564,0.071736,0.732903,0.051618,0.020769,0.050855
1765407956.123364,-9.867287,0.225968,-0.054400,0.049022,0.017562,0.043371
1765407956.126253,-10.022716,0.233142,0.490196,0.050244,0.019853,0.050702
1765407956.128325,-10.059779,-0.013152,0.428025,0.057116,0.006261,0.054672
1765407956.131293,-9.887612,-0.038259,0.100430,0.047953,0.006261,0.043219
1765407956.134263,-9.887612,-0.038259,0.100430,0.047953,0.012981,0.043219
1765407956.136297,-9.690338,0.266619,0.060976,0.057879,0.018326,0.053145
1765407956.139266,-9.840983,0.157819,0.387374,0.054214,0.015577,0.046426
1765407956.141279,-10.031085,0.264228,0.374223,0.046273,0.022449,0.041539
1765407956.144346,-9.677187,0.245098,-0.280966,0.053909,0.022449,0.045662
1765407956.146283,-9.502629,0.251076,-0.271401,0.059712,0.018937,0.049480
1765407956.149279,-9.994021,0.395744,0.487805,0.053909,0.023976,0.046578
1765407956.151321,-10.089668,0.212817,0.596007,0.050549,0.023976,0.053909
1765407956.152306,-9.878048,-0.074725,0.072932,0.050702,0.016799,0.052687
1765407956.156289,-9.497847,0.023912,-0.546389,0.055283,0.016799,0.045662
1765407956.159271,-9.632352,0.159015,-0.127331,0.055436,0.023213,0.041539
1765407956.159771,-10.033475,0.433405,0.523673,0.055131,0.023824,0.042302
1765407956.164278,-10.378406,0.497370,0.781922,0.048869,0.016188,0.046731
1765407956.166250,-10.159015,0.357484,0.312052,0.048869,0.024435,0.046731
1765407956.167330,-9.907937,0.173362,-0.071736,0.055131,0.020311,0.054825
1765407956.171286,-9.974891,0.031086,0.257054,0.053145,0.012981,0.052534
1765407956.174273,-10.399329,0.265423,0.799856,0.051771,0.014050,0.047037
1765407956.176282,-10.121950,0.248685,0.416667,0.047800,0.020617,0.048106
1765407956.179348,-10.121950,0.248685,0.416667,0.047800,0.012065,0.048106
1765407956.181305,-9.769248,0.099235,-0.263032,0.052382,0.004734,0.047189
1765407956.183322,-10.186513,0.292922,0.249880,0.052076,0.004123,0.045662
1765407956.184283,-10.306072,0.178742,0.434601,0.051465,0.022144,0.050855
1765407956.189256,-9.989238,0.111191,0.266619,0.054062,0.027794,0.052534
1765407956.191266,-9.907937,0.098039,0.248685,0.050091,0.018784,0.049786
1765407956.194308,-10.123145,0.150048,0.500359,0.049938,0.010079,0.047495
1765407956.196358,-10.185316,0.236131,0.361071,0.053756,0.009621,0.047953
1765407956.199291,-9.815877,0.186514,-0.097441,0.051007,0.013134,0.050244
1765407956.201308,-9.833213,0.252272,-0.002391,0.049022,0.012981,0.051007
1765407956.202345,-9.774031,-0.001196,-0.153635,0.052993,0.006872,0.056505
1765407956.206266,-9.893590,0.103419,-0.113582,0.055894,0.008094,0.044135
1765407956.209323,-9.976088,0.270803,0.138690,0.052534,0.025809,0.046120
1765407956.211285,-9.992825,0.230153,0.551172,0.060628,0.017104,0.055894
1765407956.214268,-10.046029,0.043042,0.466284,0.057116,0.017104,0.055589
1765407956.216318,-10.203251,-0.005978,0.345528,0.051924,0.002596,0.047953
1765407956.219351,-9.968315,0.154830,-0.127929,0.058032,0.015119,0.047647
1765407956.221423,-9.576159,0.235533,-0.361071,0.063683,0.012370,0.052076
1765407956.223586,-9.778215,0.398135,0.109995,0.052993,0.014203,0.046273
1765407956.226309,-9.983260,0.190100,0.408895,0.048411,0.018479,0.049175
1765407956.229315,-9.862504,0.182329,0.157819,0.058490,0.019090,0.048106
1765407956.229815,-9.683165,0.259445,-0.074127,0.058490,0.019090,0.053756
1765407956.234299,-9.992825,0.322812,0.450741,0.052534,0.016646,0.052076
1765407956.236334,-10.131515,0.121353,0.472860,0.054214,0.012065,0.056200
1765407956.239351,-9.966521,-0.001196,0.231946,0.059101,0.015272,0.052840
1765407956.241319,-9.698708,0.203850,-0.099235,0.059254,0.019700,0.048258
1765407956.244325,-9.946198,0.411286,0.335964,0.052993,0.023518,0.047800
1765407956.244825,-9.833811,0.430416,0.190100,0.057727,0.017410,0.056200
1765407956.249299,-9.759085,0.104017,0.056193,0.060934,0.012828,0.060628
1765407956.251335,-9.650884,0.043042,-0.017934,0.060323,0.023824,0.056963
1765407956.254305,-9.909731,0.074725,0.485414,0.060781,0.025198,0.058338
1765407956.254805,-10.135101,0.188307,0.312052,0.063683,0.009468,0.052229
1765407956.259279,-10.151840,0.344333,0.166188,0.052993,0.009468,0.046731
1765407956.261312,-9.934240,0.295313,0.127929,0.059101,0.030696,0.053603
1765407956.262345,-9.915112,0.288140,0.312052,0.058948,0.030238,0.059712
1765407956.266298,-10.014346,0.175753,0.365854,0.053603,0.014661,0.057421
1765407956.268324,-10.400524,0.182927,0.603778,0.054825,0.029932,0.052534
1765407956.271272,-10.135699,-0.010760,0.343137,0.066432,0.029932,0.064294
1765407956.274260,-10.135699,-0.010760,0.343137,0.066432,0.016341,0.064294
1765407956.276313,-9.996411,0.246294,0.295313,0.060781,0.015119,0.041081
1765407956.279322,-9.917501,0.481229,-0.044237,0.060781,0.013286,0.050549
1765407956.281348,-9.983260,0.330583,-0.136896,0.063530,0.010843,0.055131
1765407956.282301,-10.006575,0.428025,0.215208,0.063835,0.019395,0.055589
1765407956.286334,-10.029889,0.081899,0.514108,0.062003,0.031307,0.058338
1765407956.289266,-9.741750,0.123147,0.024510,0.061850,0.006414,0.054214
1765407956.291320,-10.090864,0.153037,0.319823,0.063835,0.006414,0.051924
1765407956.293379,-9.813485,0.153037,-0.038259,0.063835,0.014355,0.051924
1765407956.296313,-10.102222,0.489598,0.467480,0.067806,0.013134,0.052229
1765407956.299309,-9.762672,0.509923,-0.074725,0.058643,0.019853,0.055589
1765407956.301986,-9.806910,0.307269,-0.375418,0.056352,0.015272,0.062461
1765407956.303462,-9.920491,0.016738,-0.166786,0.065821,0.015272,0.063683
1765407956.306290,-10.417263,0.033477,0.933764,0.065057,0.025656,0.060170
1765407956.309290,-10.062170,0.060976,0.443568,0.063072,0.015882,0.054062
1765407956.311284,-9.875058,0.240316,0.046031,0.059865,0.015882,0.050396
1765407956.314272,-9.741151,0.411286,-0.204448,0.063988,0.004581,0.052687
1765407956.314772,-10.050214,0.396341,0.221186,0.068875,0.004581,0.056352
1765407956.319324,-10.163795,0.355691,0.512315,0.068875,0.019395,0.056352
1765407956.321309,-9.892395,0.077714,-0.184122,0.060628,0.010079,0.059559
1765407956.324284,-9.910927,0.087877,-0.093257,0.065821,0.008247,0.055894
1765407956.326266,-10.007771,0.284553,0.206839,0.067195,0.012217,0.058796
1765407956.329387,-10.022716,0.270206,0.330583,0.064294,0.015119,0.057879
1765407956.331332,-10.022716,0.270206,0.196078,0.064294,0.016035,0.057879
1765407956.333342,-9.890601,0.288737,-0.095648,0.064904,0.007178,0.059254
1765407956.336316,-10.025107,0.257054,-0.014945,0.066279,0.007178,0.058185
1765407956.339269,-10.193686,0.362267,0.520684,0.066584,0.009316,0.057421
1765407956.341301,-9.921089,0.265423,-0.062171,0.061850,0.017562,0.057269
1765407956.344261,-9.812290,0.298900,-0.136298,0.064446,0.007941,0.056047
1765407956.346317,-9.961740,0.470469,0.166786,0.066890,0.012523,0.057116
1765407956.347257,-10.174556,0.494978,0.528455,0.060628,0.007330,0.057574
1765407956.351341,-10.188903,0.335964,0.230751,0.054367,0.007178,0.062308
1765407956.354345,-10.128527,0.105213,0.136896,0.062156,0.002291,0.065515
1765407956.356309,-9.947989,0.114180,-0.074725,0.062003,0.009621,0.061392
1765407956.359273,-10.216402,0.236729,0.484218,0.065363,0.004123,0.058643
1765407956.361280,-10.083092,0.318030,0.270206,0.062308,0.008552,0.054978
1765407956.364268,-10.197272,0.439981,0.511119,0.063988,0.007330,0.059101
1765407956.364768,-9.895982,0.238522,0.309063,0.066890,0.009774,0.060476
1765407956.369285,-9.570778,0.246294,-0.228360,0.064904,-0.002902,0.061087
1765407956.371289,-9.924676,0.318030,0.159015,0.060781,-0.003054,0.057879
1765407956.374265,-9.877449,0.194883,0.004185,0.067042,-0.003054,0.063530
1765407956.376255,-9.811094,0.148852,-0.160808,0.065821,0.003971,0.062461
1765407956.379295,-9.665829,0.229555,-0.064562,0.062156,0.013897,0.054978
1765407956.381312,-9.875656,0.289335,0.485414,0.062614,0.018326,0.059101
1765407956.384319,-9.875656,0.289335,0.485414,0.062614,0.006261,0.059101
1765407956.384819,-10.273791,0.261239,0.787303,0.065515,0.010843,0.061850
1765407956.389263,-9.699903,0.090866,-0.304878,0.070555,0.008094,0.062766
1765407956.391278,-9.744141,0.187709,-0.370636,0.069944,0.000458,0.061545
1765407956.393871,-9.905546,0.329986,0.184122,0.072693,0.010996,0.057116
1765407956.396736,-10.062768,0.365256,0.309660,0.069486,0.018784,0.060476
1765407956.399317,-9.975489,0.377810,0.270803,0.067959,0.015577,0.055894
1765407956.399817,-10.118362,0.473458,0.389766,0.062766,0.022297,0.062919
1765407956.404289,-9.985652,0.156624,0.175753,0.069639,0.013286,0.070860
1765407956.406257,-10.080104,0.060976,0.365854,0.063835,0.004123,0.060628
1765407956.407315,-9.922883,0.170971,-0.026303,0.071471,0.015577,0.063225
1765407956.411346,-9.791965,0.153037,-0.043042,0.071013,0.015119,0.060323
1765407956.414332,-10.001194,0.390961,0.349115,0.074678,0.020922,0.059712
1765407956.414832,-10.121950,0.332975,0.433405,0.072082,0.012370,0.066279
1765407956.419269,-10.214011,0.269010,0.492587,0.070097,0.013592,0.063377
1765407956.421345,-9.959349,0.087279,0.145863,0.074220,0.013744,0.069333
1765407956.424307,-9.808702,0.077714,-0.040650,0.076358,0.009927,0.061392
1765407956.426277,-9.703490,0.283955,-0.265423,0.073762,0.013897,0.059101
1765407956.429310,-10.117765,0.364658,0.424438,0.077733,0.013592,0.060781
1765407956.429810,-9.799736,0.258250,-0.150646,0.078343,0.019395,0.066584
1765407956.434264,-10.379004,0.479436,0.783118,0.074526,0.015272,0.061239
1765407956.435313,-10.014943,0.352702,0.077116,0.074220,0.002749,0.068264
1765407956.437338,-9.887612,0.090866,-0.098039,0.078649,0.002749,0.070402
1765407956.441313,-10.019726,0.333572,0.120756,0.076664,0.015577,0.060323
1765407956.444296,-9.991032,0.182927,0.196078,0.077885,0.013286,0.066432
1765407956.446314,-10.045432,0.439981,0.194883,0.078191,0.025198,0.061697
1765407956.449288,-10.114776,0.532042,0.636657,0.078343,0.023213,0.064904
1765407956.450314,-10.083690,0.255858,0.308465,0.074678,0.024129,0.073762
1765407956.454293,-10.247488,0.382592,0.307269,0.079260,0.005345,0.068264
1765407956.456260,-9.987445,0.062171,0.159015,0.075747,0.015272,0.071166
1765407956.459272,-9.632950,0.155428,-0.454328,0.081551,0.013592,0.068264
1765407956.461286,-9.827832,0.298900,0.283357,0.083078,0.019090,0.062766
1765407956.464264,-10.087276,0.428025,0.456719,0.082772,0.021075,0.066890
1765407956.466268,-10.270204,0.475849,0.769966,0.080023,0.007636,0.065973
1765407956.468393,-9.945002,0.474055,0.098637,0.076358,0.015272,0.070555
1765407956.471523,-9.653275,0.212817,-0.529651,0.082772,0.002902,0.075136
1765407956.474282,-9.604255,0.178144,-0.556552,0.086743,0.014966,0.066584
1765407956.476311,-10.130320,0.422645,0.365854,0.081398,0.014966,0.064446
1765407956.479356,-9.925274,0.558345,0.196676,0.081398,0.032223,0.064904
1765407956.479856,-9.739358,0.520086,-0.029890,0.073762,0.018479,0.068264
1765407956.484296,-9.942610,0.587637,0.264228,0.072846,0.020769,0.067653
1765407956.484796,-9.768052,0.300693,-0.002989,0.080176,0.008552,0.075900
1765407956.487341,-9.732782,0.319225,-0.231946,0.075595,0.008552,0.066890
1765407956.491382,-9.732782,0.319225,-0.231946,0.075595,0.021686,0.066890
1765407956.493406,-9.528933,0.454328,-0.164395,0.074220,0.023366,0.068264
1765407956.496391,-10.179338,0.734098,0.503348,0.078954,0.023366,0.065057
1765407956.497377,-10.305474,0.491989,0.860832,0.073457,0.022602,0.071624
1765407956.501345,-9.918698,0.328790,0.027499,0.074220,0.023976,0.071777
1765407956.504358,-9.918698,0.328790,0.027499,0.074220,0.019853,0.071777
1765407956.506324,-9.738162,0.212817,-0.227164,0.075900,0.020617,0.069944
1765407956.509286,-10.199663,0.418460,0.448948,0.079260,0.020617,0.058490
1765407956.511291,-10.154231,0.845289,0.601387,0.079871,0.039248,0.063072
1765407956.514344,-9.970109,0.708991,0.331181,0.073457,0.027184,0.070860
1765407956.516303,-9.819464,0.532042,-0.127929,0.066126,0.016493,0.072846
1765407956.519327,-10.275584,0.187111,0.309660,0.075442,0.021228,0.076358
1765407956.520356,-10.111190,-0.051411,0.118364,0.086132,0.021228,0.074831
1765407956.524302,-10.178144,0.228360,0.264825,0.077122,0.020922,0.058032
1765407956.526285,-10.178144,0.665949,0.524271,0.076664,0.034208,0.055283
1765407956.529268,-9.890601,0.744859,0.246891,0.086437,0.024740,0.072693
1765407956.529768,-10.134504,0.552367,0.318030,0.074831,0.014661,0.071013
1765407956.532398,-10.300095,0.326399,0.168580,0.067653,0.014661,0.068875
1765407956.536371,-9.940218,0.147059,-0.375418,0.082467,0.021991,0.072693
1765407956.538345,-9.673599,0.423242,-0.156624,0.080329,0.028100,0.058796
1765407956.541291,-9.919893,0.769966,0.494978,0.070250,0.028100,0.058338
1765407956.544263,-9.919893,0.769966,0.494978,0.070250,0.017562,0.058338
1765407956.546315,-9.956359,0.528455,-0.022716,0.072082,0.008705,0.068875
1765407956.549303,-9.717837,0.241511,-0.477044,0.071624,0.009163,0.070097
1765407956.549803,-9.747727,0.397537,-0.392157,0.075289,0.021075,0.065668
1765407956.554275,-10.023911,0.322812,0.191296,0.076664,0.014203,0.071319
1765407956.556356,-10.023911,0.322812,0.191296,0.076664,0.014813,0.071319
1765407956.559294,-10.463892,0.662362,0.549976,0.069791,0.020769,0.065210
1765407956.561301,-9.886416,0.468675,-0.026303,0.071929,0.017562,0.070402
1765407956.564353,-9.763269,0.339550,-0.350311,0.071624,0.003971,0.071777
1765407956.564853,-10.017335,0.188307,-0.003587,0.070097,0.003971,0.067959
1765407956.569263,-10.259443,0.270206,0.251076,0.073151,0.014966,0.065363
1765407956.570263,-10.092059,0.331181,0.164993,0.076053,0.014050,0.065210
1765407956.573706,-10.319821,0.619919,0.451937,0.074526,0.018631,0.061697
1765407956.576067,-10.059779,0.416667,0.252272,0.075442,0.016952,0.071319
1765407956.579483,-9.910329,0.234338,-0.034672,0.076816,0.012675,0.072846
1765407956.581295,-9.885221,0.176351,-0.154232,0.075595,0.009621,0.067042
1765407956.584314,-10.181729,0.425634,0.436394,0.070708,0.015730,0.060476
1765407956.586359,-10.161406,0.577475,0.314443,0.081092,0.013592,0.067042
1765407956.587341,-9.872069,0.587637,0.253467,0.074984,0.010690,0.069639
1765407956.591397,-9.410568,0.432807,-0.591224,0.074831,0.010690,0.076664
1765407956.594303,-9.827832,0.164993,-0.095648,0.075595,-0.005498,0.071471
1765407956.596749,-10.382590,0.426231,0.496174,0.086285,0.005192,0.066126
1765407956.599331,-9.904350,0.489000,-0.025108,0.080481,0.016952,0.068570
1765407956.601302,-9.904350,0.489000,-0.025108,0.080481,0.021991,0.068570
1765407956.604289,-9.811094,0.445959,0.264228,0.082161,0.020159,0.078343
1765407956.606325,-9.947989,0.194285,0.256456,0.079107,-0.001069,0.073457
1765407956.609308,-10.208033,0.451937,0.186514,0.076664,0.008247,0.061239
1765407956.611300,-9.642514,0.339550,-0.263032,0.080329,0.026420,0.072388
1765407956.614279,-9.656861,0.501554,-0.263032,0.080329,0.019700,0.072388
1765407956.616231,-10.081299,0.648015,0.762793,0.080481,0.019395,0.069944
1765407956.619303,-10.076518,0.379005,0.451937,0.078954,0.024587,0.076511
1765407956.621305,-9.626373,0.258250,-0.369440,0.084299,0.011301,0.079718
1765407956.624263,-9.708273,0.455524,-0.380201,0.079871,0.011301,0.069944
1765407956.626254,-9.790769,0.484218,-0.029890,0.082925,0.019853,0.066890
1765407956.629343,-9.869678,0.726925,0.346724,0.079107,0.020464,0.067348
1765407956.631314,-9.960544,0.765184,0.334768,0.069639,0.024740,0.072082
1765407956.632297,-10.071137,0.595409,0.382592,0.073457,0.016035,0.076816
1765407956.636249,-9.910927,0.123147,0.118364,0.077427,0.016035,0.082620
1765407956.639314,-9.840386,0.118364,-0.274988,0.077274,0.010537,0.071166
1765407956.641306,-10.113581,0.457915,0.423242,0.078496,0.025351,0.061850
1765407956.644275,-10.045432,0.723338,0.355691,0.080176,0.031612,0.073151
1765407956.646318,-9.961740,0.577475,0.283955,0.082161,0.025045,0.077733
1765407956.649267,-9.721423,0.420851,-0.032281,0.081703,0.025045,0.081092
1765407956.651272,-9.626373,0.102822,-0.417264,0.079260,0.021686,0.082467
1765407956.652339,-9.634145,0.150646,-0.198470,0.081703,0.016341,0.070708
1765407956.656305,-10.087276,0.549976,0.279770,0.081856,0.023213,0.064904
1765407956.659299,-9.852941,0.410091,-0.038259,0.083383,0.032070,0.074373
1765407956.661231,-9.808702,0.548780,0.045433,0.084910,0.030391,0.073762
1765407956.662249,-9.939621,0.334768,0.056193,0.090103,0.023518,0.077885
1765407956.666268,-10.272595,0.345528,0.308465,0.087354,0.016799,0.070402
1765407956.668346,-10.157221,0.459110,0.221186,0.088728,0.030238,0.072693
1765407956.671278,-9.800333,0.513510,-0.239718,0.089034,0.032070,0.072235
1765407956.674324,-9.857722,0.609158,0.076518,0.084299,0.025504,0.069639
1765407956.676272,-10.117765,0.631875,0.438785,0.080787,0.023060,0.069639
1765407956.679275,-10.074127,0.536227,0.060976,0.084605,0.025198,0.078954
1765407956.681350,-9.698708,0.302487,-0.600191,0.078191,0.025198,0.077885
1765407956.684252,-9.640123,0.434003,-0.251076,0.083536,0.029627,0.075289
1765407956.686277,-9.696316,0.503945,0.070540,0.084605,0.037721,0.077427
1765407956.687347,-9.923481,0.416667,0.319823,0.083994,0.032070,0.078954
1765407956.691267,-9.892395,0.351506,-0.038259,0.085368,0.017562,0.077122
1765407956.692277,-9.982065,0.211621,-0.060976,0.086590,0.017562,0.075289
1765407956.696264,-10.002987,0.502152,0.051411,0.091324,0.027489,0.069944
1765407956.699267,-9.715446,0.552965,0.017934,0.091172,0.030849,0.075747
1765407956.699767,-9.774031,0.584648,0.237924,0.084452,0.028253,0.076358
1765407956.704228,-9.976088,0.237924,0.182927,0.093157,0.009774,0.084605
1765407956.706252,-9.721423,0.013749,-0.398135,0.097891,0.009774,0.078496
1765407956.709294,-9.854136,0.625897,-0.179938,0.092546,0.015424,0.065057
1765407956.711355,-9.695121,0.747250,0.046628,0.086896,0.024129,0.073915
1765407956.714309,-9.534313,0.661765,-0.454328,0.094226,0.024129,0.084758
1765407956.716663,-9.534313,0.661765,-0.454328,0.094226,0.014966,0.084758
1765407956.717163,-10.228358,0.301291,0.249283,0.089339,0.021838,0.081551
1765407956.721250,-10.014346,0.328790,-0.069345,0.094684,0.025656,0.077274
1765407956.724318,-9.814083,0.486011,-0.171569,0.090255,0.031460,0.072540
1765407956.724818,-9.699903,0.398135,-0.094452,0.088881,0.031460,0.077427
1765407956.729339,-9.699903,0.398135,-0.094452,0.088881,0.025045,0.077427
1765407956.731354,-10.438784,0.617527,0.512912,0.089797,0.020617,0.081092
1765407956.733438,-10.345527,0.503945,0.282162,0.085979,0.024893,0.078191
1765407956.736333,-9.886416,0.410091,-0.289335,0.094531,0.027184,0.082467
1765407956.739340,-9.695121,0.486011,-0.229555,0.093921,0.026878,0.079871
1765407956.739840,-10.089071,0.637853,0.394548,0.090561,0.023976,0.078954
1765407956.744272,-10.313247,0.685079,0.575084,0.089492,0.019853,0.078802
1765407956.744772,-9.866092,0.588833,-0.253467,0.089950,0.019853,0.079565
1765407956.749269,-9.648493,0.860234,-0.336561,0.086132,0.021533,0.076205
1765407956.750286,-9.819464,0.857245,0.037661,0.088423,0.021533,0.085216
1765407956.754237,-10.071735,0.486609,0.422645,0.088575,0.018937,0.093768
1765407956.756276,-10.237924,0.303085,0.166786,0.086437,0.010843,0.085063
1765407956.759273,-9.904350,0.447154,-0.337757,0.085063,0.010079,0.074373
1765407956.761327,-9.759683,0.925394,-0.167384,0.082161,0.013744,0.074373
1765407956.764234,-9.827832,0.987566,-0.021521,0.085368,0.014203,0.084452
1765407956.766254,-10.060376,0.570301,0.267814,0.078954,0.008247,0.086896
1765407956.769285,-10.243901,0.371234,0.250478,0.085063,0.013592,0.086285
1765407956.771359,-9.962337,0.205643,-0.161406,0.091935,0.011148,0.083536
1765407956.774375,-9.962337,0.205643,-0.161406,0.091935,0.008705,0.083536
1765407956.776296,-10.027497,0.746054,0.166188,0.085827,0.004581,0.080940
1765407956.779270,-9.936033,0.484218,-0.076518,0.090561,0.004581,0.086590
1765407956.781283,-10.033475,0.529651,0.058584,0.089339,0.002902,0.083536
1765407956.783338,-10.190099,0.640842,0.214610,0.084299,0.010385,0.079871
1765407956.784294,-10.078907,0.478838,-0.121951,0.084299,0.008552,0.079871
1765407956.789326,-9.784791,0.591822,-0.325203,0.094531,0.008705,0.082314
1765407956.791342,-9.706479,0.547585,-0.191296,0.092393,0.010843,0.081703
1765407956.794252,-9.886416,0.584648,0.224773,0.092546,0.009468,0.077122
1765407956.796354,-10.028693,0.700024,0.429220,0.093768,0.006261,0.076969
1765407956.798347,-9.690338,0.767575,-0.249880,0.090255,0.007178,0.081703
1765407956.801299,-9.577952,0.749641,-0.428025,0.089492,-0.000611,0.083994
1765407956.804280,-9.723815,0.490794,0.148254,0.087201,0.015424,0.091172
1765407956.804780,-9.703490,0.269010,0.108800,0.091324,0.002443,0.086132
1765407956.808395,-9.787182,0.521282,0.314443,0.086132,0.002443,0.077274
1765407956.811348,-9.667024,0.889526,-0.248685,0.086590,0.001833,0.075595
1765407956.814297,-9.698110,0.920612,-0.184122,0.086285,0.001374,0.084910
1765407956.816284,-9.728598,0.545194,-0.232544,0.086285,0.016799,0.093004
1765407956.819306,-9.915112,0.163797,0.285748,0.094379,0.018937,0.095753
1765407956.821294,-9.939023,0.206241,0.279770,0.093310,0.015882,0.079718
1765407956.824379,-10.010758,0.693448,-0.022716,0.091172,0.007483,0.072388
1765407956.826279,-10.084887,0.899091,0.025108,0.089034,0.013592,0.078343
1765407956.829265,-10.084887,0.899091,0.025108,0.089034,0.021228,0.078343
1765407956.831350,-10.062768,0.382592,0.636657,0.089950,0.020769,0.088575
1765407956.834267,-10.141079,0.520086,0.362267,0.088117,0.016188,0.078191
1765407956.836339,-9.979673,0.520086,-0.160210,0.091935,0.011148,0.085063
1765407956.837336,-9.905546,0.626494,-0.375418,0.098197,0.005956,0.081398
1765407956.839279,-10.221784,0.701817,0.488403,0.091477,0.018784,0.086285
1765407956.843411,-9.910927,0.402917,0.219393,0.088423,0.025198,0.088117
1765407956.845348,-9.934240,0.688068,-0.005978,0.090561,0.011301,0.080940
1765407956.847314,-9.796746,0.670732,-0.283955,0.087659,0.010690,0.085368
1765407956.851342,-10.272595,0.620516,0.156026,0.094837,0.008247,0.089034
1765407956.854324,-10.383189,0.345528,0.532042,0.091783,0.018479,0.090408
1765407956.855343,-10.344332,0.293520,0.428025,0.097280,0.014508,0.082925
1765407956.859272,-9.884026,0.578670,-0.219990,0.094379,0.019090,0.074526
1765407956.861340,-10.060975,1.181253,0.240316,0.096975,0.015882,0.077885
1765407956.863307,-9.913317,1.035390,-0.053204,0.091935,0.002749,0.090866
1765407956.866304,-10.164991,0.682688,0.292922,0.088423,0.002749,0.091935
1765407956.868388,-9.848158,0.352702,-0.377810,0.090255,0.022297,0.091630
1765407956.869298,-9.950979,0.497370,-0.068149,0.100793,0.008552,0.088423
1765407956.873319,-9.944403,0.762793,0.118364,0.100793,0.019548,0.088423
1765407956.876311,-10.162600,0.924199,0.096844,0.098807,0.012065,0.088728
1765407956.879299,-9.922284,0.498565,-0.187709,0.097891,0.019548,0.093310
1765407956.881262,-9.778215,0.496174,-0.278575,0.099418,0.015119,0.093615
1765407956.884300,-10.230749,0.457317,0.708991,0.092088,0.022297,0.086132
1765407956.886233,-10.032280,0.675514,-0.075323,0.097891,0.014508,0.089644
1765407956.887292,-10.005977,0.631277,-0.237924,0.094226,0.007025,0.085674
1765407956.891303,-9.925871,0.698230,-0.174558,0.099113,0.023976,0.085063
1765407956.894338,-9.906742,0.494978,0.268412,0.101404,0.027031,0.095448
1765407956.894838,-9.780008,0.543998,-0.041846,0.095142,0.023671,0.084605
1765407956.899365,-9.861907,0.584648,0.089670,0.097738,0.023671,0.084758
1765407956.901282,-9.861907,0.584648,0.089670,0.097738,0.019700,0.084758
1765407956.905315,-9.984456,0.498565,0.148254,0.102320,0.016341,0.088575
1765407956.906294,-10.101624,0.570301,0.319225,0.103694,0.024282,0.080940
1765407956.908375,-9.821855,0.750239,-0.059780,0.109039,0.018479,0.082009
1765407956.911363,-9.663438,0.788498,-0.154232,0.103847,0.018479,0.086590
1765407956.914301,-9.617407,0.630081,-0.475849,0.102320,0.009316,0.087354
1765407956.916372,-10.118960,0.589431,0.176949,0.105374,0.009621,0.087048
1765407956.919258,-10.029292,0.624701,0.080105,0.106291,0.029322,0.085521
1765407956.921255,-9.882831,0.826160,0.202056,0.102931,0.022449,0.083841
1765407956.924281,-9.602462,0.753228,-0.483022,0.097586,0.022449,0.089339
1765407956.926327,-9.995216,0.596604,-0.001196,0.097586,0.011606,0.089339
1765407956.929330,-9.952174,0.489598,0.101626,0.105832,0.026420,0.088728
1765407956.931338,-10.043041,0.682688,0.384983,0.099113,0.026420,0.082314
1765407956.934320,-9.957555,0.830942,-0.016738,0.104916,0.022297,0.080329
1765407956.936298,-10.066953,0.870397,-0.151243,0.109803,0.013286,0.092393
1765407956.939285,-10.223577,0.687470,0.095648,0.112094,0.017410,0.089644
1765407956.941289,-10.241510,0.798063,0.500956,0.105069,0.033750,0.085063
1765407956.944346,-9.950979,0.679101,0.276184,0.107512,0.033292,0.089186
1765407956.946306,-9.556431,0.774749,-0.703013,0.109498,0.019090,0.083841
1765407956.949301,-10.046627,0.948709,0.010163,0.104153,0.013134,0.085368
1765407956.951281,-10.149448,0.765184,0.119560,0.108581,0.023671,0.090561
1765407956.954276,-10.194283,0.594213,0.450741,0.106901,0.019548,0.088881
1765407956.956303,-10.149448,0.870397,0.082496,0.105374,0.022449,0.083994
1765407956.959302,-10.149448,0.870397,0.082496,0.105374,0.010232,0.083994
1765407956.961307,-9.811094,0.879962,-0.401722,0.105222,0.014355,0.083078
1765407956.964271,-9.989238,0.856050,0.013152,0.105069,0.014355,0.086132
1765407956.966292,-9.927068,0.949306,0.076518,0.102320,0.020617,0.083383
1765407956.969255,-10.060975,1.129244,0.279770,0.101862,0.021686,0.085674
1765407956.971293,-9.760879,0.810617,-0.173362,0.099571,0.016493,0.093615
1765407956.974371,-10.078907,0.650406,-0.027499,0.100640,0.004276,0.088728
1765407956.976290,-10.107005,0.762793,0.070540,0.100182,0.014508,0.085063
1765407956.979311,-9.985652,0.997130,0.036466,0.098044,0.015730,0.085063
1765407956.981302,-9.909132,1.111310,-0.002989,0.094531,0.016493,0.086132
1765407956.984300,-9.705881,0.878766,-0.223577,0.100029,0.009010,0.095142
1765407956.986266,-9.814680,0.567910,0.008369,0.100335,0.007330,0.092393
1765407956.989325,-9.895982,0.591822,-0.072932,0.100335,0.014813,0.085368
1765407956.991296,-9.725011,0.629483,-0.381994,0.104763,0.010996,0.085827
1765407956.994295,-9.592299,0.901482,-0.475251,0.102625,0.019700,0.079871
1765407956.996248,-9.811094,0.962458,0.184122,0.103236,0.023518,0.088728
1765407956.997321,-9.746531,0.887135,-0.100430,0.097128,0.025198,0.089797
1765407957.001326,-9.822452,0.827355,-0.049020,0.100945,0.004429,0.090713
1765407957.004316,-9.766259,0.809421,-0.276781,0.096517,0.022907,0.091019
1765407957.004816,-9.769846,0.682688,-0.249283,0.099571,0.017410,0.088881
1765407957.007431,-9.869678,0.731109,-0.008967,0.094379,0.025809,0.080940
1765407957.011308,-9.815877,0.979794,-0.069943,0.099724,0.022755,0.081856
1765407957.012320,-9.807508,1.026423,-0.002391,0.101709,0.018173,0.088575
1765407957.015307,-10.046627,0.890124,0.130320,0.095142,0.020006,0.088270
1765407957.019281,-10.133308,0.504543,0.137494,0.095295,0.024129,0.092088
1765407957.021250,-9.799137,0.428623,-0.419058,0.098807,0.018784,0.082620
1765407957.022275,-9.990434,0.973218,0.066356,0.096059,0.023671,0.075442
1765407957.026260,-9.836202,1.013869,-0.082496,0.097738,0.032529,0.082925
1765407957.029309,-10.035867,0.856050,-0.002391,0.099571,0.021075,0.092852
1765407957.031286,-10.276780,0.671927,0.078910,0.094990,0.015730,0.089644
1765407957.034347,-10.453131,0.705404,0.344333,0.093462,0.015730,0.080329
1765407957.036311,-10.208033,0.624103,-0.043042,0.100487,0.019853,0.089339
1765407957.039315,-9.920491,0.621712,-0.361669,0.102931,0.014050,0.087965
1765407957.041301,-10.050214,0.708991,-0.037064,0.099113,0.016341,0.085827
1765407957.044320,-10.246890,0.894907,0.367049,0.101709,0.019853,0.086285
1765407957.046301,-10.249280,0.783118,0.428623,0.100793,0.010537,0.089492
1765407957.049314,-9.830821,0.652798,-0.451937,0.092088,0.005803,0.090255
1765407957.051338,-9.660448,0.593018,-0.627690,0.094837,0.003665,0.087812
1765407957.054254,-9.657459,0.557150,-0.572095,0.100793,0.012065,0.088575
1765407957.056285,-10.039454,0.762793,-0.108800,0.109039,0.006414,0.084910
1765407957.059256,-10.062170,0.994739,0.353898,0.099571,0.019395,0.081856
1765407957.061257,-9.801530,0.824366,-0.136896,0.103542,0.019853,0.091172
1765407957.063325,-9.566593,0.691057,-0.646820,0.104458,0.009621,0.091019
1765407957.066249,-9.923481,0.664754,-0.285748,0.104458,0.002291,0.086743
1765407957.067333,-10.335963,0.921808,0.543400,0.104916,0.021228,0.085521
1765407957.071270,-9.899570,0.955284,0.127929,0.104305,0.027794,0.095295
1765407957.074277,-9.689142,0.808226,-0.325203,0.094684,0.013134,0.091477
1765407957.075326,-9.770443,0.753826,-0.444763,0.096822,0.014661,0.085827
1765407957.079301,-9.827832,0.864419,-0.242109,0.099571,0.025045,0.089950
1765407957.081305,-9.774628,0.807030,-0.276781,0.100335,0.027947,0.094990
1765407957.082278,-10.060975,0.767575,0.050215,0.098349,0.027947,0.094684
1765407957.086281,-10.228956,0.716762,0.460306,0.099266,0.037568,0.097586
1765407957.089327,-10.069344,0.700622,0.370636,0.103084,0.028253,0.095448
1765407957.089827,-9.802128,0.644428,-0.080105,0.099113,0.028253,0.092699
1765407957.094319,-9.794355,0.724534,-0.219990,0.104763,0.014508,0.089797
1765407957.096259,-9.937828,0.820182,-0.023912,0.109345,0.018173,0.093921
1765407957.099307,-9.937828,0.820182,-0.023912,0.109345,0.022297,0.093921
1765407957.101281,-10.019128,0.762793,0.151841,0.108123,0.023060,0.098502
1765407957.104320,-9.831419,0.808823,-0.234935,0.111788,0.015272,0.100487
1765407957.106333,-9.831419,0.808823,-0.234935,0.111788,0.011454,0.100487
1765407957.109354,-10.248685,0.703013,0.388570,0.105069,0.019395,0.096822
1765407957.111350,-10.248685,0.703013,0.388570,0.105069,0.025809,0.096822
1765407957.114307,-9.671208,0.902080,-0.324008,0.106596,0.011759,0.091172
1765407957.116368,-9.933045,0.909852,-0.155428,0.098960,0.011759,0.092393
1765407957.119282,-10.115973,0.619321,0.160808,0.108429,0.014813,0.096822
1765407957.121287,-10.017933,0.630679,0.216404,0.112552,0.018479,0.090866
1765407957.124249,-10.079505,0.928981,0.229555,0.107818,0.021380,0.085063
1765407957.126304,-9.519367,0.725729,-0.638450,0.112246,0.014355,0.092699
1765407957.129240,-9.687349,0.847083,-0.578670,0.120035,0.008705,0.089644
