time,acc_x_g,acc_y_g,acc_z_g,gyro_x_rad_s,gyro_y_rad_s,gyro_z_rad_s
0.0,-9.881036,-1.732424,0.344931,-0.00901,-0.005498,-0.001069
0.0025,-10.052232454604384,-1.7915246687511917,0.5193833670162059,-0.005441944099142041,-0.009012039046711152,0.0027069810104861777
0.005,-11.165485004327177,-2.489179720985048,1.4509400106596306,-0.000382723271767812,-0.06132626606860159,-0.0194750073175022
0.0075,-11.357960701734985,-2.5559217023450906,1.126216504327931,-0.026915060285986663,-0.167683,-0.03676697452812202
0.01,-11.317452344409121,-2.2618196389771943,1.3997965834139598,0.0012483620732550104,-0.2421740773462336,-0.02612086617829993
0.0125,-10.87722554013346,-2.4795038960915154,1.185370324499524,0.032530010486177305,-0.30081460857959963,0.0014906085795996045
0.015,-10.751488732137405,-2.6537640937022906,1.6888315492366408,0.06067320679389309,-0.3035646762213741,0.018767602404580135
0.0175,-10.73594485937083,-2.4921303287321264,1.890513869170636,0.07507865532888469,-0.27601783729265966,0.05635464957102006
0.02,-10.888780530465116,-3.000043138139535,1.958228538604652,0.08872953581395347,-0.2389536648837209,0.063234138372093
0.0225,-10.77950805559247,-1.5166497837430788,1.248686228826134,0.11289580213732006,-0.20673802096345512,0.07706057392026576
0.025,-9.816295751145036,-2.8491302519083996,-0.10400586946564848,0.053878934351144936,-0.130114,0.09133960458015263
0.0275,-10.307610947127532,-2.8354312538736597,1.1562409220023833,0.0875794939213349,-0.11544115294398093,0.10390798030989273
0.03,-9.499138355285812,-2.711682552717007,0.11671856254057747,0.08275179909668315,-0.06254475796753708,0.11043182501058574
0.0325,-9.134097184725533,-3.8378697797136088,0.38380348520285934,0.07707390023866341,-0.0004244215751788745,0.1005846475417661
0.035,-8.173387312707334,-2.853107691185759,-0.5124480548046565,0.10518473368060317,0.045662,0.14125070864976025
0.0375,-10.509338210867497,-1.7813813437559527,2.341937658531947,0.18761384995233565,0.17724593898951402,0.12441967340324105
0.04,-10.314302784938036,-3.424051464747377,2.1860772532316486,0.24013754894184938,0.2060261012392754,0.15344625529075304
0.0425,-9.392036679914336,-1.5954462185010692,-0.25722748899358927,0.2612401221984297,0.24238018258386926,0.15886052650963614
0.045,-8.942537593675763,-2.1850891624398083,-0.8374929788121992,0.26300446584269666,0.2890723402568216,0.181885
0.0475,-9.639857803927553,-1.7287585555767362,1.3064665457388003,0.3216006797330791,0.32056800571973315,0.16816973677788377
0.05,-10.83540994730628,-3.5359869856826616,0.6917860010332133,0.3910556676014762,0.3442323638376384,0.2803981127675276
0.0525,-11.906742446024783,-1.042027299866524,1.6890387171401262,0.39096408236415625,0.3441205919923734,0.2975757566062914
0.055,-9.633506836740477,-0.31413059787422326,-0.12412806037201252,0.3888921617360496,0.33603563188662533,0.29134710334809566
0.0575,-10.124596571363195,-1.2573679277407088,0.4604494334032292,0.39520921971401307,0.3259431817731168,0.3298677263679693
0.06,-9.672838698175728,-1.6342494516485222,0.07907659035982795,0.39029705144769883,0.29010234015062825,0.37609239762343094
0.0625,-8.741738029551954,-0.3501147626310772,-1.453691557673975,0.42872055481410865,0.2990771134413727,0.3604846415633937
0.065,-10.591684111363987,-0.2223928294933719,-0.4570258435541775,0.40489838668745143,0.2437693137646138,0.3731680140919721
0.0675,-10.560027348484287,-0.18987240732125332,0.044979639313658275,0.34863503252621564,0.334601,0.363270863527169
0.07,-10.498141096053354,-1.6498323783793876,0.09521215519540695,0.3902092833555762,0.2405707026120128,0.3849440996377495
0.0725,-8.109348290648835,-0.2700465116793709,-0.8565778922137327,0.3457767054580157,0.3207231893893136,0.41033539354961845
0.075,-7.924796385877869,-0.19499408511449276,-3.1973803809160177,0.31290297786259547,0.23201153167938948,0.3974812786259543
0.0775,-9.206518013307914,0.6512674967397498,-2.2484863932125765,0.2778854977693041,0.22606744983794094,0.3420370174642517
0.08,-9.48941707698761,0.6938008180362274,-2.001224934413722,0.18770189845567187,0.205556,0.3203335300285986
0.0825,-9.215265897159211,0.5600967838703758,-1.7008712465204838,0.205562883660629,0.09017400995233477,0.28040213185891266
0.085,-7.744725086526747,-0.3090932736641037,-2.4985429482442605,0.1783872812213737,0.02965954320610837,0.29779621709923626
0.08750000000000001,-8.3490912045292,1.56660223265789,-1.2984714567341475,0.1453877106078662,0.016044743980928183,0.27774857711561535
0.09,-10.941337245058138,0.4579801072674355,-0.6116778222092971,0.1284262934302324,-0.10973265709302314,0.20062891662790722
0.0925,-10.17554784053384,0.9303722048045775,-0.23219522417540592,0.08018656644423265,-0.1474653943183984,0.17390742768350814
0.095,-9.414434613612965,-0.07794613163012148,-1.1459080726024744,0.13074349269780747,-0.200211,0.1400592016777883
0.0975,-9.397683642786264,0.9072712648473289,-0.5589836698473207,0.14896824893129781,-0.27735199301526725,0.09474334599236639
0.1,-10.150192389701337,1.081997241194641,0.48708456611740514,0.15707698733264672,-0.3023245505664264,0.04691830473738412
0.10250000000000001,-9.00216111283127,0.8121616608960947,-0.4295700372163804,0.17745232102955188,-0.3251645522211628,-0.0015914529265971186
0.105,-9.625317242163149,1.3197262249679236,0.6520692784234587,0.182208866874427,-0.32536936480293316,-0.03194225767186078
0.1075,-8.436154,1.957197,-0.389766,0.14615,-0.31439984870229,-0.075442
0.11,-8.829338220095693,1.4110697255821365,-0.08130928800638137,0.09933495059011163,-0.2960566258054227,-0.11491180031897927
0.1125,-8.252497256244045,1.4613062585319325,0.0596393081029612,0.06183582306959009,-0.263621197330791,-0.12604127855100092
0.115,-8.232902,1.199785,0.52726,0.035277,-0.1658170683698757,-0.098502
0.11750000000000001,-8.609663987328243,0.8769963708396917,0.7831335522137279,0.008606750229007622,-0.08469462183206093,-0.05108695984732826
0.12,-9.221663,0.255858,0.6738295773437505,-0.012828,-0.006194983593749958,-0.00504
0.1225,-9.982371674231226,-0.030146505363524728,0.14146376300357383,-0.0032264991179976007,0.010326140929678235,0.0025373408343265453
0.125,-10.216199658042743,-0.048581525309336335,0.3124762474690664,-0.010801687289088865,-0.009006249718785152,0.0048420607424071995
0.1275,-9.988075854636474,0.025857714231228332,0.40481669778307816,-0.0044808803814064295,-0.02074046112038143,-0.0008676758522049924
0.13,-9.914190619591835,-0.06799343999999968,0.39619226040816025,-0.006903337142857042,-0.015450545306122441,-0.0017887191836734825
0.1325,-9.736292090883056,0.01797200353222019,0.30681924210024075,-0.007244695751789869,-0.00831686548926024,-0.00174986548926024
0.135,-9.891305991460255,-0.041536942439926595,0.16994457715341293,-0.005942668059149664,-0.000611,-0.00013271852125690525
0.1375,-9.836005329916565,0.032340738736591844,0.1172812343265775,-0.007162638855780522,-0.0023456228843864455,-0.002143124672228725
0.14,-9.900595738280726,-0.022855919782369456,0.2739107578237058,-0.008171602132753012,-0.007485450663764999,-0.00168
0.14250000000000002,-9.993481799570924,-0.0522369566150183,0.4539817600953612,-0.008610388176400583,-0.008987459642431146,-0.000686368867699595
0.145,-10.026095855685337,-0.03206666846245766,0.43868242784266864,-0.008608031799761561,-0.008965055828367112,-0.0005999123718713287
0.1475,-9.953804471408105,-0.06667606596658597,0.38952027236275566,-0.008549581431980882,-0.00824383579952265,-0.0017413250596657404
0.15,-9.429404693661304,0.10855498486282794,0.13058915269630528,-0.005851486281930004,0.011558185052034046,0.00923389820245946
0.1525,-9.759509074274812,-0.022080695954192098,-0.05739457732823952,-0.008681925648854978,0.002373964885496205,0.00723233687022894
0.155,-10.02110427108359,0.01193181238390184,0.3029741337461304,-0.009058657089783295,0.004732839504643941,0.003472946749225981
0.1575,-10.098434632705601,-0.04285314297973836,0.375137621835518,-0.006669758045292022,0.0021745949463647376,-0.000153
0.16,-9.912421190644393,-0.0007774076372326797,0.05739750515513438,-0.006844556038186147,-0.00037571303102622246,0.0008188430071599249
0.1625,-10.046476588320367,-0.009526801358606733,0.31769740129286705,-0.010783708359811545,0.0,0.002762709827982905
0.165,-9.964665067481532,-0.13737209707186035,0.23694400189388848,-0.009258240805910003,-0.001178818952317002,0.0011529007253189998
0.1675,-9.935906441776956,-0.12322700186950429,0.26062117771402193,-0.008212758796853304,-0.004753798870893121,-0.00168821712170294
0.17,-9.996679630338917,0.015068710176860817,0.3404588604783792,-0.008153243661862103,-0.007083787761589403,-0.0045574170315543314
0.17250000000000001,-9.919294815488792,0.10122510010491066,0.22686475154983032,-0.008265282308059093,-0.00710583244635194,0.0009406930472104281
0.17500000000000002,-9.858728301685789,0.04543631908218172,0.2486277217513467,-0.008247,-0.005029844509482553,0.0026146054788105896
0.1775,-9.914499115453056,-0.020608501746663302,0.31173746272067404,-0.008247,-0.00446701133692344,0.0036457502224303408
0.18,-9.967949071845554,-0.09214815511241736,0.35708761178676407,-0.00794999894812108,-0.0061511576737904045,0.002792290274092328
0.1825,-10.016815367267524,-0.13187889819742513,0.31604396862184125,-0.00733,-0.010096732532188844,-0.0005932674678111561
0.185,-9.957414711827658,-0.04564389511234662,0.32592480637943017,-0.008888717354644428,-0.007787439406995601,-0.001435673717859624
0.1875,-9.908535050917008,0.03048574792730927,0.33118150037685284,-0.009972596181224353,-0.0048868150908634115,-0.001985
0.19,-9.895651326832807,0.05878445255718795,0.3264769726910917,-0.009928105646271154,-0.0024653230388692613,-0.0011696167491166039
0.1925,-9.952878040024082,-0.02519198712101156,0.35993904646357633,-0.008666580970499693,-0.004796595501505109,0.0016595513835039087
0.195,-10.03249136669957,-0.06964503123069576,0.4200170430886801,-0.0069050030695749125,-0.001833,-0.0006382718356949574
0.1975,-9.984364276233183,-0.08526290732436491,0.4023568390632784,-0.007941,-0.002803760936721493,-0.001985
0.2,-9.825924715269085,-0.08620487371714612,0.268290913516895,-0.007360043804755939,-0.005274952315394237,-0.001985
0.2025,-9.782229766792454,0.005244063180593915,0.12524006609164584,-0.006261,-0.00491157175202158,-0.001985
0.20500000000000002,-10.064422990727195,0.05366880514764138,0.5303088133098315,-0.007308403278977539,-0.0013330746231819401,0.001605956985456201
0.20750000000000002,-10.011781354325644,-0.011023225593639385,0.4665362605409308,-0.00828669864706946,-0.001222,0.0014884098259141001
0.21,-9.791168555711804,-0.03099795174222903,0.1985120547930766,-0.007034401207402526,-0.0013874378343414955,-0.001693429039947293
0.2125,-9.819700599437024,-0.06741331254716408,0.20151516339462178,-0.007705736024435526,-0.0023470258609330995,-0.0026523890639036933
0.215,-9.89800774620581,-0.10012771771671518,0.2721334538949687,-0.009316566437288398,-0.005134785059444131,-0.0029943040736949856
0.2175,-10.033602539946145,-0.10128907953977973,0.4245302041272949,-0.009915361405140762,-0.007212760259485928,-0.0026373141199510404
0.22,-10.009226557270429,-0.012515431339511343,0.4180360314069081,-0.005768201145745578,-0.001527,-0.0024317722999157537
0.2225,-9.785167873590844,0.054622433400095406,0.1934817689651877,-0.009407846237482137,-0.004510167610872697,-0.00012793413447781312
0.225,-9.982140377980244,-0.06296556019948238,0.3827226331063589,-0.00840926634698379,-0.007611619526229987,0.00030243761388702473
0.2275,-10.086974020745,-0.08965090871242073,0.5381293118169845,-0.008304346728949575,-0.007636,0.00011507073901065936
0.23,-10.149448,-0.105213,0.631277,-0.008247,-0.0037279227248907905,0.0
0.2325,-9.759315388650442,-0.013451868803049716,0.14760664137337864,-0.009305641354315716,0.000645031397234058,-0.0010586413543157151
0.23500000000000001,-9.783271623724598,0.022274115513603383,0.18892044207440398,-0.005478070747362574,-0.007155659811215973,0.000611
0.23750000000000002,-9.884206233670184,-0.0069619998889507775,0.33858210509716924,-0.005122335080510825,-0.004043700499722355,0.000611
0.24,-9.949887690997,-0.03394185878096863,0.43577125307501074,-0.005072890660951563,-0.001985,9.98767423917756e-05
0.2425,-9.919328970760755,-0.04277600809752677,0.38943370621966994,-0.005794944165982883,-0.002281944165982882,-0.0009842778572265864
0.245,-9.806293325397766,-0.000879133357647683,0.28978816508775923,-0.009126003893321164,-0.003355639133804421,-0.00016170748119444071
0.2475,-9.835086409376926,-0.043526227640055565,0.2993471126367317,-0.008874497919864627,-0.003263622667553031,-0.0013070083205414867
0.25,-9.869298318455487,-0.08193454772417115,0.31032060785100746,-0.008116723528939551,-0.002030447057879104,-0.0009155974151079712
0.2525,-9.992000762489312,-0.054367668104513045,0.42403014730641325,-0.007025,0.00013405174346793288,-0.000916
0.255,-10.005235125506466,-0.03186797796146737,0.4094718498516759,-0.007025,-0.0005423060670361585,-0.000916
0.2575,-10.000231049290942,-0.010353111918416268,0.3738384531349727,-0.006472419820035986,-0.0008989110881823615,-0.0008310947330533883
0.26,-9.953541772121937,-0.01810577212193813,0.2894045753105351,-0.00793501804875127,-0.00045700083128705725,0.0007550205426124423
0.2625,-9.970060125435706,-0.03462412543570709,0.35360151669162154,-0.007359767634904472,-0.000360916428100856,-0.00010848308079296058
0.265,-9.981356655944753,-0.061492449385690415,0.36991794075323187,-0.006756065619529427,-0.000305,-7.348324741025564e-05
0.2675,-9.988107272471561,-0.09192903739400203,0.3358284526577044,-0.00668523726990694,-0.0006017995036194496,0.0012127995036194496
0.27,-9.959286431191229,-0.06482958233698699,0.3218291025156309,-0.007216165700365398,-0.00022867237352819738,0.000735334697523323
0.2725,-9.880689523697018,-0.0035921560881977833,0.2701062924848623,-0.006687855011995908,0.002150425824288821,-0.001349148351422358
0.275,-9.892234345767577,0.008350339670013668,0.2812802522716407,-0.008696304351984707,0.0018469959110473289,-8.695648015293522e-06
0.2775,-9.935485832837697,-0.03710246880386653,0.3087972854289168,-0.008397426281111545,0.0016816595183246174,0.0009172439597261452
0.28,-9.92458968303094,-0.08198834290718118,0.30632933856859274,-0.009244225316987783,0.0026736242335084746,0.0012977760373613523
0.28250000000000003,-9.834516891550209,-0.11209234799715122,0.21850876728970342,-0.009190285210097302,0.002753461685526622,0.0003956426050486505
0.28500000000000003,-9.809895775648856,-0.08367637122137314,0.19707033122137577,-0.007260957404580146,0.001554829618320582,-0.0020869587786260064
0.28750000000000003,-9.85055,-0.053802,0.254663,-0.007025,0.0015906161664666087,-0.003818
0.29,-9.907342097690183,-0.029026729122699886,0.3188879339938637,-0.0069277658128834374,0.0025472235061349702,-0.002503585070552174
0.2925,-10.008959899454878,0.020197419794064374,0.4339502183307097,-0.00639378490611752,0.0020872702071472,0.00042364132283464014
0.295,-9.928460618478027,-0.029714354769560216,0.30279034435155405,-0.007033810975348336,-0.0012501743622722306,0.0025466862165059116
0.2975,-10.003856442167441,-0.0849559658211263,0.3192132897653923,-0.007510833759676072,-0.0027755233964511052,-0.00012314287483623744
0.3,-10.047235499504728,-0.10775645429986504,0.3546737626294459,-0.005834654389914474,-0.0027635999099504824,-0.0006280385411976698
0.3025,-9.951565523252228,-0.07149876382375812,0.272833059458361,-0.006373964208764272,-0.0005616529276020886,-0.000611
0.305,-9.872121040243526,-0.040300582063479244,0.21163721489406617,-0.0062541452228265315,0.0010743439824661073,-0.00024881908596477225
0.3075,-9.98242075338226,0.002207879452715468,0.34326963992241555,-0.0027704429859509317,-0.0038102013902285604,0.0012395372992241548
0.31,-10.023495293654854,-0.00567842788215558,0.4004460552044453,-0.0036939110505347025,-0.0034743448500733913,0.001994802252044453
0.3125,-10.035475207834603,-0.026797623866521583,0.4049900768951759,-0.0043498639825897715,-0.0021011646717446503,0.00279358142908959
0.315,-9.88806869740511,-0.1231205216591072,0.18907146729052288,-0.007471164187156838,-0.0010977425352112706,0.0028791698352828815
0.3175,-9.939694607092386,-0.12012736159226545,0.2754882475435666,-0.006133222263069943,-0.00434685126760564,0.00029840627357364093
0.32,-9.97607833680307,-0.09530995022058808,0.32989810017263427,-0.004451114539641938,-0.005104389344629149,-0.00106429601662404
0.3225,-9.96678969408805,-0.028531329685534217,0.3022416274213831,-0.0027896652830188685,-0.002902,-0.0010074601257861675
0.325,-9.897062487162163,0.03849287083333338,0.20643157849099097,-0.003569702139639647,-0.0031071880630630655,-0.00019020011261259586
0.3275,-9.917856947404733,0.035596215629879704,0.256154020002332,-0.0046879593473954035,-0.004387362032397178,0.0027091397645962
0.33,-10.067356629415785,-0.01979978728722579,0.40815320779170067,-0.003557032742066712,-0.006460663082180628,0.00161869582424734
0.3325,-10.06402048830751,-0.0824323187888827,0.35553034264222155,-0.002316456577173266,-0.004764643448846808,-0.000305
0.335,-9.930182489068313,-0.09457088100055375,0.18160586095780876,-0.0026186117881738425,-0.0017039590817699533,-4.125434022005347e-05
0.3375,-9.922594281575249,-0.04583170600093711,0.22893483886545046,-0.0041754461322081726,-0.0005435575714955562,-1.859484294423002e-05
0.34,-10.102668127254574,0.011941287169003927,0.48642485461373763,-0.007327938996909896,-0.001982453914903712,-0.001525787691941992
0.3425,-9.983468938702162,0.00039374115521736974,0.34189608773948027,-0.005710335421915838,1.5872227240335164e-05,-0.0005742928309959489
0.34500000000000003,-9.86722122608752,-0.006173112764991885,0.22002615110534743,-0.005403008401944915,0.001222,0.0005659285575364833
0.34750000000000003,-9.919505952376372,-0.08943865768740183,0.2911214665948783,-0.007025,-0.0052264739926816735,0.0024150940177731133
0.35000000000000003,-10.021740193915317,-0.0776423147203344,0.38221493071615387,-0.007025,-0.006984332451646652,0.0009921440460010265
0.3525,-10.079220712537387,-0.05929377389290919,0.42895832167872755,-0.006195470622286575,-0.00662711537385439,-0.000153
0.355,-9.819838279612116,0.0037425459882675176,0.16919732555488978,-0.005807968169519928,0.000903583641805353,0.00031183021668860735
0.3575,-9.877621056195379,0.027756354909613163,0.2645025023871657,-0.006574973959056622,-0.0010133031677241593,0.0013663062612235058
0.36,-9.99422692251643,0.03535940319248835,0.4148801586854448,-0.006817822234741787,-0.00275953329577464,0.0016744028920187832
0.3625,-10.140606424996962,-0.0012939994650450447,0.5773571748571433,-0.006148965981762925,-0.003971,0.0014855174468085012
0.365,-10.011286429482238,-0.09378371534490981,0.4068814131718983,-0.004455825540863477,-0.0027677373363071637,0.0025397220360044628
0.3675,-9.841269191106969,-0.1336923300722442,0.20284489848520162,-0.0034240809974364866,-0.0016890606478676144,0.0017409088277790777
0.37,-9.943130212879197,-0.03120985437831479,0.3927328888862698,-0.00243124716558633,-0.00347080727872717,-0.002575403639363585
0.3725,-9.986948376390542,0.022267561075319985,0.4009938268772899,-0.001833,-0.0014369181443593278,-0.001527
0.375,-9.923718001284675,0.01719755616881572,0.2989910357805586,-0.001833,-0.0017417570538135793,-0.001527
0.3775,-9.860857307275621,0.03455388869352281,0.2137218274519407,-0.0019121259703685568,-0.002064385399779601,-0.0004573725382637395
0.38,-9.879874479692205,0.04062265302553785,0.261524999692205,-0.0020622845366343257,-0.002291,0.0042587709601873604
0.3825,-9.935436,-0.015543,0.321616,-0.001985,-0.0025892777706745364,0.005956
0.385,-9.960350373495555,-0.13951949452503618,0.3370391363406646,-0.004560980308844197,-0.0009313155264389157,0.0008040393823116063
0.3875,-9.926228109879935,-0.07353172699079279,0.2554045181176974,-0.00604257979863243,-0.0016898437516825533,-0.001040885026651599
0.39,-9.91487070072893,-0.004340828621867472,0.2258513264123015,-0.006492086389521624,-0.0015366072892938317,-0.001826014533029598
0.3925,-10.118186052312248,0.02416926325787998,0.5560481135603976,-0.006526437372540711,0.0006251097440236979,0.002143288267400044
0.395,-10.138408906350751,-0.02091761921303184,0.5318467931457582,-0.004578242170509823,0.00130279108102391,0.0023972801269304014
0.3975,-10.106595479139683,-0.0877398074005562,0.4886210110730796,-0.00281230649398704,0.0020746935060129597,0.0031601274190564497
0.4,-9.913934159453595,-0.20602982558457278,0.35594437655283095,-0.002441218449176383,0.0019906228525512085,0.003520795178786634
0.4025,-9.825141090400585,-0.20027652246175937,0.25644018521485945,-0.0022129858557902006,-0.001224028288419599,-0.0002527060451566537
0.405,-10.183551409012463,0.1627059504626379,0.6843031991726065,-0.005686582455516162,-0.008052210088968025,-0.005618162277580113
0.40750000000000003,-10.019591623853167,0.1967082210708444,0.4410854737222323,-0.004689549207388343,-0.003453000953939624,-0.002309432064531175
0.41000000000000003,-9.820096959922152,0.17741926171910344,0.1695884848361947,-0.004017537242945185,-0.0030297950048654796,0.0019512794129095765
0.41250000000000003,-9.657748492766686,0.04496998531417118,-0.013951860496829116,-0.004123,-0.008858,0.006935213151485647
0.41500000000000004,-9.894730723590646,-0.1308300079070519,0.3016367662358781,-0.0038677866401400514,-0.008858,0.005950186980741624
0.4175,-10.08824991806213,-0.18643502409763343,0.4918822965680476,-0.0033997785798816557,-0.007179186908284082,0.0018368048668639318
0.42,-9.972956595297047,-0.12393160099222451,0.33250532235147934,-0.0037256447496111945,-0.00014710568584762242,-0.0005721433530326556
0.4225,-9.754197857261822,-0.039473073507410354,0.07772260629498957,-0.0035892694989414393,0.0021406080875088734,-0.0009164699082568848
0.425,-9.955761,0.030488,0.35868,-0.003207,-0.00381053350791573,0.000916
0.4275,-9.955761,0.030488,0.35868,-0.003207,-0.0025717385073205615,0.000916
0.43,-9.938535758177458,-0.017859701480621624,0.3021114506010679,-0.0036568922627059613,0.0005674076986152861,0.002166137306412926
0.4325,-9.878704664865637,-0.12404542876099874,0.16388569541022616,-0.004581,0.0045545440047562525,0.0035954196670630323
0.435,-9.974091336641848,-0.002140557086187431,0.2898609295205193,-0.005642773794746561,-0.002291,-0.0009150873071654061
0.4375,-10.056603381738043,0.05013022889987492,0.39962945517898624,-0.003925854726308893,-0.002291,-0.0007245961045922926
0.44,-10.105808,0.081301,0.465088,-0.002902,-0.0005557254535406926,-0.000611
0.4425,-10.040023844937318,0.047300072941176156,0.41512151915139783,-0.004110507502410811,0.001315880270009629,0.0003709896239151489
0.445,-9.825074275992586,-0.09420316881437923,0.22011737046505975,-0.006326925803175617,-0.003512,0.002889962118159101
0.4475,-9.83586110184166,-0.17853721981651394,0.1835203457016657,-0.002789894447842326,-0.0037929064174878286,0.0018646490746403875
0.45,-10.070100741120552,-0.12347108676846288,0.49098113015269435,-0.0021205081338007206,-0.0005865090963103738,0.0016625081338007208
0.4525,-10.046265277283585,-0.10857384399500913,0.4686352659925137,-0.0011691828697047066,0.0007454708739825394,0.0007111828697047066
0.455,-9.977455546810965,-0.07636623451659416,0.3691337735930723,-0.0009823579509379565,0.0010496886580086508,-0.0007488196825396961
0.4575,-9.874292649719088,-0.006700484489795103,0.20414624007202872,-0.0025397688259303996,-0.0016526834477791693,-0.0020131155870348003
0.46,-9.900376560676175,0.08402012838006777,0.2076206674379108,-0.0038530873161352185,-0.006206190860439031,-9.025704214066731e-05
0.4625,-9.951597992602997,0.10494171509831371,0.2517283855571171,-0.002872885650749085,-0.005616522471910094,0.002985691338951371
0.465,-9.885506296025094,-0.16063035900515824,0.22510509905444565,-0.00381970762267532,-0.004276570450369703,0.008393306681604337
0.4675,-9.888979322934855,-0.21326193056259438,0.15300091224256904,-0.0010339872422695587,-0.0032199734854397965,0.005519441986190303
0.47000000000000003,-9.963465503232001,-0.12051952332799654,0.24572618873600383,0.0031624259382857867,-0.002596,0.0006660651062856257
0.47250000000000003,-10.033954987802955,-0.06781746610323049,0.3891051877417474,0.003207,-0.0032509922994526596,0.000611
0.47500000000000003,-10.05153448424652,-0.0332688514831013,0.43776670155069436,0.0016417343141152524,-0.0025742831172961833,0.0007532404135188918
0.47750000000000004,-9.97248875195463,-0.02421526370258322,0.3030415076698136,-0.0011337726780087643,-0.0009918439067423499,0.0016281529779458557
0.48,-9.927279242526176,-0.016604432178992556,0.20363181446930365,0.0008542796340791422,-0.0031561996032183513,0.003953360700980925
0.4825,-10.016815064238015,-0.034602242578512236,0.34396637159669324,0.0007498499570247901,-0.002443,0.00472084995702479
0.485,-10.110407858721327,-0.042518389048316355,0.4920941389946308,0.0013793581454367944,-0.0010460495265983592,0.004315605114690103
0.4875,-10.125535421508316,-0.03504375862383216,0.5444428435178867,0.001451958077010719,0.001269947095010261,0.002819828298017773
0.49,-9.87303465065519,-0.02363617172644697,0.23174812263988667,0.001484264447632698,-0.001331264447632698,0.0024472819512195132
0.4925,-9.962780359488102,0.01774209849411512,0.2924708955789688,-0.0001820242606773864,-0.00601293239451096,0.002443
0.495,-10.068948516615118,0.06234941994092082,0.4003748674821887,-0.0017540627975673319,-0.010153305626411814,0.002665674050390961
0.4975,-10.085972312005044,0.030520127219420018,0.4451614110277429,-0.002354008146279949,-0.00795070542244641,0.004539956677175282
0.5,-9.977553013070814,-0.08047831932495036,0.23508416495698214,-0.001955225678358703,-0.005940330741230973,0.006199887160820649
0.5025000000000001,-9.908792002731664,-0.17292643910231617,0.08474251842664451,0.0006367844884170866,-0.008291094498069614,0.006168730328185238
0.505,-10.032410666138889,-0.09815621024999972,0.3385429640925932,0.002334952722222219,-0.007392103120370355,0.003491111824074072
0.5075000000000001,-10.004318399617802,0.008002826287580596,0.42513207128408037,0.0013401940992775437,-0.0012510689256582433,0.003507321845723626
0.51,-9.87789727436505,0.06652747717055674,0.37096039410652293,-0.0022556976086176104,0.00014839752483542993,0.003513537508078994
0.5125,-9.961228316598012,0.047366085695824595,0.3354794114530335,-0.0003662343267910853,-0.009085203117680152,0.006334877635085968
0.515,-9.97621260556649,-0.03102303393182907,0.25527415632501177,-0.0012102991886701832,-0.011023705211233754,0.005053156231397029
0.5175,-9.90586979323812,-0.02688511039846382,0.21690586443831072,-0.00044136023523765034,-0.0028554592582814564,0.005917740619299074
0.52,-9.811958338377087,-0.02939606864916476,0.16237886275894933,-0.000325524684168661,0.0011815952553699176,0.006142847888623703
0.5225,-9.806433158604976,-0.017306402391460387,0.2619182806547944,-0.002211156925266823,-0.0018129935658361858,0.0031471806975090534
0.525,-10.03070545791395,0.053597014756747635,0.5333071492549833,-0.003127770701932858,-0.0017042325294715896,0.002329138818742158
0.5275,-9.989397783625302,-0.009329092605568025,0.2934694741877223,-0.0004440074792550304,-0.0003796675124469557,0.007006333121888261
0.53,-9.767467243628985,-0.07752617082795574,0.027036811882718947,-1.2195316245573132e-06,-0.002742492281025288,0.0064156269297436785
0.5325,-9.778691210985032,-0.10877903160385696,0.10544505771283119,-0.0015113386878068819,-0.0032210226847305162,0.006225314654203398
0.535,-9.926798398451373,-0.08916333286118855,0.3913891939093561,0.0025083245703495464,-0.0043864924173749095,0.006836631095373016
0.5375,-9.983671530299047,-0.07110776914229394,0.3806821915708185,0.0015866663654288636,-0.003912501199474208,0.00403167926388435
0.54,-9.901022781552252,0.038616912403870676,0.31918653707006267,0.002717546100495423,0.0033110477376741033,0.0053717221703232215
0.5425,-9.753539130627308,0.034057542435425005,0.18325155025830386,0.003906412841328407,0.002582801180811857,0.0066515139483394785
0.545,-9.733892452014409,-0.040141174901961583,0.180150808960388,0.0023893906330531432,-0.0022867805490196427,0.00654207336374548
0.5475,-10.02883596662303,-0.09523697656385828,0.4352622038163061,0.00016897818296067132,-0.0048915587893386386,0.003818
0.55,-10.034087906425095,-0.08013785553751872,0.4595518076870717,0.0007559435408703043,-0.005059027857778712,0.003818
0.5525,-10.007088736963674,-0.04905031215240833,0.44934947261152575,0.0014561170701692066,-0.004177322305052674,0.004091221777304457
0.555,-9.933278950100336,0.003381024940276958,0.3664572264882945,0.00167904592451025,-0.0013238784519828048,0.0047340153081700835
0.5575,-10.005145633822357,0.0039109195746222965,0.385768947108157,0.001077178015709967,-0.0028979553595166042,0.004546473817522658
0.56,-10.135773435689837,0.028074974482925084,0.46315373232945156,0.001134368797107228,-0.007669706134190478,0.005099744848533558
0.5625,-10.154163213638531,0.017595445398187887,0.4894395865522175,-0.0007172494039103482,-0.007304385550786838,0.005886874105865522
0.5650000000000001,-10.009867046946102,-0.02111187935707491,0.28860146878032955,-0.0009973602710368532,-0.0030265460699653557,0.0056881744721083505
0.5675,-9.832691836598622,9.294674909605949e-05,0.13766451908550104,-0.0013543852700338358,-0.0033740394727633234,0.0036734642155604818
0.5700000000000001,-9.83579669825855,0.019719319990298287,0.1842236116032039,-0.0032956969391219376,-0.0018799188357991594,0.005361384225078904
0.5725,-9.887637645396339,0.0008657499822796906,0.29909303612522214,-0.0012498265422327209,-0.0004218227430596419,0.008120038847017135
0.5750000000000001,-10.093056713488146,-0.03418837552641178,0.5619968091685685,-0.003190649548790736,0.0028456540127541016,0.007187079617374577
0.5775,-10.01914289278787,-0.07189976602093631,0.43868094075321795,-0.0023238805534833307,-0.00014135558897847766,0.007668407669353871
0.58,-9.907905941310304,-0.07718180629007218,0.2425685374385356,-0.0012923600248988683,-0.0017247304761904801,0.007292798145035816
0.5825,-9.659683707254366,0.030814845232656148,-0.058456676073615814,0.005793302429447844,-0.0022667560736196104,0.009608882004719196
0.585,-10.01170833641151,-0.07745421439169266,0.479340585276066,0.00458390188957057,0.0007567452760735768,0.008097626174610687
0.5875,-10.012172730164135,-0.11762897880851099,0.4817718095075988,0.0047755862370820685,0.0005694137629179315,0.009356266930091197
0.59,-9.98195610583314,-0.1318819086396631,0.4249447240864763,0.0036542119971903894,0.0006724131709981987,0.008792871895730935
0.5925,-9.876928540090454,-0.08757590949773716,0.23127512800761274,0.002162700499881021,0.0016997022328017464,0.0060592784003808435
0.595,-9.805191834175162,0.009941024535602052,0.07742042793288659,0.0027605545829654443,0.003042909759974324,0.005248598352733397
0.5975,-9.997795539285383,0.028227264138252443,0.3493959421391921,-0.00017319463334888608,0.002138,0.005813517561886978
0.6,-10.153036,-0.005978,0.582257,0.000611,-9.737358402966273e-05,0.006261
0.6025,-10.00018236827586,-0.061816263142656876,0.3495450399899434,-0.00026566375791697253,-0.000153,0.004667350525786647
0.605,-9.845852281506295,-0.10922758090859361,0.11426879069950907,-0.0008412930530925189,-0.000153,0.0033696326042692818
0.6075,-9.797500581486066,-0.04790026133208697,0.0645942026361931,0.000944860790855001,-0.00011152991484894136,0.0048169401703021175
0.61,-10.098912970905703,-0.050269904884748605,0.49347627186030185,-0.002854102146682143,0.002259763455180413,0.005792596908032586
0.6125,-10.100429,-0.051411,0.494381,-0.002902,0.005824690019193921,0.005803
0.615,-10.021911553934995,-0.08289958928623248,0.4250647850794425,-0.0014914250310509036,0.003239995544802042,0.007526884055165724
0.6175,-9.873572026608485,-0.13436398432484767,0.27131739748363454,0.00018792802424233315,-0.005803,0.009248582336969556
0.62,-9.942284140204661,-0.08671078915932,0.2655619541845086,-0.0004134296284634838,-0.005364038054156173,0.006618446715994956
0.6225,-10.035004061314698,-0.031086081478146434,0.3356318646073659,0.0033342201729243282,-0.004411558284969782,0.008526621362075031
0.625,-9.97378111450868,0.008981807612677178,0.3032644446567925,0.0031848987099856664,-0.0033305155279503102,0.007725979296066252
0.6275000000000001,-9.869819269634373,0.005281551533031861,0.22079271099421854,0.003273848749198307,-0.002743058524695381,0.010979168236048923
0.63,-9.813222559987851,-0.08133522674523161,0.17879866090632981,0.004125472810108127,-0.00336,0.011469301885554608
0.6325000000000001,-9.882583416024925,-0.13100457258895196,0.25318808838625045,0.0037743681658080506,-0.003163368165808051,0.010153501689229653
0.635,-10.03084118654811,-0.06343366314385504,0.37686123884407774,0.004038813731343291,-0.002388046567164177,0.008939306281359152
0.6375000000000001,-10.019101847489026,-0.021177834129691406,0.37049499561188803,0.005488880936128697,-0.0005264590931251174,0.006498312042905832
0.64,-9.923974640327224,0.03765852228427629,0.18492972381656572,0.00504,0.00195906177298826,0.006379005905765768
0.6425,-9.879311144883665,0.05863463488126883,0.19715619894938746,0.00504,6.478529623403539e-05,0.009307314737347052
0.645,-9.924854127244751,-0.03427539624619344,0.28619947719826994,0.0046111463567879395,0.0013554011315915775,0.010483656502644654
0.6475,-10.172680874673679,-0.1766878918734167,0.5383195420339967,0.000520355473753372,-0.002138,0.006937713223776926
0.65,-10.081927296006915,-0.08024520913378277,0.33250459320861286,0.0027338044175444004,-0.002131919776764655,0.003834718126080817
0.6525,-9.886317017472098,0.056731521619240555,0.09550597648797654,0.0014752164974060839,-0.0016283197641880271,0.005219412105014918
0.655,-9.827857950553609,0.07259356333566908,0.16166957774351937,0.00012631506657321601,-0.002622684933426784,0.0065936849334267845
0.6575,-9.884855306301368,0.0496327990867583,0.28487303141552395,-0.000458,-0.003131911232876714,0.007178
0.66,-10.005251061259447,-0.03396865209068214,0.4438996706297258,-0.000509071939546601,-0.0034619079093199116,0.007891671939546622
0.6625,-10.062575607475937,-0.16225849121140162,0.5343879373171692,-7.044603075386912e-05,-0.0026930213276660313,0.008929926140767614
0.665,-9.933045,-0.150646,0.246294,0.001527,0.0010735478969087918,0.007789
0.6675,-9.776932597524517,0.010000622840328138,0.03920208256963225,0.006862132067477455,-0.007472307944291894,0.007191159038838743
0.67,-10.09340484342793,0.19561693445495243,0.43395657688288286,0.005063716157657669,-0.00526681598198187,0.009775135617117191
0.6725,-10.109430356027776,0.04424193625796695,0.41350909098449595,0.005537643313992203,0.00017470104822601404,0.0135069361038714
0.675,-10.016414992162083,-0.07143056868639032,0.3097616071149986,0.00492822646247502,-0.0013483423761058008,0.013049624113002941
0.6775,-9.940218,-0.166188,0.224773,0.004429,-0.003059482832512306,0.012675
0.68,-10.006971044757323,-0.14728824213084907,0.3265104238528973,0.004069456263909698,-0.004683918974035204,0.010158193847367885
0.6825,-10.15870296846473,-0.07291007651452315,0.5254939457593361,0.005089374273858906,-0.004887,0.005605572780082983
0.685,-10.174351249999997,0.03220617546610124,0.4702261695762685,0.009203530466101631,-0.0043219932203389525,0.007539918728813595
0.6875,-10.059269732477087,0.007865625984251967,0.34618041771008135,0.0066181675487285395,-0.002999401316638699,0.008996399122240867
0.6900000000000001,-9.947203933835029,-0.02652271291338662,0.23128236751258288,0.005481206350845462,-0.00206952947979861,0.00961631368013426
0.6925,-9.77360278719649,-0.08507123329595315,0.044374102320819786,0.007946819366162842,-0.01079202510482691,0.008110382784007794
0.6950000000000001,-10.071752066430607,0.06771978449144277,0.4220545539068432,0.005698383626425891,-0.001983165206748934,0.007418477024714895
0.6975,-10.000249300194866,-0.017189205318441356,0.3863037937547527,0.007124975261406849,0.002678487721007621,0.01008227869771864
0.7000000000000001,-9.913368545917635,-0.06299082600968006,0.3373290688883581,0.007125554312465235,0.004366109085138398,0.011606
0.7025,-9.83433918673173,-0.03938167071918162,0.25874587012431677,0.005819007621703269,0.0005771543162541642,0.011564135805739513
0.705,-9.851936172530275,0.028023090960761426,0.1690457505247868,0.006575599260455341,-0.007144097933150236,0.011087253424834506
0.7075,-9.890351792729893,0.06286108769267706,0.15573044689555895,0.007350303466986801,-0.01102692176710682,0.01090162839855944
0.71,-9.95107170433336,0.05015759204031071,0.23134042071822702,0.00745860423258419,-0.0055315289642487,0.013923023946252843
0.7125,-9.928585869085833,-0.0033179265875797545,0.24848882344731274,0.006960532868108865,0.0012252863921842405,0.01650991430565246
0.715,-9.871364447809333,-0.09460297174340294,0.22662690405633315,0.00650559692331504,0.0019335371260543232,0.014803736940338949
0.7175,-9.87773776902759,-0.09911928453376524,0.2875026196180268,0.005450625674697306,9.640964174250375e-05,0.013222569312195709
0.72,-10.156883399114376,-0.06688390102507655,0.6470263723841009,0.00672,-0.0010928711730886517,0.012217
0.7225,-10.05756084063745,-0.06344022812749024,0.4128230314741029,0.00644288350597608,-0.004066119601593656,0.011697576653386426
0.725,-10.037344271485487,-0.07949462096376385,0.3566319105482836,0.005227402693985972,-0.00649658389299941,0.009419296129766669
0.7275,-10.01195620752809,-0.06528248773408066,0.28937731829587865,0.0058233036610487905,-0.008276879531835198,0.008328193745318398
0.73,-9.992831491475036,-0.02998979142624749,0.25511460753943677,0.009135711653927485,-0.005845108687591515,0.011437103190762705
0.7325,-10.009430555121952,-0.09451684975609694,0.3110441404878048,0.00831706731707324,-0.001833,0.013357939512195095
0.735,-10.055708221040275,-0.05448203179746858,0.414964660906788,0.007575037113924094,-0.0032766364142692564,0.010242116750287715
0.7375,-10.080715583512895,0.03520151531178804,0.47708751477309685,0.006640758961802227,-0.0036660121123081625,0.009009632272282105
0.74,-9.978149020526443,0.10006141180391218,0.28411358786766605,0.009170517884568944,-0.003131176440473311,0.010194412982371406
0.7425,-9.813654638201609,0.058392226814952694,0.029904471235212227,0.008289091273071363,-0.002682175097018335,0.010559041911973486
0.745,-9.855592358327437,-0.005625629096172424,0.1290584247796717,0.006219635985847536,0.000916,0.011161032331939526
0.7475,-10.011710810211015,-0.025209055440369544,0.3672223805321232,0.008358148669724822,0.0005659090550458402,0.01269668005504586
0.75,-10.070539,0.023912,0.539813,0.008094,0.0033214660035179233,0.010232
0.7525000000000001,-10.070539,0.023912,0.539813,0.008094,0.00021332570388783983,0.010232
0.755,-9.99379849028366,0.013780393495350431,0.4076730087114162,0.008754968598890368,-0.00279376633273424,0.010287170865046496
0.7575000000000001,-9.879388964770472,0.013083332200664516,0.15055484077614506,0.00988530550875532,-0.006829320454330538,0.011175560255560903
0.76,-9.946956453859373,0.034394265395134724,0.17376018254871184,0.008331119331961744,-0.008400065070797503,0.012404210432046463
0.7625000000000001,-10.006594388425928,-0.0419031974074097,0.298898307962965,0.006793179907407397,-0.004956917731481459,0.012224524351851878
0.765,-10.01143115183432,-0.12255264821827783,0.30999257270545644,0.007643790838264315,-0.003608396068376057,0.012674220703484548
0.7675000000000001,-9.876504571488246,-0.11266878962733581,0.14576381662946883,0.010035267638262553,-0.002682094004272576,0.010627550215997886
0.77,-9.742971171159228,0.052245145570233735,-0.05199167737981656,0.010636623056358945,-0.0020315728320174694,0.008338863243961577
0.7725,-9.740734176193294,0.05929718330451224,0.05205086219589883,0.010849026113940521,0.0013123521828734643,0.01163227021200999
0.775,-10.358679688598283,0.05761057261953381,0.9498737999416178,0.008926047872029911,0.0039997960768287785,0.012203921781773597
0.7775,-10.230596580138947,0.02284515746628568,0.7566515269029157,0.011356339611185678,0.005028231875766231,0.011736840523089504
0.78,-10.091910235994348,-0.05021200590174367,0.5074985565656847,0.011687986388322054,0.0006936287364619599,0.011949672205305304
0.7825,-9.971846765949566,-0.14486418502131887,0.2255621774345235,0.009385845705932509,-0.008921626931416779,0.011966748748934157
0.785,-10.079787268642576,-0.09381076794890435,0.3117433748370962,0.009467087709596566,-0.006310255480637068,0.008398087709596568
0.7875,-10.217553829270006,-0.056860804422088115,0.5337017986897518,0.009447307978474484,-0.004625076672905991,0.009312348783341083
0.79,-10.0719867545066,0.011715040393757366,0.40896363442976696,0.00935707632172866,-0.001374,0.012469413157262898
0.7925,-9.887079224175421,-0.007208316006924022,0.08132659927063078,0.007868770769763408,-0.0005204224720138777,0.013151602414310407
0.795,-9.787058983741815,-0.04122295763725142,-0.059049019864236496,0.010454353492914216,-0.00035617389067533903,0.016121110739549832
0.7975,-10.015480559743514,-0.06314252481492257,0.35393270907606755,0.011978830684931512,9.048592247155526e-05,0.015950132491984844
0.8,-10.115080457360666,-0.09644286656151463,0.6850773379600317,0.011935460567823386,0.0022031467928495274,0.015112388590956828
0.8025,-9.872270614379346,-0.06549787330023199,0.3344200546110565,0.01341693837802052,-0.000458,0.01424590756703078
0.805,-9.73899162632691,-0.050250051565753275,0.13622404031134278,0.01285788431954112,-0.001964955909873077,0.01455021762884062
0.8075,-9.689984159234337,-0.09624817178190266,0.040619249243618705,0.011748356190255214,-0.006999497777262165,0.013916489127610208
0.81,-9.952192616148585,-0.04939406787068644,0.3246647025054412,0.01405,-0.007726967805408525,0.014355
0.8125,-9.938206987124463,-0.007381201716738197,0.411537635193133,0.011397098712446352,0.0009684463519313305,0.0146347339055794
0.8150000000000001,-9.891790123561853,-0.06514161394223573,0.36149084806539383,0.0110626334866485,0.000916,0.015175445567302465
0.8175,-9.925133466368091,-0.07263640484254694,0.3719127466200144,0.009864938950314898,-0.005693815983205089,0.013489719664100754
0.8200000000000001,-10.002737157338615,-0.0191806651859844,0.39982057445164354,0.011939338989680914,-0.006573581504679501,0.01349511825773943
0.8225,-10.028877879177825,0.018694587972751,0.35896505724688704,0.015674934282358485,-0.003454307930467476,0.014348747296217984
0.8250000000000001,-10.03228,0.057389,0.284553,0.018173,-0.004453584874473678,0.012828
0.8275,-9.98746143272409,0.0514546913964244,0.21521717253656522,0.016537453661707672,-0.0028943899037379628,0.012588715469433673
0.8300000000000001,-9.908922570981511,0.04245507118065485,0.15619718520626785,0.011249095419630114,-0.0020563960739686804,0.012795511123755392
0.8325,-10.008002295937464,0.017659441757667885,0.4027383887480755,0.011255231424849023,-0.0024629552812981503,0.015400602425678108
0.835,-10.09807206493827,-0.05118091712682472,0.4797584384319362,0.013330957915664611,-0.005192,0.016930947394580762
0.8375,-10.19065470192674,-0.0005944204107557222,0.5873650344272682,0.011753097607452889,-0.0005525737455007652,0.014915761930976061
0.84,-10.000864222045312,0.016659461410120473,0.28808017500741423,0.01158381130637307,-0.003265039822146907,0.013474885742113082
0.8425,-9.87507844431382,0.03092942230860398,0.12163900260725578,0.011188276482578799,-0.005079566257406956,0.013432024745200334
0.845,-10.01041851526854,0.03905826868925817,0.3599019530818393,0.010811341457800504,-0.0027290884015345692,0.015541616278772392
0.8475,-10.089770389956188,0.003290473626928643,0.42109712522941656,0.011604993331796189,0.0022159777265391835,0.01639794225501508
0.85,-9.843063466289035,-0.09748696438634744,0.1364731069571546,0.012796907886710231,0.005506587450980425,0.018871217342047972
0.8525,-9.722584197792004,-0.06990096979940309,0.029400197279845424,0.013463247745056153,0.002202778102148253,0.015071308459240353
0.855,-9.83702948821312,-0.07219828651769422,0.29136046452803066,0.013272489774950273,0.0011366645598409784,0.016643146058051707
0.8575,-10.0000144651257,-0.01753548098653548,0.4093581545001782,0.015347571876563755,-0.00028073755272241827,0.014794072622423436
0.86,-9.88158549846154,0.022335266461538376,0.23103058646154045,0.012778518769230779,0.002902,0.014788903999999995
0.8625,-9.696915,0.034672,-0.056193,0.011301,0.0013643062120503242,0.015577
0.865,-9.868283610711277,-0.023481972713924416,0.2262257614249597,0.012091143935491632,0.002839592870381502,0.018738093190516295
0.8675,-10.095411832000005,-0.0728934559999996,0.6020228320000094,0.013267776000000037,0.005345,0.020014447999999862
0.87,-10.126079017332795,-0.06691515408329962,0.7009343648103525,0.014517512401132228,0.0054535781544682565,0.016207379632834612
0.8725,-9.832051854396012,-0.061078345957204454,0.30021765379824983,0.01494333874787729,0.0024851030499261303,0.016408551681195482
0.875,-9.727906553735679,0.0011405226722607728,0.07547092359206067,0.01491310787477812,-0.006933568500887526,0.015680495401000485
0.8775000000000001,-9.835706857666024,0.033192843027342885,0.0707484249365304,0.014580843291015666,-0.009228134692382754,0.01677593956054694
0.88,-10.03467,-0.046628,0.380201,0.012828,0.007849346692460887,0.016035
0.8825000000000001,-10.03467,-0.046628,0.380201,0.012828,0.010582505529445303,0.016035
0.885,-9.942630938038347,-0.04644342906859821,0.3430524673779289,0.013064201325948021,0.009867626266723451,0.017168086203664265
0.8875000000000001,-9.788491736174667,-0.04437956968993129,0.3074391603994946,0.013338677551968383,0.0017447092788291066,0.019025118058297447
0.89,-9.949593402897545,-0.03603565555257124,0.411123408913816,0.014368494146457089,-0.004887,0.016538609030729116
0.8925000000000001,-9.93023838470072,-0.028702114978102277,0.26806053302188315,0.017908353343065724,-0.003959460729926874,0.015466732321167933
0.895,-9.720826,-0.030488,-0.034672,0.018479,0.00014629332276225315,0.016493
0.8975,-9.748530739240257,-0.04037101202393973,0.0917002475338867,0.017278652820324984,0.0037008219225600925,0.018190126673995246
0.9,-9.812607569870853,-0.09285115684788546,0.33721229188770974,0.01490349136184365,0.0038067319619518483,0.02222152422859793
0.9025,-9.831087284104823,-0.1095253473573373,0.18067316183688342,0.01664805902032818,-0.0005312845799657262,0.02006518423708065
0.905,-9.894264212543588,-0.05470793844757524,0.19343521567709615,0.017901318796274195,0.005671494836398384,0.01787056814903272
0.9075,-9.874801570117029,0.0006847729352752671,0.22861710674946223,0.019144108000955323,0.006435951067590152,0.017966359961786478
0.91,-9.817260265422037,0.025890191222213244,0.248685,0.019145642164385707,0.007361983387390253,0.01883704505972631
0.9125,-9.800444666274508,0.01693892745098029,0.26083440588235246,0.01732983294117649,0.00671568980392163,0.020973276078431347
0.915,-10.055204984019799,-0.1469171767579982,0.3220711025985507,0.019227472243238456,0.008094,0.022390873112957364
0.9175,-10.016792415567734,-0.09483808745035685,0.3398006932649813,0.01866150935596017,0.008094,0.02012640370043016
0.92,-9.667775971675562,-0.011171989449219398,-0.056604487074150334,0.016204555463629942,0.016883408654427487,0.018026908240762227
0.9225,-9.727273778167245,0.03334306960162676,0.08000497295609446,0.015615297820313439,0.010363424050723805,0.016588619330063413
0.925,-10.171503173309734,0.10128234435398184,0.5882703148318592,0.01407759362831862,0.007657319362831887,0.020643337132743397
0.9275,-10.166695189432449,0.07539519904660776,0.6359771203728611,0.01615618676106194,0.009263280009439523,0.02262728004247787
0.93,-10.07385035788492,0.016206789585340185,0.563815748627446,0.016235409083895796,0.010232,0.023925978431372556
0.9325,-9.86546445221865,-0.113189476355841,0.2800748863022515,0.0142975224437299,0.008870171232583077,0.02384860806002144
0.935,-9.889407490319025,-0.20148944590956894,0.16508966670996636,0.016753974374543457,9.248139296995101e-05,0.021570484435424874
0.9375,-10.094829947482275,-0.09424412186035333,0.3605053235188078,0.01820456507631294,-0.005734620237952169,0.018062344670111766
0.9400000000000001,-9.95803344021809,0.14022555829699004,0.1798308861716874,0.017367808473317953,0.00915887279350383,0.016832235285382857
0.9425,-9.701592713597192,0.21202220092882212,0.014658030331950032,0.018309735371848067,0.014491735371848068,0.02073580353335462
0.9450000000000001,-9.734575550936139,0.13763951020976567,0.09762684930495497,0.017124606556042535,0.010704729502191413,0.02519748791797127
0.9475,-10.074649148965518,-0.00089051586206991,0.4446589417241394,0.015108886896551713,0.005670972068965539,0.02729483862068965
0.9500000000000001,-10.15941169209021,-0.1649691391359596,0.5762675855622538,0.015157310339898472,0.010580318329097924,0.025460681670902076
0.9525,-9.925789641720428,-0.13943749462365504,0.2650277984946217,0.018458252150537622,0.011476350645161245,0.021507416236559104
0.9550000000000001,-9.816710385743551,-0.024534790895533724,0.12751539250471758,0.01675208860958622,0.0050618588447356744,0.01750382278082756
0.9575,-9.965843983497544,0.043994984595470694,0.29683849927364236,0.015966211554596658,0.00047319824523545714,0.018284296267529664
0.96,-10.065624648038966,0.13476614941899662,0.19743125162008857,0.013949250910356058,-0.0010461223518498436,0.02122375948509789
0.9625,-9.95549127001055,0.03157178028195909,0.15604310305936583,0.016279827793229132,0.00989776946389183,0.024144215939388158
0.965,-9.970220308453055,-0.10429207225472159,0.23840313138582422,0.018046226320130407,0.011126655885681389,0.027599579069722793
0.9675,-9.978652197568987,-0.23369736499609098,0.2789390369388885,0.01986030237962241,0.008935010599932828,0.028080714145905388
0.97,-9.999723520769043,-0.2321750557313234,0.279568298525187,0.020975361216841085,0.002156338028717411,0.020112047232903447
0.9725,-9.968028722541677,-0.07603375031829225,0.3363046885857487,0.021465349231666125,0.004343650768333875,0.01604560878628896
0.975,-9.712732648286677,0.22002858868243225,-0.030712109266413493,0.023048564116795418,0.00228114174710429,0.01848452041505789
0.9775,-10.058095366779943,0.19962593891159458,0.34827374931083677,0.018792110594106477,-0.0008826894653041392,0.021442461071768115
0.98,-10.095335638110742,0.032786981649240765,0.3668941964591253,0.019553374776615964,0.002161744298954351,0.025342849817015182
0.9825,-10.05844322184972,-0.09611785992904054,0.2813129739619939,0.019853,0.002824051965623261,0.026878
0.985,-9.990535293168964,-0.11972793502860418,0.23861494486826135,0.019597164151156234,0.0029052742792683825,0.022525437544114152
0.9875,-9.97467511166966,-0.005206043662474506,0.34771905637343,0.01958033134649914,0.0037552514901256426,0.015450162010772121
0.99,-10.053751966310854,0.11320579744002485,0.36763813465030876,0.021756011896538245,0.0003517276705478048,0.019231124244744865
0.9925,-10.102436847367517,0.14915644372047493,0.3424901565389785,0.023366,-0.0026238260629052328,0.018594946846163286
0.995,-10.042860907419893,0.15924725456643885,0.328218388128575,0.02356865045203746,0.003034346636294606,0.02057749636041508
0.9975,-9.996534071325739,0.17701651741230107,0.3497955397236147,0.0240548542566439,0.004817801640091154,0.023414569870918816
1.0,-9.934230372680075,-0.15023181577848063,0.07310537232201468,0.016539758966402102,-0.009737085874559886,0.022759922420480996
1.0025,-9.933482596634242,-0.11806117620337839,0.08657159868711554,0.020171635259294544,-0.0068698809858567175,0.023142258122575633
1.0050000000000001,-9.87944668353007,-0.07201714048795896,0.06911873402367058,0.022297,-0.0004320091537155504,0.023044838083581574
1.0075,-9.806326640922862,0.04000322932324375,0.1068854872503641,0.022034845627070487,0.008399,0.021444980198769413
1.01,-9.939057545401226,0.19326323732568332,0.4307687881488574,0.020513680156187736,0.007099342927723314,0.02088666291497332
1.0125,-10.088433407270132,0.15215145074839945,0.5901164618674304,0.019759535851746193,0.002785545545260309,0.02590711518175327
1.0150000000000001,-10.129280800775968,-0.03435578331665571,0.40913774515643764,0.0221575268710889,-0.0036812764580727714,0.030265705294117724
1.0175,-10.025959971631158,-0.22350558965977707,0.31939828829040595,0.02397888269422365,0.005803,0.023668598278749328
1.02,-9.965500979910969,-0.21088266840063585,0.24432369193216694,0.02448844506412295,0.005803,0.023244055584525698
1.0225,-9.969770471978226,-0.10977208344061207,0.28054681136298437,0.024893,0.004319403866540566,0.022907
1.025,-10.26639468195895,0.2250239539237557,0.7233908504985413,0.023528821665689127,0.005292440516129145,0.021918398193548214
1.0275,-10.107570165492076,0.16767145922815066,0.5086849207389961,0.024186257292668642,0.00209935747096764,0.02680273285161306
1.03,-9.94392640275327,0.08446634483115073,0.2832962905251226,0.02403132690256906,-0.0005038849830344337,0.029678788114396507
1.0325,-9.847976019352764,-0.11163875193022223,0.11804237541427455,0.023524557346798224,-0.005768791012164133,0.028624984989671837
1.035,-9.886416,-0.208034,0.143472,0.024129,-0.009166862867345135,0.027794
1.0375,-9.929444730793895,-0.16099956622287098,0.14465889334319548,0.02515257761341242,-0.002829853131162621,0.02589899149408249
1.04,-9.998733653225985,0.026624798326027842,0.18149464927540965,0.028039324849740924,0.014966,0.020799675736947014
1.0425,-9.896401286862003,0.12029358345935696,0.30117983057655767,0.027347984584120993,0.013159826720226902,0.023251223232514138
1.045,-10.002736835218682,0.15926730182198862,0.5115364238614539,0.025449405657672248,0.005456353014901531,0.027107994873942776
1.0475,-10.094662105203204,0.10377448758977847,0.5040140474290922,0.023366,0.00026194742911157554,0.0281
1.05,-9.787116631710592,-0.13993646954801098,-0.02413924380591534,0.024493692187128997,0.002634438328188151,0.02895904334679019
1.0525,-9.622922615349612,-0.023860616480901924,0.0703656538384461,0.029453495376748073,0.005826665537466078,0.02399966553746608
1.055,-9.788430630344392,0.04221214675015491,0.34610437273637384,0.028367384251722007,0.007080207395115811,0.02525320739511581
1.0575,-10.058351562212714,0.148816650739163,0.41760284064851183,0.02047890538864889,0.003420284806865911,0.024514954525512243
1.06,-9.978428903974159,0.1249017394764815,0.29236070885404497,0.021120017815759392,0.0059844394078461,0.026678074334163294
1.0625,-9.894163577560734,0.07400944624097176,0.2296982678923178,0.0236453804990151,0.007026833388049902,0.03013130901181878
1.065,-9.913342452044345,-0.03492383251176164,0.33276757056711537,0.025545694532982385,0.004714204804977379,0.03236530915210977
1.0675000000000001,-10.108349836078444,-0.12135873742705908,0.6505547150550187,0.024672173543758887,0.001025342065997219,0.029444467355331884
1.07,-10.162715109190543,0.02578669619527737,0.6733691053858124,0.023987725392126003,-0.0006606630173230008,0.02490277837480325
1.0725,-9.590197806503092,0.0984432381684706,-0.24746439967155962,0.02503555942426584,-0.00592412162673878,0.023978365942812985
1.075,-9.934980289042814,0.3010414097808586,0.13961517476562937,0.023837647351764486,-0.001833,0.024385331772854752
1.0775000000000001,-9.971287553933244,0.1715344158786584,0.15571041251328677,0.02450697782528217,-0.001833,0.029453209090583642
1.08,-9.990751791000953,0.096844,0.1776394618493812,0.024893,0.0002669868064825052,0.032376
1.0825,-9.946116569255304,0.05360720562917652,0.21035983496657706,0.0238470103858332,0.008014092323208755,0.03241791629412455
1.085,-9.853195470452961,-0.1295607538861765,0.25044272910569054,0.021913017560975582,0.011241259869918944,0.03153834352613244
1.0875000000000001,-10.007761988568207,-0.12331629253778931,0.35638260282966305,0.022373858565769227,0.0033612160077612697,0.026581423914624914
1.09,-10.085480616948294,0.007524101034052252,0.41078602254728586,0.02384881094577568,0.006414683430012909,0.024562872484237226
1.0925,-9.914114797180078,0.08956511895287816,0.2881191708705684,0.02733387905515645,0.014207241889687097,0.02906407360525999
1.095,-9.804382452731305,-0.046470984978112695,0.28819090964322186,0.025990798848713786,0.0017597000731546728,0.02915590338070397
1.0975,-9.88707326800983,-0.12841106586556073,0.22429297561671968,0.02704710854470225,-0.0009288596054445389,0.028675533971337788
1.1,-9.903609400933487,-0.12961413890314685,0.11993272714118464,0.02970968270711802,-0.0010284385064176212,0.026555024364060525
1.1025,-9.839837716631074,-0.014642584868624,0.05033293909058552,0.033931004213557325,0.005051591692861665,0.024428275820036077
1.105,-9.834788051167134,0.06673653699346425,0.2867053623155914,0.033878008851540645,0.011858725751634037,0.02748345247432307
1.1075,-9.95714240502662,0.11416609460276608,0.40581736661696677,0.02994133491515809,0.0030865474987578252,0.024868744178913847
1.11,-10.05914242758584,0.20421525241415994,0.4148406974854675,0.026256548388800774,-0.002510043623877174,0.023721085018489435
1.1125,-9.871552505332994,0.18565995458342832,0.12290549923812355,0.026776169181617317,0.0039535657409683735,0.03210429053821606
1.115,-9.75687323970023,-0.004496579755831773,-0.03922148963616613,0.029169888446754503,0.003596537280309446,0.03452020751359846
1.1175,-9.837134256957983,-0.08690915831965462,0.08389779183968374,0.028736656001931468,0.0017323120038629355,0.03224766211492047
1.12,-9.980662840806772,8.102908699342964e-05,0.2486443757844491,0.030154442198614545,0.00390030708545073,0.028965859344110865
1.1225,-9.892980136441347,0.09415955789264747,0.2096566698011893,0.03380732990059634,0.012255027773359956,0.029699118270377797
1.125,-9.801445364282891,0.15462332437771634,0.1300702011062821,0.02933225602528645,0.011480436191228762,0.030785183721849074
1.1275,-9.961142942091682,0.09372361683381078,0.25516228928365825,0.025625373065902533,0.004206451590257839,0.029512921475644695
1.1300000000000001,-10.21131501589041,0.06630905107226859,0.5446374252527192,0.027183970444024597,0.009780820283420442,0.03169167453471918
1.1325,-9.945893350138704,-0.051411034341113354,0.28017377005358185,0.0286939951166457,0.008327477351828254,0.033373654820302634
1.135,-9.702173748466233,-0.09280539915157535,-0.0021486043181589247,0.030304124930465238,0.002291,0.03032206606503249
1.1375,-9.835273482624746,0.039907084272320155,0.16169541497963635,0.029862661698702817,0.0023564401666508828,0.02635412930593694
1.1400000000000001,-9.938546657267704,0.15404101882353316,0.2935423126530552,0.03047080417767129,0.002880314631452632,0.02752419009843952
1.1425,-9.868057590435088,0.18315697565381095,0.184816086513381,0.032484139271312176,0.005527200268836447,0.029957393882796862
1.145,-9.831890776390395,0.10199838751665356,0.20001240991169722,0.029702843826491104,0.009550631978311377,0.03128926023857476
1.1475,-9.947823768330501,0.04548388618851718,0.3672669254712817,0.031227954722558744,0.006246318216622412,0.033516148524351794
1.1500000000000001,-10.095568017821307,-0.076938168085949,0.43463517431074916,0.029906820791531456,-0.0006606721226005079,0.03368111109882278
1.1525,-9.935305390160563,-0.09407578224807742,0.06913054863391516,0.027044955950663425,0.0003261588922505324,0.03043821517337671
1.155,-9.679073102695718,-0.03196771632507632,-0.17043606532350092,0.030441282018059814,0.003052015319360459,0.029371120480490436
1.1575,-9.804291514779063,0.05421051738474138,0.088609179245593,0.03155591850556815,0.003665,0.02995617227637408
1.16,-10.108960048640656,0.19306680400095474,0.5200312547072308,0.032788160616509195,0.006310753065861408,0.03127267708906008
1.1625,-10.102198092496153,0.10966419081163087,0.5253609957120736,0.03067471883614091,0.011435158652373727,0.034371199081164094
1.165,-9.840182868093647,-0.08122827439799259,0.12261415667224279,0.030690921956521736,0.004078577508361156,0.03432292714046819
1.1675,-9.959980045886287,-0.030688840016722764,0.2626269829694209,0.03030828940993789,0.0007313255255614192,0.031454122400860034
1.17,-10.104082250552649,0.027974249804443536,0.4676714226794523,0.031218968400340018,0.003880857801530079,0.02978
1.1725,-9.944355996088461,0.10846722091734914,0.35729396694759985,0.03441971908731096,0.011458789261932669,0.028916929825378294
1.175,-9.727780668664069,0.17544772920607235,0.15947477771596644,0.033886990336167724,0.010974614098386563,0.029277886227449788
1.1775,-9.796250755460015,0.23292385743766073,0.2519850782459145,0.028909970455717967,0.0020458619432502543,0.032169534514187435
1.18,-9.968359294919754,0.054780519255311244,0.24644546952280283,0.03181063763749184,0.0011258014123686133,0.03856859807404209
1.1825,-9.706008513534663,-0.11488975216572289,-0.12562782853198814,0.027675565953767453,0.0031652910813570276,0.03737585531792248
1.185,-9.603605690986601,-0.11836635606975104,-0.23641478169868588,0.02560263629904734,0.005746101886000403,0.03355912815436767
1.1875,-9.782690688549618,0.07546133376394598,0.10582952190252495,0.027597455666470934,0.009497999882560188,0.028871227715795655
1.19,-10.015591942447683,0.12868517719720762,0.48370512114140474,0.03135053263157888,0.013632107622067116,0.03247709676601141
1.1925000000000001,-10.115834587143373,0.2124847570083906,0.5867227680262656,0.03275991940167795,0.01741,0.032766698299890575
1.195,-9.971389098068025,0.17875920490965577,0.4630373973917294,0.027794,0.016464158102351713,0.033139
1.1975,-9.804302989187486,0.007520286126606129,0.05256768717923896,0.028511433659956356,0.00882332292020369,0.03429487983992241
1.2,-10.04141180968557,-0.05316424754305818,0.35266509023541526,0.031232059472270472,0.004924078811818462,0.03523678620635181
1.2025000000000001,-10.165982407431855,0.06569786758051477,0.6894224462427598,0.03260885912469036,0.013005760264244754,0.03096891960363339
1.205,-9.769286861406014,0.12129617365853815,0.22399904367286344,0.031598970616929616,0.011624640344332478,0.03138434731707318
1.2075,-9.612624,0.142874,-0.058584,0.030391,0.003469572174190936,0.03146
1.21,-9.72852359033293,0.1282317857916173,0.04700422046466701,0.03207655882155683,0.005721147937724375,0.034989807176047785
1.2125000000000001,-10.032046726572425,0.09045481365187469,0.3641987915163621,0.03502225285226713,0.015424,0.03969573905411945
1.215,-10.248685,0.064562,0.667145,0.034361,0.017968732604102113,0.034514
1.2175,-9.929274755982794,-0.0013804582311728042,0.20613577729018212,0.03488742869938931,0.01568308210811998,0.033084911051798165
1.22,-9.80869896240718,0.17395645758310757,0.004778013705407591,0.03573599554477068,0.007636013336568807,0.02947403112836693
1.2225,-9.914110043783554,0.16530120773527143,0.2675464330430521,0.03660124949612633,0.015522113129541517,0.03283990870217994
1.225,-9.99953864784759,0.14345938714227663,0.41115896154033144,0.03539830200243196,0.020159,0.034444577008512334
1.2275,-10.066531651318373,0.13204519674749188,0.49025581507161986,0.031925078488778603,0.020371641826998996,0.0332394366617796
1.23,-10.11226001617357,0.15278703234714058,0.7151007011702832,0.03218051345167651,0.020254799868507572,0.03299593996055225
1.2325,-9.99543384762647,0.050999249338526634,0.48426781416344483,0.034511479533073895,0.014124478910506432,0.03620889603112827
1.235,-9.859834167303658,-0.01856271675892155,0.08735288180666098,0.03343910280946634,0.0051206111929405235,0.03521269171921345
1.2375,-9.994065228865978,0.0599257871134029,0.13211634432989683,0.03099916030927842,0.010843,0.02884027371134024
1.24,-9.76392905368421,0.10919348982456133,0.07838666315789415,0.03990911789473689,0.015305539298245636,0.035333073333333354
1.2425,-9.873463048192676,0.13088105401304148,0.21632910802608293,0.029627297211671157,0.009953985253938834,0.031773883640344565
1.245,-10.011308692432772,0.1535570278375944,0.2616810556751888,0.030922981583131094,0.008124754429054137,0.03375534240563577
1.2475,-10.118761291010916,-0.028324550333240536,0.3446822049285877,0.03844184402128252,0.01230463338000576,0.039132969700363965
1.25,-9.89117630894112,-0.0525704743154834,0.17187885352556337,0.03708378004603828,0.019698996365398593,0.035543673370487035
1.2525,-9.888897237770777,0.0659018445989798,0.25921402952749995,0.03456143009692276,0.019602447085049674,0.03176046604313068
1.2550000000000001,-9.905774764144915,0.17790189470021045,0.2775453318525517,0.033470672270210444,0.014908205144755084,0.031504908862521955
1.2575,-10.049019,0.214012,0.243902,0.031154,0.0069304223242106985,0.035736
1.26,-10.049019,0.214012,0.243902,0.031154,0.013841090046315813,0.035736
1.2625,-10.015317515806911,0.21595641542830085,0.2675577895409351,0.03194054775201129,0.02015268244202548,0.03677081713203967
1.2650000000000001,-9.872649862028604,0.08746401992077915,0.25491768323606934,0.034803264954336145,0.01961294018265542,0.04094157804897778
1.2675,-9.830555110303795,-0.12749784427332658,0.12060773900507707,0.035845104446700464,0.013090679984380984,0.04166360439828169
1.27,-10.062020318262547,0.016380297953667727,0.15198090490347424,0.034345769845559836,0.00901,0.03378264011583014
1.2725,-9.968913,-0.008369,0.07891,0.033292,0.011461447265774222,0.036041
1.2750000000000001,-9.923440655642363,0.0868450151752033,0.09577517870318375,0.03247384634716059,0.016013494579137904,0.03620455930728959
1.2775,-10.22672654748731,0.1151695363050425,0.47855285905294714,0.028022836622111885,0.006731362225676231,0.03730660997616843
1.28,-10.277063845259558,0.0021556208641579505,0.45582013120298387,0.033913267441715945,0.010962172446378659,0.04236750211998762
1.2825,-10.209619891833865,-0.13280481947048584,0.3374689473888808,0.038945227758076253,0.015163908690794224,0.04550156895797916
1.285,-9.825449640044214,-0.1878256415947008,0.0010190402842061158,0.03871080149996062,0.01610078071840226,0.03895109967948242
1.2875,-9.750647618909356,0.009959138456099428,-0.02107707032576963,0.03568612089235113,0.01336356189801701,0.03114764249291777
1.29,-9.973076763337874,0.21080972863618347,0.22156129922639842,0.036447443584528026,0.01308314348362295,0.031815426065508204
1.2925,-10.095269761453581,0.27671858776288916,0.43694576770735066,0.040769795228781915,0.01254272225522152,0.036445516474707215
1.295,-9.990697323595027,0.14581911563765707,0.5356515001065748,0.03488832377975135,0.013897,0.03812762243694493
1.2975,-9.949660512941891,0.08824082568484931,0.43512815614310696,0.03431946930423748,0.013897,0.03837187332961178
1.3,-9.788704994097465,-0.11155310502745307,-0.21846966068977558,0.03465309776938925,-0.0022584579444064655,0.03973411125600539
1.3025,-10.022377853189582,-0.016640660801939308,-0.14802425323804008,0.04010160496668683,-0.004400748288310185,0.0358888673821926
1.305,-10.118984717957689,0.18085643043172614,0.3221477482270239,0.044518294377390875,0.013236004415644879,0.0368710765805293
1.3075,-10.01315,0.229555,0.3998049389157978,0.045204,0.022980899136483192,0.037263
1.31,-9.997321438986573,0.18523502916240187,0.2765714772506396,0.04126830694373382,0.013069476496163438,0.038610907794117716
1.3125,-10.056349989772727,0.05593942409090909,0.21161696863636364,0.04052908909090909,0.0032799311363636363,0.041578762727272726
1.315,-10.079127607723393,-0.07434786607095374,0.2072992975345746,0.043943874085387906,0.006880173529765368,0.04082921544437766
1.3175000000000001,-10.029889,-0.160808,0.260641,0.041997,0.011495941826171948,0.039706
1.32,-10.025034283522858,-0.040711847253294006,0.34295651337556754,0.04210468643822026,0.011130017144165389,0.03803456525070585
1.3225,-9.976927032774581,0.18805371464598464,0.3699867795246412,0.04211024399299474,0.0052885235026269035,0.035547770657993506
1.325,-9.934017107250076,0.2303394390290635,-0.006538087895240816,0.03956316173746415,-0.006332919131267925,0.03660426745448741
1.3275000000000001,-10.053871805917833,0.23392496031345933,0.014983291712189862,0.03702345091427235,-0.0030481204084529803,0.03636771431014031
1.33,-10.036033749373665,0.10703236630611655,0.2504089268509086,0.04087871140707904,0.011242834900625682,0.04137379464090603
1.3325,-10.018678519696275,-0.04630900883693016,0.46137008315776606,0.04290991960467637,0.01290460851392063,0.04425526624080987
1.335,-9.998625058406853,-0.023002851640752706,0.33532379205331586,0.04038885717549987,0.003966558717867468,0.0363675666899398
1.3375000000000001,-10.130365729077683,0.227713226848169,0.3884097232574567,0.040439915184229465,0.0009884068997896328,0.0324940679183293
1.34,-10.001536690959067,0.3205524262787701,0.30954751659206114,0.046031230939897784,0.010232,0.03893472608056293
1.3425,-9.78136332687935,0.17378995539457473,0.14310569081314864,0.04153658563684306,0.0060278959942430274,0.042203635221875604
1.345,-9.987292360292297,0.08480131954610293,0.39765600778041577,0.03839026501901138,0.0025859047837452514,0.04199199603374522
1.3475,-10.106954567211094,0.04048555256079567,0.4816364733972411,0.041183186379405774,0.002119465435247549,0.04486773191287116
1.35,-9.904658720457768,-0.049437283452517924,0.03850549814014262,0.04604625169289423,0.0027831696709608726,0.04740497787314993
1.3525,-9.768042654710259,0.06706614848952201,-0.035940079664183,0.041980887557163296,0.014661,0.03885981689440998
1.355,-9.831559645748673,0.09674613753741279,0.23364794852165455,0.04219042212685087,0.013209184806397998,0.04013894425528546
1.3575,-10.009906803314028,0.23519595170766774,0.5034655991461582,0.04387269891461669,0.009604209102749759,0.039248
1.36,-10.11108424957182,0.19190482039535,0.4493090277742924,0.037428931066826494,0.008386766863545529,0.039852563361344594
1.3625,-9.930400107925038,0.0603335935425624,0.09886415204334967,0.03523527956649375,0.011566360487694816,0.041228159945811714
1.365,-9.921495373868009,0.03687026238818168,0.17598441371539797,0.044140775153827395,0.014203,0.0435783150937576
1.3675,-10.003399176153213,-0.09481012811608258,0.46129253175623164,0.04890491546372614,0.012059269102728046,0.04478961780615228
1.37,-10.156709028010894,0.09298674202276466,0.5533127394710594,0.046274006744670554,0.007684399929476047,0.03990916132072453
1.3725,-9.974156133557221,0.16024566183479252,0.24514767361401318,0.04460289490060497,0.00831734096061216,0.041335295527842986
1.375,-9.737396961987617,0.13091426357865035,-0.10598213080962458,0.04304455968336077,0.0021359316560859002,0.04250952551140372
1.3775,-9.743183584421049,0.16500568867368468,-0.0019573698947469853,0.04221126888421055,0.004060295284210472,0.0422729195789474
1.3800000000000001,-9.922732716536448,0.13792571378171284,0.3725497273942669,0.04173481235602112,0.0065536554329441235,0.04149236779701993
1.3825,-9.899046243153363,0.05795766121356495,0.04056164124222508,0.04598087619684678,0.007072821806019886,0.04463232716674624
1.385,-9.752411610737116,-0.007316139595563924,-0.16851636828440908,0.049633,0.0050531379908676025,0.041714442165688176
1.3875,-9.803833809376506,0.09142301420976104,0.09367877689704043,0.04996504852585787,0.012195469695504899,0.040089372643789145
1.3900000000000001,-9.967061912087289,0.152144327549573,0.530468484450116,0.049932894376045124,0.017162839518993306,0.0428976293509595
1.3925,-10.062444210124616,0.13313165403714972,0.5672099882717964,0.04800091263578647,0.01391062265694779,0.04088505855161062
1.395,-9.917871847165834,0.130410732915172,0.1789629223284317,0.04765079364425415,0.009166288253674349,0.0429360501191992
1.3975,-9.814072640418916,0.07853090643102748,0.07812031895270719,0.0504368211487481,0.009468,0.04590486116838486
1.4000000000000001,-9.819736687078434,0.031786426310461746,0.14224736406262445,0.052573674086766845,0.00824373742503295,0.04497443419269392
1.4025,-9.845993649893332,0.09380523690072146,0.20152015483296498,0.05241807537217213,0.006753844158949839,0.04089415584105016
1.405,-9.877225086246169,0.25061030674625034,0.19983032087755936,0.05335037096951121,0.010920719503145717,0.040242719503145716
1.4075,-9.84272517624231,0.2907158854425004,0.08900690014197805,0.05224544266919077,0.013099752219593069,0.04461224603880734
1.41,-9.962211433253545,0.0899727297719667,0.2567792728200371,0.04514522358094414,0.00901,0.04427798027545742
1.4125,-10.016028445736346,0.13738335609587657,0.17605578046784648,0.047335218840746804,0.014424279223323545,0.04368356386264115
1.415,-10.033919300054283,0.15773699927056753,0.17391099028329354,0.04840813468363017,0.02005852550636141,0.044116653988125566
1.4175,-10.027785838558604,0.11256075823940162,0.4064383288678274,0.047359601790523675,0.023828754234414,0.045968
1.42,-10.14501529212246,0.08557577345177778,0.682821281548221,0.04849666200190357,0.018529129987309823,0.04574766200190357
1.4225,-10.132866543091833,0.05517131944437795,0.5453320300418771,0.048371930671775885,0.010773473107411783,0.044248568444497476
1.425,-9.78244531291371,0.29173432990732895,-0.30288127870982845,0.04952017937176559,0.005255906583223158,0.038714826982789795
1.4275,-9.87599245148634,0.2691020492670599,-0.06561903187387252,0.05106231425201588,0.013542673106270282,0.04170192457816824
1.43,-10.035584555421455,0.18999816808709552,0.3065465005660829,0.05181390852877139,0.018173,0.046063563956453966
1.4325,-10.226564,0.071736,0.732903,0.051618,0.018860772063044127,0.050855
1.435,-10.04735952590603,0.1486656794630913,0.34020260429528126,0.05032313610738248,0.019169374228187836,0.0471220410738253
1.4375,-9.947188563175704,0.22965594635635883,0.2255610864075266,0.049650194932739124,0.018739736981100933,0.04713965552529504
1.44,-10.042323269460361,0.10284621108733805,0.4573059600782435,0.053879462745368596,0.01266248637441066,0.05280223095155898
1.4425000000000001,-9.971371819436094,-0.02604436080327835,0.25980605957103714,0.052410830045786456,0.006261,0.04879092267973287
1.445,-9.887612,-0.038259,0.10043,0.047953,0.00865040046560181,0.043219
1.4475,-9.830771373700621,0.04958560428085937,0.0890621052444026,0.05081298183565823,0.014521056710819387,0.04607898183565823
1.45,-9.743720016863405,0.22806502585722477,0.17663721371556565,0.056580283867341256,0.017351874311410945,0.050764079482855634
1.4525000000000001,-9.896047058642674,0.1886409346251398,0.38356474267914165,0.051913846978561634,0.017567511467488285,0.04501045437403736
1.455,-9.907608051044768,0.2575534383084573,0.14562397228854201,0.0489372421890549,0.022449,0.04297753726368169
1.4575,-9.63184833128508,0.24665069057607097,-0.27848164313146223,0.0554162371048745,0.021536813766617396,0.046653664874446124
1.46,-9.677485879229723,0.3025546463849748,-0.0012452142882241612,0.05764706107105919,0.02073007724675732,0.04844735261558052
1.4625000000000001,-10.020720406609067,0.3446807951657984,0.5180090753386338,0.052971071929004916,0.023976,0.04862441389537647
1.465,-9.873943303941092,-0.0736601029977234,0.06624573545072383,0.05075145703100691,0.016799,0.05261115724889247
1.4675,-9.635304704769542,-0.011749178232969532,-0.32247995405962343,0.05362678724530112,0.016799,0.04820181545552491
1.47,-9.545659672055647,0.07193724391460661,-0.39742589285680396,0.05533738711441592,0.01907899314943626,0.04419639168145842
1.4725,-10.039453268770623,0.43451362741218674,0.5281489152750696,0.05502246838341103,0.0236916545154466,0.042378762460854764
1.475,-10.230781224894208,0.46999403570673,0.6713956902560356,0.05154903264917465,0.019456081972069255,0.04483546109818037
1.4775,-10.314873591880058,0.45686107099987655,0.6458545560149836,0.048869,0.018576209952847447,0.046731
1.48,-9.90825948319653,0.17267672922798832,-0.07015238662086569,0.05512143445308263,0.020275695136503378,0.05481396542397397
1.4825,-9.950570311560295,0.08276700887844528,0.13762276135719292,0.05386640405713256,0.015643583957090472,0.05336619370336893
1.485,-10.12593916065774,0.11448139066731292,0.4502253081800944,0.05265602358237543,0.013361433617496843,0.050577738451468526
1.4875,-10.319789106835978,0.2606232901020647,0.6899745305245584,0.0506322947780678,0.01593312193211503,0.04734354139568006
1.49,-10.12195,0.248685,0.416667,0.0478,0.01764045179471231,0.048106
1.4925,-10.031638005916191,0.2104172058966909,0.2426249699951483,0.04897325548732929,0.010187842431774112,0.04787119526803122
1.495,-9.985253168108768,0.1995007615555658,0.0024866578912801085,0.052223593276595724,0.00441770422222219,0.04639851939007084
1.4975,-10.270007182847825,0.1710527543273557,0.41547981946111623,0.05176061325534569,0.02278713241921571,0.05104611846581649
1.5,-10.110727995780996,0.13709343062613866,0.33103169709464,0.05306618036245086,0.02562750752708793,0.051890187458049665
1.5025,-9.96524827449176,0.10731020062626058,0.26132716180287086,0.05289026533507305,0.025135392764796823,0.05172313954691028
1.5050000000000001,-9.98455637802023,0.11655549209812878,0.3382871771674991,0.05003652821067481,0.015684804404733584,0.0489703472591895
1.5075,-10.139553863326356,0.1727679849081208,0.46359655842753705,0.050945689118399744,0.009958119534775515,0.04761588046522449
1.51,-10.060476729917086,0.219364632443505,0.20613255710616019,0.05282706950414566,0.010808098156397343,0.04872716506584296
1.5125,-9.820673703167849,0.20470860122931298,-0.07114158628841817,0.05045776973995276,0.013091666382978727,0.0504551147044917
1.5150000000000001,-9.774158657548345,-0.0010842987109294321,-0.15359223393651825,0.05299609750456047,0.00687330477441327,0.05649179209534194
1.5175,-9.85038795219993,0.06561689199805613,-0.12805495160160452,0.05484573813206864,0.00765243640034053,0.04860483774778039
1.52,-9.922820620327563,0.16272635475900893,-0.02419720217126667,0.05470348769302759,0.014370763547028648,0.04483832349087507
1.5225,-9.980575956388822,0.2599028729040105,0.24929531918346765,0.054704372170109206,0.023474790741190923,0.04874085712758184
1.5250000000000001,-10.011802553385024,0.1634116085364795,0.5208929504595917,0.05937529028854592,0.017104,0.05578520829669889
1.5275,-10.09059827354269,0.029145816329377013,0.4320521037264433,0.05564417246801562,0.012991273914863356,0.05342434764363776
1.53,-10.123379408086777,0.04869216954567034,0.18456601761986693,0.05400054715925174,0.006853465631190174,0.047848968659015875
1.5325,-9.87404954254546,0.17422918097123025,-0.18397107836133186,0.059390372943613275,0.01445820240276183,0.04871163170540846
1.5350000000000001,-9.662670056964634,0.3051516744494761,-0.15938227232003957,0.0591060352033499,0.01315480603108135,0.04959142313237039
1.5375,-9.873320978723411,0.3016421702127592,0.24863372340426504,0.050867731914893466,0.016186336170212905,0.04761903404255329
1.54,-9.941480416167511,0.18741136220177654,0.3220268461167483,0.05189816772208134,0.018690395920050767,0.048805143635786793
1.5425,-9.685518198660073,0.25992654472483623,-0.07013837158717706,0.05844473858031586,0.019071427315361312,0.05374323317913543
1.545,-9.858167767522726,0.2952565364257979,0.22249946962513129,0.05512399701813164,0.01770878588185254,0.05280655657999683
1.5475,-10.030315493626999,0.26835387500467633,0.4567201782286796,0.05298813533270861,0.015407670262417775,0.05319079411433947
1.55,-10.076005875865336,0.08012369679152656,0.3918090215900075,0.0558581391180655,0.013143934755808486,0.05506959127548596
1.5525,-9.898741663377757,0.050697977727161656,0.1481292006590759,0.059139721938454085,0.01639265845408285,0.05168036652289801
1.555,-9.783522006408624,0.2749376327664932,0.04990626136420419,0.05710837595812196,0.021008416002537993,0.048101044911167526
1.5575,-9.83340690778642,0.42865094775017876,0.18937587752530854,0.05774434234040293,0.017385222137908874,0.05622394508366205
1.56,-9.791652729924332,0.24627102777576082,0.11455350385377651,0.05953629759565175,0.014824966765426781,0.05869815084301402
1.5625,-9.729852103056565,0.08754325307413047,0.03616594894015693,0.060768924815552176,0.015798812975758286,0.059637819065464344
1.565,-9.739273902441996,0.05386096749458079,0.15394699771051515,0.060479395767841365,0.0242931873035241,0.057432528778999736
1.5675000000000001,-10.135265597936584,0.1898412348798335,0.31061769009964985,0.06357788309086038,0.009468,0.05217493706581387
1.57,-10.144619242308554,0.27702754928217643,0.22910983522941442,0.05760438059152663,0.009468,0.04910269041087122
1.5725,-10.090823194089362,0.3305873941831826,0.1554598659129821,0.054705732768851906,0.01542050347367196,0.048657964569016096
1.575,-9.915212550735825,0.28802612173703385,0.3121065158986725,0.05894258407720151,0.030222216308805967,0.05970967860072379
1.5775000000000001,-9.977971531908327,0.21694873276718585,0.346132743855249,0.05556222296743047,0.020370787869722067,0.05826077171531959
1.58,-10.214698618684256,0.1794749357043665,0.4892911104719396,0.054236984587501515,0.02258373210780329,0.05488558045898535
1.5825,-10.263515774282247,0.08272229041973195,0.4689343826704392,0.06082992580347763,0.029932,0.058618080938131895
1.585,-10.135699,-0.01076,0.343137,0.066432,0.02503277687385319,0.064294
1.5875000000000001,-10.095735588921139,0.06299190017421248,0.32941571624665816,0.06481065978399685,0.015990393427011883,0.057633909673671706
1.59,-9.969240448684625,0.32718759362916633,0.1783980247226534,0.060781,0.014487855397781252,0.044341052969889314
1.5925,-9.934611030604849,0.44203196734290223,-0.06834622194398804,0.06149627052012242,0.01265034853377262,0.05174120426453289
1.595,-10.006853235417356,0.4238942411397516,0.21877515133601128,0.06381313642941595,0.019537160945850004,0.05562180729013949
1.5975000000000001,-10.021304938458266,0.20934031788601284,0.40405498486640923,0.06267753035705835,0.02692107990541541,0.05732583627098615
1.6,-9.930139205025199,0.0961784954626781,0.34461584475522994,0.06195003348511953,0.02268938264758422,0.05691032740282961
1.6025,-9.840837590045275,0.13163055570516594,0.10832747360186236,0.062413394381892084,0.006414,0.053564038723157244
1.605,-9.952241307355258,0.153037,0.14086824485410224,0.063835,0.010382587392311187,0.051924
1.6075,-9.95815101220217,0.3216642896538192,0.21513160925726066,0.06582459168535665,0.013743241891760146,0.05207681426946204
1.61,-9.984802443100419,0.49662657456629067,0.2799804539869312,0.06463734913894607,0.015457492866465283,0.05339091933789602
1.6125,-9.771596823441397,0.469038439900246,-0.1353885004987581,0.05818080074812964,0.018928803241895185,0.05697539600997518
1.615,-9.834850449000161,0.23579959412696025,-0.3240954041802629,0.058681334233564794,0.015272,0.06276160686803424
1.6175,-10.164153456777663,0.024948337667987153,0.3730244498777264,0.06544626447348455,0.02036526401483832,0.06195990326616651
1.62,-10.291895953139939,0.04318563526345166,0.7606982822792483,0.0643561875705316,0.022205249024874484,0.058013545431137035
1.6225,-10.009704367900522,0.11126238708752273,0.3320998419559913,0.06217276701578184,0.015882,0.05303406482065987
1.625,-9.827327185365464,0.3012578281200128,-0.0432516119533993,0.06133463301947016,0.011853786865624003,0.051212621209703164
1.6275,-10.05213999301105,0.3956516979521295,0.22612267443774864,0.068875,0.00483220099722394,0.056352
1.6300000000000001,-10.114517990526375,0.37332696407060073,0.3860089585754015,0.068875,0.012967960104750808,0.056352
1.6325,-10.092007972375683,0.28216431400911934,0.32810298025940643,0.06669361600288229,0.016930858698053997,0.057200271914484846
1.635,-9.898873387985255,0.08126676586953041,-0.15235755340599427,0.06244336093284182,0.009438572264786019,0.05827779495111395
1.6375,-9.93853447157464,0.1439437370143105,-0.0077081607362030485,0.06621268834355826,0.009378734151329155,0.056721277709611384
1.6400000000000001,-10.012957291764707,0.2795742293109238,0.2497812875966436,0.06618827986554611,0.013224067159663982,0.05847777788235291
1.6425,-10.022716,0.270206,0.29862495493993135,0.064294,0.015336639264525652,0.057879
1.645,-9.955865904020875,0.2795826728122407,0.04846485160953368,0.0646026595658878,0.011553364303166806,0.058574749021468406
1.6475,-9.958758039044412,0.2726825528523332,-0.054754080606061566,0.06560074162257494,0.007178,0.05871231505852174
1.6500000000000001,-10.084080385175623,0.2938602853290318,0.17243216636255948,0.06638569705288658,0.007925928849414711,0.057917732628179217
1.6525,-10.115858165209422,0.334617543724037,0.3542759227032506,0.06523241883843699,0.011670275086237565,0.05737760322421682
1.655,-9.882563550150623,0.2772771207603708,-0.08841918262102362,0.0627692370132904,0.01415522831091413,0.05683629290052355
1.6575,-9.855039909090907,0.3479770100556564,-0.049601355992582766,0.0651451018923933,0.00925167302411868,0.05635278556586269
1.6600000000000001,-10.174879825106832,0.4913889064238123,0.5217355443922839,0.060486683418563704,0.00732656921891418,0.05768085077408072
1.6625,-10.1836620316871,0.3940519163105628,0.3395024623701045,0.056654147320490233,0.007233525697606535,0.060578666760070156
1.665,-10.168642731098412,0.25853128982856866,0.19925624152380841,0.05698074113015882,0.005538077942857085,0.06338416739047623
1.6675,-10.082194246696615,0.10751426510137178,0.08258619493505107,0.06211673451984946,0.004172150127473529,0.06445688513293679
1.67,-10.042181408851345,0.15718531461711419,0.12142119105854514,0.06318210270270262,0.007691623018018149,0.060427311509009075
1.6725,-10.178134523592297,0.2600669648895264,0.4227845054312084,0.06448604297932986,0.0053943723877407715,0.05759093863150374
1.675,-10.123944625548553,0.36166302275592616,0.3564026069257197,0.06290908960344693,0.008114778871778488,0.05645317406845933
1.6775,-9.890146659989444,0.23866145788662513,0.2994196809310683,0.06685436395228544,0.009546546555473476,0.06048696355747915
1.68,-9.710160853220737,0.24296291079066812,0.0019801899313913185,0.06575520215771143,0.002530949925050316,0.06082512461311094
1.6825,-9.670378076268907,0.26648318182986697,-0.1193382492563744,0.06374363426055897,-0.0029447784604402223,0.06018414933491952
1.685,-9.907853169004966,0.2741635429194017,0.10386267351385718,0.06301124424290991,-0.003054,0.05989195483416129
1.6875,-9.857972571342998,0.18137204396789267,-0.04424351922846532,0.06668361375344435,-0.0009920316281298671,0.06321622858512041
1.69,-9.758816827903697,0.17789495335895084,-0.12617151698219917,0.06450205988549924,0.007543114482001238,0.05976805896949272
1.6925000000000001,-9.723464326993748,0.24597538368601832,0.08650552991136855,0.06228180354178984,0.015113558704338828,0.05611050655633077
1.695,-9.875656,0.289335,0.485414,0.062614,0.014164727646079192,0.059101
1.6975,-10.269910274450345,0.2600869096024461,0.7799174914834465,0.0655490813133752,0.010824410807446746,0.061856194143462634
1.7,-9.947057555158544,0.16424000856269283,0.16548818505285712,0.06838443891839686,0.009277903256612506,0.06237150913675626
1.7025000000000001,-9.712771170525324,0.11903617582584601,-0.3240060156744006,0.07037726926644577,0.005872802158068626,0.06241082941788918
1.705,-9.810809160132406,0.2464763604854765,-0.1414938099889513,0.07107947146745135,0.004810709466715994,0.059715606355277555
1.7075,-9.959219204207724,0.34202664260985377,0.22697876756324978,0.07159817888149132,0.01365470498002668,0.05826305299600535
1.71,-10.042033876283023,0.3682383461444669,0.300429075662295,0.06912324370219844,0.018022140506188847,0.059387493545169104
1.7125000000000001,-10.117409674681447,0.47118440313482024,0.3882302453590596,0.06281532056299002,0.02223233717545423,0.06297598451778026
1.715,-10.043220560771976,0.29406411290504314,0.268590166728151,0.06665754631764154,0.01719490137228752,0.06741525626486126
1.7175,-10.01253340080446,0.1294022130167179,0.2298564723915703,0.06798715937969461,0.010678175119941721,0.06794793362733206
1.72,-9.921776620166796,0.1708194408872066,-0.026444460242502993,0.07146712947063348,0.01557312947063347,0.06320047537942866
1.7225000000000001,-9.840580977670783,0.15969673314248473,-0.036826026258946584,0.07118307682498373,0.015289076824983719,0.06140064835393614
1.725,-9.862254851053983,0.23296684969658965,0.0887019605397753,0.07224424568827861,0.017068500335356288,0.06011773639412327
1.7275,-10.122302018310586,0.3327304137882854,0.4336312972122519,0.07207440985491669,0.012374672623320806,0.06626790347555075
1.73,-10.17417356862547,0.29668948749059676,0.4669772535969906,0.07095596635142397,0.013063205601289625,0.06463277851477701
1.7325,-10.142860069236255,0.21823552324796766,0.3957145364281731,0.07124893977719063,0.013634467825887212,0.06504106823015944
1.735,-9.908283256142944,0.0840366928847389,0.08263953664519669,0.07494473106245982,0.012450127939471863,0.06664119019317424
1.7375,-9.779754055386103,0.13445898198983763,-0.102493861486328,0.0756437386589203,0.011019302590171962,0.06076165611232142
1.74,-9.849927518000314,0.3124818167646594,-0.02157161479641767,0.07516566515956609,0.013789188901116177,0.05969484474139286
1.7425,-9.804812695945605,0.2601884707413919,-0.14246250649966508,0.07830954787002842,0.019358866090680427,0.06653715650125804
1.745,-10.129959381009595,0.3843415306075745,0.38166495994435085,0.07616704233392207,0.017044600875756016,0.06353697518334124
1.7475,-10.17593739349089,0.408746079054539,0.3893229207999641,0.07435531876363634,0.008286898290908454,0.06515741727272763
1.75,-9.887976517994243,0.0915356542706334,-0.09743531897792707,0.07864352315259117,0.002784393953934741,0.07037419085892516
1.7525,-9.971068870239922,0.24418421872360518,0.04017455741362473,0.07739506864203458,0.010852491919385625,0.06403506087811914
1.7550000000000001,-10.009759542412276,0.2812475766605329,0.14691803800176137,0.07708809718807454,0.014781253351450635,0.062444875284150186
1.7575,-10.005943191021856,0.2533862150171373,0.19575044718251622,0.07796887544949793,0.016551112269344727,0.065134123354991
1.76,-10.069566135954462,0.47202144603864377,0.34863579443277615,0.0782439013132366,0.024507150613324778,0.06281314810230099
1.7625,-10.09777548262082,0.3810006665427629,0.45717318736060897,0.07633866054832729,0.023713948141263902,0.0697483216542747
1.7650000000000001,-10.167464201982149,0.3206758836982483,0.3078533078818383,0.07702145592426163,0.014521955896697837,0.07095005747018977
1.7675,-10.173972425483628,0.2920072355490793,0.26535678554181286,0.07826685573818169,0.008151417047273086,0.06908441122909102
1.77,-9.85925996718119,0.09589263671020398,-0.06276920734901018,0.07784572051927495,0.014664513702208492,0.07011663974036253
1.7725,-9.688794950388253,0.19654101568181565,-0.24293863501421756,0.08198857370738634,0.015167494592802934,0.06668850540719708
1.7750000000000001,-9.920446653194567,0.34499421337070235,0.34524265357887085,0.08296876608486788,0.019798592554043322,0.06423815903923158
1.7775,-10.140686797773025,0.4419885156602446,0.5481799691791702,0.08196935478943601,0.017151118957886687,0.06662225694503923
1.78,-10.104770936806908,0.4749363767216425,0.4284551455761163,0.07815858287894083,0.011520499082239523,0.06830390293279485
1.7825,-9.809296501694092,0.3525323676538718,-0.19362986634978138,0.07934166303473486,0.00951772626447299,0.07268598851919557
1.7850000000000001,-9.63859848316626,0.20243595413757168,-0.5377051203456633,0.08396091163498119,0.006513944085724783,0.07257554361562348
1.7875,-9.751281203995322,0.2464778635017733,-0.298755239670935,0.08524916357226768,0.014966,0.06598646542890708
1.79,-10.060416845336672,0.4689070977137504,0.308178766639522,0.081398,0.020849161534607155,0.06460213884121517
1.7925,-9.741936177052938,0.5206165539914177,-0.026748111931322427,0.07386789169289487,0.01866959395326706,0.06821740543633752
1.795,-9.853482530062822,0.5580153986296504,0.1352551328056657,0.07324767261558289,0.01976481846104276,0.06792092791279603
1.7975,-9.76731699355443,0.3010791961851234,-0.0077603317481819215,0.08008053460370977,0.008552,0.07571223679969985
1.8,-9.732782,0.319225,-0.231946,0.075595,0.008578502023718359,0.06689
1.8025,-9.732782,0.319225,-0.231946,0.075595,0.016704053492241404,0.06689
1.805,-9.635378193724389,0.38378036421201,-0.19966855680565582,0.07493799293286223,0.022488743180211962,0.06754652924381621
1.8075,-9.843354985175742,0.5895757899041634,0.15840860644091842,0.07650853357188515,0.023366,0.06671365628115004
1.81,-10.301912297615484,0.4988254321257427,0.8507377238597533,0.07361221879564661,0.02262357306892378,0.0714385676130596
1.8125,-10.064503000540768,0.3903119927897615,0.3416449617857358,0.07393236784233612,0.023458035931022053,0.07171932277834524
1.815,-9.918698,0.32879,0.027499,0.07422,0.022601962456084895,0.071777
1.8175000000000001,-9.873607349658005,0.29982459702157943,-0.03610560123212751,0.07463959660441435,0.0200438165510551,0.0713191901333979
1.82,-9.89787559730179,0.28398474024310183,0.006820931124541296,0.07706280936971753,0.020617,0.06598006591644506
1.8225,-10.18690292850416,0.5383395685089198,0.49176215167181997,0.07943160599762188,0.02584971905350781,0.05977690455172416
1.825,-10.090420253291686,0.7980525092229618,0.507742315361191,0.07764811447090988,0.03506700670050779,0.06577106961343214
1.8275000000000001,-9.931268733333324,0.6633688661993317,0.21281029516852384,0.07156687424120678,0.024427577344528956,0.07137204334428636
1.83,-9.977245628826,0.41272301593313077,0.02344236099346611,0.06934860294252171,0.018130937412284272,0.07406087564771749
1.8325,-10.192165090936049,0.06607711173308208,0.21259013353104395,0.08086645671918462,0.021228,0.07558315010194622
1.835,-10.145008181823455,0.08990014715968571,0.19234083078001196,0.0815810871608967,0.021073440696030454,0.06634589625037778
1.8375000000000001,-10.178144,0.34908763248770525,0.33640427036192677,0.07699564112059633,0.024587511073705354,0.057273570830828235
1.84,-10.075569837237843,0.6940982757033269,0.4253222470588161,0.08015028654731483,0.030830514987212024,0.06149360562659893
1.8425,-10.139609684971445,0.5453997045453699,0.3134219922037878,0.07460967996011234,0.014661,0.07094707881787687
1.845,-10.297015857046505,0.33060084535944384,0.17135900317287797,0.06778647396972177,0.014661,0.06891475582993385
1.8475000000000001,-10.078073523686976,0.2157574987037862,-0.16703255393184857,0.07679230634661599,0.019183149015842796,0.07123046588574185
1.85,-9.808119233623176,0.2838963356521863,-0.26701455729467616,0.08140770879227044,0.02501775864734327,0.06580760714975782
1.8525,-9.799340498789254,0.6002564438200106,0.17604107545484762,0.07518332626740033,0.0281,0.058562175357720944
1.855,-9.919893,0.769966,0.494978,0.07025,0.024348150745286866,0.058338
1.8575,-9.930309896117112,0.7009758448379311,0.3470932685116944,0.07077333005228297,0.015031904872778279,0.0613480047821537
1.86,-9.873810937789827,0.42914897723129997,-0.1799505360504417,0.07192349465251734,0.00886350534748266,0.06929791164765024
1.8625,-9.75057173790052,0.39676732094684575,-0.3861473438929408,0.07530316271258732,0.021004217337527255,0.06572620617369522
1.865,-9.90496738431732,0.3549936675907662,-0.0599785466823064,0.07607183147624887,0.017162550614703856,0.06888529503438715
1.8675,-10.023911,0.322812,0.191296,0.076664,0.01437127557286891,0.071319
1.87,-10.172635503439114,0.4375883315751158,0.3125387466039244,0.07434075533230519,0.016826275897103192,0.0692540063036596
1.8725,-10.304174404105472,0.6087922897505295,0.390589468880954,0.07038232538845338,0.019882011917319944,0.06664599692088397
1.875,-9.844126006093274,0.42433209710178893,-0.1375708047027576,0.0718242597453324,0.012894705569877353,0.07087418967268182
1.8775,-10.01536741209344,0.18947828579877626,-0.006272168221305441,0.07010882569384852,0.003971,0.06798856810681968
1.8800000000000001,-10.154370981411045,0.2346627992366351,0.14055525938044675,0.07182559999351254,0.010194299583716567,0.06648963340433578
1.8825,-10.161332189432512,0.305946015021463,0.20061912893657072,0.07485198439675744,0.014429093829279867,0.06527332025751073
1.885,-10.23006375108926,0.5061321148480029,0.3388571006689295,0.0751277655231632,0.016825703430510364,0.0630814153784364
1.8875,-10.193914771422806,0.5215091555488274,0.35526389669797404,0.07496950568514589,0.01781806763606991,0.0663557464000806
1.8900000000000001,-10.003687686348403,0.348235597345052,0.1445766777889343,0.07595768728643221,0.015346763810720112,0.07189211097989955
1.8925,-9.905256787557894,0.22262371041578718,-0.05882500778947837,0.07656933872105258,0.01205804377894725,0.0716735003578945
1.895,-9.988741934110402,0.26338409528863765,0.051975438685938874,0.07388878362473345,0.01175385775250734,0.06474958814814812
1.8975,-10.176412273834675,0.46535731927713386,0.4044902420613289,0.07342457159379717,0.015170675070537522,0.062193739703859045
1.9000000000000001,-9.871157500258626,0.5873311989184055,0.25179867072651824,0.07498369781330824,0.01069,0.06965287491182719
1.9025,-9.586700133355269,0.49189796233246813,-0.26884717339291575,0.07488939254173524,0.01069,0.07398290453797333
1.905,-9.547275025244506,0.3450638559501124,-0.42885983548407813,0.07508130716114211,0.005386371302920757,0.07496263208401702
1.9075,-9.951699836943465,0.22332291320077688,0.03649558512280056,0.0779818915399609,-0.003111108460039103,0.07027755423001955
1.9100000000000001,-10.271447889592734,0.4408184019909537,0.3750290066968039,0.08493616090497706,0.007925002714932773,0.06669398117647073
1.9125,-9.90435,0.489,-0.025108,0.080481,0.018276756574331907,0.06857
1.915,-9.87165822308564,0.47391156847633437,0.07632148405778941,0.0810699399632852,0.02134877499241757,0.07199601801261087
1.9175,-9.848751267057033,0.3767281659351234,0.2620900674270993,0.08132090143108095,0.014319572226256187,0.07699895232228603
1.92,-10.03726855641943,0.28274332347825476,0.23244317626598635,0.07826825749360619,0.0021294139130432566,0.06926225749360643
1.9225,-10.054423013242342,0.4214097045745008,0.06440536155114493,0.07765951138240593,0.013183269673250442,0.06426736463913879
1.925,-9.647566394509804,0.3966008203921593,-0.263032,0.080329,0.02405350588235284,0.072388
1.9275,-9.780815352080124,0.5443269806473672,0.03655350653474554,0.08037339060950287,0.01961092673751069,0.07167424572615122
1.93,-10.079558871841677,0.5501041286612395,0.64965154867521,0.07992522177415602,0.021284718761350303,0.07233417394179265
1.9325,-9.953730323496464,0.34606622277003046,0.22788703084906903,0.08041197494343245,0.020962929822554967,0.07738578496605947
1.935,-9.65528085492061,0.3278808690062097,-0.37323825917949566,0.08273606982187466,0.011301,0.07626811753365018
1.9375,-9.732554543288229,0.4639696774039037,-0.2770918588193031,0.0807699021674051,0.013818161537540414,0.06904509783259491
1.94,-9.818741375643716,0.5702549713893135,0.10361553524543965,0.08157156084594017,0.02006959280333435,0.06705235598024081
1.9425000000000001,-9.89300749102698,0.7367478489996394,0.3436543436409815,0.07667612793516335,0.021561846319100287,0.06856343603241832
1.945,-10.069027284821427,0.5891900479391817,0.3791125304150538,0.073509278692085,0.016035,0.07689242960424719
1.9475,-9.967680541964285,0.29044330631756654,0.21196536624517312,0.07602064857625483,0.016035,0.08056396381274132
1.95,-9.885609064115132,0.12143032902372625,-0.02281433197976873,0.0773720866277713,0.0140617077090627,0.07850903421236889
1.9525000000000001,-9.913779485242387,0.2095839392651319,-0.08740940888086604,0.07760228872770804,0.01451676203949823,0.06866326858647458
1.955,-10.089637076232231,0.5511704854541138,0.3995081815369774,0.07908626239460374,0.02755078145988933,0.06582056864370059
1.9575,-10.021912682534717,0.6823472457649655,0.3355315850297578,0.08073382924495275,0.02976652662387671,0.07443864413117053
1.96,-9.87771278888512,0.5227111759107465,0.17338259299539552,0.08200085959091277,0.025045,0.07890747955048909
1.9625000000000001,-9.693827984542205,0.3285204879429039,-0.14404966739598277,0.0809937456837097,0.024069811605231646,0.08149119143876346
1.965,-9.635298870102805,0.151662869179449,-0.19725219137961164,0.0817033896050496,0.016358499123534855,0.07069322047249763
1.9675,-9.920926938305984,0.4033778400721398,0.10420316554253403,0.081799832122633,0.020690217952509818,0.06703470823684998
1.97,-10.005558643561361,0.5011952698255966,0.16886685215258707,0.08238849579995221,0.026301615127817077,0.06820603191208083
1.9725000000000001,-9.840343802818358,0.4495831377048473,-0.014427434491602924,0.0838178181490623,0.03159189936327727,0.07419901578973341
1.975,-9.947905350453825,0.3350357074212496,0.062469495034709256,0.09003460523224767,0.023350832140950198,0.0776988239188466
1.9775,-10.155029123974614,0.3417288780684583,0.21939324461766846,0.08832461209942455,0.019171332737735008,0.07304408451800433
1.98,-10.21257245426506,0.40461826981526006,0.26305868861962206,0.0880688142375215,0.0237905491543315,0.07159387730579458
1.9825000000000002,-9.974259165893622,0.4869986479102321,-0.015100569419441517,0.08888487364449506,0.03117719123109458,0.07245820219222635
1.985,-9.820512761988105,0.5471428194364464,-0.12851956106448578,0.08736902634627411,0.029761189649342306,0.07132216544771439
1.9875,-9.927815842668306,0.6152813020073444,0.1741660278335456,0.0833523505018359,0.024845226829865306,0.069639
1.99,-10.102112829590347,0.597567772461099,0.303271666430614,0.08215644833915528,0.02382686237535725,0.07298012395998728
1.9925,-9.97026582170747,0.4715618876479445,-0.12193851329884267,0.08283054106859723,0.025198,0.0786582568447662
1.995,-9.678538819027274,0.3477642894906391,-0.48000044584290535,0.08003113437397325,0.026722781130463523,0.07699126962865584
1.9975,-9.65669202841399,0.4546260488731915,-0.1562445326927974,0.08385120458730722,0.03201359114093981,0.07591940917461444
2.0,-9.923463984186839,0.4166313322588493,0.31962699355309576,0.08399475209828489,0.03206205863033694,0.07895299720228682
2.0025,-9.9036391249629,0.3750754018756851,0.09126293125411022,0.0848710101106921,0.02280969236832522,0.07778465318574385
2.005,-9.982443480143514,0.21687672194701132,-0.05894291291993364,0.08667563832326723,0.01774157998206037,0.07519230865275384
2.0075,-9.995562123372599,0.39904728575493664,0.011526686381625587,0.08964398059678269,0.023966069578424527,0.07184085333971199
2.0100000000000002,-9.899087786610536,0.5205126189376776,0.03931451996188706,0.09126907677014688,0.028703092449384935,0.07204083883445857
2.0125,-9.777743837872805,0.5782768770069343,0.23691341910208225,0.08461195611972241,0.027913444671298034,0.07650954027792657
2.015,-9.890983881075368,0.3839602201261261,0.20609111323783919,0.08949055263495481,0.01755714541742332,0.08113145704543048
2.0175,-9.89793914042402,0.16913158409893206,0.004616935236728764,0.09460971906713798,0.009774,0.08273033570318
2.02,-9.769281227920684,0.23449842549102953,-0.31945000487812397,0.09596351566737202,0.011811471745434628,0.07364970216161133
2.0225,-9.811313061823233,0.658577514521053,-0.1189234931235578,0.09102444794076826,0.017768267376214567,0.06744247046737606
2.025,-9.641004370718326,0.718481779176758,-0.12195845178368145,0.08936276093623868,0.024129,0.07756398892655335
2.0275,-9.534313,0.661765,-0.454328,0.094226,0.02202654951078755,0.084758
2.0300000000000002,-10.218618468939434,0.30254245956597997,0.23478247057750948,0.0895822470773542,0.022011754413720917,0.08135635682884118
2.0325,-10.087707346017957,0.3193635956201157,0.03987774900010141,0.09285178314082397,0.024347224701901947,0.07874011627814703
2.035,-9.942606775930983,0.3851105012775951,-0.10596419796083781,0.0930974212340688,0.02773513821572921,0.07557816259247724
2.0375,-9.699903,0.398135,-0.094452,0.088881,0.03141588461132779,0.077427
2.04,-9.699903,0.398135,-0.094452,0.088881,0.027868466068980018,0.077427
2.0425,-9.886976619204916,0.45368177338381255,0.05932348164694211,0.08911291750118315,0.023923896620918164,0.07835492318977753
2.045,-10.394255356165202,0.5632935116394044,0.4027327687907641,0.08797396942683916,0.022658717844640054,0.0797068214529231
2.0475,-10.121740069771063,0.4581972428133791,0.003594160708309868,0.0901475470993243,0.026009714383132827,0.08027527354966214
2.05,-9.821773365495929,0.43574597692856126,-0.26913407111710497,0.09432486807262352,0.02708059611511934,0.08158975658447648
2.0525,-10.089528782611232,0.6379494386981571,0.3949166667685277,0.09055881702942596,0.02396758055409093,0.07895368960568076
2.055,-10.215982907833673,0.6645888760944662,0.4967541603055636,0.08995581108827798,0.021641861662273238,0.07886794881704233
2.0575,-9.862360215220013,0.593487479667062,-0.25489204756229655,0.08988452196797786,0.019881811706075746,0.0795073765878485
2.06,-9.74139261421058,0.7443646798451946,-0.3010856506499851,0.08776202002332728,0.020815757035309107,0.07763948592938179
2.0625,-9.746001777074543,0.8585293030942335,-0.12313340365682138,0.0874386111111111,0.021533,0.08134418495077356
2.065,-9.95119053539074,0.6637126630643946,0.23868532899884823,0.08850236874781245,0.02017746533341383,0.08968153639007895
2.0675,-10.121629010907382,0.43151059723106666,0.345829857380743,0.08793312000000011,0.01650698282507058,0.09115454565014078
2.07,-10.118481634657563,0.3546715808861589,-0.013874990775567697,0.08594501378410635,0.01056943561212318,0.08123524698114765
2.0725000000000002,-9.863778756972707,0.5812743679164787,-0.28997661892975446,0.08424914647939608,0.011106833615786831,0.074373
2.075,-9.783642741917498,0.947252355581075,-0.11610166518493326,0.0832885131304849,0.013905374657590449,0.07791656247027044
2.0775,-9.898637146440052,0.8605168848677741,0.06657590658642008,0.0834150611614727,0.012389513295561485,0.0851961506893297
2.08,-10.126685215212778,0.4983763219192905,0.2615503489719181,0.08116123604813984,0.01017819605128621,0.08667524026429638
2.0825,-10.167317145635128,0.32619416171054005,0.13844782472467745,0.08693214608115882,0.012927245485687988,0.08553728716864005
2.085,-9.962337,0.205643,-0.161406,0.091935,0.010345993033992123,0.083536
2.0875,-9.978419558768769,0.33902531532826097,-0.0805504174755023,0.09042744522775255,0.007687129030656762,0.08289526454015154
2.09,-9.995107276171241,0.6533312267949459,0.08023964532949693,0.08750342955266933,0.004581,0.0829408084014748
2.0925000000000002,-9.964067858585823,0.49728944486083704,-0.037648052085734816,0.0902094206277388,0.0040979379983416145,0.08571133927750761
2.095,-10.1147283333086,0.5873346205429341,0.1395271031183443,0.0867243509048719,0.0067840276148499,0.0816346728306261
2.0975,-10.046456972413523,0.4913036051246123,-0.14437593780347396,0.08542790384156193,0.00856888059888184,0.08014053792855119
2.1,-9.900335974206381,0.5474356579929898,-0.2453544127167666,0.09051130649104538,0.00864489316781958,0.08135425496067474
2.1025,-9.764470628912013,0.5803433983065271,-0.29045685724692294,0.09397623248817405,0.009259767511825959,0.08215545792809838
2.105,-9.768751797463334,0.560411804339205,-0.047302376855389655,0.0924459504104875,0.010367138467841057,0.08011760241540355
2.1075,-9.926833189107402,0.6174233158307775,0.282851066457972,0.09289313836452304,0.008556974848588065,0.07707853668594761
2.11,-9.859760796243592,0.733750527747334,0.09016232515855416,0.09201404680942718,0.006718835205168025,0.07933256800574201
2.1125,-9.633153839347447,0.7584498355031508,-0.34052360596025416,0.08986677090938464,0.0032148068324992568,0.0828687049103536
2.115,-9.629329654761268,0.6584667350939589,-0.22504094298644203,0.08868503588258801,0.005037044357355382,0.08652232319283423
2.1175,-9.705089211597418,0.27383048831553686,0.11272948753199695,0.09122478972167238,0.002443,0.08596273870465598
2.12,-9.762969057654665,0.4482971580635875,0.2549483995277728,0.08763409812953421,0.002443,0.07983670901991795
2.1225,-9.728012576463748,0.7026164529759473,0.0371417871209328,0.08635753301469402,0.0021426176005167013,0.07644720975617629
2.125,-9.677577004608295,0.9000790046082949,-0.22676729953917052,0.08648645929339478,0.001677179723502304,0.07875723502304147
2.1275,-9.706581669172065,0.8162949868394629,-0.1975769712886956,0.086285,0.005660128869690011,0.08715907144708401
2.13,-9.794338041442202,0.4107641202808813,-0.04986314194558042,0.08913786839289913,0.017552574576725762,0.09397293195108472
2.1325,-9.921644672152535,0.17539303265619038,0.28411476365991173,0.09408694084182764,0.018102350113922777,0.09137211262741465
2.1350000000000002,-9.963555826679038,0.3728621038936913,0.17632207902926866,0.09257882019321416,0.01300960561403446,0.07721119551742738
2.1375,-10.02910002060485,0.7443310301669159,-0.010882725661935547,0.09064298652277555,0.008994573120843839,0.07386146831472008
2.14,-10.084887,0.899091,0.025108,0.089034,0.01632849853572886,0.078343
2.1425,-10.078691858881646,0.7544287552109601,0.19639207051803112,0.08929055541680964,0.02109944220926242,0.08120880242881681
2.145,-10.089589101428805,0.4296829644858599,0.5426798828510692,0.08932220723884256,0.019200031839136805,0.08501853517083531
2.1475,-10.09573006120815,0.520086,0.21547086173283603,0.08918971259003561,0.014771951950293493,0.08012177027729823
2.15,-9.907664860571835,0.6269986798134706,-0.36963021909440685,0.09815197459811051,0.0060419502761069116,0.0814307439194991
2.1525,-10.178891437798175,0.66057428440368,0.45128455596331196,0.09105560403669735,0.019669014311926383,0.08653778238532103
2.1550000000000002,-9.990813894879675,0.47973107489467937,0.2885256674052114,0.08920784504760237,0.023549671206508957,0.08764619576712261
2.1575,-9.928236357267359,0.6146349485327713,0.052060303362852695,0.09001041499753838,0.014879802516000568,0.0827882453520426
2.16,-9.80090429217877,0.670293178440957,-0.2801101467984456,0.08772172624563505,0.010668651404557476,0.08540003600118391
2.1625,-10.096236544930465,0.6391269799112151,-0.007039109772112251,0.09217670021899986,0.009152421059485001,0.08767531248298321
2.165,-10.309944436443878,0.527647970732328,0.2830128681292018,0.09380561331627756,0.011702516878797692,0.0894980226926767
2.1675,-10.363170280898457,0.31873402354702945,0.4784535319045409,0.09461499678053337,0.01643318242395889,0.08655283683668707
2.17,-10.109313650216647,0.43910898306935586,0.09716810060077635,0.09579883696340803,0.016847430897505834,0.07863672411432747
2.1725,-9.933402808572735,0.7468180281899569,-0.09154371747293522,0.0951034019183766,0.018194822282684077,0.07546331357620455
2.1750000000000003,-9.985227340896948,1.1064261650181622,0.08974201890905115,0.09438951054545387,0.009144850593937614,0.08454417432727449
2.1775,-10.04281718814958,0.8539053199745175,0.12489696443598328,0.09012788182020659,0.002749,0.09141605960540979
2.18,-10.006095317725636,0.5171959249605055,-0.04345842364036717,0.08934177074019005,0.012552564644778984,0.09178203871410592
2.1825,-9.950077707828045,0.5337482956442406,-0.04258593630358237,0.100793,0.010059087701156533,0.088423
2.185,-9.945989100786242,0.6987741999715422,0.07337792701571545,0.100793,0.016895815656092647,0.088423
2.1875,-10.05598772876494,0.84533512812749,0.10735879203187251,0.09977737067729084,0.015721235537848606,0.08857897529880478
2.19,-10.079111475569745,0.776328884787751,-0.002012963715283783,0.09848877113309928,0.014664679706351606,0.09031983915735708
2.1925,-9.881909686315286,0.4978949392373088,-0.2131735509254262,0.09831893090114154,0.018306804216662857,0.09339547408307018
2.195,-9.940138498314212,0.48227037867211003,0.07479102672102794,0.0967952153194165,0.017687396785433622,0.09093746960916693
2.1975000000000002,-10.174374796033524,0.5192948513665776,0.486210226127188,0.09373631538233913,0.020084570478538784,0.08712956740009908
2.2,-10.004835213338085,0.6322313110675255,-0.23702081604849934,0.09429565659771777,0.007266610187827665,0.08566529114360434
2.2025,-9.954908187032808,0.6739605721992412,-0.1975271957346628,0.09734153802425123,0.017831524462672898,0.08528447805753683
2.205,-9.919277784171577,0.62817488454395,-0.0218789882630111,0.09990264177233095,0.025028970586849,0.08864241065284022
2.2075,-9.780206762622848,0.5440966544477802,-0.04152682070469217,0.09514830029388531,0.023671,0.08460537131932375
2.21,-9.825436301688523,0.5665460221203978,0.03110420116079319,0.0965819671691157,0.023671,0.0846898670943277
2.2125,-9.861907,0.584648,0.08967,0.097738,0.022668200273597994,0.084758
2.215,-9.894330936898607,0.5618722143139255,0.10517011766124534,0.09895030266154285,0.018811277904818326,0.08576789944546247
2.2175000000000002,-9.97030015961455,0.5085085916074437,0.14148686397162644,0.10179072550044367,0.01672900371977514,0.08813409193260444
2.22,-9.959788040705748,0.6615251129056081,0.1270788445920817,0.10640378272227365,0.021340022612281764,0.08148195654445473
2.2225,-9.74370025368017,0.7691140098755205,-0.10637772688158764,0.10647753599744629,0.018479,0.08426902823491883
2.225,-9.647987003619246,0.7353229550596398,-0.2621875756552885,0.10333443951959745,0.01540330145256809,0.0868464480727096
2.2275,-9.750151399157371,0.6193222968803953,-0.30307507923562826,0.10312829223437325,0.009396723356739961,0.08727301197651663
2.23,-10.088604585662123,0.6013709949111935,0.14416428587525876,0.10568443309706732,0.016290402884758245,0.08653106287980175
2.2325,-9.985950315248333,0.6843180480085888,0.11619352730181037,0.1052966871060173,0.027288097464183626,0.08502384355300865
2.235,-9.781463390327014,0.7997913839665935,-0.04563443403353895,0.10099851148057701,0.022449,0.08582880577732228
2.2375000000000003,-9.711528806432117,0.7097339057562135,-0.34922012127702884,0.097586,0.019437925938008378,0.089339
2.24,-9.980566958056523,0.5601852605779537,0.03379874445221435,0.10039246809780941,0.01664784069863554,0.08913105044776115
2.2425,-9.975659159848025,0.5395033508430455,0.1748614368368784,0.1040954312894794,0.02642,0.08707026049869339
2.245,-10.014057097123208,0.7329533011849417,0.2487800843463517,0.10108049863596406,0.025022102899176314,0.081640988662349
2.2475,-9.986819756210224,0.8414964978543887,-0.05271906029412127,0.10622330784474458,0.019886492328832932,0.08355620725168789
2.25,-10.122069546891213,0.8060243331470988,-0.06436117232021708,0.11060921111022427,0.01473725037912044,0.09142561704844761
2.2525,-10.228624611431291,0.7185986728947026,0.2097302669934455,0.1101166693634743,0.022009228839975768,0.08835458339559799
2.255,-10.140757238954931,0.7568083663827837,0.4230076929153096,0.10591620389642792,0.03359117094369055,0.08649280829511763
2.2575,-9.849700961630004,0.7036532517260595,0.024830168938165254,0.10802179395207379,0.029646434185623346,0.08781397146332606
2.2600000000000002,-9.727154380659169,0.8353350498646847,-0.4546310920999291,0.10763646610412313,0.017015669619486883,0.0843728170737145
2.2625,-10.075087555665272,0.8979098103551912,0.04044377346177983,0.1053786576038535,0.01605061114991064,0.08680540739313714
2.265,-10.165435985400416,0.704216411020531,0.2376578475051881,0.1079819185798439,0.02220075434803358,0.08996191857984391
2.2675,-10.181607685072343,0.6722930530384758,0.3466343568521221,0.10646930141865657,0.020368142491471692,0.08749939491353942
2.27,-10.149448,0.870397,0.082496,0.105374,0.018187200702758494,0.083994
2.2725,-10.057121211253277,0.8730070053032103,-0.0496327556622982,0.10533252370035671,0.011357044627823946,0.08374405072057077
2.275,-9.873722391763186,0.8715554855855863,-0.2558686936615311,0.10516821124517374,0.014355,0.08415166573359065
2.2775,-9.971455736998589,0.8827236805285447,0.031276350608773276,0.10428271335063728,0.016146097489381343,0.08534571335063729
2.2800000000000002,-9.974843966112017,1.0135051217058406,0.1490351997296598,0.10215659261667198,0.020998402822658604,0.08420039370131979
2.2825,-9.97349217121195,1.0363590855451261,0.14767470657927337,0.10119413651380418,0.02017215666354653,0.0879889297005155
2.285,-9.869999801697922,0.7556458881456162,-0.12331393033926513,0.09993779203408217,0.012301140055770158,0.09193818739891535
2.2875,-10.08590758755125,0.6784071044601866,-0.003072684855256986,0.10052588977512732,0.006825292185365116,0.08781486905205599
2.29,-10.064461440495618,0.8449461408665484,0.05859444244021742,0.09943246657090993,0.014936404981453728,0.085063
2.2925,-9.964971899604839,1.027987996120224,0.025802992144653685,0.09709458556340561,0.015936206437552385,0.0853519052185367
2.295,-9.838143185646576,1.0300901150055726,-0.08003305184030017,0.09645126854143458,0.013879436977891063,0.0892788933354539
2.2975,-9.736272943798198,0.7919313959932286,-0.15878513797721575,0.100114478127577,0.008540708319185165,0.09437409355323811
2.3000000000000003,-9.843467409118547,0.5763767600654686,-0.02041805503858552,0.100335,0.009979580360066118,0.08990558826280041
2.3025,-9.850525677372667,0.6018349879714568,-0.1551027891036986,0.10151227916777597,0.013798168341598716,0.0854900350356841
2.305,-9.678409652835102,0.724994482213403,-0.4147408641310274,0.10401224889807589,0.014052378667515172,0.08373557176657624
2.3075,-9.654382081250013,0.9187839400000033,-0.28815391124996403,0.10279837125000003,0.020783357500000207,0.08238417375000048
2.31,-9.74706537103637,0.8867142376212862,-0.10006814998511748,0.09715486600869105,0.025051817098636547,0.08980344727900472
2.3125,-9.794454464730043,0.8494001872135246,-0.0679785659860706,0.09953739746413477,0.012088024644324066,0.0903752048931484
2.315,-9.803226206468384,0.8212190866087237,-0.12694582635834056,0.09943001034367283,0.010751036781755513,0.09081769440714456
2.3175,-9.771106825003642,0.6832995314478463,-0.2462479368782009,0.09950542780452247,0.017516074897884412,0.08878070939824978
2.32,-9.866549420948207,0.7295915614405514,-0.016498128329701045,0.09454170917578442,0.025545788450035953,0.08118885854485824
2.3225000000000002,-9.8361221366435,0.8862146649283711,-0.046997934815820624,0.09771269434844138,0.023904210001844724,0.08151131225877872
2.325,-9.80983276805557,1.0250978708333254,-0.001100754166658774,0.10164515416666627,0.018190820833333444,0.0885720347222222
2.3275,-10.009972011784813,0.911017522634094,0.10997648843870285,0.09614866742337137,0.019725016082375556,0.08831675400702425
2.33,-10.091170466697866,0.6919823722750111,0.13400656141588685,0.0952206233477322,0.02212471936405095,0.09023198654667633
2.3325,-10.036885161075187,0.482636784525971,-0.02309541035961271,0.09630836444605888,0.02258673548855789,0.0893560710207046
2.335,-9.98756565759962,0.9739740103410311,0.0635877125954303,0.09609022534162977,0.023835737389015118,0.07558116571257621
2.3375,-9.890806070647365,0.999476979693669,-0.02979665664711885,0.09714356930716761,0.029392926696182646,0.08027572967572079
2.34,-9.907524355102032,0.9574944588443266,-0.05388168474470621,0.09839276611775737,0.02843751548674696,0.08647102468683979
2.3425000000000002,-10.101677040347353,0.8057532453255919,0.019817938871211385,0.09831961134587497,0.01961490998552755,0.0919756728219967
2.345,-10.338025264185696,0.6835532891003994,0.1710892434177286,0.09445933806059653,0.01573,0.0864089764623407
2.3475,-10.39047613139248,0.6846208705062464,0.24530759087043452,0.09525781413135902,0.01678397034357199,0.08263224346242629
2.35,-10.108662136126975,0.6232767007619047,-0.15315544514286655,0.10133161536507944,0.017847556888888717,0.088864163047619
2.3525,-9.955376987476594,0.6451836596206498,-0.2743740255942319,0.1019042375894357,0.014666111231692718,0.08739003456422566
2.355,-10.118489445148859,0.7735311455200179,0.10322253707336097,0.10001419310747847,0.01756017958145777,0.08598599323698965
2.3575,-10.247528257727492,0.8650533627202737,0.38349254866634347,0.101464379046702,0.01736513012999552,0.08714144038998545
2.36,-10.103708716097502,0.7377829738249777,0.12229848612125804,0.09776475105238207,0.008890161341984686,0.08975742836841269
2.3625000000000003,-9.785780231169728,0.636994221463062,-0.4984000560254678,0.09281474117092745,0.005237786241017506,0.08960915471786987
2.365,-9.659411598279782,0.5805811793573681,-0.6084130666993663,0.09690217519090878,0.006577604365955973,0.08807656156324101
2.3675,-9.769381113336493,0.6174020953228619,-0.43635250206617626,0.10320902572434908,0.01040929282460627,0.08750117823432702
2.37,-10.04759012675975,0.8458684559525039,0.05692326023432891,0.10564787268175219,0.011063368791526706,0.0838161572845449
2.3725,-9.984920925452805,0.9442434637130556,0.2084353607530851,0.10074793398951393,0.019530743079122986,0.08461709721639682
2.375,-9.677452711897624,0.7539615119898548,-0.40620218445930356,0.10402576712012912,0.014449173391745444,0.09109119610329722
2.3775,-9.752625235068487,0.6773462395401179,-0.4586068037573451,0.104458,0.005800147847358255,0.08879008270058716
2.38,-10.334178632812947,0.9219448800048438,0.5417011807715246,0.10491350168231092,0.021254847715133352,0.08556096490522593
2.3825,-10.057068945676757,0.9432021501410995,0.2778769699703433,0.10452551649730517,0.025424259703263827,0.09176745786471226
2.3850000000000002,-9.824054178154123,0.9025096271550791,-0.034685459029530546,0.10085233342530849,0.022532998858229132,0.09392484294957154
2.3875,-9.733484304500013,0.7785557454545362,-0.3904121109091112,0.095850084636364,0.01396683968181844,0.08839543863636268
2.39,-9.799650569294071,0.8101112238397444,-0.34162423215737386,0.09822107661728552,0.019945835065075596,0.08792536045582691
2.3925,-9.813283538693634,0.8487261640118957,-0.2515899459892933,0.09977991332302204,0.025838542491374288,0.09132817165972654
2.395,-10.063957238027397,0.7666728952328765,0.0574955196712347,0.09836527989041097,0.02811780569863018,0.09473552043835619
2.3975,-10.168865424481238,0.7349389510470523,0.3136072411816521,0.09893796850982726,0.034126352271590145,0.09654788943895173
2.4,-10.172991855103323,0.7111028935504075,0.42886535097057243,0.10060469073262356,0.034301917188478664,0.09683636123982474
2.4025,-9.802089896168994,0.644820685640887,-0.08079072679793624,0.09914069672522673,0.02818562097553252,0.09268477417759152
2.4050000000000002,-9.797763914932327,0.6894028357688066,-0.15864224941352081,0.10228514468446505,0.020535986072925304,0.09106969665941282
2.4075,-9.83354920698539,0.7506632892024184,-0.16642506640774724,0.10601471883495191,0.015509211158904142,0.0909236015878092
2.41,-9.937828,0.820182,-0.023912,0.109345,0.01964776872340445,0.093921
