time,acc_x_g,acc_y_g,acc_z_g,gyro_x_rad_s,gyro_y_rad_s,gyro_z_rad_s
0.0,-1.741989,-0.037064,0.028694,-0.004276,-2.150246,-1.04855
0.0025,-9.494800677407055,-4.154130084995234,-1.1858926163965682,-0.02053340541468065,-0.022297,0.010705508293612963
0.005,-10.363434976692913,-4.737193366929134,-1.2203453593700786,0.040244887874015756,-0.04534527559055118,-0.04047640913385827
0.0075,-11.207250766221375,-4.486753933473283,-0.9584670374427481,0.10131698465648854,-0.1141788036259542,-0.06405660213740459
0.01,-10.939987789291628,-4.265179700459981,-1.4969737631278757,0.1681689412327507,-0.20432573398344067,-0.08615853240110397
0.0125,-10.504023545182013,-3.7906027965738756,-1.738124801284796,0.19021857987152035,-0.27643301299072087,-0.10944811391862955
0.015,-9.956957,-3.843256,-1.857365,0.210596,-0.3006342753051643,-0.096364
0.0175,-10.061309142612421,-3.7499786386295506,-1.2409671476659518,0.2004010956745182,-0.30748249667380445,-0.07269783491791575
0.02,-9.119702231999998,-4.25277296,-2.5987276560000026,0.228619536,-0.32321395199999997,-0.03995079199999998
0.0225,-8.590878240763358,-4.149586286946565,-2.504824239236643,0.274737,-0.299782,-0.006497271374045842
0.025,-8.855682621138213,-3.9032782953929543,-1.9115101441734401,0.3206649447154472,-0.2568325078590785,0.06670972032520332
0.0275,-8.178836914346896,-3.916375500556745,-2.209166323768737,0.33822867366167025,-0.2274380279229122,0.12616786475374733
0.03,-8.69648584667144,-3.8958211433643535,-0.5287349432784523,0.3482223089763779,-0.170804807043665,0.18896142113099493
0.0325,-9.580603830305344,-3.567797420839695,-1.1353183899236627,0.3612650870992366,-0.144622,0.2496302196946565
0.035,-8.43510108339181,-3.9303876814035075,-1.489792429707608,0.4012087330994153,-0.10981596292397683,0.33872299520467836
0.0375,-9.980528338329764,-3.9023519293361897,0.14461328179871571,0.39017004025695934,-0.05645664668094209,0.379909287366167
0.04,-9.407942446450384,-3.0210832893893147,-0.9192479306488558,0.40766014118320615,-0.07763571561068691,0.45434345652671765
0.0425,-8.89497231519083,-3.875111659198473,-2.0638203341984855,0.41491422645038145,-0.020805702137403854,0.5183282897328243
0.045,-7.729554,-2.80428,-1.7934,0.428675,-0.10524257319587617,0.587652
0.0475,-9.332441378570065,-3.630473847435654,-0.13161339153479537,0.4111481726596759,-0.05104713666348909,0.668263828979981
0.05,-9.380508145820295,-2.638906940098348,-0.49956926580241284,0.40092090049173,-0.05444882297720161,0.6833327350022352
0.0525,-8.73942870526767,-2.86396936890791,-1.2653769005567417,0.3999008379443255,-0.07597733130620991,0.7507311683940042
0.055,-8.52103703503817,-3.8289786282442733,-0.9661349174809165,0.38780621175572516,-0.039969082671755765,0.7817829315267175
0.0575,-9.147790241627408,-3.2281505220556723,-0.30164682398286913,0.3528524707494645,-0.10288821815845811,0.8189358656959315
0.06,-9.16490026074356,-2.73338354871306,-1.0797162373689315,0.324768490524309,-0.08223346615824575,0.8453412987988562
0.0625,-10.44632526980728,-2.649727351891506,1.1841941220556746,0.3148748729478944,-0.07151481227694503,0.8516472983583155
0.065,-9.298463930257393,-1.704211014680652,-0.7881596332125828,0.30014164583412795,-0.06394859264060965,0.9012336458341279
0.0675,-9.02365281147753,-2.690052006509646,-0.9270378299785733,0.2568005977730191,-0.071013,0.8994102117344751
0.07,-9.871712889651404,-2.2182881863808257,-0.3879198942628088,0.24349064922251745,-0.08990831699732318,0.8816834532975867
0.0725,-8.692239968854942,-1.800206163206101,-2.248221868549646,0.18341947351145058,-0.059177590610687364,0.8449184590076335
0.075,-9.283039100478472,-2.1888987084529465,-0.5862532813397069,0.14370035789473698,-0.06595756251993593,0.8334403912280702
0.0775,-9.852411213931298,-1.6971474690458035,0.1540012796183195,0.12152013297709925,-0.0023456462213740483,0.802219
0.08,-11.087431815138231,-1.3238335409723536,0.6051518007626329,0.08021813380362253,-0.012557166482364027,0.765984603851287
0.0825,-10.324527961067698,-0.5129601748331771,-0.5377699575977078,0.05218651302192549,-0.018254008770257117,0.736649615405148
0.085,-10.178134555233557,-0.7565434809151608,-0.20513790040036403,0.024089111611058135,0.04193066280266882,0.6689041942802676
0.08750000000000001,-9.347975461582443,-1.1622184535748297,-1.1361002646330114,-0.015093156911344757,-0.05185757006673051,0.6086912205910384
0.09,-10.516399406581561,-1.4539742929929076,0.020950334751798527,-0.024269443801418544,-0.02245592334751797,0.5632948455602841
0.0925,-9.978980891096283,-0.37809755729266215,0.26118187988560515,-0.05156702394661576,-0.03293257803622492,0.48433736076263106
0.095,-9.905650602886597,-0.8631426337044679,-0.4720076935807562,-0.0859018487697595,-0.10279580373883164,0.45599319626116835
0.0975,-9.32264583404581,-0.969940083053432,-1.3830578462595393,-0.09702914061068707,-0.14112844198473293,0.3758241961832059
0.1,-10.181561773752312,-0.5919149796672826,0.38396459852124887,-0.10965462255083186,-0.1807880909426989,0.32618616229205166
0.10250000000000001,-9.4772700319924,-0.9516261095900745,-0.5484916941848832,-0.10563742101048648,-0.2590495225929454,0.27661259717826414
0.105,-9.860628136793888,-0.5397526000000087,1.2396747035114544,-0.13291822931297723,-0.24461338809160305,0.217108755114504
0.1075,-9.742476074285717,-0.7434120403428546,0.9601154740571456,-0.1413359497142857,-0.2683093707428572,0.1781068902857144
0.11,-8.8136712736,-0.6189103672,0.6791321987076925,-0.10465109867692307,-0.26132495187692306,0.12804604104615386
0.1125,-9.131092164503816,-1.1590361738549628,1.1655272656488593,-0.06940542156488547,-0.24465669503816792,0.08145401011450376
0.115,-8.628455816790122,-1.08810719396011,0.5049874889648539,-0.021054381386514505,-0.2396403709781576,0.051301644178537525
0.11750000000000001,-7.866332205648863,-0.97842878671756,0.12237998305344988,0.010996,-0.1764869644274806,0.025045
0.12,-8.32453568595745,-0.8665028438297834,0.7452181046808593,0.0009854757446809263,-0.09504696000000004,0.004814533617021319
0.1225,-8.950942321336512,-0.5245565747971365,0.7050816152744613,-0.00885645756563247,-0.0070010287350835525,-0.006132971264916447
0.125,-10.072094307508939,0.7237625327771156,0.012619151370679376,0.0012233015494636469,0.006294635280095352,0.006596032181168058
0.1275,-10.11196955013111,-0.19668762774732193,0.17919390693683052,-0.009772377592371827,-0.007789,0.008729357949940442
0.13,-9.9649720193327,-0.11557158722592717,0.2537135943946638,-0.009745191077216393,-0.025291380857959914,-0.002135048503336654
0.1325,-9.88986412719905,-0.2161691300119177,0.3751381691060857,-0.013897,-0.02042808281287259,-0.002749
0.135,-9.73325134369488,-0.09499764533969239,0.3944471910846368,-0.008781646102503109,-0.010325017830750955,-0.000510652729439911
0.1375,-9.883594371394532,-0.05664138045292168,0.3739916240763004,-0.0054231594755661675,-0.0019236581644816778,-0.0005896419547081638
0.14,-9.980576596472003,-0.0024731026936850257,0.3028258250774939,-0.007419480381406466,-0.0059927028843865,-0.0008492244576878049
0.14250000000000002,-9.85317828252682,-0.042780116042905623,0.10735661482718868,-0.00841816738974956,-0.007134174112038769,-0.0016736108700834802
0.145,-9.828624823551845,-0.04995405549463522,0.2436362184028545,-0.007718472753277689,-0.00712906398092948,-0.001472078188319443
0.1475,-9.801451892348037,0.02472793101311447,0.1992517442669836,-0.009232983694874691,-0.0040778190703217995,0.001329410679380084
0.15,-9.862933583532214,-0.055685946300717,0.23920781336514965,-0.00817412147971363,-0.0013877880668255042,-0.0024066004773269814
0.1525,-9.902134108319425,-0.05142933201430272,0.32008061787842124,-0.008561865268176391,-0.009996716519666193,-0.0011751889868892047
0.155,-9.934240977939156,-0.04924560102060824,0.4468533909322851,-0.007774021315014719,-0.007251270932286535,-0.000458
0.1575,-9.907951930774733,0.022678719427890504,0.3020268853873657,-0.00822314259833134,-0.006494947318235975,-0.0010332334207389647
0.16,-9.603014129873632,-0.6837078601516495,0.5534527669081761,-0.009466517843302501,0.0022925746588036457,0.008099835821398258
0.1625,-10.077569030035761,-0.3385194119189402,0.6280114777115631,-0.007573231704409999,0.0050720379022647834,-0.0025650762812874884
0.165,-9.940197872417524,0.10827443215835444,0.3281917336907806,-0.006514483331153782,0.006840825859834746,-0.002750592103667582
0.1675,-9.826087225876286,0.008563707319569819,0.26343708984535286,-0.010699691597938078,0.00440700134020607,-0.0013281481958762145
0.17,-9.911316202859757,0.04722108773601302,0.18152561389550448,-0.009830869624198135,0.002998701448212771,0.0024441277360221342
0.17250000000000001,-10.030072952705604,0.04441086498212278,0.32606643690106835,-0.007117566007151481,-0.003054,-0.0028759464600713372
0.17500000000000002,-10.124509537866848,0.05325985712240785,0.46432418124551367,-0.009106545025053663,-0.008939428060128695,-0.0016259162491051415
0.1775,-9.955700702155259,-0.06708128518582254,0.2980771036246225,-0.007831221110632794,-0.005093615356579125,0.001593719767541972
0.18,-10.065879294884361,-0.13537034404022238,0.47251507369568724,-0.008428385850224932,-0.008365259092881718,-0.0015919234569992
0.1825,-9.979624692858428,-0.09589238717967724,0.26749418668007446,-0.006478850265149514,-0.007517852079386083,-0.003964885074358292
0.185,-9.839505689403358,-0.00921487573180911,0.11702032044777903,-0.005903527993330951,-0.007025,-0.004627116498749554
0.1875,-9.757292,0.04902,0.088474,-0.006414,-0.008047987426388669,-0.003971
0.19,-9.928042041928547,-0.0026303070597758008,0.32971172309399976,-0.006802294674528848,-0.009242773509076195,-0.001797769596485138
0.1925,-10.062456572208445,-0.05019057649404327,0.45502845362184907,-0.008334695907285845,-0.008156741233487313,0.00022822367776967318
0.195,-9.916147789842249,-0.08694871918396418,0.2690029002538247,-0.009151150183845332,-0.006475678016842602,0.0005493219831573979
0.1975,-9.816073095969339,-0.13174592698179502,0.24463481537208587,-0.007837718664963264,-0.006109,-0.0005743505301820589
0.2,-9.908762742379572,-0.07430415419616879,0.3576119750435294,-0.005469323946604744,-0.007667302170632634,-0.0016732375159605305
0.2025,-9.974028254817647,0.038161197451823975,0.3901254944354194,-0.005418927402452632,-0.008019769472845984,-0.001298150571747093
0.20500000000000002,-9.773506326602046,0.048123075507952376,0.16280117067637787,-0.0082274899244899,-0.00356864254485087,0.0015135783601992272
0.20750000000000002,-9.7768626907385,0.001797164153590415,0.1936845500326677,-0.0073700082386333144,-0.006141649149038737,0.002971353380817233
0.21,-9.905673538016647,-0.08697591982877481,0.38347691362663366,-0.00783009449702734,-0.009471694420927454,0.0034186632865636176
0.2125,-10.045163675969599,-0.13589399623912876,0.5240426132884118,-0.008007793230431718,-0.008670000376087136,0.000576000376087136
0.215,-9.976089383347826,-0.08825151926086972,0.3215898915217398,-0.007949022695652171,-0.007885554652173908,-0.0010589683478260895
0.2175,-9.875951533710534,-0.00446874267271026,0.2134388642607064,-0.0073300952516411385,-0.009468,-0.0007636519256017503
0.22,-9.917733280878803,0.028247445852245277,0.4049995414775472,-0.007239592129406085,-0.008714107344278126,5.966688556253161e-05
0.2225,-9.948518182533281,-0.018937212556397052,0.39444660249023483,-0.008475733433240335,-0.0066390392634515715,0.0029061610362694336
0.225,-9.883577105986959,-0.06520012666271495,0.22673511298162397,-0.008322190966212211,-0.005881388334321284,0.0020536376289270763
0.2275,-9.883255020408164,-0.0649591837900874,0.2862224764982188,-0.008016147434402333,-0.006491852565597668,-0.0010046554097829644
0.23,-9.964619771713483,-0.07885698457865192,0.3981830171910114,-0.00833631634831461,-0.007040965674157308,-0.00017841879213481722
0.2325,-9.988528761885854,-0.09123555414392033,0.39891159265508647,-0.008475178263027289,-0.004744499553349869,0.001156321290322579
0.23500000000000001,-9.917106967320604,-0.036954076945358474,0.31415625711652356,-0.0073398891112574,-0.00328476621461487,0.0008318771033574701
0.23750000000000002,-9.892393744248011,-0.023911332655638537,0.34864203523172177,-0.008017925596666234,-0.002302998383634298,0.0013823879025129354
0.24,-9.952553458474554,-0.053990858737214195,0.43492213645662303,-0.006096617633539595,-0.0024036320191943425,0.00016948776865766298
0.2425,-9.972169445505806,-0.050991204908789445,0.38610102978441163,-0.005883908369264785,-0.0033670589718076244,-0.000843908369264785
0.245,-9.968315,-0.036466,0.304878,-0.006414,-0.006023766320520395,-0.001374
0.2475,-9.914954198319796,-0.0670403936783476,0.28064940816894873,-0.006266838384776051,-0.007346550160129961,-0.0004162432582965901
0.25,-9.886148930074958,-0.0646489638566588,0.24021645066228564,-0.006942334839305884,-0.006872,0.00072988078858199
0.2525,-9.943393115791023,0.001425454036055946,0.25681540358719657,-0.007417169116997791,-0.006233957825607063,0.00046932869389256713
0.255,-9.923152439875777,-0.03905925952221717,0.3176867940850454,-0.005351450950788338,-0.003828753932154795,0.00030227100334448366
0.2575,-9.875122973750495,-0.07783394827405932,0.33855604291168323,-0.006097763627722779,-0.002139023312475247,-0.0002978501893069356
0.26,-9.833806202155689,-0.020547488383233177,0.24737211766833583,-0.007326069084687763,-0.002524665374557013,-0.0008343346254429866
0.2625,-9.82156931242295,0.005776182266476915,0.19970190701754426,-0.0072604481744902825,-0.00577161190137508,0.00023852238027501587
0.265,-9.861434449643465,-0.0758652123065738,0.27880379959253004,-0.007162163841862716,-0.008715063201552272,0.0017116723162745697
0.2675,-9.858560403447576,-0.12043553483332012,0.22720199446639006,-0.006642295732687953,-0.004279181372472433,0.001665580276368169
0.27,-9.867743887418937,-0.04972776586723174,0.17693866133710687,-0.005135989958731256,0.000305,0.00053766174743544
0.2725,-9.962857698417427,-0.024267542257426104,0.32241092550653633,-0.004338814257425752,-0.0031375782970297496,0.0009788142574257519
0.275,-10.087167042553954,-0.025082609864291183,0.5007719321336754,-0.0062639729180367166,-0.006708648054044324,0.00290226897829856
0.2775,-10.048569014532193,-0.01608818860046622,0.4355661392287911,-0.007317125115083409,-0.0026872365397261518,0.002997554177078975
0.28,-9.954729862888888,-0.05087581662802037,0.28523218957004537,-0.008492815734299532,-0.00014755958937197653,0.0017139498164250855
0.28250000000000003,-9.933113330410482,-0.10446713613973829,0.22943735720524108,-0.007281860506550187,-0.006285406427947717,0.0016366744803493671
0.28500000000000003,-10.000564421601124,-0.08622773146067317,0.3278781703370802,-0.005416200870786509,-0.010498720533707814,0.002123892078651667
0.28750000000000003,-9.936640387552218,0.01718719336441237,0.2643810426106431,-0.003512,-0.004066318411333783,0.0006106593691348411
0.29,-9.863774608323546,0.01339208085729857,0.22870711201307772,-0.003512,-0.004550706307440815,0.001386441818732209
0.2925,-9.90149767462473,-0.02703608070526522,0.3194962729949953,-0.004777173257088383,-0.005682879942816287,0.002707565022635204
0.295,-9.987727909839181,-0.08008794413428781,0.421930722756192,-0.004294834985326941,-0.0076744433431153725,0.0035070157999765256
0.2975,-9.92396849661275,-0.11923351604186469,0.2871292792959099,-0.004216898420551843,-0.007237101579448157,0.001814710656517616
0.3,-9.81057821854946,-0.09609795859062892,0.09584774854098618,-0.004707046058844907,-0.007297464995762182,-9.136336118170706e-06
0.3025,-9.984779699342578,0.031667414234287324,0.35309119217704293,-0.0031451055367365016,-0.010599349228681039,0.0003180068551195016
0.305,-10.04100862044969,0.05349289403363818,0.4725768760153435,-0.002861689893183831,-0.0073864801864856975,0.0010735756341103552
0.3075,-10.009639424340854,0.030706776420092854,0.38769911366087617,-0.003962046194481562,-0.005578199188743025,0.002132712478578726
0.31,-9.911720267570175,-0.02593425937430438,0.2329522966489428,-0.005192,-0.006041763496970444,0.002902
0.3125,-9.951199272727273,-0.07235967328304883,0.34014758515283844,-0.005035080587534736,-0.008124979356887654,0.0027445660976578006
0.315,-10.03453599541937,-0.08741302700067097,0.36680243201073565,-0.005185161887720868,-0.01185036730932678,-0.00023995946320734237
0.3175,-9.935766910731354,-0.0018616701375813033,0.2320370654163647,-0.004904975611875452,-0.009806318899348295,-0.0009749324692252003
0.32,-9.829104354091744,0.06316719499082578,0.16423682161467898,-0.005336490844036702,-0.006443775082568794,0.0007342249174312066
0.3225,-9.852373545797764,0.011451414375375335,0.2577094326656251,-0.006178416400144284,-0.0072826321894914215,0.0046835189034507745
0.325,-9.960677332840435,-0.04357778964911235,0.37225888795830603,-0.006185153833101024,-0.009923408157081398,0.0035162091994424475
0.3275,-9.960993942534653,0.013852952879207694,0.32201898450693,-0.005059602051485158,-0.008703772364356434,0.0009294799207920855
0.33,-9.845141867445545,-0.02876352900066033,0.20203005215577483,-0.006750474109570968,-0.00859787657029703,0.0020922572673267394
0.3325,-9.935607541220543,-0.043568009555940854,0.3176478002629648,-0.006346369392210324,-0.013797693088563604,0.0026315851203175403
0.335,-10.06459607864913,-0.003437045162987501,0.5104303369525591,-0.0032128603193987905,-0.01025137477501172,0.0028414785683419466
0.3375,-10.012187471986847,-0.02640228787224069,0.42563457171441915,-0.004717510239549097,-0.0073179230812587814,0.0030670529262564607
0.34,-9.91815821552603,-0.057737678333932216,0.29328450110831633,-0.005432330312387786,-0.006007276461998817,0.002843026925194485
0.3425,-9.87518384279361,-0.05657603740868551,0.23672940451473123,-0.005192,-0.007465737403869327,0.0013941459773621065
0.34500000000000003,-10.00088815500159,0.027202904089029978,0.46069781762797973,-0.004066025335453115,-0.009401179561208227,0.00043729461367250384
0.34750000000000003,-9.944083897967143,0.007271624826708817,0.358384139688393,-0.005339097733969279,-0.005922041068362437,0.001116340650768424
0.35000000000000003,-9.802549939862132,-0.030105003137628615,0.15222733410981212,-0.004829821630615598,-0.005473001663893567,0.0016023616829094391
0.3525,-9.755244248477762,-0.05296387699186354,0.11630922203965405,-0.004636987957974548,-0.010552472827237492,0.0020546686215340815
0.355,-9.926573160866988,-0.03673548976430203,0.3848575649982206,-0.00573021498993249,-0.010466774800426454,0.002808840445339328
0.3575,-10.007436981179067,-0.02988422884615377,0.4610899623076933,-0.006383411204287508,-0.006567,0.0022549133984867695
0.36,-9.874399781472745,-0.025553521038122612,0.23954449064944922,-0.008209018840183768,-0.007082509420091884,0.0016637274357382279
0.3625,-9.84118522744088,0.02605009384219124,0.23310705361741885,-0.008186645890892071,-0.00981928649028329,0.002514615687192692
0.365,-9.964454276791036,-0.028329911922755108,0.4098541673620213,-0.006298913229228759,-0.012065,0.003918616578853251
0.3675,-9.972805958850032,-0.14844708311909255,0.3258892678134852,-0.0052784615816005055,-0.012943153673597978,0.0037222901480781414
0.37,-9.880169572520652,-0.10181768381977503,0.1819857884505632,-0.004669428445556948,-0.010193224620775987,0.0014019192941176514
0.3725,-9.883461397314534,-0.006624586710463107,0.29490021665438215,-0.004821654186829033,-0.006339096436468515,6.853868610799614e-05
0.375,-9.98302798412885,0.03081381142722784,0.4355441549494475,-0.004166640606630614,-0.007906622854455678,0.0012658029626146253
0.3775,-10.051018163050172,0.010635851042514115,0.4259669993427454,-0.004447414312834013,-0.008696592109755125,0.003135749771077611
0.38,-10.050933329363746,-0.032080633882352994,0.3531527110588234,-0.005803,-0.00691040284273709,0.0031968562785114033
0.3825,-10.020607501230435,-0.09809194157756106,0.33477963546877426,-0.004886108557260185,-0.010159735812800268,0.003283871272276462
0.385,-9.974240595375075,-0.13394486195258343,0.3062127971015194,-0.004645728384194535,-0.01315805216291792,0.003665
0.3875,-9.890674712905872,-0.09358789790176986,0.19977597278161952,-0.004217371984527011,-0.008827314851717245,0.0011837752901183735
0.39,-9.940005224351424,-0.060950801126850064,0.28454665751392716,-0.0012094644469202434,-0.007789,-0.0008984341811236751
0.3925,-10.031858392672616,-0.014595527909331697,0.42797011887790465,-0.0024996597861908485,-0.0067279360855236605,-0.0005418681617233238
0.395,-10.113628911464009,-0.004258580261968653,0.4884326058745793,-0.007059213103048602,-0.008712975180248113,0.0017275875368030827
0.3975,-10.102009307183454,-0.06952158460060312,0.37923052413972697,-0.007649525921341892,-0.01297009151697746,0.0022982910447031895
0.4,-10.01927924994182,-0.10076455831975774,0.2765536169653242,-0.004662873609494961,-0.013973756364905747,-0.0006038351873400513
0.4025,-9.937032420558875,-0.09384486030366668,0.22634542793409743,-0.003358678885478926,-0.013897,-0.001987552114359542
0.405,-9.915493971031015,-0.027923471081305815,0.26097295785415087,-0.004056388298407387,-0.014444636244761121,-0.0023951403185247582
0.40750000000000003,-9.998559458070384,0.05959204167411279,0.3817087919742938,-0.005426693142095795,-0.014966,-0.0026681074128066303
0.41000000000000003,-10.100321320855683,0.029728708427207633,0.39911894799726017,-0.005371494437009308,-0.014223588258601604,0.003033411741398396
0.41250000000000003,-10.07522047000369,-0.08157592953264282,0.4011001870172296,-0.003936670751883642,-0.01354899460456293,0.003708005395437071
0.41500000000000004,-10.047518028018912,-0.22389715163120838,0.37722755473285957,-0.003491380817966919,-0.013643880146572123,0.0034676442269503307
0.4175,-10.014759997367145,-0.23786817086738896,0.27568039431755864,-0.005091942238733632,-0.017491913057664312,-0.0011380752479405111
0.42,-9.939319594630017,-0.04944168438336177,0.13797762692354984,-0.004466134843539113,-0.018580804874217732,-0.005660647878267264
0.4225,-9.88211698380719,0.10542574376293919,0.10774549584195946,-0.001885908794942718,-0.016341,-0.0019507498727775931
0.425,-9.878048,0.144668,0.133907,-0.001069,-0.017055664761676064,0.001985
0.4275,-10.034273215852274,-0.10843226528409046,0.34945597767045533,-0.004040580369318194,-0.015847770454545447,0.004765986988636377
0.43,-10.000237877061474,-0.19392210694543008,0.21317561731658197,-0.0017103370442121432,-0.0171345847396183,0.001771811232377487
0.4325,-9.997832900074807,-0.21556438573702885,0.21107182812314185,-0.0010194655452191437,-0.017211515845401364,-0.0003013060822863686
0.435,-10.020920013302227,-0.14287968516971908,0.2974001879388777,-0.0006874953598506939,-0.018631416628951358,-0.0019849722197597098
0.4375,-10.037118824146772,-0.002167640522352181,0.36657621126422046,-0.0009154737221599103,-0.017806402900176252,-0.00138119403941676
0.44,-10.01828952807383,0.03893918689067673,0.29619701257927106,-0.0018283012920018945,-0.017779321822053957,0.0007581212588736418
0.4425,-10.031461448600385,0.02511144653474904,0.3224725203088805,-0.0010639591312741265,-0.021078528938223942,0.0019092508880308881
0.445,-10.089155996089904,-0.029206355894874907,0.4356007864383401,0.000458,-0.020040441379474357,0.0034656032298727647
0.4475,-10.108308610599142,-0.1311305618698873,0.47372124680015587,-0.002647885269964958,-0.018853899116478383,0.004129503305025317
0.45,-10.07183286693227,-0.1880748926234457,0.39936733120849843,-0.004173178920680894,-0.02192257148376195,0.0015822338524688916
0.4525,-10.017447015981421,-0.1460475010170573,0.2575666538191714,-0.0013022069832625829,-0.025118913654200378,-0.0015987290237847477
0.455,-9.963917434204545,-0.025424610622726176,0.19075493959999987,0.001458013090909116,-0.025962,-0.0019497761909090764
0.4575,-9.959170525363344,0.0928102707331195,0.2844547083858534,0.004149249501607729,-0.022772117556270056,-0.000771221109324757
0.46,-10.02138081142371,0.09075867616778013,0.429721545497873,0.0029180454030394653,-0.019682476629787244,0.0012964511416413782
0.4625,-10.07622885382561,-0.021538750856245993,0.5102726213668507,0.0003833436920659848,-0.023139396920659902,0.004253923896307947
0.465,-10.089327882403557,-0.14899024660497703,0.519894470179064,-0.0015878517245523863,-0.02765064123542847,0.0025710917053238117
0.4675,-9.99513639293281,-0.14527608715250484,0.3250089878421586,-0.0006690608176323659,-0.03050020557412018,-0.0015257562033416502
0.47000000000000003,-9.959349,-0.117169,0.267814,0.000458,-0.02922483734471311,-0.001985
0.47250000000000003,-9.962626216850484,0.007976322882497111,0.2833083822074802,-0.001368768023882617,-0.027872194878513966,-0.000310753399120952
0.47500000000000003,-10.056488959053523,0.1282281279774646,0.4094905077633838,-0.003970482794366221,-0.029168962140845123,0.0029774638647887828
0.47750000000000004,-10.147346099538817,0.03225319965211619,0.511142849826857,-0.004291957826537929,-0.028563989419931324,0.005613236036064815
0.48,-10.003242196014238,-0.16783604412811196,0.31515099481850883,-0.005122689096085385,-0.025534507316725987,0.006430016355871891
0.4825,-9.822165832752315,-0.276429896297,0.10077476715586171,-0.005761552172880559,-0.02877353256708616,0.001862180444866665
0.485,-9.861737568378377,-0.12019161737451955,0.21613288972972797,-0.003374261814671836,-0.03255445216216217,-0.004693814324324297
0.4875,-9.9495526870535,0.11479936343946934,0.3474217368999516,-0.0013029270405689377,-0.028000178503313433,-0.0029527115564894424
0.49,-9.918027092088659,0.15779216422657463,0.327127644104609,-0.0008407939580157155,-0.02533504771197372,0.0022777392142605737
0.4925,-9.920650360590832,0.05176752141286059,0.38440839418158435,-0.001899664991570999,-0.026878,0.005027046528056508
0.495,-9.932464940499122,-0.12504548175746882,0.40455338938488594,-0.0025271426924428843,-0.027254537869947273,0.004986428077328653
0.4975,-9.893889285434023,-0.20923060580105565,0.28634877662687785,-0.000687054807957777,-0.027107522569224524,0.0016035741680877006
0.5,-9.889615290680043,-0.12154679937011548,0.28728453470197135,0.0015358683074769624,-0.02726665123060772,-0.0017720243788638748
0.5025000000000001,-9.858736893237953,0.012263218740667436,0.2928743981793861,0.002368430742866124,-0.02539987116421655,-0.0031353110541624
0.505,-9.849606379817452,0.08934034368747724,0.23220804019471827,0.002588842609224779,-0.023945882969453578,-0.001561951992211263
0.5075000000000001,-9.949181044928388,0.08916872582733187,0.35008849666535263,0.0016125875476774017,-0.025501361959325803,0.0010604478373032078
0.51,-10.038622670457054,-0.11173225583342046,0.4522751099115043,0.0007720496137428453,-0.021814776410203022,0.005770764170744397
0.5125,-10.003381019083811,-0.21354074311296017,0.4323707247787614,0.0016055610931806205,-0.022481258084331067,0.0040202263092139826
0.515,-9.9536260039779,-0.2521662437127068,0.36850603686187766,0.002706250254143655,-0.023333420198895036,0.0009842716464088116
0.5175,-9.94360850970188,-0.07279973474711335,0.31369477058129464,0.0018140610210021662,-0.024780872115157688,-0.005491529634232558
0.52,-9.956215654981586,0.1808934265160833,0.3409326822882401,0.0004456049447581691,-0.023687973321875725,-0.006641969413208871
0.5225,-9.948581885185956,0.17145961086459516,0.39241063851555563,-0.0011417447908501502,-0.02336211434375745,0.002205276244101294
0.525,-10.001402702090676,-0.025034789241251576,0.4380374118393239,-0.003887409443269927,-0.0275481252525253,0.004981571247357241
0.5275,-10.016968983549784,-0.15275762410774324,0.44098725481481515,-0.004582518133718137,-0.028869618816738836,0.002444518133718137
0.53,-9.897782101577842,-0.13986489487549308,0.2658226245101191,-0.0024850305422387193,-0.02757347980451477,0.0005712405678379808
0.5325,-9.831955340882025,0.008637152835534082,0.16544264313325785,-0.001051283821047593,-0.02963044613278136,-0.0019633620251552166
0.535,-9.99274413605621,0.18208546198595096,0.4686162709789303,-0.0014642659110070187,-0.029633248861826614,-0.0018139952693208127
0.5375,-10.062162307749198,0.13647965440514673,0.552738001061096,-0.0018812107395498288,-0.025626315434083616,0.0025334930225079867
0.54,-9.91228594605817,-0.07608051845686031,0.24478572097845508,-0.0018500316027747076,-0.028090587109650858,0.002751409434099912
0.5425,-9.928558923294265,-0.1521019395831039,0.29807490047982177,-0.0006163016030834632,-0.029427170392511633,0.0002926257342877244
0.545,-10.006654980840624,-0.1955171031704732,0.5025863121228943,0.0009701646340943495,-0.02601918574781306,0.0005151857478130647
0.5475,-9.935559614482818,-0.18746467878652906,0.36687884258119996,0.003051897934698768,-0.0274627707018596,-0.0029101986014225477
0.55,-9.853134717446107,-0.06798338588761725,0.17894647409589015,0.0023846454470490552,-0.030696,-0.004656410224997002
0.5525,-9.93795393514216,0.0706188961949629,0.277843491229894,0.002470346995938251,-0.03180910961494719,-0.0025437520064987866
0.555,-10.055826165527405,0.17141523330282427,0.41171328716151673,0.004842973081817196,-0.0324910145462663,0.00023295418685130532
0.5575,-10.058726400312997,0.11906451307005805,0.4332768566034973,0.003967756009292105,-0.027044866208582957,0.002269253546888374
0.56,-9.928986954690785,-0.09640763445023283,0.26943833184581945,-0.0008299121772894951,-0.026573,0.001318118338857827
0.5625,-9.927799746993086,-0.13440125996779997,0.30208927445780853,0.00015620011364712557,-0.026573,0.0004079754238090728
0.5650000000000001,-9.908758364311204,-0.1177675094075636,0.25641512259814025,-0.0006247758172734597,-0.02591498251249104,-0.0022720555888652233
0.5675,-9.982295181743574,0.0412532382483176,0.3060171735431031,-0.0038008389587219256,-0.024668959867001863,-0.005337195812180685
0.5700000000000001,-10.083643023034258,0.159015,0.477562834639947,-0.005498,-0.023598700265672307,-0.006109
0.5725,-10.028278632627986,-0.013459889283277487,0.4418730632081906,-0.0025106364505119274,-0.02522582634812288,-0.0013294139249146464
0.5750000000000001,-9.968211446331768,-0.17473923893506677,0.31775111186603777,-0.0007294893627274748,-0.027489,0.0009840212745450506
0.5775,-10.009113215136528,-0.17253619341119628,0.39651189812323906,-0.0009115687410390547,-0.02679872452678211,0.0012338311751913284
0.58,-10.028743197136441,-0.15259062776043092,0.3004816292851546,0.0015215910396324073,-0.03417967068873691,0.0003529857532244175
0.5825,-10.017613541059996,-0.1106946753986734,0.3165198978831394,0.0007687363584146989,-0.032590736663359605,-0.0023227966664926304
0.585,-9.989008892114203,0.02937024991687326,0.3113190881532351,0.0015648124900613917,-0.028944903707987087,-0.0033782041344416554
0.5875,-10.02832970151174,0.0855525677388218,0.3851893976198148,0.0030543430363460943,-0.02916535609520751,7.359179800583157e-05
0.59,-10.193547367407229,0.02636516836514504,0.5951485441280343,0.003129704436277418,-0.03253167705512744,0.001667291779490257
0.5925,-10.206131862228824,0.038318962313407354,0.556449526291002,0.003935633402674607,-0.02952895694136467,0.0027717465813236206
0.595,-9.936803953457991,-0.12486164364496813,0.27523780042603857,0.0021423324023668935,-0.03445905161656796,0.002404485065088775
0.5975,-9.868955737864367,-0.1393961652872989,0.20965030278668537,0.0014129907768187582,-0.041861229849568395,-0.0009600673933415573
0.6,-9.992621765819974,-0.0798813963995073,0.39321898224414137,0.0026962357583230467,-0.0388997460912454,-0.001256151122071514
0.6025,-10.03401082589574,-0.08665647616792321,0.40535704766415354,0.002021346695371339,-0.037202185680455156,-0.001374
0.605,-9.986568804104323,-0.10175373124035787,0.2802387128198861,0.0025362246406268785,-0.03792835460756701,-0.0015871126827476387
0.6075,-10.0089263050004,-0.040397807597406646,0.33697461876630475,0.004730601414513165,-0.039401,-0.0027286529130330674
0.61,-10.04341713310134,0.003395396734860316,0.43781783833616617,0.004409358069734262,-0.03574395090600151,-0.003208160579079738
0.6125,-9.85425439329844,0.005525617399578641,0.27293847381227193,0.0019056895534560825,-0.03258817402297283,-0.0008135331339631196
0.615,-9.812902207776094,-0.008194799470536574,0.26154511293198296,0.0008715212120245616,-0.03573960472689576,-0.0012105155091300494
0.6175,-9.89882352390159,-0.0025924883206344933,0.3120551663555568,0.0003101688158730059,-0.03787116941269841,-0.0011536685174603001
0.62,-9.962525708384751,0.11354036812917724,0.28640928814842553,0.0009226241501363432,-0.03766815685611934,0.0013130662824145838
0.6225,-9.80935949499866,0.05354789448537539,0.18921459611399033,0.00015229670320267839,-0.035784947326097376,0.0025975060065230454
0.625,-9.790405683357177,-0.012737275393419172,0.21168609525512638,-0.0008480387458273725,-0.03427889747257988,0.0032045557939914164
0.6275000000000001,-9.94757520218661,-0.15795356944779876,0.40092407405268593,0.0006288782291336847,-0.036214634268486284,0.0032083780196762992
0.63,-10.033475,-0.271401,0.510521,0.002596,-0.039166618446420214,0.00336
0.6325000000000001,-9.960167489374069,-0.2604339133015546,0.37891354566225904,0.004660415509885217,-0.03654125832929579,0.0008528648870828044
0.635,-9.827505814985365,-0.1697483386146334,0.20465802419512164,0.006872,-0.035579803160975636,-0.0022649766634146385
0.6375000000000001,-9.832515155907624,0.011853202030574342,0.2978812977797672,0.00708205877496375,-0.04005700847930387,-0.0035878621666852995
0.64,-9.938255422289696,0.1750681575510213,0.3894597691189649,0.004746832911896448,-0.040775,-0.0029012355400696785
0.6425,-9.981467,0.243902,0.4077,0.00336,-0.03607093101272929,-0.002291
0.645,-9.910383855314718,0.13103947142451286,0.3148567089824877,0.0026926597255087434,-0.03493430065309993,0.0034903507998108
0.6475,-9.937276517262804,-0.06958151609973515,0.3531540961363784,0.0028061751135186608,-0.04028669665896595,0.00969578559069545
0.65,-10.048267512016102,-0.25501016715994074,0.49502234585059784,0.0021940038593583184,-0.04080911331833785,0.007199515922812774
0.6525,-10.022268289395974,-0.2852852545861314,0.4086049441610756,0.0027721934675614757,-0.03851758639821032,0.00182083131991057
0.655,-9.904781113269946,-0.16629196753399825,0.20951862640028585,0.006163673703213414,-0.03928325363822367,-0.0009910751426164422
0.6575,-10.171624418849216,0.07819289359951795,0.6534762914837161,0.0045194316984318505,-0.04161191859107364,-0.0015414338745476845
0.66,-10.158013801179735,0.03509313134137462,0.5744599552714104,0.004036884359469234,-0.03620334081544022,0.0019350572424608392
0.6625,-10.061047116764847,-0.006269038337843936,0.42928506661359833,0.004723338242318088,-0.035003790845406765,0.0034426743512179603
0.665,-9.972046247697966,-0.03147809292963959,0.31630020079921617,0.004914115150772212,-0.037730004760970874,0.0028127872615836993
0.6675,-9.999147768954128,-0.03833631067889878,0.3529675096513755,0.0038889881100917408,-0.041113187522935794,0.0018541637431192769
0.67,-10.016956493277302,-0.0802613520378817,0.43422082292039194,0.004268200857058307,-0.038838531683930116,0.0003379333980467352
0.6725,-9.957000137125432,-0.025895293806276254,0.3690065496412817,0.005539372926731392,-0.03824380119733568,-0.0002313305609501652
0.675,-10.124082208563964,0.14499221462165854,0.4982595313816453,0.001302039119074289,-0.044135,0.0030125600810537376
0.6775,-10.135447513195755,0.03201238619100982,0.48388655314882956,0.0017286713848450898,-0.044135,0.005232948976697054
0.68,-10.135021010887163,-0.10841303699408913,0.4822152264687467,0.004209164332598972,-0.0410215582651048,0.006418463490664494
0.6825,-9.989787264483063,-0.24149325194522286,0.32889017218547334,0.006641110470088893,-0.03727730594378153,0.006335110470088893
0.685,-9.85507017859577,-0.28082443745740066,0.22740560610030594,0.005225822574018045,-0.04091288746344433,0.0029781255589121976
0.6875,-9.908923420701168,-0.18271522370617696,0.3631451385642738,0.005640555926544241,-0.04581193989983306,-0.0016746460767946578
0.6900000000000001,-9.981682712460406,0.006764712286308039,0.47137949461975837,0.009250845281102742,-0.04281160666424837,-0.0024413384886954243
0.6925,-9.975002323275357,0.11353412775156857,0.46623575801127776,0.008676466164720826,-0.039170479027877056,2.853383527917381e-05
0.6950000000000001,-10.017574547619494,0.041521232742455214,0.47655896906264855,0.005885197795823624,-0.04394149799535992,0.0036523446774942916
0.6975,-10.146333309226767,-0.06541829933317592,0.5373649756821944,0.006818116055805165,-0.050199414594466786,0.006226713133128405
0.7000000000000001,-10.198468,-0.105213,0.539216,0.008552,-0.04836548454698367,0.00733
0.7025,-10.029716692637717,-0.09782457167854822,0.36543986925469707,0.008099152871030456,-0.044443937122488654,0.004838846416072563
0.705,-9.932707678648296,-0.10430878826327508,0.328119881092659,0.008246686334628493,-0.04642482388319784,0.002748764879312357
0.7075,-10.058873438645419,-0.0634016582916328,0.5049206349450204,0.008326729998406368,-0.04727476843346612,0.0025241515601593543
0.71,-10.006398501857,0.08949890564017088,0.3633215227264608,0.005806527874053282,-0.044288,0.0022951404567952403
0.7125,-9.896498432500445,-0.01703639094758279,0.27585056216828596,0.008003228624247141,-0.044288,0.004873278001073432
0.715,-9.943854388887317,-0.15071847026111287,0.3339404104351883,0.010073817304163703,-0.047774356621971194,0.0065658612279463615
0.7175,-10.105444016824764,-0.185896894338958,0.5008275635575472,0.010009500711829145,-0.05116118405822602,0.003310094876429595
0.72,-10.032878537693692,-0.08952139111483814,0.3692750972338692,0.008703861444138438,-0.04794540797030304,-0.000153
0.7225,-9.8501881753583,0.01319335205637906,0.18173033753741386,0.008323073899754535,-0.044287405884868146,0.0005351685010689823
0.725,-10.089220651250809,0.22133615410049665,0.5727508773982944,0.010203724037415665,-0.04534178068305413,0.004136274918424995
0.7275,-10.221489603475508,0.1568936200292457,0.6499128869022672,0.009073675963928813,-0.04625850326102853,0.008550041252741957
0.73,-10.164924701876092,-0.026230937547364816,0.49680257988608945,0.007291300695106376,-0.04768669930489363,0.010413179839590853
0.7325,-9.89146442375138,-0.27050359577416067,0.1711242483441367,0.007497825870631063,-0.050607719563498396,0.008529907173809869
0.735,-9.875218089489243,-0.28047708885951356,0.2241714196995524,0.009991991217401738,-0.052687,0.003856542660737942
0.7375,-10.113484502979205,-0.0807205544366794,0.5961775568136235,0.009822876752589693,-0.050543382494178044,-0.0007439589014695437
0.74,-10.051033388501375,0.036329813180568014,0.5571579505728707,0.00924152274060494,-0.045842863391384076,0.0015383979789183966
0.7425,-9.846595226089375,0.05061461850384608,0.28669133457521495,0.008930331920117808,-0.04495683042396471,0.005468867231952877
0.745,-9.827386146348333,-0.03391511571790047,0.263916519872373,0.007879285571570027,-0.050400587505776195,0.006246096644295302
0.7475,-10.034124925184695,-0.14003150584284874,0.4893165761719348,0.009465553257219648,-0.0570503354197449,0.005008462646071132
0.75,-9.947598014164306,-0.2242243342776204,0.40995061756373935,0.013506745042492918,-0.05529292351274787,0.002684736543909348
0.7525000000000001,-9.829763989364539,-0.0821149903322787,0.22608188035895838,0.013804666002910498,-0.05384280449672566,0.0006606070021828296
0.755,-9.829917899686746,0.04851546137349414,0.20962460617349435,0.012655140867469874,-0.0546051064433735,0.002584254746987967
0.7575000000000001,-10.051823830630221,0.07186424592832814,0.5357795242971989,0.01159845052517764,-0.056697737775718286,0.00625345052517764
0.76,-10.187542865324835,0.01758674589360098,0.6848730554057355,0.010316266697720015,-0.05714612938955626,0.0057958785290512325
0.7625000000000001,-10.06992794975486,-0.057737460967896226,0.47135343278506703,0.008624565506879648,-0.05449264662343813,0.0047502122568400945
0.765,-9.957115326997377,-0.14693729180070017,0.31269577483828553,0.009281137176573435,-0.058711432661713386,0.0050051371765734345
0.7675000000000001,-10.123268138412186,-0.04049262727520433,0.49333161444637086,0.012335346410700975,-0.06702527740896683,-0.0003239742605895185
0.77,-10.07552052765172,-0.03932833648501362,0.4855679442358186,0.0109470286698043,-0.058992774857567445,0.0006675885038394918
0.7725,-9.868958883847071,-0.029406571028259547,0.2759961133602519,0.01189370936119683,-0.056269097677511266,0.0025777093611968295
0.775,-9.770749236713373,-0.01682133141771544,0.18369441187366692,0.013513367228686774,-0.05681,0.003380785894086898
0.7775,-10.024600024366677,-0.018443710912714132,0.47162433614666854,0.012317826499800745,-0.05755997577361497,0.004320257128736512
0.78,-10.247756666816876,-0.07792482153403793,0.6733130577372972,0.011145963163950149,-0.058338,0.0054587230488973935
0.7825,-10.376015,-0.1901,0.742468,0.011454,-0.05713296930853607,0.004123
0.785,-9.892076317932831,-0.02417872686372874,0.2807357476613656,0.012309791771566471,-0.05861451171794358,0.0010194406515181597
0.7875,-9.724119335757672,0.07828454868925783,0.10757811235613775,0.012601825703324809,-0.062194932752557504,0.001091569964833738
0.79,-9.968306317257532,0.12694230841853854,0.41273158701864393,0.011866514691829885,-0.06215457725752497,0.0021586614237935815
0.7925,-10.161651232561946,0.11902396321560636,0.6915445126657755,0.012322788679304635,-0.058643,0.004102641138991554
0.795,-10.130917,0.093257,0.662362,0.013592,-0.05678312382054985,0.00672
0.7975,-9.971960364904167,-0.03778715490173756,0.4807809701900543,0.01419212569672462,-0.055873234400323483,0.004843439877072399
0.8,-9.844303557202702,-0.18708748585059404,0.3595040646497586,0.013694326739585708,-0.061069948196416285,0.0034984629043518997
0.8025,-10.02154649030184,-0.12068383317287389,0.5131349219788314,0.013397700644453149,-0.06608470064445315,0.0024461721270090265
0.805,-10.091966233590298,-0.012901381924847445,0.5091832237478737,0.0130114959127272,-0.0613840925769694,0.0019545040872727994
0.8075,-9.961857466915115,0.007258251804427464,0.3866027058639911,0.013663327510750113,-0.057034809791368046,0.004911578353240958
0.81,-9.984785217111538,-0.02076138423260391,0.46050278067683986,0.014004898684461278,-0.0636120063965684,0.006631443031458544
0.8125,-10.144300874605678,-0.09257500552050474,0.6316025711356467,0.01358911072555205,-0.068264,0.006066712933753942
0.8150000000000001,-10.143385516022171,-0.19411423822107216,0.5814873787755019,0.016136862536274662,-0.06637503663088345,0.0056121259785301665
0.8175,-9.912357367460103,-0.17322741606669284,0.27428947842159546,0.017513400797141726,-0.06421258043350536,0.002750801622866206
0.8200000000000001,-9.871007186937337,-0.007651855663868737,0.29954452281837773,0.01607558914198025,-0.06395286629057002,-0.0007278662905700224
0.8225,-10.019380984679492,0.08199417201065405,0.5419885517253628,0.016785242914471733,-0.067653,0.004119016149156561
0.8250000000000001,-10.119927599834273,0.0857043746315479,0.5824296361645468,0.015079095874519043,-0.067653,0.005730204841669176
0.8275,-10.023672470758841,0.00026796057877732926,0.46472588889710487,0.014355,-0.06283716651446941,0.006414
0.8300000000000001,-9.921338041339096,-0.16817707930886083,0.3869004695464411,0.015028363930885578,-0.06146649598272166,0.006414
0.8325,-10.000541655990897,-0.24470216764688196,0.4911702214745167,0.01676249185602204,-0.06887972268551239,0.003092991497873854
0.835,-10.072621286449062,-0.14821898278732842,0.5403503638426058,0.01657032304964964,-0.07051001752650174,0.0008874462430377029
0.8375,-10.015818665573008,-0.020112861239648908,0.4398370581753445,0.016419292408883387,-0.06805573362222389,0.0012588480693337646
0.84,-9.924676,0.074725,0.312052,0.016341,-0.06827011438952447,0.002596
0.8425,-10.036309803001444,0.03695413272727201,0.5157347118614757,0.016341,-0.07211129085137083,0.004382912150072184
0.845,-10.07216078093102,-0.11283538442353766,0.554073960236378,0.01804261724553782,-0.071624,0.007194004630969587
0.8475,-9.967119,-0.236131,0.331181,0.020006,-0.07132964654922279,0.008094
0.85,-9.835310383244463,-0.17657699142078584,0.27953016378717976,0.01921280270174193,-0.07209467560137454,0.004993448418059084
0.8525,-9.9259205814183,0.016814323001030904,0.5614525673860995,0.018326,-0.07477649287198815,0.001527
0.855,-9.888581501083458,0.03563984187408529,0.453102944187411,0.020735905202537798,-0.07341775537335286,0.003358729936554399
0.8575,-9.790491460202878,0.055677705999843924,0.27379666006762526,0.020214395797750986,-0.0701621848140284,0.005000907915388865
0.86,-9.785465774548802,0.06920182363106253,0.23707548363413147,0.017236201844690005,-0.06876522946593,0.006828054490484943
0.8625,-9.934215298546984,-0.07439492257395809,0.4156000206538971,0.01573723181110542,-0.071166,0.010285846393357632
0.865,-10.070868613094953,-0.3134512620716102,0.5420782921382358,0.01952444413171643,-0.06731237633322149,0.007891908923932333
0.8675,-9.923945841106262,-0.25065632105641444,0.3744247459214845,0.020291915517423202,-0.07053605771365581,0.004438036387863615
0.87,-9.785057756864747,-0.1165085137294937,0.2367724235508569,0.022462736449143265,-0.0704046288832179,0.0018488831984445277
0.8725,-9.877482062758467,0.05847646468340119,0.49129782545706774,0.026361523886714328,-0.07467705009440502,0.0041099139212526885
0.875,-10.098700795555557,0.10555206793650794,0.8090794025396826,0.022223766984126984,-0.07289773587301587,0.004706102222222222
0.8775000000000001,-10.109678453955203,0.08108990270209378,0.7668294045917893,0.018597986529662006,-0.06909783926788146,0.00602302694067599
0.88,-9.909159130144166,-0.050900988754915256,0.47430518355176876,0.01659831171690694,-0.07041202875491483,0.007986012031454786
0.8825000000000001,-9.82606946150776,-0.18776293829769455,0.3030452611656177,0.017817861427253803,-0.08027407203354328,0.006425080778196975
0.885,-10.01464668894129,-0.15238181121829172,0.42728868471597137,0.021228,-0.08393866327021551,0.004123
0.8875000000000001,-9.981361947281545,-0.02672729825242419,0.430127076407759,0.02195910684466023,-0.07288538228155311,0.003903715825242708
0.89,-9.821994485848368,0.07807128699445869,0.3494703370687433,0.022172376450890218,-0.06773508209409271,0.0048302470982195655
0.8925000000000001,-10.072939809515042,0.04326533174669174,0.7360170422053476,0.018020793137594956,-0.07689271921066806,0.009926206862405043
0.895,-10.17789522561024,-0.11266669155056021,0.7929917825270589,0.018978262223285303,-0.08120227063565152,0.008968737776714697
0.8975,-9.820969382812237,-0.28627488000967255,0.1905717111498023,0.022174013995889263,-0.07709198600411073,0.005188271265868753
0.9,-9.713729635183169,-0.2745276847297787,0.0655222722524472,0.021399403989844027,-0.07786659601015597,0.0013164890097932197
0.9025,-9.790697063976753,-0.08993636996702128,0.2139945196952996,0.02312144914088263,-0.078191,-0.0016938670268572028
0.905,-9.920694211133736,0.10798460394861695,0.45231386944192864,0.025336735549277754,-0.0702523766622248,-0.002324282225894086
0.9075,-9.903987753473695,0.12101509318906227,0.5692551606737368,0.02525122191567614,-0.06752097060071428,0.0029675026299237216
0.91,-9.930233038864783,0.06250163069309034,0.5576474917509061,0.022290610995660747,-0.06901211599390183,0.007183228807317962
0.9125,-10.090368531333384,-0.079147102313096,0.5932576440514703,0.020506892160732586,-0.07547582074682241,0.007747531333385972
0.915,-10.2007690853887,-0.20724386519555987,0.7124967462868167,0.024157008532110166,-0.07747786680830511,0.007660257851279595
0.9175,-10.102881104166332,-0.15377822688608966,0.5899018394188017,0.025691997203178944,-0.07459651765272539,0.004824862425945296
0.92,-10.00429903889313,0.014061705572520643,0.5342111785114518,0.024314695496183182,-0.07278125412213739,0.002225135763358827
0.9225,-9.944223710293624,0.09912150312824985,0.5169914310456841,0.02463490418433474,-0.07647039822065761,0.0042539877046163625
0.925,-9.99736014154176,0.17874736519153137,0.5605646685224888,0.02432950775636444,-0.08159231705924344,0.005113345515108259
0.9275,-10.056886869131256,0.11818277075543025,0.6040958645986785,0.02165354137865912,-0.08062875833805477,0.007772792115203006
0.93,-10.0639670468751,-0.23999119092842428,0.4503391075765751,0.02106030364704015,-0.08359673644183467,0.0077305411077605805
0.9325,-10.046723205402317,-0.25192919235465266,0.4480181839221288,0.020975432394857958,-0.08571463474792361,0.002986626410622661
0.935,-10.054461114195584,-0.130132137393829,0.5245952554719773,0.02164163534093671,-0.08575246787672887,-0.0013676370395535851
0.9375,-9.984488511006914,0.08568996701899387,0.5277186175792736,0.022895584757212113,-0.07946497568147501,-0.0005220003178892157
0.9400000000000001,-9.955297744150114,0.14797624299337675,0.5462323375673354,0.0207838221810153,-0.07729463365562932,0.002528663214128068
0.9425,-10.098653709189541,0.11046052945265544,0.6953951488549619,0.018306433457852853,-0.0811429467402956,0.0051017603962969045
0.9450000000000001,-10.062003969825005,-0.1761464510340446,0.4794197124106462,0.021702447389967176,-0.08353097629441081,0.0077798169052921565
0.9475,-9.962616113229398,-0.2034034218262807,0.4056268297550109,0.02391047331848553,-0.08140802414253896,0.00667608195991091
0.9500000000000001,-9.907147022907706,-0.14326423423865692,0.4522756757527417,0.023777424677399413,-0.08351192063414062,0.002877830453483849
0.9525,-9.930133251473709,0.023958344779383085,0.5290826198420167,0.023517994915822245,-0.087812,-0.000916
0.9550000000000001,-9.85946190107628,0.0776302273778811,0.3799443389615532,0.025493356901241878,-0.0858162029189827,0.0017925150751036934
0.9575,-9.86220170733744,0.0633609428073264,0.44291549340478514,0.025144962767335834,-0.08156451492281849,0.004887
0.96,-10.023434961790334,-0.00491140181882628,0.6893233186228168,0.023079317834500828,-0.079412,0.006825314177846301
0.9625,-10.060609603794887,-0.15195623914066259,0.6074672432021306,0.022029292378861545,-0.08496522063666309,0.0062697500548847
0.965,-9.996276726037943,-0.20084432543524455,0.38105874330525574,0.022794083810697897,-0.0905435734648312,0.0022252763865489005
0.9675,-9.892383606257104,-0.16907536679405485,0.16640264687349948,0.022903243150469148,-0.08878840618587766,-0.0005166338716526557
0.97,-10.077343977344036,0.15583458998888114,0.656885579943167,0.02572885505126623,-0.08386516079061151,0.0005632380382951976
0.9725,-10.317097031164359,0.1896232350888732,1.035027058485633,0.023620794803852447,-0.0846341395035628,0.002585700324171955
0.975,-10.350892917251535,0.14974850723926475,0.9205543889079802,0.02075297182822089,-0.0878969326134969,0.006600443042944689
0.9775,-10.052183964662824,0.01195094824197264,0.4074013127912225,0.018084728221468543,-0.09035983540657783,0.011590436371953632
0.98,-9.818086062742053,-0.16959420661004454,0.19895379958747664,0.019554369026935157,-0.0948565718417859,0.009015531652511583
0.9825,-9.888455902267458,-0.314994514130179,0.4163270049420144,0.021952221112426014,-0.09399758407889533,0.003972332004733681
0.985,-9.896709341288382,-0.18201637160746814,0.4588328597760394,0.02249717480553881,-0.088575,-0.0023422697459361186
0.9875,-9.805252563104066,0.09715434424233148,0.3978684363338279,0.022109942837067624,-0.08662818693106404,-0.0038774058708719323
0.99,-9.849625706866536,0.12515186895551297,0.4879827118955504,0.020334380831721465,-0.08871598044487423,0.0021469703675048154
0.9925,-10.176868672873773,0.10016517189310731,0.7986611217526755,0.02208677262499001,-0.09501237860524842,0.00465391743519782
0.995,-10.375621336674131,0.03063505020153255,1.014096649282263,0.025149449220978188,-0.09471295870830879,0.006303510053034761
0.9975,-9.850089942161604,-0.2756817135187997,0.38064101399552996,0.027602658294611022,-0.09433432728501617,0.007902658294611023
1.0,-9.718072888600567,-0.3611718851004767,0.17296842055397985,0.025476525073924325,-0.10254841518315129,0.005776525073924326
1.0025,-9.872961273099747,-0.23848696326274102,0.3363919371167533,0.025907013482402912,-0.10627838968270213,0.00180712860089768
1.0050000000000001,-10.11773557512084,-0.025083705615000187,0.5791722417265807,0.028191896616568582,-0.1014615541757839,0.0005410666201758022
1.0075,-10.02984378714717,0.05380218565155265,0.44250403959585866,0.028727958752585502,-0.09177651905489244,0.002607812006364347
1.01,-9.95851567919007,0.05868921680125319,0.4412001609931311,0.025696275661082294,-0.087659,0.003824747653368702
1.0125,-10.068271791177864,-0.07491608275098506,0.7507752550829982,0.022907,-0.08996305464031613,0.005498
1.0150000000000001,-10.19514043253617,-0.1881053926711675,0.9625402583703007,0.024450411272902803,-0.0937159927000966,0.00446905915139813
1.0175,-10.127528649673806,-0.09121778281453373,0.7873655784902053,0.027874203876980513,-0.095142,0.002113549027648278
1.02,-9.981467,0.019727,0.582257,0.02978,-0.09695691499096062,0.000764
1.0225,-10.012335240348515,0.01179770891722792,0.6553217838194041,0.028550197177029734,-0.10251343322930685,0.003368093265742509
1.025,-10.106533650424923,-0.011377550141641667,0.8525079524079208,0.026629888196411763,-0.10601394409820587,0.007230468932955525
1.0275,-10.07652306369149,-0.05557881118809659,0.7086584079878228,0.02531785886870946,-0.10811227691175308,0.0076124451204095875
1.03,-9.93540900743781,-0.24161634338205354,0.2646842675365441,0.02222946014519412,-0.11089784487077728,0.002512271238021454
1.0325,-10.047245544700624,-0.18180314312302798,0.5655263295966624,0.02563879524813822,-0.11021252823115882,-0.0003258398427167012
1.035,-10.113346126505807,-0.043626002142393455,0.687645295969016,0.025543839304140604,-0.10572835871790302,-0.0012797722537980034
1.0375,-10.004922279917537,0.01665503545548258,0.6696486222310272,0.025651177673828598,-0.0992782189645601,0.00016237494648389935
1.04,-9.857886919337762,0.05418932992048929,0.6247971706611491,0.027257946476418746,-0.099910870654613,0.0023355052042261268
1.0425,-9.916251006612244,0.08710449394693896,0.6664477846530612,0.02900490535102041,-0.107207,0.003293200832653051
1.045,-10.035221583591833,0.06056000650204157,0.672204252897959,0.02867802783265307,-0.107207,0.0046820290448979195
1.0475,-9.885996338877186,-0.18937553515789943,0.4307520233192896,0.029131645473684332,-0.10479726662105256,0.005620666182456124
1.05,-9.812753189130182,-0.2034041670886043,0.3934340048542617,0.031539526326791335,-0.103694,0.002838237115317488
1.0525,-10.20373420403642,0.1505979045827291,0.9829131908646992,0.03129322920141507,-0.10384879123122426,-0.0007435045641709866
1.055,-10.134299414452244,0.18258911123586302,0.822232282233954,0.03120018731311257,-0.10282715481064782,0.004550153198399219
1.0575,-9.980863431667482,0.08028322505689252,0.5938237508559994,0.030688485145967306,-0.10331765624938158,0.008109029708065393
1.06,-9.864005989925339,-0.11273908440020156,0.4560958821204613,0.028562948432055656,-0.10454169229467396,0.008001418556495688
1.0625,-10.094412096847702,-0.19675761925560198,0.8010875611469807,0.030081091910368403,-0.10754868078237752,0.005177727687048994
1.065,-10.229554,-0.222979,1.004304,0.032529,-0.10669374646954255,0.004276
1.0675000000000001,-10.068121952113373,-0.09234807349605217,0.7075656294865896,0.031685744948031426,-0.10690469137952777,0.0011145986267713922
1.07,-9.994747010303387,0.21081359809604372,0.6730889140106994,0.02871107867845616,-0.10523803096733216,0.002848153394398358
1.0725,-10.134803275205169,0.16434913968973353,0.8406928532620327,0.0318478682162334,-0.11057945612537726,0.006663377766717861
1.075,-10.241884864401808,0.07394560931199136,0.9642378864475124,0.03302589343761461,-0.11333666295979473,0.009500586606379062
1.0775000000000001,-10.261237,-0.001793,0.981588,0.031918,-0.10888403297777746,0.009927
1.08,-10.097341254968601,-0.15470746788992024,0.735607300183467,0.03402176507967182,-0.10772147934331262,0.008874887841622322
1.0825,-9.96445616243557,-0.32777891134470133,0.46776476954294194,0.03635636553764696,-0.11581003547146311,0.0030651500490539024
1.085,-10.10348458186335,-0.1048739847826175,0.612437359999995,0.03499587993788825,-0.11520015223602509,-0.005931974223602331
1.0875000000000001,-10.032361622721679,0.2690239891377816,0.5878787779686846,0.03317490575329853,-0.10736,-0.006657202255292629
1.09,-9.735182396931155,0.34025504919649047,0.31204089807759183,0.031114844635794565,-0.10840371546433052,0.0031695394693371445
1.0925,-9.784273250408003,0.16866826834058832,0.45923379687147664,0.02961245113046285,-0.11150246695694246,0.012316659654894419
1.095,-10.165133781381034,-0.07271609989266174,0.8944315254525887,0.030158457273703063,-0.1132468100608229,0.013875842203935637
1.0975,-10.26089803067358,-0.3141391801036219,0.9129216674404257,0.030899790176165714,-0.11416726180310875,0.01007447734715039
1.1,-9.992981661412836,-0.32121100319487916,0.5707157887113834,0.033443053248136394,-0.115301,0.004296438054667777
1.1025,-9.94208117798405,-0.0439114616517563,0.5485543612988509,0.034649892575940706,-0.11688967275803727,-4.744380307792755e-05
1.105,-10.111153639191185,0.16134414281147802,0.7490609072187905,0.03424299662913187,-0.11902526298099043,0.0033992346531056274
1.1075,-9.964679560415348,0.11412066072509873,0.5389971736430847,0.03207555780359026,-0.11389922507567762,0.009055204899683157
1.11,-9.887456114849229,0.04645718208142409,0.4897203761210822,0.03292076689897927,-0.11211407456998702,0.010933857430482297
1.1125,-9.973183088146623,-0.11936222415106745,0.7215922777054984,0.03293603422722944,-0.11531980247540476,0.013183796159949268
1.115,-10.147722827561436,-0.3435388760302451,0.9179508030529311,0.03483666733459355,-0.12049314071361059,0.01155506441398869
1.1175,-10.061065227853241,-0.3051418008561369,0.5718127592822762,0.03843163247827483,-0.12189642961699386,0.002650047618281518
1.12,-9.85406944288978,0.03537143154762834,0.3386776971171414,0.03823232421465654,-0.11660521856203046,-0.002428077077899541
1.1225,-9.904845310982664,0.3174581185367026,0.649999447259493,0.036957,-0.11102475191701647,-0.001833
1.125,-10.230299299386502,0.24510826895705523,1.2044793471165645,0.033000607730061346,-0.11762214711656442,0.004365621349693252
1.1275,-10.370259974412072,-0.07942024792694845,1.216681732335064,0.028574944565303663,-0.12259207753552999,0.01209673442477175
1.1300000000000001,-10.114329681769977,-0.31514010320871244,0.66133239608137,0.03272274670137287,-0.12540390803596826,0.010388218532891465
1.1325,-9.877506648532638,-0.33140034074627955,0.34590467712543627,0.03673311723924884,-0.13159307596455583,0.005628913629786051
1.135,-10.158362925378098,0.228295887038636,0.9790129770466287,0.03616382119477751,-0.12754267882547293,-0.0026008076461497285
1.1375,-10.030423242334134,0.2917647701891809,0.8033042729869468,0.03514011150546232,-0.11824100224886774,0.0025194171809218373
1.1400000000000001,-9.807913873778794,0.2534930898067422,0.5527119841862448,0.03444146196973224,-0.11762018002328353,0.008691908013970122
1.1425,-9.818190970752294,0.10527058045464885,0.5458509940098506,0.031797620314037836,-0.12452368984298108,0.01149525646121394
1.145,-10.141609483764709,-0.12853950999760233,0.8969727428619484,0.031140364278511454,-0.125991,0.012383170103241328
1.1475,-10.198512268820588,-0.39939666197760143,0.9699710306981216,0.03532424725279959,-0.12253872855849425,0.00970506763878973
1.1500000000000001,-9.907458843213014,-0.3226783647496862,0.6212125279161561,0.03799023823050076,-0.11956130556461017,0.0013131199999995534
1.1525,-9.735550543933325,0.0471342024875884,0.4700274078858835,0.03784071610193931,-0.12492592634075998,-0.0028701792723192982
1.155,-9.94117732593407,0.27971957032011535,0.7030968470711941,0.03685450018155761,-0.12599248435738164,0.00014850054467282223
1.1575,-10.139178335970715,0.24995682222159765,0.9862711593636474,0.037040513152189244,-0.120951,0.00753325758693504
1.16,-10.089503396544584,0.10954144735315312,1.0635715208845986,0.035547215231513406,-0.11965773901865952,0.012651006275051708
1.1625,-9.850741999948063,-0.1550855935073434,0.7803029505518762,0.037568,-0.11541789450720766,0.015303371614075733
1.165,-9.932447,-0.277379,0.77714,0.037568,-0.13452168127351682,0.008705
1.1675,-10.027713231977907,-0.1437843779376743,0.6832629491502971,0.03884521034161734,-0.13146631856410268,0.0035961586335306363
1.17,-9.994316361575798,0.09543115928896743,0.5251445409368285,0.03855247570502056,-0.121409,1.6523209223931207e-05
1.1725,-9.813039341885586,0.2241656015404298,0.6082260892170124,0.036775299015659985,-0.12162388358581018,0.005690336899968236
1.175,-10.071023621564494,0.16190267089499222,1.0580098489076952,0.037537799295278375,-0.12385950782241024,0.011879892741367307
1.1775,-10.433692973199935,-0.09441439768920351,1.3581804832144588,0.037230436985638216,-0.1259388810327578,0.013361271047280958
1.18,-10.31041173517686,-0.27697564970346467,1.0543842062165225,0.03841082294629021,-0.12581625019888054,0.008506533547695762
1.1825,-9.856211207016306,-0.19816227290030564,0.5923156172930286,0.04041108233414378,-0.1278358786198913,0.003687978589787963
1.185,-9.922028313826097,0.09124986437350215,0.8476680273684222,0.03853698048509255,-0.13613094457674244,0.0015568337302272958
1.1875,-9.997746739718147,0.09545633189531205,0.9017524736842105,0.040302199022145525,-0.13751266033937304,0.005701981018119069
1.19,-9.936473812923083,0.05045569661538725,0.7272721567472642,0.04167208228571427,-0.1352862007032969,0.008461444659340648
1.1925000000000001,-9.862965236638813,0.029185476811776797,0.5874182456518502,0.035086445789750585,-0.12993487675802012,0.00608270682405196
1.195,-9.862233016502074,-0.05139917883948075,0.7302728624881705,0.037332125121252904,-0.12815671538830126,0.007580234869397572
1.1975,-9.879232992686438,-0.1524546894519577,0.7677526129980228,0.04072045960300515,-0.12820822928588377,0.010283999060498235
1.2,-9.871576344154592,-0.23054160490338155,0.6560128348792312,0.042444772294686045,-0.129198,0.010786020193236812
1.2025000000000001,-9.90988527247037,-0.14140906033190276,0.643312908781421,0.04115143315315316,-0.129198,0.0063471710384066455
1.205,-9.953978953137993,-0.051005539584122205,0.7388979830340258,0.041900113534971695,-0.12706437182892233,0.004837636365784569
1.2075,-9.859677740888637,0.024680426334173944,0.7636545012200475,0.04219351793030622,-0.12509117174884252,0.0038992257883193626
1.21,-9.890094944434047,0.14674709399438682,0.8612244968755824,0.03896734566884949,-0.12654710716557527,0.004793560748362831
1.2125000000000001,-10.062746635918504,0.08632054000946998,0.9988408112146647,0.039330818259359045,-0.13156908756910482,0.011445268014531933
1.215,-10.143319619757124,-0.19508110368279347,0.9867462926592231,0.04205912969516717,-0.136681,0.015489454463444935
1.2175,-10.127929,-0.42922,0.872788,0.04047,-0.13774381091632248,0.016493
1.22,-9.755624478185977,-0.138012140602999,0.49732460013175767,0.04423669340765126,-0.1317072851887512,-0.0008605687864195084
1.2225,-9.73985697805691,0.12128196085961881,0.5866346511132231,0.04520093114180258,-0.1328195912203833,-0.0015679361614478462
1.225,-9.990033473849522,0.3408023141200699,0.9173483454523731,0.04414287080565272,-0.13731201434955945,0.0026160143495594346
1.2275,-10.28090930217367,0.28829008002232326,1.1318412184036342,0.04137532720197749,-0.13801518932142565,0.010660116067299366
1.23,-10.142216296175022,-0.05659294203245935,0.8376565543354545,0.04348797300870377,-0.1328118679651847,0.0179168664031992
1.2325,-9.839780768133586,-0.4178495900232732,0.6052525382323183,0.0474232878670627,-0.13509147209440453,0.016770664304407372
1.235,-9.83762618083013,-0.3900978011872396,0.8041473469305209,0.048482446833976955,-0.140041,0.005010001766408519
1.2375,-9.99163,-0.184122,1.007891,0.049786,-0.1393374750774265,-0.003054
1.24,-9.99163,-0.184122,1.007891,0.049786,-0.13812119309297027,-0.003054
1.2425,-9.886490558794229,0.3617294489304478,0.6364237952478438,0.04409151563794627,-0.13626648436205374,0.012671225775771434
1.245,-9.952667760365783,0.03161362901369308,0.7744757141868223,0.0444963323840626,-0.13635991764859587,0.021584291273677433
1.2475,-10.158554473379313,-0.45118758262069325,1.1204472848841192,0.0439404082532506,-0.13877569911588458,0.020902412798190755
1.25,-10.250477,-0.564323,1.239239,0.04948,-0.13643491090840934,0.011148
1.2525,-10.038123935629063,-0.19008245236905968,0.925954299142281,0.04861067241019152,-0.13794363999366988,0.006005545523025986
1.2550000000000001,-9.815076978129095,0.2701543239663294,0.6753404672778419,0.04799018536950426,-0.14271370073900894,0.005518812282507673
1.2575,-9.960954211821907,0.17845143735258057,0.937904170474134,0.04685424582430799,-0.148455377087846,0.0140344675234658
1.26,-10.11399096527768,-0.05751632254687011,1.0148309332107055,0.04375253141846479,-0.14723764504185824,0.015126049621506885
1.2625,-10.10037252383464,-0.15234676975102723,0.8683709263941685,0.04558557812766607,-0.1445536123788102,0.011721210936166966
1.2650000000000001,-10.043966574606682,-0.1766074273322118,0.8393603027664204,0.04828963351455353,-0.14390876052441656,0.008997718051479336
1.2675,-10.044571441847802,-0.07165209164761521,0.9058011568976441,0.047704485708728504,-0.14454146902018,0.005614209955425753
1.27,-10.102565297245567,0.02044737444741221,0.9698862519310179,0.048669139538498885,-0.1481611957639058,0.005212128277872289
1.2725,-9.997610157562727,-0.07849662160511041,0.8859426928720611,0.05054662359981292,-0.150426,0.009889262964001833
1.2750000000000001,-10.023320114931012,0.027415035884590766,0.8932102866750493,0.04879601696361274,-0.14806973570890802,0.006756468757841158
1.2775,-10.033537548205665,0.04374673651626445,0.9001334854354668,0.04645694115424968,-0.14746926002098634,0.007882188856243496
1.28,-9.990144152383387,0.015547718089075208,0.8247442313060465,0.04567950436051762,-0.14769424494733674,0.010436253668372
1.2825,-9.877783198052866,-0.08197177624705303,0.6184171435906832,0.04713955633080344,-0.14970522707668138,0.014200163020151847
1.285,-9.963310168169956,-0.2178408576071595,0.7100406691911941,0.048853447260529204,-0.152144411166605,0.008462077062989421
1.2875,-10.016577953976205,-0.06164112247964236,0.9271406169693228,0.052889485597996444,-0.14380252273011884,0.005486848340638706
1.29,-9.981667686223926,0.14035437169024517,1.031396521323424,0.054396934682330284,-0.14146241612083435,0.006249248362503021
1.2925,-9.95930553796366,0.26257595877192946,0.986086082456141,0.04953064583959902,-0.14524409406015035,0.010617307387217998
1.295,-10.025087806754383,0.13602749675439954,0.8768465071929862,0.047189,-0.1513290506432747,0.014966
1.2975,-9.962784948722232,-0.2332621195236672,0.747276544814929,0.05378473240424894,-0.1526504950177019,0.018795825046669084
1.3,-9.836246996263007,-0.357144662251653,0.6930196688741735,0.060077863481551495,-0.15334762048249773,0.015882454872279683
1.3025,-10.029650547753155,-0.08699045708839778,0.9504937078135162,0.05515033230720358,-0.15484685620204908,0.00432469463267415
1.305,-10.218060525874733,0.2575717489848736,1.1527466237149067,0.051862951058315294,-0.15220315879049687,0.006243174773217794
1.3075,-10.020556473661907,0.28980499710347285,0.9192054616179894,0.05281495057852528,-0.1522391942287629,0.016934642214436225
1.31,-9.856226731454075,0.030956799464402718,0.7350964116607946,0.05047194252290328,-0.1549945095795161,0.021342217542870506
1.3125,-9.949702297971157,-0.24296564238572477,0.8966536379858225,0.05002824761671963,-0.15754120703984356,0.019250390124663896
1.315,-10.022917155121151,-0.34675349047753423,0.9483675319689562,0.053525487094801254,-0.15788229612797003,0.01611321354975313
1.3175000000000001,-9.956461811990126,-0.16915933295849328,0.7129580744954945,0.05277034741100581,-0.155312,0.008558728861988928
1.32,-9.90555163026046,0.1850609015542227,0.8634329678266456,0.052100563014517536,-0.14960354459436392,0.011513053804440737
1.3225,-9.901537200473953,0.005065801844576667,0.9296769357173358,0.053297112698548255,-0.15541503754056363,0.01501707511955595
1.325,-10.061143000630983,-0.034259589200343485,1.0976995413906017,0.05315038238077908,-0.16011138895765073,0.012770519330178597
1.3275000000000001,-10.199595174593437,0.05385869351876719,1.2002579823089647,0.049675930870011646,-0.15966811267957315,0.009955942830501992
1.33,-10.030002691147843,-0.035644640746345976,0.9886465526216219,0.051072562144544476,-0.157909,0.014901689872461203
1.3325,-9.969394853667085,-0.1916394652377979,0.9407528932290381,0.055613157941176466,-0.1628225869211515,0.014824364480600717
1.335,-10.238339656870396,-0.14367365311692054,1.2631926199746322,0.05611507691605373,-0.1633334140197821,0.010220414993659707
1.3375000000000001,-9.994790199116299,-0.009166715261516953,0.945989245736786,0.0562,-0.16454903681633637,0.010079
1.34,-9.77371260076726,0.17952786721228559,0.6728838223017855,0.05496695749360603,-0.16713547483375973,0.011106610179028222
1.3425,-9.889609318894411,0.2963764080275594,0.7961039742445158,0.05169459764781281,-0.1691850795801955,0.013705012997917028
1.345,-10.139073009355947,0.09125925505397303,1.083923692814611,0.05241475242320001,-0.1697184886774997,0.01757879740955989
1.3475,-10.131474697180703,-0.2084354912898101,1.044669753327033,0.05568454768842637,-0.16843686394197424,0.01836856224534859
1.35,-9.763982613926018,-0.0810367191171835,0.7550799148274759,0.05418109365868825,-0.16247736024246212,0.007229358967982681
1.3525,-9.752291931343903,0.0998505179691249,0.6680462597865494,0.05501063233447312,-0.16770394282250553,0.00971851824266919
1.355,-9.883145434545451,0.21625980181818205,0.786306178181814,0.056096130909090894,-0.17377181999999994,0.0141594363636363
1.3575,-10.094629411789619,0.09977588569832045,1.0980717251054457,0.05480405289065821,-0.1718297597154234,0.01884955247226221
1.36,-9.94180940051422,-0.07348416736455904,0.8869169597979558,0.05310288947658415,-0.1620740815059686,0.018937
1.3625,-9.835712102936633,-0.07500861065646942,0.8258939922394937,0.05515125427479055,-0.16105783919303673,0.016677466281623612
1.365,-10.035124588021768,-0.021051314155229435,1.3075714924893496,0.05761532997160434,-0.16416318022716517,0.017310410369143363
1.3675,-10.137854321212602,-0.10740059408541544,1.3107087962137953,0.06098644125365118,-0.1688677107223493,0.0208557133685956
1.37,-9.923049988907152,-0.1959266734853113,0.8862230251562715,0.05998575315628645,-0.1702355072244416,0.016470373781433182
1.3725,-9.720146379350481,-0.1193817101286143,0.7220789985080388,0.0602907935627011,-0.17197795400643104,0.012166357864951785
1.375,-9.96040630180517,0.07640325400555437,1.1535246133838923,0.058132586787011324,-0.17665577777184363,0.014375118137150181
1.3775,-10.090634356049987,0.11791620088015292,1.295805355447551,0.05667822240333265,-0.1731495107690665,0.013434289425336487
1.3800000000000001,-10.053808647003008,0.0425762504440695,1.2454985908625718,0.057065183747965764,-0.16844058515228985,0.015542251597303306
1.3825,-9.723116557919967,-0.21152511883455627,0.8529406054937979,0.06008857099714201,-0.172383562543665,0.017728812686567102
1.385,-9.715906166903054,-0.24354022796088934,0.752996262075629,0.059932985034750835,-0.17610819190952992,0.010176127096242134
1.3875,-10.107603,0.187111,1.170492,0.059712,-0.16829492782871006,0.005345
1.3900000000000001,-10.107603,0.187111,1.170492,0.059712,-0.16554805191695735,0.005345
1.3925,-10.046251300024087,0.2046803093905092,1.2073034864851862,0.057147184986750046,-0.16681644056853784,0.008408503126957517
1.395,-10.07981036837425,0.18275169589624746,1.3781245818434484,0.053398959407132914,-0.16817316572487262,0.013610594423344174
1.3975,-10.144704710148655,-0.04766925651104395,1.3036047799341162,0.056782256539975776,-0.1714766206380071,0.01950138711450372
1.4000000000000001,-9.868668809609149,-0.24417935862316023,0.7664786902115067,0.06159436349946212,-0.17903967386159936,0.019139278451057003
1.4025,-9.620994,-0.225968,0.445959,0.061087,-0.17821897062058115,0.013134
1.405,-9.798936532195011,-0.038282383629007266,0.9490184205660084,0.06141425714149823,-0.17444543381688463,0.01038298125089171
1.4075,-9.952975164669486,0.29478426863886287,1.400505396947616,0.062334411029423484,-0.173486,0.009626466176540888
1.41,-9.85902973089,0.3249860871835005,0.9641311189158992,0.05865803986814836,-0.1770706805225244,0.014757159638627613
1.4125,-10.038326394045544,0.1341411702276643,1.0327144805604382,0.055817919439579845,-0.18100388371278453,0.019246787040280364
1.415,-10.102150801407744,-0.19965037320062462,1.3234491233226673,0.06114876936603873,-0.17583366888019888,0.02400956175376237
1.4175,-9.831197857866083,-0.31788729369837476,1.0837449481977497,0.06216993257822281,-0.1744436618116395,0.016564662891114017
1.42,-9.713199892019393,0.04522963821574133,0.8067392159612153,0.05866720905212131,-0.179136,0.004174662487272799
1.4225,-9.797993166256065,0.3232754372280077,0.8548713890360078,0.05916821479456424,-0.180056229980132,0.009139750533259588
1.425,-10.0650605652174,0.38066824347826234,1.2772906695652329,0.06283153043478268,-0.17705840869565198,0.016391113043478272
1.4275,-10.267750241723357,0.215901910826046,1.7157051569420145,0.05920878732750246,-0.1672954002332362,0.01922890233884028
1.43,-10.129330997764573,-0.16170329794053703,1.519980158868031,0.05472830331510097,-0.17783839714625344,0.019426236366230858
1.4325,-9.78809178209255,-0.32948615369243117,0.7594362586516243,0.06162667202021402,-0.195782,0.012965237537613165
1.435,-9.8201802626087,-0.04476145536231069,0.7568190344927597,0.063988,-0.1892429515942027,0.011454
1.4375,-9.943899601143674,0.2407073995711222,1.0417427617345723,0.0635022761496307,-0.17490576125804144,0.00840061901358113
1.44,-9.97825644658522,0.30952999162937384,1.3453155751251895,0.0620508152171284,-0.16249,0.008474411215676556
1.4425000000000001,-9.934846024212275,0.07890353003721562,1.3421860038083042,0.05952216169504939,-0.16806572148910937,0.01441547064396049
1.445,-10.246143433858757,0.0017965551985895535,1.576019147968474,0.059254,-0.17651581848802236,0.009316
1.4475,-10.186339370227108,-0.002103390693767513,1.5539172797863734,0.059254,-0.17535339212278336,0.009316
1.45,-10.002466394989115,-0.013335698838053254,1.3206198656499761,0.05846504538852582,-0.1805641711692081,0.009983729847494516
1.4525000000000001,-9.804562308148627,0.03738529276376842,0.9228186583670445,0.055845388738615165,-0.18974147393568147,0.008826624186346213
1.455,-9.849913640477531,0.0965929926966275,0.9262861157022545,0.05521546528089897,-0.18822340522471898,0.007390907921348421
1.4575,-9.908715370000001,0.15143441000000113,1.1499104600000014,0.05897720000000003,-0.18213369999999995,0.00909721
1.46,-9.964135857824456,0.2417735689022265,1.2709979612303082,0.05865425644411118,-0.1750684721080271,0.01124117702425596
1.4625000000000001,-9.967412339794354,0.14649247045284858,1.1935690417151554,0.05451039345438642,-0.17422349928680833,0.016207580686939553
1.465,-9.9224320768147,0.026637779099536768,1.092090008183764,0.05591155342113328,-0.17814711422970914,0.01908009625727421
1.4675,-9.962619533946139,-0.15340367671094912,1.1473614654937174,0.061942952330341104,-0.18714557097306989,0.01215762698743264
1.47,-9.854482609656605,0.062232268412074424,1.1375904434570199,0.05968377540447112,-0.18017685577321962,0.00927765727587004
1.4725,-9.765834982847458,0.14249274955932267,1.0264555566779672,0.05684329898305091,-0.181122,0.008937618101694874
1.475,-10.177306897725826,0.17898093198724588,1.4301891783634486,0.062008976153028625,-0.18509781636556835,0.014895059383634486
1.4775,-10.22660055577471,0.12968615961742758,1.5844011669032967,0.06005222859086076,-0.17914177096705625,0.016426693509032964
1.48,-10.051466627624976,-0.24108240185210106,1.3680636133701973,0.05496598118405905,-0.17650704399907852,0.018334427661829054
1.4825,-9.682697450687634,-0.3895301822000624,0.8850727772283472,0.060697153163901424,-0.186927622054282,0.012408836908027424
1.485,-9.802329342721784,-0.2193993044403885,0.9638260943013361,0.06015964105878966,-0.19184216210607097,0.005804829435120102
1.4875,-9.948168046808515,0.007022963829796225,1.0901154102127724,0.05926893361702123,-0.19311827489361671,0.0008746863829787838
1.49,-10.052488886811085,0.32954053896647706,1.323700974638751,0.0583423229819678,-0.1805968945564565,0.007803425099842625
1.4925,-9.969353000937573,0.17837279655907837,1.3120146323226272,0.058168849615657846,-0.18199738649830305,0.016043171459237515
1.495,-10.069585027248317,-0.1661577907999734,1.2880057508617606,0.05613193006537492,-0.1905666060049928,0.016997231964816128
1.4975,-10.163517098709573,-0.352511327822207,1.1582769574988008,0.057925034844671125,-0.19315980644894046,0.012081818741436894
1.5,-10.137493,-0.319823,1.024032,0.061087,-0.18493982174316181,0.009163
1.5025,-10.095956639526685,-0.13263693635354518,1.309593221183278,0.06234315652257904,-0.1782160440473316,0.006091176189326371
1.5050000000000001,-10.212662786784112,0.16522261649665426,1.7845996991423554,0.06474509074107279,-0.1866921792773881,0.006905451962656313
1.5075,-10.204066332979588,0.24292033378553915,1.6903705526430695,0.06373185627090035,-0.1881279634938552,0.00808792756158028
1.51,-10.014804853699161,0.22477901381570892,1.3253765568386517,0.06266531690664076,-0.18729996663348306,0.014688752254461635
1.5125,-9.802032065784498,-0.01814676181473987,0.935111073582231,0.06165873312854444,-0.19162764035916804,0.022772485822306215
1.5150000000000001,-10.07987013082146,-0.4517420417434928,1.2319329927870963,0.06152236559513855,-0.2023955046877616,0.015459851617770139
1.5175,-10.101872208541492,-0.2307324564962217,1.3330781679086365,0.06638839986169336,-0.19568424473805512,0.011684802229672987
1.52,-9.960320186204727,-0.006224912462576809,1.2798153012699154,0.069639,-0.18741484225012064,0.01006142455818447
1.5225,-9.746616823610804,0.1309553232475114,1.1597879336818815,0.06600632688674785,-0.19034723529616152,0.013563005496761905
1.5250000000000001,-9.899840601151931,0.1057918599711922,1.32024802745382,0.06051666661867034,-0.20402670134389306,0.0156980812574993
1.5275,-10.094524280824807,-0.028058430337497726,1.2843035716439686,0.061815554342327994,-0.20475333259444195,0.016901329079339632
1.53,-9.811031431896172,-0.26691986007210355,0.8870202396250846,0.0692996469790917,-0.19275655844268183,0.01693132519105977
1.5325,-9.83631297043999,-0.2641413120110576,1.2445116411518042,0.0716777912708285,-0.19172853709590723,0.012284146202871892
1.5350000000000001,-10.023063177060383,0.08271755296620201,1.4038714569084618,0.06970485365742482,-0.20070858242309136,0.007306051302696665
1.5375,-9.946582938853016,0.14878222164831226,1.2702546788454188,0.06681559468287114,-0.1977436571211545,0.009434664565134903
1.54,-9.789189699793809,0.19783125347398728,1.0997227076959928,0.06782734016782559,-0.19409341270678487,0.0144154042004317
1.5425,-9.785040533785615,0.09831411763109725,1.2782657074467199,0.07351151596775478,-0.19541959332109501,0.02118458519594538
1.545,-10.046480017511426,-0.08923507203001743,1.6198769579031316,0.07402632861733331,-0.20269351002228192,0.022211201745045258
1.5475,-10.068649168094849,-0.21692024785771863,1.352242913315155,0.0717232471142445,-0.20820318752763992,0.018954546514981463
1.55,-9.739822939355436,-0.2421592073394478,0.7929758640319801,0.07166553418019292,-0.20721871305575143,0.015222795012938037
1.5525,-9.625438586120783,-0.048388169995295105,0.8532160748862719,0.07326959629803921,-0.20246108104156862,0.012340180040784316
1.555,-9.918252691428565,0.15660471012986887,1.53144274441557,0.0735568155844157,-0.20090271220779227,0.012401167792207754
1.5575,-10.133602145840657,0.19389667263347968,1.9530808815571623,0.07025676408822487,-0.19989179661564438,0.014188796615644357
1.56,-9.839309925448834,0.04921829938450131,1.2119496918220678,0.07226693398211582,-0.20338606601788417,0.016994123595401263
1.5625,-9.587517,-0.107006,0.755619,0.070555,-0.20516395311378677,0.017715
1.565,-9.738618795914759,-0.08517476867009698,1.1843956427920361,0.07375065501836864,-0.20443608335047764,0.019344422968405477
1.5675000000000001,-9.839769449788093,0.024146511269823007,1.4972918553350862,0.07820726710092606,-0.203265,0.01930733657196652
1.57,-9.555160339093764,0.07535908272352447,0.855480059646212,0.07222619554155517,-0.2076869352071726,0.016846482209837692
1.5725,-9.688430605321386,0.10096329273176774,1.1136933714400508,0.07504860713844254,-0.20791839735475895,0.02121788967861559
1.575,-10.009525669465887,0.08002660041827625,1.5944992369047521,0.07851443034105528,-0.20670551351351354,0.024039424099099062
1.5775000000000001,-10.170832129490853,-0.005274718260015972,1.8134854525951511,0.07468716972812603,-0.20581142952051407,0.022883953356401174
1.58,-10.012291127599234,-0.11946200066162854,1.4105067651417493,0.06909883538752373,-0.207232383478261,0.018616534007561313
1.5825,-9.739925863911967,-0.2237491943896029,0.8906348162251804,0.07544616300135562,-0.21133046520054224,0.016925560392313216
1.585,-9.766221143658793,-0.14852249979154775,1.1771388383035668,0.08070583257697378,-0.21001128172037872,0.015033265292919703
1.5875000000000001,-9.988948315098817,0.12445388357313103,1.6501393225296435,0.07763361286956498,-0.19928870928063183,0.012498185581027695
1.59,-9.95709611839319,0.19452077784498745,1.4544734805387354,0.07417117146502829,-0.19851824421550154,0.015203728412098516
1.5925,-9.928091368193705,0.14264955965133155,1.2103709524067796,0.07456404042615014,-0.206931,0.019935771544794218
1.595,-10.137904721587898,0.039525634158792955,1.540953035803393,0.07707432268430998,-0.20325290035916835,0.023540799130434734
1.5975000000000001,-10.337620373229193,-0.14114090347929648,2.0952268314824605,0.07750517400552259,-0.19561075181065057,0.02342103513372758
1.6,-10.208321823056796,-0.15950534670786198,1.9318755312098541,0.078409879795579,-0.19969028421678237,0.018019075635844737
1.6025,-10.014453415570253,0.031866400671079015,1.3840673434941093,0.08059003401839006,-0.21124423623487662,0.01337564493628002
1.605,-9.93076164179963,0.13019576660018628,1.21110690841373,0.08070976347866418,-0.212734,0.017553761196660377
1.6075,-9.874374586395039,0.05767295596747042,1.2932244866349871,0.08119042004670264,-0.21204191574522913,0.023050378259119163
1.61,-9.985196801493077,0.06365911376229785,1.5642337094063385,0.07752919514634397,-0.2101367718497451,0.01910642203104608
1.6125,-10.167382,0.057389,1.866332,0.076969,-0.21585939609663213,0.020006
1.615,-10.167382,0.057389,1.866332,0.076969,-0.21528787662977508,0.020006
1.6175,-9.953216723318661,-0.027193090020016915,1.4792068384335888,0.08105493795146934,-0.21661765417153833,0.01799749620565397
1.62,-9.695121,-0.129125,1.012673,0.085979,-0.21325787043498978,0.015577
1.6225,-9.915370863488716,0.08199453446100446,1.4545571340605647,0.08399982090020816,-0.20534123888194772,0.015577
1.625,-10.168859394054937,0.3349075811999066,1.9376514316395612,0.08058026853941327,-0.204029,0.01737342914948253
1.6275,-10.163795,0.353898,1.866332,0.077885,-0.20617266345562382,0.021686
1.6300000000000001,-10.13341490921097,0.08522824268508195,1.8224782731002613,0.08173189567856327,-0.21972364506433642,0.023980437950959277
1.6325,-9.902447163807427,-0.2890586677792579,1.4711679490129026,0.08342254323600769,-0.2240106234113503,0.02286567300195677
1.635,-9.690752118286937,-0.12727433210563674,1.1114944535617415,0.08050280137044968,-0.2233595334760885,0.0141192632976445
1.6375,-9.830161527416106,0.18526809595236043,1.3272167097127145,0.08182975335962017,-0.22065394833829569,0.01338074487808788
1.6400000000000001,-10.081968814455118,0.20782268015254446,1.7272273728233154,0.08262274178204097,-0.21859934474055234,0.021245708910204875
1.6425,-10.13888024853187,0.11078846243399543,1.6393934897617382,0.07994358293625224,-0.21513467518995477,0.023734114372182844
1.645,-9.99849494344245,0.0034259101255419977,1.3359846892408778,0.07687631060424735,-0.211512,0.021953713518714044
1.6475,-10.049505636845106,-0.1049449215052129,1.8559054502825152,0.09252277653404795,-0.217773,0.026064848148191332
1.6500000000000001,-10.18497271379974,-0.14693621542494545,2.108948394536042,0.08785863816624895,-0.217773,0.023453028391681577
1.6525,-10.16980061953766,-0.060462160193207604,1.963915391912576,0.08239782241288077,-0.2200696664151813,0.018101674617596063
1.655,-9.801662519305324,0.09945172006501982,1.1683808837813232,0.08243851950038501,-0.2261776431961674,0.017167116625887612
1.6575,-9.903752,0.353898,1.366571,0.090103,-0.2302297158711466,0.020617
1.6600000000000001,-9.903752,0.353898,1.366571,0.090103,-0.2213547749082087,0.020617
1.6625,-10.170197543155867,0.05750283131532097,1.826721890201831,0.08801630576221722,-0.2193947004619501,0.026181517967420763
1.665,-9.938667537003209,-0.21136593363344264,1.3966724870996652,0.0834380967717041,-0.22058137777491962,0.024496455485530456
1.6675,-9.679934121755247,-0.18880666197544677,0.9241076031366342,0.08302461190653462,-0.22695567124910881,0.01975338809346537
1.67,-9.813836016178238,-0.015209305027856869,1.1697798475320647,0.0874282773746668,-0.2305829776701384,0.01879852329377563
1.6725,-10.029292,0.065758,1.572214,0.090408,-0.2224714505567927,0.020464
1.675,-10.029292,0.065758,1.572214,0.090408,-0.21822610229080489,0.020464
1.6775,-9.921724077728049,0.18213063004638358,1.4560190438896574,0.08479033326063957,-0.222966,0.022369175978517362
1.68,-10.15233873224116,-0.026469442320435452,1.775149288272857,0.08913142209464318,-0.223414055570502,0.0256902944030746
1.6825,-10.221301221193558,-0.25286897511374684,1.9342667558403641,0.091324,-0.22507771534961302,0.021838
1.685,-9.986844249072062,0.012949100293037252,1.5318059252697949,0.091324,-0.22822469239785595,0.021838
1.6875,-9.814613215673882,0.2589203795228314,1.2250817806920524,0.09010347701058619,-0.23083803681466267,0.019058191183441302
1.69,-9.815693114388536,0.3939378920232047,1.3066443293003283,0.0897594914786314,-0.23203261189061206,0.020189659614063868
1.6925000000000001,-9.937194161029188,0.29162600322263543,1.6005593658470656,0.09006224807911864,-0.23045829247567728,0.028090707524322692
1.695,-9.97160711570936,0.13877610994886008,1.582542883244146,0.08794880200737303,-0.228922,0.027893623921988218
1.6975,-9.996753804495464,-0.00270164306012724,1.714615205333548,0.08819438380990609,-0.226445079720639,0.026054076329774425
1.7,-9.81755049900395,-0.013155434592886383,1.580886945517786,0.09142947471936767,-0.23403433998418965,0.025641106181818293
1.7025000000000001,-9.93449476792201,0.04366495089960758,1.6073149289823465,0.08695665567114602,-0.23867570484532302,0.01931152014545423
1.705,-9.942114938375951,0.1755849162946455,1.5993785136122547,0.0852048436817915,-0.23607881208721224,0.015246259587507378
1.7075,-9.764242590617728,0.33277857794855026,1.5562461028903818,0.09036201227265284,-0.228158,0.019098381576274012
1.71,-9.698040974901868,0.2615317194439292,1.569520404373831,0.09016872554672914,-0.23245242776168207,0.024336177537383145
1.7125000000000001,-9.764584028612125,0.07095233734767535,1.5864490217439458,0.0837858342459249,-0.23791814065516695,0.02444840457350838
1.715,-9.67525911897397,-0.10098641351411658,1.3440251185928698,0.08583810905093471,-0.23614052455844614,0.022628425210699823
1.7175,-9.516976,-0.222382,1.2255339060265293,0.08995,-0.23581981215233075,0.021686
1.72,-9.692873321420368,0.09303720997129547,1.7032506590674232,0.08956823695839312,-0.23157994748923982,0.016657647274031726
1.7225000000000001,-9.863369803114363,0.42203387423227634,1.9145623156895124,0.08937885607479652,-0.22481065649391502,0.015625925045539446
1.725,-9.628565347883876,0.23691729049412313,1.161288923509805,0.08530601236428051,-0.234769504896965,0.019165054863726633
1.7275,-9.985794836313142,0.3012321087718221,1.6569137462518522,0.08876249266506331,-0.231559936941578,0.019928240986888068
1.73,-10.259589220488644,0.18118102032371372,2.2971919700658456,0.09155087542864175,-0.22637665964182416,0.02339646517570309
1.7325,-10.367720046527742,-0.016665191296358146,2.6624924670434815,0.09208331789473706,-0.22428585041328106,0.026064703680678397
1.735,-9.796198570942545,0.08435152637753564,1.2696963376301706,0.08550079232372165,-0.24670963383571734,0.011472771921491426
1.7375,-9.756182737234044,0.1754045063829798,1.3298631472340456,0.08779224808510644,-0.24273291861702115,0.014152706489361786
1.74,-9.781251806747626,0.24581567374774527,1.5952232166454234,0.09164766412408318,-0.23776393183599856,0.018537086694721643
1.7425,-9.95501576656749,0.2984862157409907,1.948874422384847,0.08714388894121425,-0.23476215993317964,0.01588897821653031
1.745,-9.964651183200656,0.22101609807184036,1.8649891146775999,0.07865959161001582,-0.23083801398330697,0.01460307772589867
1.7475,-9.697516767364213,0.04739319961438788,1.429286539572064,0.08477748932047986,-0.23536422431225043,0.020705645116388453
1.75,-9.81683517505392,0.016690119218787443,1.6969112163910856,0.08994930865085071,-0.23878219039060627,0.01691210196501318
1.7525,-10.154415562024862,0.16356149623445415,2.344370536980456,0.08498368049733585,-0.232587,0.010812199609236224
1.7550000000000001,-10.041203098842086,0.24647327316117826,2.012524799712232,0.08231028289588511,-0.23622995359981183,0.012605354934559795
1.7575,-9.692429284668618,0.20259505726819277,1.3305226765919698,0.0840244888906485,-0.24758371700688922,0.014714108341119655
1.76,-9.765413624061248,0.24572107205735844,1.596388847665576,0.08467413690606393,-0.24999730437234166,0.01719998076558515
1.7625,-9.940396525860988,0.19395985097057272,2.0963458374452064,0.08549396718847842,-0.24507755040701307,0.021890871133375022
1.7650000000000001,-9.746205259688205,-0.04606429271612718,1.7541788841567558,0.0830130288899383,-0.248164,0.02290100829475657
1.7675,-9.517853549698321,-0.11939731315337598,1.0685946548237526,0.08220435664655457,-0.2524506547856465,0.017026681460780964
1.77,-10.029558111735504,0.18493537144851635,1.8843858566414617,0.09163,-0.23947182504169084,0.016341
1.7725,-10.033230071271038,0.154823001132908,2.325189118929772,0.09107576786070813,-0.2312384413836332,0.016842435781775925
1.7750000000000001,-10.13254963203715,0.13372246307602906,2.4328759875449855,0.08717236306442232,-0.23142466556006966,0.020374000800928802
1.7775,-10.107250408689461,-0.022963523117480455,2.2891692310776817,0.08528027477726575,-0.2370071505505703,0.023241745538038715
1.78,-9.935385414137073,-0.24456965060280833,1.7701104177043683,0.08820221344343528,-0.2513728954913297,0.022870793195705966
1.7825,-9.857084397438062,-0.22016676702939658,1.4776170723141862,0.09143838712021034,-0.2589111306365013,0.016878145600254985
1.7850000000000001,-9.935890443431875,-0.04694862226386172,1.8287209082720919,0.09212266795481895,-0.24999569468877586,0.013278826234078457
1.7875,-9.929115223550367,0.1460808788467801,1.9932347412698284,0.09173888435374125,-0.24433455759637202,0.015416852251376824
1.79,-9.89116951906465,0.22750340786795134,1.7683192719119676,0.08642001006877577,-0.25241895185694657,0.01506638409903706
1.7925,-9.882396163277583,0.2602438843845504,1.8561746531536512,0.08869448695463841,-0.24589705865479491,0.020015869989170938
1.795,-9.778815937802205,0.1449725550501785,1.8355650251982867,0.09184385819397982,-0.2476192464596267,0.028718310683229407
1.7975,-9.757583321470117,-0.21888995718075283,1.7583058791439892,0.08618603282623812,-0.257327,0.026381063484530648
1.8,-9.808105,-0.312052,1.774271,0.082314,-0.2525533303299491,0.021838
1.8025,-9.669296350843732,0.05397381095491073,1.7289049385843112,0.0983488282791847,-0.2459756689462631,0.02481864559357629
1.805,-9.65620237487479,0.03215030520945238,1.8254994424526032,0.0941632673157033,-0.25247080023402757,0.02278019233325538
1.8075,-9.870747576541081,0.1260368751322296,2.076352170933781,0.09219580696466174,-0.2543450102036041,0.02062561772993204
1.81,-9.956402703478364,0.043377011290973,1.8237722015830158,0.09570929067111707,-0.254884,0.027757631803552504
1.8125,-9.851862737847117,-0.10929051545087645,1.6312188458526595,0.09700339955424372,-0.25426736907415215,0.0277428318173604
1.815,-9.76311428682208,-0.24501914407536926,1.7174055241260893,0.09815886124411158,-0.24872037131054509,0.025630116608286117
1.8175000000000001,-9.720547541672165,-0.22314790345433955,2.0296793960176047,0.1003179380858087,-0.24248005993399346,0.021837739119911836
1.82,-9.724604713590217,-0.046507540095405905,1.9596868672440282,0.09977905118042796,-0.2478609721932725,0.018270587718654335
1.8225,-9.74753561358455,0.16452895739990636,1.821933979463024,0.09921059248233634,-0.253814,0.017111419689119174
1.825,-9.681280870070923,0.2493881929078024,1.9298885658628797,0.10464197635933793,-0.2491700472813241,0.02232413976359314
1.8275000000000001,-9.622748133386619,0.06680279201661057,1.9199001197729875,0.10588790272240409,-0.2501707873902973,0.029718182671249396
1.83,-9.795185084089862,-0.1578912413570448,1.9564976798034799,0.10174548754328484,-0.259923,0.0219310038933076
1.8325,-9.727168906940573,-0.2500202348457789,1.7549971002977234,0.101404,-0.25701581445039895,0.019853
1.835,-9.607902844175984,-0.07100760298693104,1.6157054742068948,0.10465780724851352,-0.2513845692984544,0.01825664855648045
1.8375000000000001,-9.690170389840839,0.49702492155901007,2.0661319265215754,0.10432879115168486,-0.24296021910112325,0.019588707209738206
1.84,-9.804374012880915,0.3475863433996617,2.297654829148451,0.1010352889102773,-0.2442721390799349,0.03292897268841813
1.8425,-9.681972758746246,-0.027977808062533582,1.8709193714163819,0.10058963295752407,-0.25162031923574935,0.0374689733396494
1.845,-9.497847,-0.278575,1.326518,0.100335,-0.25379593666309413,0.033903
1.8475000000000001,-9.628505177712311,-0.22395579975390006,1.8178238667789732,0.10402820403464785,-0.2415180149664043,0.03205639798267607
1.85,-9.738682316388193,-0.145978312833273,2.240168868965499,0.1091782182723072,-0.24222672513331045,0.02745844969783126
1.8525,-9.810495194952203,0.027522850845128455,1.920473142577436,0.10778745436328865,-0.25793053841682617,0.01801291571701704
1.855,-9.87673395257633,0.2061020416329325,1.8069936808233282,0.10793914067924526,-0.25560304542024026,0.019288371087478474
1.8575,-9.77453532199024,0.24762609928920137,1.818902187250146,0.11180617222916833,-0.24641383077845352,0.027427176740601095
1.86,-9.69844580205054,0.1588164539716987,1.9466202937782657,0.11051797653488041,-0.24558726177729448,0.029412023107242165
1.8625,-9.820323323350259,-0.008881115228428126,2.1055994923857906,0.10547325025380713,-0.249386,0.02891563401015227
1.865,-10.001867870713172,-0.04582380462183897,2.1652816594606263,0.10890530736186022,-0.2488149440249311,0.025804722574613477
1.8675,-9.848589448613216,0.14843858494918855,2.0340213050572666,0.11047904877063144,-0.24720685096740103,0.02345741591071957
1.87,-9.771270133554182,0.30197289978502856,2.1168634283348053,0.10982064774625548,-0.24118700848634336,0.021858529980616673
1.8725,-9.663040948419528,0.40622030462897646,2.095592708034048,0.11048139058785741,-0.24328707568262148,0.026058943739158576
1.875,-9.710726434281684,0.30647032189043033,1.9078891725840583,0.10608251281448389,-0.2600732226663532,0.03401654667293675
1.8775,-9.932069392234203,0.09574015648690698,2.0877571342372834,0.10522004998459167,-0.26145390003081664,0.03497004998459167
1.8800000000000001,-10.013423300195754,-0.07787540953689445,2.2024500348458664,0.10701120438276134,-0.2589148784923299,0.036041647181884684
1.8825,-9.823655761052187,-0.21199180513913607,2.0654969577792954,0.11132235180949734,-0.2536718990447184,0.03799495647791738
1.885,-9.777299687274912,-0.0014733229147644022,1.6496511273661483,0.10903520126770708,-0.25804545352220887,0.025261135649459757
1.8875,-10.075773750415445,0.17940340018991932,2.1067354895307355,0.11193013341774147,-0.25435856529239553,0.02611123689166718
1.8900000000000001,-10.166543421221958,0.18952066695943395,2.5260687586444126,0.11478853449164672,-0.24692084346539372,0.03158526724582336
1.8925,-10.122302412471528,0.3108596982068996,2.612600673770643,0.11073066671371272,-0.24736817286928636,0.0291267776423415
1.895,-9.951548308803087,0.23276605694980365,2.17184561063706,0.10494397826254823,-0.256530733861004,0.03028849154440163
1.8975,-9.807114432759137,-0.030899642327305913,1.7028140937964809,0.10925334911818094,-0.27078655310965494,0.036041
1.9000000000000001,-9.86401613596025,-0.03123845658500981,1.8125920843450807,0.11707574022009234,-0.27107896741213994,0.033192595669151115
1.9025,-10.060289316060867,0.15397666502935786,2.3283987562669357,0.1109438615406729,-0.259073180726009,0.02322095201629292
1.905,-9.90995896386994,0.2619880505477391,2.003384521316473,0.1068661197010891,-0.2613362031608237,0.02246519747515704
1.9075,-9.746981575923629,0.3250894420365945,1.661439641909309,0.10891868646618928,-0.26703695146539375,0.02698704106921235
1.9100000000000001,-9.892821607737396,0.38670822045347675,1.9329593519981694,0.11085921431270644,-0.2672278328105806,0.03183642436466715
1.9125,-10.33599957517198,0.36275296779153066,2.744452209581635,0.10944272637371533,-0.2611004819940113,0.03235070557578694
1.915,-10.130935972965135,-0.0489501835371603,2.350993278290565,0.11198658061801454,-0.26534383100591746,0.03437899379355701
1.9175,-9.713320813648169,-0.0010161484026824097,1.6713814228612875,0.11325247262757412,-0.2725712691056223,0.029236999937194325
1.92,-9.571435086258104,0.2420635793511054,1.5323531988031547,0.11283285653929352,-0.2759150020475848,0.024300854491708764
1.9225,-9.846526895331834,0.3577771632372875,2.093376001294937,0.11279412341210758,-0.2718141810844931,0.027465667656199698
1.925,-10.012394897240164,0.32075196436876424,2.3851250380270095,0.1138522567938931,-0.267712,0.02927375210804449
1.9275,-9.869621670778955,0.3325138823953236,2.1990314929878347,0.10815752353926374,-0.2671633685321536,0.02737013661557907
1.93,-9.673271311112185,0.1270689361163968,1.9479986033906513,0.1038193804785378,-0.2697132605410602,0.029280671905735255
1.9325,-9.678715689605117,0.07527840010905126,1.9242481502235442,0.10852005987382213,-0.2808140643445756,0.025367844258898382
1.935,-9.92801431740665,0.24765978473178688,2.2950785234983755,0.11040305487896843,-0.2865260688723998,0.02033647955723145
1.9375,-9.781868323799113,0.35344965907572723,2.44330701785389,0.1120233530090484,-0.26751592099350213,0.019243089815995627
1.94,-9.585065630101418,0.414355833392845,2.049320202740034,0.11124521499240908,-0.27208604909941086,0.024299713375842486
1.9425000000000001,-9.523560997941606,0.373846631324401,1.7722156660138655,0.10905741442490707,-0.28267975567027015,0.027464389708017487
1.945,-10.101373934263465,0.3716544543715187,2.4656449120652604,0.10712364152550459,-0.28402194167699535,0.028873321072090768
1.9475,-10.047585467942158,0.16247578936596144,2.571894392703004,0.10983797539488321,-0.2727408213125695,0.032266377263626266
1.95,-9.719679574260512,-0.038177628840645586,2.2439944572519295,0.11324799384541977,-0.2704907249522898,0.03077407294847348
1.9525000000000001,-9.278835869292623,0.07799998304195738,1.5946592644456588,0.11077615286175108,-0.28001066017782694,0.019893698453064226
1.955,-9.383718356582719,0.4191726074335539,1.7382144334579461,0.1057643306047592,-0.2784989101195585,0.015462428670923052
1.9575,-9.737317222054784,0.581426026549924,2.4123517909615266,0.11224451251988118,-0.271682,0.024371758669772738
1.96,-9.915241725231787,0.4987906575496742,2.6854015228476857,0.11242384430463606,-0.27270303602649004,0.03081595993377483
1.9625000000000001,-9.868786777334535,0.07399628984584966,2.324074421713483,0.1024179530371714,-0.2772440944242977,0.029240279737080505
1.965,-9.544727233218513,-0.09512102964052895,1.7282696398394708,0.10752624543053023,-0.2817632183113193,0.024516230376191103
1.9675,-9.518185806224203,0.024316500565261412,1.7254284606033725,0.10885676732931085,-0.28493792835820897,0.017624442591298736
1.97,-10.089550531551486,0.734991486964114,2.8250799763965513,0.10047481158769031,-0.26739520510275794,0.006294689937173746
1.9725000000000001,-10.018128783239268,0.7984029230369539,2.7019278460249105,0.10277663186668098,-0.26731034536897025,0.019766172675967114
1.975,-9.798445406754512,0.6253669024005422,2.3923765286890792,0.10316522280536584,-0.2734591311367387,0.031876587079313116
1.9775,-9.706697542790112,0.303858497305009,2.255406791550417,0.10182290858909322,-0.28222,0.033477715554850906
1.98,-10.002028920390382,0.17560458972625798,2.7200237045655746,0.10192113685789098,-0.2844935298738395,0.03309814643180188
1.9825000000000002,-10.001486032260434,-0.03417874410933094,2.7107032091607315,0.1029647804469455,-0.28787,0.035208439106109
1.985,-9.771243448908681,0.047092118930975105,2.1597834321603435,0.104763,-0.2886242652115814,0.031612
1.9875,-9.637269689680508,0.23585073057507905,1.9852225231948877,0.10309637591054306,-0.2862366139616612,0.030012163099041478
1.99,-9.579857804691972,0.2475635154884874,2.032495888917236,0.10261617855631609,-0.2829031624891101,0.028191458568761665
1.9925,-9.735625455904918,0.33357934706611386,2.272677250873967,0.10648505910373872,-0.28527587832631857,0.028742720287199833
1.995,-10.127359683514278,0.07925486489348527,2.776745149197281,0.10304771890239516,-0.27857677703694766,0.028839479268263444
1.9975,-10.300095,0.038857,3.051171,0.104916,-0.27350698136952106,0.030085
2.0,-10.092351517705556,-0.07700896325491148,2.681263243148193,0.10503879335435362,-0.2790718542323551,0.0284305
2.0025,-9.94458631093655,-0.023082265377652622,2.3627546920241596,0.10569358725075527,-0.28997696344410884,0.019292282839879424
2.005,-10.116379404097286,0.343444299259604,2.67698332013897,0.10844102418114264,-0.28304423102911275,0.01741978814424259
2.0075,-9.940665138537677,0.3769886111251276,2.538275442527596,0.1079822027670978,-0.2807716178632206,0.029754968439961817
2.0100000000000002,-9.745030042209459,0.27495675213773246,2.242796895064538,0.10193297586800527,-0.285843034863702,0.03266970126255354
2.0125,-9.717134528169815,0.09364499594909695,2.240320859402107,0.1020257013205869,-0.28884138259742376,0.035125225844608796
2.015,-9.683646129071404,-0.22390469193704332,2.3406205416244505,0.10958822782112773,-0.289856,0.03845859370294299
2.0175,-9.717965215647123,-0.24361685508158992,2.3751738906964026,0.11432058045564703,-0.2899219835708515,0.031924862591694685
2.02,-9.794211004420758,-0.04577376642261254,2.546863420166822,0.11175400305838738,-0.28779078755329,0.023375386570898927
2.0225,-9.717488789137251,0.31119403480913677,2.31632054546608,0.11780851882254388,-0.29431380214909647,0.02584125941127194
2.025,-9.617263675324681,0.3502859194805428,2.054754854545464,0.11921209870129905,-0.3014698805194803,0.03301960519480466
2.0275,-9.694845734355953,-0.0009546945964652234,2.1989927918199044,0.11592376048099887,-0.30079281183997575,0.03561923792492148
2.0300000000000002,-9.935813742707916,-0.059298789091348,2.628009986804691,0.12004066268865171,-0.2911778283836787,0.031199252145866524
2.0325,-9.835611015006405,-0.18223851462084095,2.5108208358482935,0.12175664492930552,-0.2873008077763503,0.032228573431876295
2.035,-9.668311949839339,-0.06198792722875074,2.176514568870642,0.11977027106368036,-0.29468237241233747,0.022621370376450012
2.0375,-9.706236341768685,0.3976339630798969,2.3081091581507853,0.12181407097293812,-0.29107281027706144,0.020666627851160455
2.04,-9.625880997736733,0.34357187739795075,2.5251922657240318,0.1256288288954243,-0.28778959183154945,0.03650067363369029
2.0425,-9.515182,0.25825,2.502391,0.132863,-0.29741368645590677,0.041386
2.045,-9.55054484727016,0.035774881260295904,2.3801670894615614,0.12295205292264325,-0.299808108262403,0.042350848530449056
2.0475,-9.528852392766723,-0.021071206985349075,2.0280837004029357,0.12499126783645152,-0.300393,0.04205378648229835
2.05,-9.497249,0.050215,1.855571,0.131183,-0.3020037045309298,0.041386
2.0525,-9.648812013944141,0.08190763273672305,2.2187594131476396,0.1257638663518291,-0.29857154329791347,0.03413868367099448
2.055,-9.783607296887403,0.20905963311260045,2.649626719801313,0.12106077503311312,-0.28931868615893974,0.02936654039735202
2.0575,-9.621820246711941,0.271696241367952,2.540400810163802,0.12388360140950848,-0.2891948858777471,0.038182835864163066
2.06,-9.884710758577713,0.4577093524046851,2.7468290900293244,0.12546163304985336,-0.2980377904545455,0.03734629272727289
2.0625,-9.863045715594888,0.12978115573942184,2.690040375157101,0.12479062348135736,-0.30030176136363634,0.04531274675324675
2.065,-9.7883149125459,-0.13743704572220053,2.515477040789757,0.12584039337720807,-0.30265828020782815,0.04641916518185001
2.0675,-9.580103845922693,0.031304339285171845,2.2124840891903768,0.12981245716508621,-0.2986043914028695,0.03530738597617333
2.07,-9.466278253624955,0.2763918801283013,2.413451069752103,0.12499223575969633,-0.2852373919685038,0.03483490118985107
2.0725000000000002,-9.599725782319444,0.5268350889316844,2.59199083213961,0.1309853363643439,-0.28772810398950155,0.03802588706328405
2.075,-9.876655788712641,0.33602537883038514,3.01445465915691,0.1321269820942877,-0.28975693839528566,0.052020010018134916
2.0775,-9.975480744595579,0.22951353811766065,3.046165234370862,0.1332453259581571,-0.2918517002276928,0.050857455189843
2.08,-9.92683706993037,0.05832679693659165,2.9380401454500977,0.13294197101746655,-0.291069822039819,0.04985377096860899
2.0825,-9.702754583247808,-0.25095605434909685,2.684702100721558,0.13180329691008133,-0.2955146366021948,0.04857395721796788
2.085,-9.685926174396723,-0.04119544328643138,2.561673083671355,0.13408778356309395,-0.3077750015156982,0.037055912763142296
2.0875,-9.819392325961251,0.18313456600470066,2.637541470417095,0.1265423762660708,-0.29929719785114983,0.0383531408945495
2.09,-9.75279980668317,0.39388460741231374,2.605001879220138,0.13582177068630358,-0.30045735950262564,0.03574356834188462
2.0925000000000002,-9.722469463671795,0.4589246893538397,2.6728358628797,0.1339134680299791,-0.2962603521767249,0.03758733080867908
2.095,-9.977850130121205,0.3479249198811265,3.1704527284298094,0.13017264637257248,-0.2948469590674297,0.041539
2.0975,-9.888066912942643,0.18685914369811618,2.858010746923955,0.1294474378002666,-0.29967210856201476,0.043920698790303754
2.1,-9.857298033984579,0.022003095188996583,2.5719475870949466,0.13350980806093016,-0.3136075257202325,0.03764193010076148
2.1025,-9.855815374604285,0.28710249317754283,2.6772164030957013,0.13737345272907903,-0.30588073242253644,0.03362699365911343
2.105,-9.775696961627851,0.3756645256141239,2.7268898336553087,0.13765005852905132,-0.30024,0.036313422525128564
2.1075,-9.626971,0.178144,2.675753,0.132863,-0.30375379572769934,0.046884
2.11,-9.73928769719309,0.2933891646170549,2.65337314112618,0.13216849488213034,-0.3051512876609266,0.04389185502870459
2.1125,-9.680226094611639,0.024524384357529273,2.7265826825013466,0.14096947019883474,-0.29623748228509633,0.0475076129152406
2.115,-9.726541823139307,0.20225508737431686,2.7954912649774792,0.1396227677972006,-0.2973920685817265,0.0388504203015551
2.1175,-9.737131055709423,0.2173913358423589,2.862626448144342,0.13379855244124333,-0.29899755345097745,0.03584533683310927
2.12,-9.560278739570794,0.4030548873247879,2.259859373705205,0.13499779155937164,-0.30610368869814103,0.03158511138769591
2.1225,-9.540705463758947,0.38516072474168295,2.1338990632970485,0.13413107490707876,-0.3082502041306309,0.035814609230769366
2.125,-9.59589078173191,0.4383162016607355,2.4790825945432977,0.13433296986951365,-0.3031290325029656,0.03607740189798339
2.1275,-9.791878605652837,0.6132462364944623,3.0218500916808106,0.13359521086587456,-0.2905876534044791,0.03326154210364608
2.13,-9.897872723263964,0.4944494309082443,2.92395369118262,0.12680874131031236,-0.2926854758703869,0.03843025868968765
2.1325,-9.912481372777277,0.41489638513674343,2.6393648601355535,0.12803333070409026,-0.30649552485766646,0.03830095390798202
2.1350000000000002,-9.93968350767509,0.4071032203862915,2.7795926106400133,0.13193245214801036,-0.30657046183849085,0.037650879273912426
2.1375,-9.719790022907482,0.44187816328930263,2.8599232205579908,0.13287978208516893,-0.2995630281938324,0.03448916593245156
2.14,-9.555275410071687,0.6141607962141404,2.6851701696223613,0.1296483869598464,-0.30289458115678863,0.030241212074570294
2.1425,-9.589990851514964,0.6370468709398686,2.641763642218209,0.1254666355011503,-0.311999,0.03465919337495888
2.145,-9.91743574965383,0.6873606141150636,2.8047044891175053,0.1265020060214529,-0.3107202659288152,0.03903282915650914
2.1475,-9.809952536016565,0.38691204780435856,2.736993057847291,0.12366278513032812,-0.3079409153296535,0.04477099821220489
2.15,-9.476496667059422,0.30237297786411277,2.4507218358485887,0.12418732850338429,-0.30248225668087286,0.03598537320130435
2.1525,-9.24292361555793,0.43812858854410625,2.3674035671413405,0.12439819211477153,-0.2973651992348564,0.030909373283740195
2.1550000000000002,-9.16880103437373,0.4976809857412102,2.3874294747403293,0.12603389136991383,-0.30318720339240035,0.03520637576438887
2.1575,-9.49176402128147,0.6122377097674291,2.686143986945139,0.1257917573611765,-0.31091854807150776,0.03333469807941808
2.16,-9.719143464852637,0.5429834293179444,2.8572177241284455,0.12280672822326506,-0.30499741071093345,0.03659675130518481
2.1625,-9.635329345709529,0.5058116955074796,2.6080617238887562,0.1224314036130257,-0.294132,0.0403336701687665
2.165,-9.46459031793241,0.25912435772989095,2.531431393279168,0.11744540893912629,-0.29617867296832695,0.04028290700576931
2.1675,-9.598794118539931,0.17954129281291306,2.592561473576675,0.11837736952174434,-0.30664691963859764,0.03187918657029278
2.17,-9.776422,0.224175,2.70086,0.119882,-0.30345599089167935,0.030085
2.1725,-9.754436139449101,0.3874092674818309,2.7842402146882446,0.12072997202307824,-0.2958331979601713,0.028548310928717877
2.1750000000000003,-9.731808940577531,0.6499226006957991,3.075820830986939,0.12048310397773337,-0.2941912537168038,0.030078628690712313
2.1775,-9.872672707607984,0.46921933233891094,3.249065636898082,0.12009661655290942,-0.30069275940960677,0.03576191077860196
2.18,-10.04490298962255,0.16023712070957932,3.204586304670356,0.12223737486160015,-0.31066709807750387,0.03729154247609524
2.1825,-9.801115044125384,-0.11120011893864236,2.854966970714653,0.12328499767827553,-0.31090118181157705,0.035553011656005176
2.185,-9.418833929118156,0.06644421854306048,2.4913557745555988,0.12496581819449272,-0.3108908363611015,0.02401841769257558
2.1875,-9.453944873039898,0.712152243143428,2.7413071437912455,0.12474557316704002,-0.31166618157050313,0.025689071623176123
2.19,-9.584876254535324,0.7637652653629583,2.8172093939335214,0.12736304537627893,-0.31282985524489915,0.03451153373615044
2.1925,-9.648972147485141,0.5391997817047431,2.9709193258961433,0.12498682464497995,-0.30777401825461415,0.03963712146700023
2.195,-9.785647189697807,0.1524118938377484,3.2450439397001896,0.12194931176778459,-0.300546,0.04033211758743767
2.1975000000000002,-9.88860605198668,-0.07180235170367982,3.3046189599628564,0.12256471121490957,-0.31080099880906537,0.038704621746191194
2.2,-9.798678415011052,-0.028541720971247547,3.1217982403237676,0.12141053627667442,-0.325286,0.03193429624723914
2.2025,-9.93373929350492,0.39308227234274196,3.0671960030724903,0.12281312605547105,-0.31952195498361385,0.026848334345776246
2.205,-9.564816396349698,0.3512854447013771,2.679718587749613,0.125064223936933,-0.3151840312661255,0.03996728305781229
2.2075,-9.739358,0.181731,3.109756,0.119577,-0.31332245978194084,0.035125
2.21,-9.739358,0.181731,3.109756,0.119577,-0.31148945722064936,0.035125
2.2125,-9.694884854331844,0.10655074384591298,2.9353059224744364,0.125054719149616,-0.3145475251598463,0.03350205410805638
2.215,-9.591080087092735,0.051014971099226473,2.727279327743433,0.131947,-0.3190460530792471,0.03146
2.2175000000000002,-9.587267356889335,0.2920766796782414,2.932829453086336,0.1365657097708444,-0.31740921852754733,0.03320018010726509
2.22,-9.62366663171661,0.4028092596729957,3.1484770784741083,0.13696939928701055,-0.316123,0.04113084173478787
2.2225,-9.55404,0.218795,3.109756,0.128893,-0.32033660289444404,0.04948
2.225,-9.596046819641154,0.16884094421052043,2.9730633863157734,0.13254736882775162,-0.32277970885167423,0.047275831794258115
2.2275,-9.525109349174587,-0.04009031722253653,2.7929271982548953,0.138514,-0.3147339391546144,0.043677
2.23,-9.439566083169344,0.017200802204346693,2.90748268526963,0.1390456483065279,-0.31079776374645224,0.04007231614001901
2.2325,-9.618931583188498,0.2244065162978606,3.1297862973154507,0.1370761656792119,-0.309861,0.03756504388951686
2.235,-9.594961993052939,0.0021991965882271324,3.2285155624981683,0.13334231735917365,-0.32433403648173775,0.042056825268874366
2.2375000000000003,-9.252205712256378,-0.0855759156852399,2.5897288918218893,0.1335131534021936,-0.3252719598551806,0.04376239426046233
2.24,-9.071943955016545,0.032491472475245864,2.382824145011865,0.13671807636750197,-0.3217331553141227,0.038906037827112314
2.2425,-9.557220654717455,0.36983277172276946,3.273310905650905,0.1421686000621898,-0.30280509052442806,0.04366165447108789
2.245,-9.553472291787358,0.2521343011229992,3.3482781642528288,0.1420726650457454,-0.31238103543383405,0.04634281872152137
2.2475,-9.598475045359686,0.25850545992095125,3.175044457242679,0.1423512429533597,-0.31911944805375503,0.04706207353675887
2.25,-9.495588215121835,0.2403753404204491,2.765429578953655,0.14472867881032012,-0.3224546256569517,0.049034626612517916
2.2525,-9.307772263363336,0.17778062608778344,2.566579210681112,0.1495165911702381,-0.3233,0.050011220868318475
2.255,-9.52515255643651,0.2424706587176284,2.8538239776438483,0.14764694416129467,-0.3171001000773657,0.04640991436877257
2.2575,-9.812058022437785,0.23192047268202182,3.3801973400684684,0.14523519286007705,-0.307113,0.04155222336452949
2.2600000000000002,-9.664784906321179,0.2902998838904758,3.0519271265026036,0.14579372750633396,-0.30624552561340407,0.04543332590437386
2.2625,-9.518407531504668,0.25508426803284906,2.8993367981660345,0.1467322650984774,-0.3117870975679779,0.04980930227254577
2.265,-9.706686072700561,0.16478404858287793,3.309119352811979,0.1493488156506237,-0.3163293037655964,0.04864032958556176
2.2675,-10.00239,0.055595,3.71712,0.147066,-0.31070565411566076,0.051618
2.27,-9.732899745839967,0.13171575014894527,3.2381274914028295,0.14753048698302737,-0.31541414915136823,0.04749653325943877
2.2725,-9.30131704006609,0.332678798230983,2.538158984611993,0.14889051164399403,-0.3202945365247562,0.04137751164399403
2.275,-9.31754320070496,0.4901049544638375,2.704561302527945,0.15012521753593652,-0.3260274295974002,0.04261221753593651
2.2775,-9.828685795636751,0.7806610967029688,3.4717183718710642,0.1543995788353834,-0.3200446292021095,0.04220396336496783
2.2800000000000002,-9.57761065106189,0.5270403955678982,3.2594171470342173,0.1533490385841218,-0.3155429126036217,0.061106074578550405
2.2825,-9.396673501284265,0.14379017347290612,2.9863547820757677,0.1534260916209596,-0.31938851384083405,0.06010639955813834
2.285,-9.457804962401836,0.018155766970254658,3.036499224303273,0.15630813559169432,-0.3225600746109583,0.051945812524391885
2.2875,-9.839184391059185,0.6609644370864934,3.5417663364248586,0.1538634910889908,-0.318872,0.03626537779102362
2.29,-9.758853356828991,0.8298447363533433,3.299280714518683,0.15195409150622874,-0.318872,0.04199232652321639
2.2925,-9.623272741399363,0.7680832254952097,2.9851370570479263,0.151036,-0.3248481370990415,0.044746
2.295,-9.566674631039994,0.6074580482036342,2.9146482100072566,0.15261395857454532,-0.3330578118690909,0.04840654978909059
2.2975,-9.759889638988977,0.483863047368686,3.380452342834939,0.15307819801917455,-0.32890330650503175,0.05257867089771026
2.3000000000000003,-9.725387970701643,0.3793123938469114,3.373741646763615,0.1532943290261515,-0.32775252346468026,0.05055164671636468
2.3025,-9.464361055509363,0.44927466157006324,2.9335197404689697,0.15509322081405352,-0.334449,0.04748788473374605
2.305,-9.463419214590886,0.4410878345972921,2.981055399343506,0.15346314728582874,-0.33276476268374666,0.0449389133258607
2.3075,-9.710571217883725,0.6118147063488948,3.497696635729297,0.15377305174451827,-0.32719906816015226,0.046350798017159654
2.31,-9.6900646527339,0.6406430608748491,3.4120059419927062,0.1485922126528958,-0.32785567428918594,0.04449954823005259
2.3125,-9.568057970770806,0.6754773930573132,3.070715443440005,0.14901187175314892,-0.3325572038208883,0.0434008062435967
2.315,-9.58241435573314,0.6399668577906353,3.2622466053516503,0.15161735529922252,-0.33496994604230695,0.04668183233411673
2.3175,-9.597812622015503,0.5438113671096411,3.290617958737547,0.15010465833887066,-0.3375111708305647,0.04371670469545995
2.32,-9.556306950971384,0.6245417294151813,3.226343013408364,0.14823888893075568,-0.3372443912356256,0.0355681694886229
2.3225000000000002,-9.025430546667469,0.6926844779098112,2.8832817450222374,0.14740474034395684,-0.33113099221407233,0.042411850626578304
2.325,-9.029577560709562,0.7970950301743911,2.7558781846903098,0.1491374444016838,-0.3457675494527972,0.040582044521948156
2.3275,-9.265126873569532,0.8124614477811133,2.896408425671378,0.14646879956982412,-0.34742872630080607,0.03634005177289229
2.33,-9.55944361249756,0.7946880773219538,3.3230952391512343,0.14692086858048825,-0.332648381370731,0.038381512951220095
2.3325,-9.252526823551863,0.7358866320707567,3.1941378597439627,0.15373360732717822,-0.3231496118054155,0.051132658344324664
2.335,-9.010801500762994,0.547185891888722,2.899828337861243,0.14801146378213428,-0.3362591196149778,0.04699663669914348
2.3375,-9.390609762957634,0.5213152838956636,3.316053015027511,0.14120656123474506,-0.34662295510887825,0.03351602546063649
2.34,-9.39926930130095,0.7747295723826072,3.2110819824094317,0.15177049681232638,-0.3328713845401485,0.044694295773255906
2.3425000000000002,-9.213034440147219,0.7371524285639127,3.0584674993510914,0.14191883388336654,-0.3291660520902347,0.03778925436398943
2.345,-9.114662094597167,0.7119069732701426,3.074777383696717,0.13473889800947864,-0.3280459091943132,0.03453734255924218
2.3475,-9.274199561855221,0.6444976530628399,3.273350087589496,0.13745898416865587,-0.330784,0.0394699273253781
2.35,-9.405088369356411,0.48217729275962196,3.3322098698927465,0.1407514215992198,-0.3344586028035109,0.04226649037055096
2.3525,-9.332075098653508,0.4574853223300992,3.3749152058507055,0.13969330278211045,-0.333757789829699,0.03686100095814086
2.355,-9.247369,0.58706150266729,3.2106579262891906,0.14212630035095924,-0.3236098269723912,0.034061660772110335
2.3575,-9.204167134539476,0.5367651357894789,3.24863979453947,0.14362018078947378,-0.3282157749999996,0.04325113809210515
2.36,-9.314520471626997,0.4984578257436825,3.432091765992175,0.14078586758490128,-0.337808,0.04287761427996743
2.3625000000000003,-9.503594495614843,0.5003390768985957,3.4137941725452414,0.13964509231013653,-0.3321995606291694,0.04073707775659442
2.365,-9.209337068004297,0.1968185397906749,3.013266806697903,0.14123528547094985,-0.32279241548899285,0.04540561867917688
2.3675,-9.231830733381361,0.35810037012510426,3.4971502172820172,0.15211340155489067,-0.32261880791847175,0.03737496811130763
2.37,-9.573423225927884,0.43766468146457893,3.891913134033092,0.14576192454506592,-0.3194917005089399,0.035616570083602785
2.3725,-9.680309455829203,0.48792902337185023,3.947551873344331,0.14253449433916585,-0.31881626787278533,0.03705818479146044
2.375,-9.511648769891053,0.5037949810168372,3.6050562802905253,0.1429747185539782,-0.32101911984153186,0.04225663849455266
2.3775,-9.440685982758842,0.19493903947267566,3.3249320375337543,0.13973215975562703,-0.3289053050546624,0.04564944750482321
2.38,-9.547280062289406,0.06828354624908545,3.600659026004318,0.14113632095032372,-0.327883585197984,0.04095653752339855
2.3825,-9.50041622962661,0.19419295469172457,3.3906491017952454,0.14318278955395924,-0.3299666800189468,0.037490429355016786
2.3850000000000002,-9.270893284608983,0.2767810639796862,3.033611019851911,0.14490331220731248,-0.3322617919851926,0.0384778087459506
2.3875,-9.373008506118103,0.5097935956639507,3.233499351334522,0.1513426038597356,-0.33196195846267496,0.04127945180257936
2.39,-9.579215241903066,0.4210906887009287,3.805093088826935,0.15328186861770354,-0.32889150348442286,0.04901481743335968
2.3925,-9.604565499471487,0.178825938866533,3.8124721238424257,0.15063430201761643,-0.333685,0.04784153196609592
2.395,-9.363829281731622,-0.09041504093831525,3.319639482205044,0.1436905077869596,-0.3420796957765101,0.04456124161006558
2.3975,-9.406605279155515,0.06698819671375797,3.4132124657226623,0.15333772004478316,-0.33644521398091387,0.04567147882070692
2.4,-9.538478830435773,0.3207552315425246,3.624989930043793,0.1600125194373991,-0.3334440867881023,0.04358695596034157
2.4025,-9.672815578345912,0.31175481582258485,3.854653451570236,0.15555711385219126,-0.3258285472429995,0.0425880076603841
2.4050000000000002,-9.627843306727254,0.26663403442546213,3.8348002984735854,0.15699157094260943,-0.319788,0.04489848057515135
2.4075,-9.325632143211596,0.1926605713796694,3.3313953237738367,0.1639190528342245,-0.3282949439969455,0.05116582166844956
2.41,-9.210117860621468,0.11731331671405504,3.1268657485872713,0.1595824620304434,-0.34056369084916355,0.04958390213108466
