time,acc_x_g,acc_y_g,acc_z_g,gyro_x_rad_s,gyro_y_rad_s,gyro_z_rad_s
1765410016.098696,-1.741989,-0.037064,0.028694,-0.004276,-2.150246,-1.048550
1765410016.098946,-8.687230,-4.171449,-1.788618,-0.008552,-0.005040,-0.000916
1765410016.099196,-8.721902,-4.186991,-1.794596,-0.009163,-0.009010,-0.001374
1765410016.099446,-8.807387,-4.144547,-1.712099,-0.006414,-0.009316,-0.000916
1765410016.099688,-8.694404,-4.159493,-1.802965,-0.007178,-0.009316,-0.000305
1765410016.099888,-8.651959,-4.202534,-1.884266,-0.007636,-0.005040,-0.000305
1765410016.100088,-8.827115,-4.344810,-1.706121,-0.007483,-0.005956,-0.001527
1765410016.100288,-9.085364,-4.337637,-1.519608,-0.008552,-0.006720,-0.008858
1765410016.100488,-9.151720,-3.743424,-1.285270,-0.011454,0.003054,-0.022755
1765410016.100679,-9.177425,-3.178503,-1.264347,-0.021228,0.003054,-0.016493
1765410016.100929,-9.328072,-3.558105,-1.158536,-0.023976,-0.009316,0.002902
1765410016.101179,-9.495455,-4.115853,-1.163319,-0.020617,-0.022297,0.011301
1765410016.101429,-9.485890,-4.675394,-1.493304,-0.019395,-0.022297,0.002596
1765410016.101688,-9.473935,-4.801530,-1.695959,-0.024435,-0.018631,-0.013897
1765410016.101938,-9.549257,-4.475131,-1.493304,-0.016341,-0.016799,-0.020769
1765410016.102188,-9.998802,-4.279052,-0.777140,-0.011912,-0.025198,-0.020311
1765410016.102438,-10.222979,-4.454805,-0.677905,-0.011606,-0.027489,-0.013744
1765410016.102645,-9.797942,-4.887613,-1.637972,0.001222,-0.027489,-0.009774
1765410016.102895,-9.797942,-4.887613,-1.637972,0.001222,-0.041997,-0.009774
1765410016.103145,-10.301290,-4.985652,-0.991152,0.023366,-0.050396,-0.033750
1765410016.103395,-10.548181,-4.615016,-1.010282,0.034514,-0.041844,-0.041997
1765410016.103682,-10.368243,-4.736968,-1.213534,0.039554,-0.045051,-0.040470
1765410016.104015,-10.253465,-4.742348,-1.376136,0.056047,-0.052076,-0.040623
1765410016.104349,-10.253465,-4.742348,-1.376136,0.056047,-0.062308,-0.040623
1765410016.104717,-11.047344,-4.565399,-0.711382,0.066279,-0.073457,-0.052229
1765410016.104967,-11.194404,-4.441654,-0.711382,0.071471,-0.071624,-0.051924
1765410016.105217,-10.838115,-4.601864,-1.282879,0.076511,-0.083689,-0.049022
1765410016.105467,-10.963652,-4.724414,-1.142396,0.079107,-0.095448,-0.055589
1765410016.105747,-11.068268,-4.665829,-1.015064,0.087659,-0.103236,-0.062308
1765410016.105997,-11.266737,-4.443447,-0.900885,0.096211,-0.115759,-0.065515
1765410016.106247,-11.192012,-4.497848,-0.973218,0.102625,-0.113774,-0.063683
1765410016.106497,-10.885341,-4.695121,-1.153754,0.114995,-0.149662,-0.062003
1765410016.106742,-10.765183,-4.635939,-1.511836,0.123089,-0.149662,-0.068264
1765410016.106992,-11.310376,-4.546867,-1.030607,0.125838,-0.168446,-0.078191
1765410016.107242,-11.449664,-4.294595,-0.747250,0.140804,-0.157451,-0.078802
1765410016.107492,-10.877569,-4.256934,-1.574605,0.144775,-0.166155,-0.073915
1765410016.107820,-10.642035,-4.446436,-2.033716,0.146455,-0.192575,-0.075136
1765410016.108153,-11.205761,-4.487087,-0.952295,0.151647,-0.193186,-0.084147
1765410016.108487,-11.263150,-4.519368,-0.853061,0.161268,-0.190895,-0.083078
1765410016.108746,-10.862624,-4.204328,-1.651124,0.169821,-0.207541,-0.086896
1765410016.108996,-11.189621,-4.331061,-0.924199,0.163254,-0.222355,-0.087506
1765410016.109246,-11.189621,-4.331061,-0.924199,0.163254,-0.220980,-0.087506
1765410016.109496,-10.931372,-4.426111,-1.600311,0.180511,-0.249233,-0.100793
1765410016.109695,-11.052724,-4.236011,-1.568627,0.165544,-0.248317,-0.110567
1765410016.109945,-11.255977,-4.151721,-0.986968,0.185398,-0.241903,-0.101556
1765410016.110195,-10.726923,-4.206121,-1.285270,0.186161,-0.239459,-0.102320
1765410016.110445,-10.637253,-4.047704,-1.335485,0.183107,-0.255647,-0.103389
1765410016.110754,-10.836919,-4.234815,-1.121473,0.184787,-0.277180,-0.107512
1765410016.111087,-10.516498,-3.833094,-1.814921,0.191812,-0.277180,-0.109498
1765410016.111421,-10.478239,-3.702774,-1.579388,0.186925,-0.274889,-0.109345
1765410016.111757,-10.604374,-3.944285,-1.151363,0.189979,-0.254425,-0.102167
1765410016.112007,-10.190099,-3.776901,-1.801171,0.209069,-0.281151,-0.098807
1765410016.112257,-10.262432,-3.583213,-1.963175,0.200364,-0.290008,-0.104763
1765410016.112507,-10.465087,-3.745815,-1.234457,0.201280,-0.264963,-0.101556
1765410016.112775,-9.710664,-3.889885,-1.478359,0.206931,-0.296270,-0.099113
1765410016.113025,-9.780008,-3.565877,-1.846604,0.197615,-0.296270,-0.103694
1765410016.113275,-10.442370,-3.804399,-1.286466,0.193492,-0.302836,-0.101098
1765410016.113525,-9.956957,-3.843256,-1.857365,0.210596,-0.297033,-0.096364
1765410016.113728,-9.956957,-3.843256,-1.857365,0.210596,-0.301309,-0.096364
1765410016.114061,-10.104015,-3.724892,-1.493304,0.187383,-0.302989,-0.090103
1765410016.114395,-10.416068,-3.858202,-1.365973,0.202502,-0.304974,-0.086285
1765410016.114646,-9.955761,-3.748206,-1.987685,0.202044,-0.306807,-0.087812
1765410016.114896,-10.013150,-3.796030,-1.474175,0.186161,-0.296575,-0.091324
1765410016.115146,-10.040649,-4.038139,-1.575801,0.197004,-0.312458,-0.086743
1765410016.115396,-10.327594,-3.637015,-1.592539,0.203418,-0.329562,-0.092852
1765410016.115610,-9.903154,-3.719512,-2.269847,0.193339,-0.302531,-0.083536
1765410016.115943,-9.832614,-3.677068,-1.412601,0.200517,-0.304822,-0.076053
1765410016.116277,-10.134504,-3.773314,-1.186035,0.200364,-0.308334,-0.071624
1765410016.116697,-9.382471,-4.494260,-2.312888,0.194255,-0.326660,-0.062461
1765410016.116947,-9.655666,-3.994499,-2.040889,0.202655,-0.318108,-0.075289
1765410016.117197,-9.357962,-4.291606,-1.702534,0.205098,-0.313221,-0.065821
1765410016.117447,-9.579745,-4.000478,-1.373744,0.201586,-0.330020,-0.072540
1765410016.117710,-9.238999,-4.163079,-2.627929,0.196699,-0.333380,-0.059559
1765410016.117960,-9.000477,-4.228837,-2.412721,0.220370,-0.333380,-0.050855
1765410016.118210,-9.452414,-4.368722,-1.530368,0.216552,-0.331394,-0.049480
1765410016.118460,-9.705881,-4.312530,-1.189622,0.219606,-0.324522,-0.050855
1765410016.118708,-9.090147,-4.249760,-2.669775,0.229074,-0.323148,-0.039401
1765410016.119041,-8.919176,-4.276661,-2.203491,0.234114,-0.316275,-0.028100
1765410016.119375,-9.259922,-4.832615,-1.439502,0.241292,-0.314137,-0.017410
1765410016.119637,-9.259922,-4.832615,-1.439502,0.241292,-0.306043,-0.017410
1765410016.119887,-9.690338,-4.675394,-1.565638,0.236558,-0.310930,-0.032681
1765410016.120137,-9.363939,-4.334050,-1.546509,0.253662,-0.318108,-0.024282
1765410016.120387,-8.650166,-4.261716,-2.476088,0.258854,-0.318413,-0.015272
1765410016.120685,-8.697990,-4.597082,-2.060019,0.254120,-0.324064,-0.011912
1765410016.120935,-8.894068,-4.607843,-1.924916,0.258701,-0.308640,-0.012217
1765410016.121185,-8.569463,-4.158895,-2.528096,0.274737,-0.299782,-0.007025
1765410016.121435,-9.059061,-3.946078,-1.996054,0.274737,-0.299782,0.005040
1765410016.121639,-8.670492,-4.516977,-1.965567,0.272904,-0.283594,0.020922
1765410016.121972,-8.323171,-4.650286,-2.471305,0.295964,-0.291383,0.024282
1765410016.122306,-8.370396,-4.030966,-2.750478,0.295811,-0.301004,0.025351
1765410016.122704,-8.382352,-4.236011,-2.143113,0.292757,-0.270919,0.035125
1765410016.122954,-8.412242,-4.060258,-2.054041,0.303600,-0.270919,0.049327
1765410016.123204,-8.283715,-4.476326,-2.604017,0.308334,-0.275195,0.054672
1765410016.123454,-8.670492,-3.853419,-2.210665,0.313527,-0.269850,0.054672
1765410016.123718,-8.872548,-3.907819,-1.884266,0.321315,-0.255647,0.067806
1765410016.123968,-8.487565,-3.958632,-1.802367,0.321926,-0.251524,0.078343
1765410016.124218,-8.432567,-4.322692,-2.314682,0.320552,-0.251524,0.095142
1765410016.124468,-8.348875,-4.600669,-1.747967,0.320552,-0.267406,0.095142
1765410016.124718,-8.958034,-4.363940,-1.958393,0.329867,-0.251982,0.082009
1765410016.124968,-8.261597,-4.169057,-2.137733,0.335518,-0.251982,0.092852
1765410016.125218,-8.261597,-4.169057,-2.137733,0.335518,-0.242055,0.092852
1765410016.125468,-8.256814,-3.910808,-1.707317,0.343001,-0.248928,0.101556
1765410016.125672,-8.988521,-3.506695,-1.000717,0.341321,-0.236099,0.108887
1765410016.126005,-8.446915,-3.986131,-1.822094,0.332463,-0.227700,0.123547
1765410016.126339,-7.978240,-3.864179,-2.498804,0.342543,-0.227242,0.128129
1765410016.126644,-7.831181,-3.904830,-2.511358,0.354455,-0.216704,0.150120
1765410016.126894,-8.394308,-4.299975,-0.796270,0.347277,-0.193950,0.145080
1765410016.127144,-8.519846,-3.946676,-1.491511,0.349720,-0.157451,0.153022
1765410016.127394,-7.416905,-4.213295,-2.046867,0.357051,-0.198684,0.162948
1765410016.127648,-7.868244,-3.681252,-2.144309,0.353691,-0.210290,0.151953
1765410016.127898,-8.730271,-3.819942,-0.565519,0.360410,-0.177304,0.180358
1765410016.128148,-8.348875,-3.873744,-1.194404,0.366214,-0.191812,0.181732
1765410016.128398,-8.515063,-3.483979,-1.294835,0.363465,-0.191812,0.192423
1765410016.128681,-8.712935,-3.911406,-0.507532,0.347277,-0.170584,0.188299
1765410016.129014,-8.348875,-3.566475,-0.976805,0.368199,-0.175471,0.202960
1765410016.129348,-8.850429,-3.281922,-1.129842,0.362549,-0.188452,0.216246
1765410016.129810,-9.508009,-4.186991,-0.218795,0.355524,-0.198378,0.227395
1765410016.130060,-10.068149,-3.876136,0.059780,0.370642,-0.170431,0.228005
1765410016.130310,-9.265303,-4.176231,-0.926590,0.360563,-0.189826,0.228464
1765410016.130560,-9.292204,-3.676470,-1.659493,0.349873,-0.189826,0.220217
1765410016.130796,-9.562408,-3.576638,-0.859636,0.352011,-0.173028,0.232587
1765410016.131046,-9.410568,-3.507890,-1.319345,0.365297,-0.144622,0.246331
1765410016.131296,-9.693925,-3.607723,-1.012673,0.358578,-0.144622,0.251829
1765410016.131546,-9.693925,-3.607723,-1.012673,0.358578,-0.139125,0.251829
1765410016.131727,-9.677784,-3.795432,-1.203969,0.366519,-0.133779,0.266185
1765410016.132060,-9.096723,-4.024390,-1.835844,0.355829,-0.123242,0.276722
1765410016.132394,-9.115852,-4.111669,-1.561454,0.355371,-0.108581,0.276264
1765410016.132676,-9.775824,-3.529412,-0.291726,0.375224,-0.107360,0.287107
1765410016.132926,-9.230033,-3.519248,-0.823768,0.368657,-0.094073,0.300393
1765410016.133176,-9.882831,-3.187470,-0.162602,0.384998,-0.102320,0.315054
1765410016.133426,-8.625657,-4.030368,-1.041368,0.396910,-0.092241,0.342390
1765410016.133752,-8.395504,-3.909612,-1.582974,0.402102,-0.113468,0.337961
1765410016.134002,-8.413438,-3.926948,-1.446676,0.391259,-0.101709,0.340252
1765410016.134252,-8.128885,-4.391439,-1.726446,0.398895,-0.109650,0.354760
1765410016.134502,-7.626733,-4.057866,-3.125298,0.397979,-0.093004,0.348804
1765410016.134710,-9.120635,-3.751195,-0.635461,0.395688,-0.078191,0.342237
1765410016.134960,-8.882113,-3.465447,-0.598996,0.410654,-0.043982,0.359800
1765410016.135210,-8.782878,-3.430176,-1.200382,0.393703,-0.078038,0.368504
1765410016.135460,-9.436871,-4.066236,-0.420851,0.376751,-0.088728,0.366519
1765410016.135728,-10.712576,-3.525227,0.893113,0.403782,-0.052534,0.378431
1765410016.136061,-9.945002,-4.057269,0.194883,0.394924,-0.046578,0.381638
1765410016.136395,-10.032877,-3.674079,0.070540,0.383165,-0.071013,0.377362
1765410016.136745,-9.980272,-3.675872,-0.399330,0.396757,-0.077427,0.391717
1765410016.136995,-9.987445,-3.375179,-0.052606,0.405767,-0.108581,0.408669
1765410016.137245,-10.130320,-3.183285,0.147059,0.392481,-0.098502,0.416305
1765410016.137495,-9.510998,-3.838474,-0.821377,0.405920,-0.089644,0.439365
1765410016.137703,-8.879722,-3.867766,-1.746174,0.419054,-0.125075,0.439976
1765410016.137953,-9.338234,-4.117647,-1.613462,0.405767,-0.119730,0.431118
1765410016.138203,-9.108679,-4.179220,-0.853658,0.403324,-0.085827,0.424857
1765410016.138453,-8.376971,-3.191056,-2.088713,0.408363,-0.084452,0.429286
1765410016.138647,-9.247966,-2.912482,-0.872788,0.406225,-0.084452,0.449291
1765410016.138897,-10.065159,-3.467240,-1.110115,0.413556,-0.049633,0.475100
1765410016.139147,-9.617407,-4.285628,-1.339072,0.409127,-0.040775,0.483500
1765410016.139397,-9.115254,-4.133189,-1.032401,0.405767,-0.048717,0.451429
1765410016.139653,-9.350788,-2.766618,0.740076,0.423177,-0.051160,0.459676
1765410016.139986,-8.090626,-2.780966,-1.301411,0.412639,-0.044746,0.493121
1765410016.140320,-8.721304,-3.308823,-1.311573,0.411570,-0.069180,0.519083
1765410016.140702,-9.875058,-3.925155,-0.444763,0.422871,-0.063377,0.529467
1765410016.140952,-9.516976,-3.882113,-1.048541,0.432951,-0.078343,0.531147
1765410016.141202,-8.879722,-3.874940,-2.088713,0.414472,-0.019395,0.518014
1765410016.141452,-8.638210,-3.961023,-0.967240,0.422871,-0.019395,0.521526
1765410016.141781,-8.479196,-3.952654,-0.486609,0.427758,-0.049022,0.524275
1765410016.142031,-9.769846,-3.329746,-0.051411,0.407753,-0.061545,0.510531
1765410016.142281,-9.473935,-3.617886,-1.075442,0.411723,-0.023671,0.536645
1765410016.142531,-8.241869,-3.813964,-1.185437,0.430507,-0.048106,0.539699
1765410016.142773,-9.335843,-3.544954,0.408297,0.422108,-0.061697,0.530689
1765410016.143023,-8.552127,-3.458871,0.047824,0.422719,-0.043830,0.541837
1765410016.143273,-7.357723,-2.934600,-2.244739,0.425926,-0.057574,0.559094
1765410016.143523,-7.729554,-2.804280,-1.793400,0.428675,-0.093310,0.587652
1765410016.143731,-7.729554,-2.804280,-1.793400,0.428675,-0.107665,0.587652
1765410016.143981,-8.922764,-4.524151,-0.894309,0.416610,-0.092852,0.582765
1765410016.144231,-8.922764,-4.524151,-0.894309,0.416610,-0.077733,0.582765
1765410016.144481,-9.433285,-2.409134,-1.455643,0.420275,-0.075442,0.578337
1765410016.144748,-9.836202,-2.887374,0.059780,0.409432,-0.075442,0.611782
1765410016.145081,-9.836202,-2.887374,0.059780,0.409432,-0.081703,0.611782
1765410016.145415,-8.668698,-3.302247,-2.095887,0.398131,-0.063072,0.594677
1765410016.145618,-8.730869,-2.263271,-1.887852,0.417526,-0.056047,0.625526
1765410016.145868,-9.097322,-2.623147,-0.466284,0.409891,-0.063988,0.657138
1765410016.146118,-9.561213,-3.463653,-0.086083,0.409432,-0.044135,0.664927
1765410016.146368,-8.828311,-3.998087,-0.231946,0.414930,-0.066279,0.675617
1765410016.146665,-8.732662,-3.148015,-1.463415,0.403477,-0.088728,0.655458
1765410016.146915,-8.822930,-3.651363,-1.394070,0.397521,-0.076205,0.663552
1765410016.147165,-8.287899,-3.890482,-2.455762,0.403324,-0.058185,0.667523
1765410016.147415,-9.170252,-3.241272,-0.430416,0.413556,-0.058185,0.664469
1765410016.147689,-9.291008,-3.581420,0.416069,0.395841,-0.038026,0.658360
1765410016.147939,-9.387852,-2.571736,-0.676710,0.402255,-0.067348,0.658971
1765410016.148189,-9.502629,-3.121114,-1.138211,0.399964,-0.067348,0.677297
1765410016.148439,-9.351983,-2.458153,-0.598398,0.399964,-0.053909,0.677297
1765410016.150039,-9.529531,-3.583213,0.016738,0.405920,-0.057269,0.714865
1765410016.150289,-8.970588,-4.118245,0.815399,0.392175,-0.071624,0.686918
1765410016.150539,-9.297584,-3.300454,-0.493185,0.400575,-0.089797,0.680351
1765410016.150789,-9.166666,-2.669177,-0.572692,0.396604,-0.087965,0.685696
1765410016.150082,-9.166666,-2.669177,-0.572692,0.396604,-0.088575,0.685696
1765410016.150332,-9.742347,-4.398612,0.563128,0.375529,-0.095906,0.707535
1765410016.150582,-9.888808,-3.162362,-1.035390,0.392328,-0.095906,0.679129
1765410016.150832,-9.184002,-2.069584,-1.932090,0.414625,-0.087048,0.713643
1765410016.150739,-8.958631,-2.037302,-1.034194,0.403018,-0.087048,0.744950
1765410016.151072,-8.958631,-2.037302,-1.034194,0.403018,-0.079718,0.744950
1765410016.151406,-8.368004,-4.264706,-1.657102,0.394619,-0.069639,0.760527
1765410016.151674,-9.521759,-3.451099,-1.299617,0.400422,-0.078343,0.736398
1765410016.151924,-9.730989,-3.029651,-0.295313,0.399811,-0.040012,0.736398
1765410016.152174,-9.020802,-2.928622,0.181731,0.409280,-0.040012,0.751059
1765410016.152424,-8.339311,-3.543758,-0.543998,0.384845,-0.070860,0.749837
1765410016.152683,-8.532400,-2.805475,-1.510641,0.378736,-0.082161,0.734260
1765410016.152933,-9.261118,-2.186753,-1.288259,0.391259,-0.095448,0.760069
1765410016.153183,-9.471543,-1.951817,-1.369560,0.392175,-0.060323,0.786031
1765410016.153433,-9.817670,-3.675872,-0.237924,0.377820,-0.060323,0.805884
1765410016.153650,-8.463653,-4.097321,-0.890722,0.387441,-0.033903,0.784198
1765410016.153900,-8.775704,-2.638091,-1.300813,0.389427,-0.066890,0.771065
1765410016.154150,-9.909132,-2.308106,0.588235,0.368963,-0.067806,0.783740
1765410016.154400,-10.203251,-3.356050,-0.068149,0.368963,-0.047037,0.783740
1765410016.154628,-9.703490,-2.898134,-0.340746,0.374002,-0.059254,0.791529
1765410016.154878,-9.552844,-2.056432,0.330583,0.379347,-0.072846,0.796874
1765410016.155128,-9.166666,-1.819106,0.264825,0.374002,-0.081398,0.822377
1765410016.155378,-9.365135,-2.635103,-0.340746,0.364839,-0.094531,0.845437
1765410016.155657,-8.408655,-3.817551,-1.059302,0.357051,-0.107665,0.846507
1765410016.155990,-9.155905,-3.421807,-0.323410,0.363312,-0.114385,0.822988
1765410016.156324,-9.142754,-3.107962,-0.288140,0.346361,-0.095753,0.816421
1765410016.156649,-9.268291,-2.623147,-1.251793,0.346971,-0.105832,0.819628
1765410016.156899,-10.133308,-2.906504,-0.304878,0.346055,-0.092393,0.826806
1765410016.157149,-9.542084,-2.982424,-0.902080,0.344528,-0.085979,0.821766
1765410016.157399,-9.301768,-1.891439,-1.028216,0.343459,-0.087659,0.822225
1765410016.157673,-8.707555,-2.577714,-1.551889,0.329256,-0.071013,0.851699
1765410016.157923,-9.448828,-3.240674,-0.598996,0.340863,-0.065057,0.856433
1765410016.158173,-9.856527,-3.391917,0.465088,0.336129,-0.065057,0.833984
1765410016.158423,-9.686751,-2.210067,0.028097,0.345139,-0.059712,0.830624
1765410016.158639,-9.016020,-2.734338,-1.304400,0.327729,-0.077427,0.849103
1765410016.158889,-9.668818,-2.730153,-0.319225,0.314748,-0.098502,0.832609
1765410016.159139,-9.893590,-1.609278,-1.304400,0.342695,-0.070097,0.846201
1765410016.159389,-9.068028,-2.037302,-1.475371,0.333991,-0.088117,0.868498
1765410016.159661,-9.169655,-1.877092,-0.113582,0.324369,-0.056200,0.875981
1765410016.159911,-9.710664,-2.963892,-0.289335,0.342237,-0.053145,0.910647
1765410016.160161,-9.262314,-3.607125,-1.254184,0.319941,-0.059254,0.868192
1765410016.160411,-10.432806,-2.523911,-0.450741,0.321010,-0.062766,0.852004
1765410016.160676,-9.852941,-3.069105,0.331779,0.322842,-0.037415,0.866360
1765410016.161009,-10.156623,-2.703252,0.648613,0.320857,-0.072540,0.856433
1765410016.161343,-10.674318,-2.607604,1.605691,0.310167,-0.070708,0.847881
1765410016.161643,-9.814680,-2.271640,-0.854256,0.326507,-0.083689,0.861778
1765410016.161893,-9.323289,-1.917742,-1.050932,0.326966,-0.094684,0.882242
1765410016.162143,-8.877331,-3.356647,-0.125538,0.306960,-0.092546,0.886365
1765410016.162393,-9.884624,-2.948350,-0.046628,0.310014,-0.102320,0.866360
1765410016.162660,-10.137493,-2.621951,-0.857843,0.314443,-0.085827,0.859793
1765410016.162910,-10.429816,-2.395983,0.011956,0.307876,-0.085827,0.863916
1765410016.163160,-10.429816,-2.395983,0.011956,0.307876,-0.056352,0.863916
1765410016.163410,-9.557029,-1.475968,-0.832138,0.313374,-0.072846,0.874912
1765410016.163627,-9.130199,-1.588952,-0.810617,0.294742,-0.078038,0.895834
1765410016.163877,-9.739358,-2.006217,-0.729316,0.314290,-0.027031,0.915382
1765410016.164127,-9.335245,-3.298660,-0.485414,0.299019,-0.027031,0.924086
1765410016.164377,-8.994499,-2.747489,-0.189503,0.299019,-0.043677,0.893390
1765410016.164654,-8.354854,-2.420492,-0.976805,0.285274,-0.061850,0.890794
1765410016.164904,-8.473217,-2.470110,-1.481349,0.272446,-0.086285,0.890794
1765410016.165154,-9.094930,-2.669775,-1.719871,0.266490,-0.076205,0.883006
1765410016.165404,-9.500237,-2.422884,-1.297824,0.259618,-0.065515,0.878272
1765410016.165660,-9.261118,-1.462219,-0.450143,0.272904,-0.045051,0.877966
1765410016.165993,-8.316594,-2.236968,-1.544715,0.264505,-0.071013,0.911106
1765410016.166327,-9.479913,-2.982424,-0.528455,0.251829,-0.071013,0.891863
1765410016.166702,-9.479913,-2.982424,-0.528455,0.251829,-0.052534,0.891863
1765410016.166952,-10.217599,-1.975131,-0.994141,0.260992,-0.045662,0.885907
1765410016.167202,-10.028693,-2.413917,-0.732903,0.233503,-0.058490,0.880868
1765410016.167452,-10.893111,-2.357723,2.124581,0.233809,-0.062003,0.861931
1765410016.168651,-10.352103,-1.348637,0.112386,0.261298,-0.062003,0.884227
1765410016.168901,-10.352103,-1.348637,0.112386,0.261298,-0.108581,0.884227
1765410016.169151,-10.309659,-1.098159,-0.041846,0.225409,-0.074984,0.900873
1765410016.169401,-9.261118,-3.457675,-0.337159,0.233503,-0.089492,0.936151
1765410016.168740,-9.400406,-3.071496,-0.878766,0.226020,-0.117286,0.879188
1765410016.168990,-10.034670,-2.276423,-0.102822,0.212123,-0.081092,0.860709
1765410016.169240,-9.684361,-2.001434,-0.701219,0.229227,-0.047189,0.871399
1765410016.169490,-9.563007,-1.895026,-1.216523,0.214566,-0.054062,0.869567
1765410016.169660,-9.411165,-2.386418,-0.887733,0.180969,-0.054062,0.857044
1765410016.169910,-9.674197,-1.196796,-0.447154,0.208916,-0.012370,0.862847
1765410016.170160,-9.508607,-1.734816,-0.849474,0.201433,-0.012370,0.897972
1765410016.170410,-10.460305,-2.886776,0.720947,0.188605,-0.036499,0.886824
1765410016.170688,-9.842180,-2.487446,0.870397,0.189826,-0.016799,0.860556
1765410016.170938,-8.652557,-2.424677,-1.520803,0.204487,-0.057727,0.864680
1765410016.171188,-8.662123,-1.791009,-2.291965,0.183718,-0.059712,0.844827
1765410016.171438,-9.617407,-2.082735,-0.904471,0.174249,-0.042761,0.847728
1765410016.171639,-10.957674,-1.628407,0.652200,0.192881,-0.040317,0.850783
1765410016.171889,-10.430414,-1.472979,0.044835,0.184787,-0.011454,0.869567
1765410016.172139,-11.132830,-1.335485,0.530846,0.185856,-0.014661,0.874454
1765410016.172389,-10.712576,-2.550215,0.000000,0.185856,-0.000458,0.874454
1765410016.172699,-10.573887,-2.662004,-0.047226,0.186161,-0.035277,0.870178
1765410016.172949,-10.460305,-2.066595,0.918221,0.167988,-0.009774,0.841925
1765410016.173199,-10.535626,-1.718077,0.615734,0.168752,-0.015577,0.847270
1765410016.173449,-9.619798,-1.847202,-0.049020,0.154549,-0.041233,0.841009
1765410016.173748,-9.212098,-2.260880,-0.699426,0.141415,-0.071166,0.831846
1765410016.174081,-9.341224,-1.551889,-0.216404,0.148746,-0.066432,0.814283
1765410016.174415,-8.721902,-0.894309,-0.847680,0.151800,-0.063530,0.838260
1765410016.174721,-8.370396,-1.644548,-1.773075,0.131489,-0.085674,0.844674
1765410016.174971,-9.566593,-2.429459,-0.779531,0.116523,-0.090866,0.826348
1765410016.175221,-10.126732,-2.097680,-0.313845,0.138056,-0.052534,0.812298
1765410016.175471,-9.878646,-1.016260,-1.525586,0.142790,-0.051007,0.809855
1765410016.175676,-8.927546,-1.439502,-1.746772,0.111177,-0.040928,0.814589
1765410016.175926,-9.309540,-2.167623,-0.306074,0.112552,-0.002443,0.811076
1765410016.176176,-9.823050,-1.766499,0.113582,0.121715,-0.002443,0.802219
1765410016.176426,-10.191295,-0.896700,0.620516,0.119271,-0.001222,0.802219
1765410016.176699,-9.577952,-0.372429,-0.130320,0.108276,-0.033292,0.817338
1765410016.176949,-9.536703,-1.594333,-0.773553,0.108276,-0.033292,0.817338
1765410016.177199,-9.563604,-2.775585,-0.136298,0.099724,-0.045204,0.830777
1765410016.177449,-9.846365,-2.339192,-0.787900,0.108734,-0.023366,0.796721
1765410016.177675,-9.098516,-1.653515,-1.337279,0.094531,-0.007330,0.781144
1765410016.177875,-9.713055,-1.011478,-1.183644,0.095448,-0.006109,0.780228
1765410016.178075,-10.017933,-2.009206,0.183525,0.095448,0.006414,0.780228
1765410016.178275,-10.548779,-1.782042,-0.087279,0.082925,0.003665,0.768927
1765410016.178475,-10.228358,-1.639168,0.074725,0.078343,0.002138,0.771370
1765410016.178675,-11.044952,-1.337876,0.582855,0.079871,-0.014203,0.764956
1765410016.178925,-11.549496,-1.171090,0.847680,0.083994,0.005345,0.777173
1765410016.179175,-11.720467,-2.158058,1.312769,0.072235,-0.007789,0.768468
1765410016.179425,-11.239836,-2.122190,0.954687,0.066126,-0.025809,0.737467
1765410016.179645,-10.787899,-1.232664,0.510521,0.076969,-0.047342,0.731664
1765410016.179895,-10.138689,-1.484935,-0.561932,0.069944,-0.058032,0.744492
1765410016.180145,-9.496651,-2.006217,-0.494381,0.058185,-0.058185,0.739758
1765410016.180395,-9.247369,-1.987087,-1.221903,0.054062,-0.058185,0.711505
1765410016.180730,-9.518172,-1.018651,-0.618125,0.062461,-0.041081,0.711811
1765410016.180980,-9.497847,-0.361669,-0.771162,0.060628,-0.033292,0.726624
1765410016.181230,-10.454924,-0.536824,-0.500956,0.050855,-0.015882,0.738231
1765410016.181480,-9.624580,-1.447872,-1.636777,0.052840,-0.004887,0.755335
1765410016.181696,-9.288616,-2.228599,-0.303682,0.042913,-0.004123,0.738994
1765410016.181946,-10.277378,-1.651124,0.019130,0.040164,0.021228,0.738994
1765410016.182196,-10.706000,-1.007891,1.148972,0.038485,0.023671,0.710131
1765410016.182446,-10.236728,-1.337876,-0.092061,0.029627,0.001680,0.710742
1765410016.182753,-9.901959,-1.719273,-0.494978,0.024587,-0.007636,0.702190
1765410016.183003,-10.221185,-1.341463,0.312649,0.036805,-0.012675,0.683405
1765410016.183253,-10.221185,-1.341463,0.312649,0.036805,-0.006261,0.683405
1765410016.183503,-10.491391,-1.213534,-0.363462,0.007941,0.042761,0.667676
1765410016.183683,-10.176947,-0.749043,-0.242109,0.024129,0.042761,0.667523
1765410016.183933,-10.199663,-0.892515,0.465088,0.023366,0.026878,0.693943
1765410016.184183,-9.759683,-1.538139,-0.673721,-0.007636,0.014050,0.669661
1765410016.184433,-10.817192,-1.821497,0.161406,-0.000153,0.027336,0.664469
1765410016.184756,-10.905665,-2.488044,0.612147,0.012675,0.014813,0.649808
1765410016.185006,-11.541128,-0.836322,1.339072,0.008705,0.014813,0.621555
1765410016.185256,-10.416666,-0.592420,0.127929,0.008705,0.010843,0.621555
1765410016.185506,-10.031085,-1.263749,-0.228360,-0.009927,-0.036499,0.638507
1765410016.185768,-9.966521,-1.297824,0.296509,-0.002902,-0.035125,0.627206
1765410016.186018,-9.681969,-1.236250,-0.549378,-0.001833,-0.045662,0.622930
1765410016.186268,-9.212696,-1.132233,-1.373744,-0.020464,-0.054367,0.602924
1765410016.186518,-9.192968,-0.478240,-1.062888,-0.009774,-0.046884,0.611323
1765410016.186733,-9.657459,-0.679101,-0.339550,-0.007941,-0.032376,0.624762
1765410016.186983,-9.733977,-0.987566,-0.493185,-0.003971,-0.032376,0.631787
1765410016.187233,-10.233141,-1.611669,-1.212936,-0.010385,-0.020311,0.618959
1765410016.187483,-9.670610,-1.727044,-0.638450,-0.011606,-0.010996,0.599411
1765410016.187827,-9.222859,-1.275705,-0.642037,-0.010385,0.007636,0.588111
1765410016.188077,-9.423719,-1.138211,0.637255,-0.013592,0.006261,0.575740
1765410016.188327,-9.842180,-0.821377,0.730512,-0.022907,0.006261,0.575130
1765410016.188577,-10.545193,-1.448470,0.925394,-0.027947,-0.031001,0.577573
1765410016.188745,-10.504542,-1.456241,-0.351506,-0.022755,-0.018937,0.557415
1765410016.188995,-9.941415,-1.402439,-0.727523,-0.020159,-0.027336,0.552680
1765410016.189245,-9.538497,-1.199785,-1.326518,-0.036041,-0.029016,0.539241
1765410016.189495,-9.957555,-1.077236,-0.300693,-0.037415,-0.032834,0.530842
1765410016.189723,-9.984456,-0.436394,-0.172764,-0.029780,0.007636,0.532674
1765410016.189973,-9.241988,-0.547585,-0.396939,-0.024129,-0.017868,0.548404
1765410016.190223,-8.897655,-1.200382,-0.521282,-0.051007,-0.031307,0.538020
1765410016.190473,-10.172164,-1.456241,-0.268412,-0.036805,-0.029474,0.526871
1765410016.190700,-9.796746,-2.344572,0.028694,-0.045051,-0.019090,0.516945
1765410016.190950,-10.192491,-0.907460,0.221186,-0.039095,-0.020311,0.479529
1765410016.191200,-9.975489,-0.369440,0.261836,-0.051771,-0.033139,0.484416
1765410016.191450,-9.992227,-0.659373,0.182329,-0.053298,-0.072082,0.494801
1765410016.191733,-10.069344,-0.785509,-0.295313,-0.048717,-0.080940,0.498924
1765410016.191983,-10.100429,-1.605093,-0.107006,-0.055131,-0.088423,0.491136
1765410016.192233,-9.965326,-1.012673,-0.477044,-0.062461,-0.095753,0.461967
1765410016.192483,-10.311452,-0.435796,-0.065758,-0.064141,-0.115148,0.451124
1765410016.192714,-9.922284,-0.151841,-0.896700,-0.072082,-0.107665,0.459523
1765410016.192964,-10.159613,-0.124940,-0.564323,-0.060781,-0.113926,0.466701
1765410016.193214,-10.714968,-0.738283,0.614538,-0.083689,-0.094684,0.463494
1765410016.193464,-10.139884,-0.755619,-0.423242,-0.077733,-0.096669,0.462120
1765410016.193811,-9.789574,-0.916427,-0.496174,-0.089950,-0.105832,0.452957
1765410016.194061,-10.318028,-0.573888,-0.576877,-0.084147,-0.107665,0.452193
1765410016.194311,-10.318028,-0.573888,-0.576877,-0.084147,-0.093615,0.452193
1765410016.194561,-10.860232,-1.225490,1.113701,-0.089339,-0.092393,0.434325
1765410016.194708,-10.567909,-0.573290,0.188307,-0.085521,-0.113010,0.415847
1765410016.194958,-10.356287,-0.450741,0.368843,-0.094837,-0.122020,0.412487
1765410016.195208,-10.442370,-0.723338,0.314443,-0.097280,-0.130878,0.422566
1765410016.195458,-10.418460,-1.054519,0.541607,-0.091783,-0.126755,0.409280
1765410016.195691,-9.924676,-1.119082,0.112984,-0.102473,-0.126296,0.401949
1765410016.195941,-10.154830,-0.979196,-0.048422,-0.096669,-0.145080,0.382402
1765410016.196191,-9.311932,-0.974414,-1.386896,-0.096975,-0.140957,0.376140
1765410016.196441,-9.855929,-0.747250,-1.192013,-0.099724,-0.149662,0.360105
1765410016.196706,-9.759683,-0.276781,0.099235,-0.094837,-0.097891,0.363770
1765410016.196956,-9.269487,-0.943926,-0.047824,-0.095142,-0.121409,0.370795
1765410016.197206,-9.168459,-0.654591,-0.506934,-0.104000,-0.144317,0.353691
1765410016.197456,-8.986130,-0.912243,-1.231468,-0.103084,-0.161268,0.354302
1765410016.197678,-9.796746,-1.087996,-0.131516,-0.091783,-0.161574,0.344070
1765410016.198011,-9.495455,-0.649211,-0.374821,-0.090255,-0.126602,0.337198
1765410016.198345,-10.022118,-0.610354,0.888331,-0.105222,-0.167072,0.332005
1765410016.198732,-10.197870,-0.590029,0.332377,-0.110108,-0.182191,0.325591
1765410016.198982,-10.480630,-0.906265,0.553563,-0.100793,-0.212276,0.327424
1765410016.199232,-11.110114,-1.054519,1.066475,-0.092852,-0.204640,0.314290
1765410016.199482,-11.153155,-1.293041,1.036585,-0.102167,-0.218690,0.297950
1765410016.199808,-11.213532,-1.011478,1.019847,-0.117744,-0.233045,0.269697
1765410016.200058,-10.600189,-0.453730,0.742468,-0.100182,-0.233045,0.271682
1765410016.200308,-10.793877,-0.561334,1.373744,-0.106901,-0.235641,0.274126
1765410016.200558,-10.659969,0.087279,0.741272,-0.101251,-0.235489,0.269850
1765410016.200682,-10.659969,0.087279,0.741272,-0.101251,-0.252440,0.269850
1765410016.200932,-9.876852,-0.457317,-0.205045,-0.099724,-0.253967,0.283289
1765410016.201182,-9.427306,-0.972023,-0.648015,-0.105069,-0.259618,0.278249
1765410016.201432,-10.313247,-0.610354,1.116690,-0.115148,-0.249538,0.249233
1765410016.201702,-9.851745,-0.306074,0.596604,-0.120188,-0.233503,0.243277
1765410016.201952,-8.951457,-0.445959,-0.467480,-0.120493,-0.234420,0.252135
1765410016.202202,-8.753586,-0.401722,-0.785509,-0.119577,-0.253204,0.242514
1765410016.202452,-9.402199,-0.368245,0.352104,-0.125075,-0.253204,0.242666
1765410016.202693,-10.231946,-0.224175,1.095170,-0.127365,-0.249233,0.243124
1765410016.202943,-9.933045,-1.048541,0.655189,-0.136528,-0.245110,0.235030
1765410016.203193,-8.642992,-0.743663,-0.615734,-0.133474,-0.227395,0.225715
1765410016.203443,-9.479913,-0.324605,0.601985,-0.115148,-0.256411,0.222202
1765410016.203623,-9.780008,-0.703611,1.315758,-0.135459,-0.244346,0.220675
1765410016.203873,-10.056191,-0.142276,1.055117,-0.126755,-0.245262,0.208458
1765410016.204123,-9.308942,-0.918819,0.349115,-0.138208,-0.252745,0.210443
1765410016.204373,-9.595885,-0.109995,0.092061,-0.135918,-0.276569,0.197309
1765410016.204715,-10.399329,-0.041846,1.719273,-0.135918,-0.274431,0.197309
1765410016.204965,-9.546865,-0.975610,0.546389,-0.141415,-0.269544,0.204334
1765410016.205215,-9.538497,-0.210426,0.141081,-0.141415,-0.281456,0.204334
1765410016.205465,-9.326876,-0.501554,0.582257,-0.139125,-0.288023,0.190895
1765410016.205677,-10.098038,-0.465088,1.266738,-0.139125,-0.288023,0.189674
1765410016.206010,-10.098038,-0.465088,1.266738,-0.139125,-0.273668,0.189674
1765410016.206344,-9.459588,-0.964849,0.716164,-0.143095,-0.264046,0.168904
1765410016.206719,-9.496651,-0.648015,0.830942,-0.137750,-0.284969,0.155618
1765410016.206969,-9.400406,-0.674318,0.799856,-0.133169,-0.297797,0.149662
1765410016.207219,-9.845766,-0.738881,0.955284,-0.129503,-0.297797,0.148440
1765410016.207469,-9.332854,-0.746054,0.358680,-0.133016,-0.267101,0.136681
1765410016.207707,-8.967000,-0.829746,0.375418,-0.131183,-0.277027,0.138056
1765410016.207957,-8.998086,-0.813606,0.807030,-0.125227,-0.270155,0.122326
1765410016.208207,-8.800215,-0.611549,0.299498,-0.114843,-0.271377,0.127518
1765410016.208457,-8.933523,-0.617527,0.590626,-0.107360,-0.264505,0.128282
1765410016.208767,-8.778095,-0.619321,0.705404,-0.103847,-0.260381,0.127976
1765410016.209017,-9.568985,-0.852463,1.975131,-0.111788,-0.261756,0.126907
1765410016.209267,-8.926350,-1.215327,0.572692,-0.107970,-0.261756,0.119424
1765410016.209517,-8.730271,-1.155547,0.203252,-0.106749,-0.275500,0.106443
1765410016.209742,-8.793638,-1.027020,0.714969,-0.095295,-0.257785,0.102167
1765410016.209992,-8.879722,-0.936155,0.748446,-0.084299,-0.251676,0.102778
1765410016.210242,-9.592299,-0.585844,1.628407,-0.083841,-0.262367,0.093462
1765410016.210492,-9.470347,-0.725131,0.975610,-0.093921,-0.247553,0.092088
1765410016.210768,-9.470347,-0.725131,0.975610,-0.093921,-0.258854,0.092088
1765410016.211018,-9.170252,-1.101148,0.893113,-0.071471,-0.246179,0.085368
1765410016.211268,-9.115254,-1.182449,1.275705,-0.068570,-0.244041,0.079871
1765410016.211518,-8.839071,-0.898493,0.808226,-0.061697,-0.242972,0.072388
1765410016.211682,-8.658535,-0.829149,0.424438,-0.062461,-0.248775,0.070250
1765410016.211932,-8.658535,-0.829149,0.424438,-0.062461,-0.246026,0.070250
1765410016.212182,-9.049497,-1.226088,1.157341,-0.047953,-0.244193,0.071777
1765410016.212432,-9.441055,-1.038976,1.203969,-0.049175,-0.245262,0.064141
1765410016.212698,-9.387254,-1.162123,1.047943,-0.041539,-0.236710,0.060323
1765410016.212948,-9.293399,-1.241631,1.306791,-0.035430,-0.236710,0.058490
1765410016.213198,-9.046508,-1.108919,1.107126,-0.024129,-0.240834,0.058490
1765410016.213448,-8.708751,-1.287661,0.921808,-0.031612,-0.241903,0.050396
1765410016.213699,-8.627449,-1.085605,0.499761,-0.020922,-0.239612,0.051313
1765410016.213949,-8.621472,-1.148972,0.603180,-0.011148,-0.242819,0.051007
1765410016.214199,-8.620276,-1.376136,1.047346,-0.014661,-0.228005,0.045509
1765410016.214449,-8.282519,-1.261956,0.364658,-0.000153,-0.226478,0.041997
1765410016.214716,-8.234097,-1.203969,0.342539,-0.003207,-0.222050,0.030696
1765410016.214966,-8.264585,-0.903874,0.541009,0.002749,-0.214108,0.036041
1765410016.215216,-8.146818,-1.081420,0.392755,0.000458,-0.197920,0.035125
1765410016.215466,-8.182687,-1.001913,0.706600,0.001222,-0.194255,0.032223
1765410016.215640,-8.170731,-1.019847,0.732305,0.006720,-0.189979,0.033903
1765410016.215890,-7.840745,-1.017456,0.052606,0.010690,-0.191354,0.030085
1765410016.216140,-7.804877,-0.957676,0.007771,0.010996,-0.178984,0.025045
1765410016.216390,-8.079268,-1.050335,0.519488,0.010996,-0.167835,0.025045
1765410016.216684,-8.198827,-1.149569,0.676112,0.003512,-0.159130,0.019548
1765410016.216934,-7.997368,-0.951698,0.555954,0.004887,-0.144470,0.011606
1765410016.217184,-7.748684,-0.736490,0.417862,0.002902,-0.127671,0.011606
1765410016.217434,-7.945958,-0.738881,0.502152,0.006261,-0.137903,0.012828
1765410016.217667,-8.537780,-0.772358,1.346246,0.004429,-0.126296,0.009621
1765410016.217867,-8.153993,-0.939742,0.856647,0.008247,-0.105985,0.012217
1765410016.218067,-7.848517,-0.901482,0.411286,0.003971,-0.110261,0.005651
1765410016.218267,-8.256814,-0.625299,0.927786,0.001222,-0.097128,0.002749
1765410016.218467,-8.466043,-0.665949,1.172286,0.004887,-0.097128,0.007025
1765410016.218736,-8.299855,-0.901482,0.670732,0.000305,-0.094684,0.004429
1765410016.218986,-8.011716,-0.642635,0.308465,-0.004429,-0.079107,-0.003818
1765410016.219236,-8.048779,-0.659373,0.334768,-0.005651,-0.078038,-0.000916
1765410016.219486,-8.399090,-0.545194,0.710186,-0.004123,-0.049175,-0.001527
1765410016.219658,-8.430176,-0.584648,0.792683,-0.003818,-0.049175,0.000000
1765410016.219908,-8.275346,-0.699426,0.390961,-0.002902,-0.039706,0.001374
1765410016.220158,-8.503705,-0.621712,0.502152,-0.006414,-0.043830,-0.004123
1765410016.220408,-8.728478,-0.474653,0.729316,-0.007178,-0.036041,-0.004276
1765410016.220710,-8.654350,-0.481827,0.484218,-0.006720,-0.017715,-0.001069
1765410016.220910,-8.629841,-0.512912,0.297107,-0.007330,-0.014050,-0.001069
1765410016.221110,-8.839669,-0.542802,0.642635,-0.009316,-0.007789,-0.005345
1765410016.221310,-9.098516,-0.500359,0.787900,-0.008247,-0.005956,-0.007178
1765410016.221510,-9.105690,-0.426231,0.634266,-0.005803,-0.001222,-0.012065
1765410016.221753,-9.133189,-0.205643,0.448350,-0.003665,0.008858,-0.011301
1765410016.221953,-9.314920,-0.014347,0.557150,-0.006567,0.009621,-0.012828
1765410016.222153,-9.742945,0.247489,0.999522,-0.006109,0.015577,-0.005498
1765410016.222353,-9.842777,-0.196078,0.873386,-0.013744,0.018631,0.007636
1765410016.222553,-9.548061,-0.945122,-0.069943,-0.010843,0.018631,0.016799
1765410016.222701,-9.548061,-0.945122,-0.069943,-0.010843,0.006720,0.016799
1765410016.222951,-10.127929,-1.236250,0.545791,0.010843,0.012370,-0.009163
1765410016.223201,-10.096842,-0.103419,0.708991,0.009468,0.029780,-0.029932
1765410016.223451,-9.872069,0.817790,0.145265,0.000000,0.005956,-0.021991
1765410016.223659,-10.018531,0.827355,-0.015543,0.001985,0.005956,0.004734
1765410016.223859,-10.308464,0.266619,0.136896,-0.002138,0.007789,0.014813
1765410016.224059,-10.327594,-0.540411,0.411286,-0.003971,0.024893,0.016188
1765410016.224259,-9.907339,-0.563128,-0.170373,-0.004887,0.027031,-0.004429
1765410016.224459,-10.031085,0.123147,0.032281,-0.007025,0.011454,-0.016799
1765410016.224636,-10.162600,0.753228,0.133907,-0.010079,0.011912,-0.009316
1765410016.224836,-10.404112,0.674318,0.349115,-0.011454,0.015730,0.012065
1765410016.225036,-10.068149,-0.151841,-0.130320,-0.016341,0.005651,0.021228
1765410016.225236,-10.005977,-0.602582,-0.185318,-0.016646,0.005651,0.008552
1765410016.225436,-10.346722,-0.329986,0.261836,-0.016646,0.001222,0.008552
1765410016.225642,-10.406504,0.099235,0.333572,-0.009163,0.009621,-0.002291
1765410016.225842,-10.112385,0.172166,0.170971,-0.009163,0.010079,0.001222
1765410016.226042,-10.034670,0.060976,0.114778,-0.012828,-0.007789,0.006261
1765410016.226242,-10.135101,-0.273792,0.198470,-0.008858,-0.007789,0.009468
1765410016.226442,-10.135101,-0.273792,0.198470,-0.008858,-0.004734,0.009468
1765410016.226695,-10.233141,-0.146461,0.174558,-0.004887,0.000611,-0.002749
1765410016.226895,-10.230152,0.086083,0.298900,-0.002902,0.001069,-0.004887
1765410016.227095,-10.469870,0.128527,0.690459,-0.003818,-0.006109,-0.003054
1765410016.227295,-10.520682,-0.004782,0.687470,-0.003971,-0.010690,0.003054
1765410016.227495,-10.520682,-0.004782,0.687470,-0.003971,-0.010385,0.003054
1765410016.227637,-10.033475,0.014347,0.111789,-0.004887,-0.016952,-0.007025
1765410016.227837,-10.145862,0.200861,0.397537,-0.003512,-0.016952,-0.005651
1765410016.228037,-10.230749,0.364658,0.419656,-0.005498,-0.017104,-0.002749
1765410016.228237,-10.057985,0.255858,0.267217,-0.007483,-0.014813,0.000458
1765410016.228437,-9.850550,0.001196,0.058584,-0.008705,-0.018326,0.003665
1765410016.228649,-9.951577,-0.139885,0.230751,-0.009774,-0.025809,-0.000611
1765410016.228899,-10.022716,-0.010760,0.352702,-0.009621,-0.023060,-0.008705
1765410016.229149,-9.817072,0.222382,0.162602,-0.009468,-0.017868,-0.005956
1765410016.229399,-9.716641,0.254663,0.068149,-0.012065,-0.016799,-0.002749
1765410016.229708,-9.831419,0.107604,0.320421,-0.015119,-0.022449,0.000764
1765410016.229908,-10.025107,-0.041846,0.480631,-0.012065,-0.022449,-0.001069
1765410016.230108,-9.899570,-0.126734,0.273195,-0.015272,-0.014050,-0.002443
1765410016.230308,-9.829626,-0.118364,0.220588,-0.013744,-0.019242,-0.003207
1765410016.230508,-9.966521,0.001196,0.478240,-0.013134,-0.019090,-0.005651
1765410016.230698,-10.029889,0.009565,0.481827,-0.010232,-0.016035,-0.001985
1765410016.230898,-9.836202,-0.119560,0.231946,-0.011301,-0.014050,0.000611
1765410016.231098,-9.823050,-0.234338,0.271401,-0.013897,-0.018631,-0.002749
1765410016.231298,-9.959349,-0.197274,0.483022,-0.013897,-0.022297,-0.002749
1765410016.231498,-9.994021,-0.095050,0.463295,-0.007941,-0.016646,-0.005040
1765410016.231724,-9.851745,-0.066954,0.331181,-0.010537,-0.016493,-0.005040
1765410016.231974,-9.857722,-0.164395,0.428025,-0.011301,-0.014966,-0.000458
1765410016.232224,-9.971304,-0.111789,0.551769,-0.007636,-0.018937,-0.001985
1765410016.232474,-9.931850,-0.109995,0.466284,-0.009010,-0.014508,-0.002902
1765410016.232671,-9.709468,-0.126734,0.210426,-0.010843,-0.014203,-0.001527
1765410016.232871,-9.753705,-0.126734,0.283955,-0.009927,-0.018021,-0.003207
1765410016.233071,-9.965924,-0.046031,0.614538,-0.007330,-0.017410,-0.002138
1765410016.233271,-9.973098,-0.043042,0.585844,-0.006567,-0.011759,-0.001833
1765410016.233471,-9.744739,-0.048422,0.273792,-0.009010,-0.008399,0.000000
1765410016.233638,-9.692730,-0.080105,0.314443,-0.007941,-0.009927,0.000153
1765410016.233838,-9.832614,-0.131516,0.590626,-0.010843,-0.011301,-0.002138
1765410016.234038,-9.906742,-0.032281,0.582257,-0.009163,-0.008399,-0.001374
1765410016.234238,-9.691534,-0.016738,0.175753,-0.005803,-0.008094,0.000000
1765410016.234438,-9.623384,-0.074127,0.206839,-0.006720,-0.008552,0.000153
1765410016.234673,-9.836799,-0.075921,0.514108,-0.009010,-0.010996,-0.000458
1765410016.234873,-9.919893,-0.052606,0.491392,-0.009010,-0.002291,-0.000458
1765410016.235073,-9.707077,-0.040053,0.215208,-0.007025,-0.001222,0.001374
1765410016.235273,-9.618603,-0.059182,0.164993,-0.010232,-0.001527,0.000764
1765410016.235473,-9.776422,-0.080703,0.396939,-0.009468,-0.008094,-0.000916
1765410016.235645,-9.901959,-0.019727,0.371234,-0.007178,-0.002596,-0.000458
1765410016.235845,-9.742347,-0.051411,0.159015,-0.003971,-0.000764,0.001069
1765410016.236045,-9.693925,-0.035868,0.114778,-0.005192,0.000153,0.001833
1765410016.236245,-9.945002,-0.063367,0.457915,-0.005498,-0.002596,-0.001374
1765410016.236445,-10.063366,-0.052606,0.527260,-0.007330,0.001833,0.002291
1765410016.236671,-9.860114,-0.025108,0.175155,-0.003818,0.002291,-0.000916
1765410016.236871,-9.776422,-0.013152,0.112386,-0.004123,0.003207,0.000305
1765410016.237071,-9.945002,-0.023912,0.371234,-0.006872,0.000305,0.000916
1765410016.237271,-10.134504,0.019130,0.549378,-0.007330,-0.003512,0.000153
1765410016.237471,-9.968315,0.013749,0.300693,-0.007941,0.001527,0.001527
1765410016.237656,-9.812887,-0.011956,0.108202,-0.006720,-0.001985,0.000916
1765410016.237856,-10.001792,-0.009565,0.389766,-0.006414,-0.001985,0.001374
1765410016.238056,-10.251074,0.014347,0.658776,-0.006872,-0.007025,0.000611
1765410016.238256,-10.132710,0.014347,0.437590,-0.007178,-0.003512,-0.002138
1765410016.238456,-9.979673,0.031683,0.190100,-0.007330,-0.000305,-0.001069
1765410016.238657,-9.946198,0.003587,0.242109,-0.007330,-0.005040,-0.000611
1765410016.238857,-10.122547,-0.027499,0.553563,-0.007789,-0.009927,-0.001833
1765410016.239057,-10.080104,0.007174,0.401722,-0.008399,-0.002596,-0.001374
1765410016.239257,-9.795551,0.005978,0.035868,-0.007483,-0.001527,-0.001985
1765410016.239457,-9.799137,0.014347,0.129723,-0.009927,-0.004429,-0.001374
1765410016.239672,-10.041844,0.004782,0.393352,-0.011912,-0.007636,-0.000458
1765410016.239872,-10.114776,-0.027499,0.423242,-0.009927,-0.003207,-0.000611
1765410016.240072,-9.976685,-0.032879,0.192492,-0.008094,-0.001985,0.000000
1765410016.240272,-9.881634,0.010760,0.174558,-0.008705,-0.009774,-0.001833
1765410016.240472,-10.051410,-0.013749,0.431612,-0.007636,-0.009774,-0.001069
1765410016.240748,-10.169176,-0.038259,0.520086,-0.008552,-0.006109,0.000458
1765410016.240948,-10.034670,-0.060976,0.301291,-0.008094,-0.002749,-0.000305
1765410016.241148,-9.848158,-0.050813,0.065758,-0.008858,-0.005192,-0.001527
1765410016.241348,-9.869080,-0.017336,0.239120,-0.007025,-0.013286,-0.002138
1765410016.241548,-10.031085,-0.029890,0.516499,-0.005345,-0.013286,0.000153
1765410016.241734,-10.089668,-0.071138,0.427427,-0.005345,-0.008399,0.000153
1765410016.241934,-9.904947,-0.035868,0.155428,-0.008094,-0.004887,-0.000611
1765410016.242134,-9.929459,-0.033477,0.268412,-0.006567,-0.005956,-0.001985
1765410016.242334,-9.929459,-0.033477,0.268412,-0.006567,-0.013286,-0.001985
1765410016.242534,-10.164991,-0.075323,0.555954,-0.008399,-0.011912,-0.001222
1765410016.242691,-9.986250,-0.077714,0.352104,-0.007941,-0.003665,-0.000916
1765410016.242891,-9.802725,-0.023912,0.184122,-0.009316,-0.011759,-0.002138
1765410016.243091,-9.876254,-0.046628,0.306074,-0.007789,-0.011759,-0.000305
1765410016.243291,-10.014346,-0.080105,0.492587,-0.008247,-0.013744,-0.000305
1765410016.243491,-9.936033,-0.058584,0.393352,-0.007789,-0.009163,0.000916
1765410016.243660,-9.820659,-0.045433,0.221784,-0.007636,-0.006414,-0.001527
1765410016.243860,-9.864896,-0.070540,0.343137,-0.008094,-0.010385,-0.001222
1765410016.244060,-10.037660,-0.063367,0.518890,-0.006109,-0.010996,-0.000764
1765410016.244260,-9.983260,-0.058584,0.460306,-0.011454,-0.008094,-0.002596
1765410016.244460,-9.778215,-0.016141,0.198470,-0.008247,-0.003971,-0.000611
1765410016.244627,-9.701099,-0.086083,0.150646,-0.006872,-0.007178,0.001680
1765410016.244827,-9.909132,-0.054998,0.440579,-0.008552,-0.007025,-0.003818
1765410016.245027,-10.051410,0.001793,0.499163,-0.007483,-0.006567,0.002138
1765410016.245227,-9.910927,-0.011956,0.302487,-0.007330,-0.000916,0.002902
1765410016.245427,-9.838593,-0.054998,0.337159,-0.007789,-0.002443,0.000000
1765410016.245726,-9.986250,-0.057389,0.483022,-0.006567,-0.009468,-0.000458
1765410016.245926,-10.048421,0.017934,0.430416,-0.005192,-0.010079,-0.002291
1765410016.246126,-9.827832,0.057389,0.191296,-0.007789,-0.003971,0.000153
1765410016.246326,-9.752509,-0.035868,0.214012,-0.011912,-0.004276,0.003512
1765410016.246526,-9.965924,-0.019130,0.441176,-0.008247,-0.008705,0.000305
1765410016.246745,-10.071735,-0.008967,0.489000,-0.005651,-0.005956,0.000764
1765410016.246945,-10.071735,-0.008967,0.489000,-0.005651,-0.003512,0.000764
1765410016.247145,-9.850550,-0.010760,0.276184,-0.008399,-0.002902,-0.000153
1765410016.247345,-9.960544,-0.013749,0.458513,-0.005956,-0.007178,0.001833
1765410016.247545,-9.995216,-0.011956,0.399330,-0.007330,-0.004734,0.001985
1765410016.247668,-9.796746,-0.010760,0.137494,-0.008858,-0.004734,0.000153
1765410016.247868,-9.836799,-0.025108,0.179340,-0.008858,-0.005956,0.000153
1765410016.248068,-9.974891,-0.057389,0.428025,-0.009621,-0.010232,-0.003207
1765410016.248268,-10.071735,-0.017934,0.440579,-0.006872,-0.008094,-0.000611
1765410016.248468,-9.918698,-0.027499,0.196676,-0.006872,-0.003054,0.000764
1765410016.248680,-9.848158,-0.058584,0.223577,-0.008247,-0.000611,-0.002443
1765410016.248880,-10.034073,-0.022119,0.420253,-0.007330,-0.010385,-0.001985
1765410016.249080,-10.062768,0.016738,0.401722,-0.007483,-0.006261,-0.000916
1765410016.249280,-9.916306,-0.014347,0.198470,-0.006720,-0.005803,-0.000764
1765410016.249480,-9.891797,-0.066356,0.254663,-0.008094,-0.002902,-0.002291
1765410016.249657,-10.022118,-0.040650,0.431612,-0.006261,-0.010537,0.001680
1765410016.249857,-10.060975,-0.000598,0.398733,-0.008552,-0.009927,-0.000153
1765410016.250057,-9.974891,0.041248,0.309660,-0.008858,-0.006567,-0.001069
1765410016.250257,-9.956957,-0.043639,0.349115,-0.010843,-0.005803,0.000153
1765410016.250457,-10.055594,-0.084290,0.471066,-0.007178,-0.008552,-0.001833
1765410016.250693,-10.086679,-0.038259,0.462697,-0.011606,-0.005651,-0.001833
1765410016.250893,-9.876254,-0.041846,0.176351,-0.010690,-0.003207,-0.001527
1765410016.251093,-9.815877,-0.050813,0.150646,-0.008247,-0.007636,-0.002749
1765410016.251293,-9.983260,-0.052009,0.479436,-0.008858,-0.012217,0.000305
1765410016.251493,-10.046627,-0.035868,0.465088,-0.008247,-0.008094,-0.001527
1765410016.251676,-9.904350,-0.034672,0.215208,-0.006720,-0.005956,-0.000305
1765410016.251876,-9.857722,-0.069345,0.285748,-0.009927,-0.006872,0.001069
1765410016.252076,-10.052606,-0.096844,0.548780,-0.008399,-0.007789,-0.000305
1765410016.252276,-10.119559,-0.046031,0.499761,-0.006872,-0.007789,-0.002138
1765410016.252476,-9.845766,-0.019130,0.231946,-0.005956,-0.005803,0.000153
1765410016.252665,-9.678382,-0.047824,0.065160,-0.008858,-0.003665,-0.000458
1765410016.252865,-9.678382,-0.047824,0.065160,-0.008858,-0.012065,-0.000458
1765410016.253065,-10.036465,-0.050215,0.526064,-0.005803,-0.003665,0.001374
1765410016.253265,-9.912720,-0.022716,0.273792,-0.006109,-0.003665,-0.002902
1765410016.253465,-9.771639,-0.007174,0.150646,-0.007483,-0.002749,-0.000458
1765410016.253708,-9.942610,-0.051411,0.462099,-0.007789,-0.007483,-0.000458
1765410016.253908,-9.942610,-0.051411,0.462099,-0.007789,-0.006414,-0.000458
1765410016.254108,-9.976685,-0.012554,0.309063,-0.006720,-0.003818,0.000000
1765410016.254308,-9.764465,-0.034672,0.087279,-0.007941,-0.003818,-0.001985
1765410016.254508,-9.790769,-0.062769,0.280966,-0.006109,-0.007941,-0.000305
1765410016.254686,-10.072930,-0.022716,0.528455,-0.008247,-0.010690,-0.000611
1765410016.254886,-10.010758,0.000000,0.308465,-0.005803,-0.004123,0.001222
1765410016.255086,-9.832017,-0.102822,0.193687,-0.008399,-0.010385,-0.002138
1765410016.255286,-9.861907,-0.049020,0.331181,-0.007025,-0.010385,-0.002596
1765410016.255486,-10.004184,0.027499,0.401722,-0.009621,-0.006109,-0.001527
1765410016.255692,-9.965924,-0.040650,0.350909,-0.008858,-0.005651,0.001374
1765410016.255892,-9.946198,-0.095648,0.362865,-0.009316,-0.010232,-0.003054
1765410016.256092,-9.923481,0.007771,0.322214,-0.008858,-0.008399,-0.001985
1765410016.256292,-9.893590,0.036466,0.283357,-0.007636,-0.004734,-0.000153
1765410016.256492,-9.864299,-0.059780,0.318030,-0.008705,-0.005192,0.002138
1765410016.256660,-9.933045,-0.026303,0.362267,-0.007636,-0.005956,0.000153
1765410016.256860,-9.931850,0.046628,0.294715,-0.006720,-0.005956,-0.000764
1765410016.257060,-9.878048,0.046628,0.312052,-0.006720,-0.005803,-0.000764
1765410016.257260,-9.904947,-0.069345,0.307269,-0.010537,-0.005651,0.001222
1765410016.257460,-9.916306,-0.064562,0.135103,-0.008858,-0.004123,0.000000
1765410016.257663,-9.522954,-0.310258,0.373027,-0.006720,-0.009468,-0.003512
1765410016.257913,-9.375896,0.282162,0.150646,-0.013286,-0.009468,-0.016493
1765410016.258163,-9.375896,0.282162,0.150646,-0.013286,0.001833,-0.016493
1765410016.258413,-9.451816,-0.106408,0.190100,-0.004581,0.007483,0.027336
1765410016.258696,-9.603060,-0.683883,0.553563,-0.009468,0.002291,0.008094
1765410016.258896,-10.202055,-0.272597,1.165710,-0.015424,0.005803,-0.010690
1765410016.259096,-9.855330,-0.105213,-0.136896,-0.007025,0.001069,-0.007636
1765410016.259296,-9.593494,-0.014347,-0.282162,-0.001527,-0.006872,-0.005192
1765410016.259496,-9.952772,0.435796,0.610952,-0.004734,0.011148,-0.006109
1765410016.259654,-10.222381,0.223577,1.194404,-0.012217,0.011148,0.005498
1765410016.259854,-10.222381,0.223577,1.194404,-0.012217,0.003818,0.005498
1765410016.260054,-9.435676,-0.686274,-0.395744,-0.007025,-0.007330,0.000458
1765410016.260254,-9.570778,-0.158417,0.133907,-0.001833,-0.003665,-0.017104
1765410016.260454,-9.991630,0.600191,0.689263,-0.007178,0.012828,-0.012217
1765410016.260702,-9.854136,0.430416,0.145863,-0.009927,0.009163,0.010079
1765410016.260902,-9.712457,-0.286944,-0.035270,-0.011454,0.003512,0.013439
1765410016.261102,-10.009563,-0.524271,0.600191,-0.007789,0.001985,0.001527
1765410016.261302,-10.154231,-0.129125,0.659373,-0.007330,0.008552,-0.007178
1765410016.261502,-9.947392,0.159613,0.289933,-0.005345,0.008094,-0.007178
1765410016.265513,-9.934240,0.065758,0.359876,-0.007483,0.005803,0.000916
1765410016.265713,-9.934240,0.065758,0.359876,-0.007483,0.003971,0.000916
1765410016.265913,-10.032280,0.059182,0.399330,-0.007789,0.010537,-0.001222
1765410016.266113,-9.842180,-0.092061,0.173960,-0.009774,0.010537,0.001680
1765410016.266313,-9.785987,-0.200263,0.170373,-0.009927,0.003054,-0.000458
1765410016.265728,-9.858320,-0.076518,0.265423,-0.005498,0.003054,-0.004734
1765410016.265928,-9.824843,0.065758,0.359278,-0.005498,0.010232,-0.004734
1765410016.266128,-9.849353,0.129723,0.317432,-0.011148,0.005192,-0.001833
1765410016.266328,-10.007172,0.106408,0.260641,-0.009163,0.004123,0.003360
1765410016.266528,-9.921089,-0.258847,0.132712,-0.007789,0.007789,0.007789
1765410016.266759,-9.923481,-0.344333,0.379005,-0.010232,0.007789,-0.001374
1765410016.266959,-10.115973,-0.004782,0.520086,-0.007483,0.006414,-0.008247
1765410016.267159,-10.034670,0.208034,0.255858,-0.006872,0.002291,-0.004734
1765410016.267359,-9.864896,0.080703,0.106408,-0.010232,0.000916,-0.001833
1765410016.267559,-9.927068,-0.078910,0.308465,-0.010232,0.005040,-0.001833
1765410016.267718,-10.086082,-0.085485,0.472262,-0.007789,0.007025,0.001374
1765410016.267918,-10.059181,-0.160808,0.329986,-0.007330,0.007483,-0.001680
1765410016.268118,-10.008368,-0.132114,0.251674,-0.007178,0.003054,-0.002902
1765410016.268318,-10.066953,0.098637,0.412482,-0.008247,0.000458,-0.003512
1765410016.268518,-9.980869,0.178144,0.243305,-0.007636,0.001222,0.000458
1765410016.268778,-9.879243,-0.013152,0.153037,-0.010843,0.003818,0.003360
1765410016.268978,-9.919893,-0.095648,0.258250,-0.007636,-0.000153,0.000764
1765410016.269178,-10.062170,-0.066954,0.418460,-0.007636,0.003207,-0.000611
1765410016.269378,-10.016738,-0.033477,0.351506,-0.010232,0.002902,-0.001680
1765410016.269578,-10.054996,-0.027499,0.281564,-0.008858,0.001374,-0.002596
1765410016.269712,-10.063366,0.010760,0.301889,-0.007941,-0.000458,-0.005040
1765410016.269912,-9.969511,0.050215,0.176351,-0.006872,0.000764,-0.000458
1765410016.270112,-9.913916,0.011956,0.233142,-0.007636,0.003665,-0.001374
1765410016.270312,-10.064561,0.004782,0.412482,-0.010385,-0.000916,0.000764
1765410016.270512,-10.194881,-0.095050,0.501554,-0.009621,-0.001069,0.000458
1765410016.270744,-10.052606,-0.119560,0.324008,-0.006567,0.003818,0.000153
1765410016.270944,-9.962337,-0.077714,0.253467,-0.009468,-0.001680,-0.001680
1765410016.271144,-10.017933,0.040053,0.341942,-0.006720,-0.003054,-0.003512
1765410016.271344,-10.064561,0.056791,0.280966,-0.008247,-0.003054,-0.001069
1765410016.271544,-9.921089,-0.002391,0.155428,-0.008247,0.000458,0.002902
1765410016.271739,-9.959349,-0.098637,0.333572,-0.010079,-0.001069,-0.000153
1765410016.271939,-10.088473,-0.140483,0.493783,-0.006567,-0.007483,0.001527
1765410016.272139,-10.166186,-0.111789,0.472262,-0.008094,-0.004581,-0.003665
1765410016.272339,-9.999999,0.010760,0.217599,-0.007330,-0.004123,-0.005498
1765410016.272539,-9.875656,0.049020,0.119560,-0.008552,-0.003971,-0.001680
1765410016.272688,-10.078907,0.003587,0.515304,-0.007483,-0.008399,0.000764
1765410016.272888,-10.196077,0.004782,0.551172,-0.008399,-0.007025,0.000153
1765410016.273088,-10.028693,-0.076518,0.278575,-0.008858,-0.002291,0.001069
1765410016.273288,-9.891797,-0.163797,0.170373,-0.004581,-0.005192,-0.001222
1765410016.273488,-9.999999,-0.088474,0.394548,-0.009163,-0.009927,-0.004887
1765410016.273655,-10.147058,0.046628,0.494978,-0.009163,-0.009316,-0.001833
1765410016.273988,-9.964130,0.100430,0.246294,-0.008705,-0.006261,-0.000153
1765410016.274322,-9.861309,0.013152,0.120756,-0.006109,-0.002596,0.001680
1765410016.277645,-10.028693,-0.129125,0.435198,-0.009163,-0.007025,0.001527
1765410016.278145,-10.084887,-0.144070,0.517695,-0.008858,-0.008552,-0.001069
1765410016.282650,-9.929459,-0.072932,0.148254,-0.005345,-0.007025,-0.005345
1765410016.284652,-9.757292,0.049020,0.088474,-0.006414,-0.007025,-0.003971
1765410016.287648,-9.757292,0.049020,0.088474,-0.006414,-0.009010,-0.003971
1765410016.289710,-10.093256,-0.052606,0.563128,-0.007178,-0.009468,0.000305
1765410016.292652,-10.032280,-0.047824,0.349115,-0.009468,-0.006872,0.000153
1765410016.294662,-9.808702,-0.123147,0.194883,-0.008858,-0.006109,0.000916
1765410016.297648,-9.823050,-0.139885,0.291726,-0.006872,-0.006109,-0.001985
1765410016.299702,-9.991032,-0.011358,0.420851,-0.004123,-0.009163,-0.001374
1765410016.302696,-9.956957,0.087877,0.359278,-0.006720,-0.006872,-0.001222
1765410016.303196,-9.772835,0.057389,0.156624,-0.008399,-0.003054,0.001222
1765410016.307648,-9.778812,-0.025108,0.211621,-0.006872,-0.007636,0.003818
1765410016.309653,-10.021520,-0.143472,0.540411,-0.008705,-0.011148,0.003054
1765410016.312696,-10.068149,-0.128527,0.508130,-0.007330,-0.006261,-0.001833
1765410016.314670,-9.886416,-0.049020,0.139885,-0.008552,-0.009468,-0.000305
1765410016.317721,-9.865494,0.040053,0.286944,-0.006109,-0.009468,-0.001222
1765410016.319696,-9.971304,0.016141,0.526064,-0.008399,-0.007941,0.001374
1765410016.322687,-9.925871,-0.053802,0.263630,-0.008552,-0.005345,0.004429
1765410016.324698,-9.841581,-0.076518,0.190100,-0.008094,-0.006414,-0.000305
1765410016.327642,-9.923481,-0.053802,0.379005,-0.007941,-0.006567,-0.001680
1765410016.329679,-10.002987,-0.102224,0.416069,-0.008705,-0.007483,0.001222
1765410016.330690,-10.002987,-0.102224,0.416069,-0.008705,-0.005040,0.001222
1765410016.335398,-9.868484,0.000000,0.256456,-0.006567,-0.002291,0.000611
1765410016.335898,-9.885221,-0.020325,0.338355,-0.008247,-0.002291,0.001527
1765410016.339674,-9.976088,-0.065758,0.468675,-0.005345,-0.002443,-0.000305
1765410016.342693,-9.968315,-0.036466,0.304878,-0.006414,-0.004276,-0.001374
1765410016.344709,-9.968315,-0.036466,0.304878,-0.006414,-0.007789,-0.001374
1765410016.347791,-9.857722,-0.099833,0.254663,-0.006109,-0.006872,0.000611
1765410016.350113,-9.930654,-0.009565,0.217599,-0.008247,-0.006872,0.000916
1765410016.352705,-9.961142,0.016738,0.311454,-0.006261,-0.005345,-0.000153
1765410016.354701,-9.884624,-0.095648,0.324008,-0.004429,-0.002291,0.000764
1765410016.357711,-9.865494,-0.059780,0.353300,-0.007789,-0.001985,-0.001374
1765410016.359662,-9.802725,0.017934,0.143472,-0.006872,-0.003054,-0.000305
1765410016.362679,-9.839788,-0.005978,0.254065,-0.007636,-0.008399,0.000764
1765410016.364645,-9.881634,-0.141081,0.301889,-0.006720,-0.009010,0.002596
1765410016.367699,-9.836202,-0.100430,0.154830,-0.006567,0.000305,0.000764
1765410016.369721,-9.900167,0.002391,0.199665,-0.003665,0.000305,0.000305
1765410016.372731,-10.028095,-0.052009,0.450143,-0.005040,-0.006720,0.001680
1765410016.373689,-10.087276,-0.025108,0.500956,-0.006261,-0.006720,0.002902
1765410016.377677,-10.025704,-0.010760,0.396939,-0.007941,-0.000305,0.003054
1765410016.379651,-9.888210,-0.088474,0.180536,-0.009010,0.000000,0.000458
1765410016.382654,-9.975489,-0.119560,0.275586,-0.005651,-0.012217,0.002749
1765410016.384691,-10.024508,-0.054400,0.377810,-0.005192,-0.008858,0.001527
1765410016.385704,-9.950979,0.017934,0.271401,-0.003512,-0.003971,0.000458
1765410016.389642,-9.836202,0.011956,0.215208,-0.003512,-0.004734,0.001680
1765410016.392644,-9.962337,-0.063367,0.416667,-0.005956,-0.006567,0.003665
1765410016.394675,-10.011356,-0.095648,0.426829,-0.002749,-0.008705,0.003360
1765410016.397682,-9.838593,-0.142276,0.150646,-0.005651,-0.005803,0.000305
1765410016.399651,-9.784193,-0.052606,0.044237,-0.003818,-0.008705,-0.000305
1765410016.400650,-9.972500,0.026901,0.326997,-0.003207,-0.011301,0.000153
1765410016.404690,-10.063366,0.062171,0.520086,-0.002749,-0.006109,0.001374
1765410016.407723,-9.955164,-0.001196,0.253467,-0.005192,-0.005040,0.002902
1765410016.409651,-9.869080,-0.050215,0.212817,-0.005192,-0.007025,0.002902
1765410016.412654,-10.028693,-0.093257,0.460306,-0.004887,-0.009163,0.002596
1765410016.413720,-10.034670,-0.087279,0.364658,-0.005192,-0.011912,-0.000305
1765410016.417671,-9.876852,0.049020,0.153037,-0.004734,-0.008552,-0.001374
1765410016.419750,-9.780008,0.077714,0.175753,-0.005956,-0.004276,0.002902
1765410016.421733,-9.879243,-0.013152,0.288140,-0.006261,-0.008399,0.005345
1765410016.425667,-10.042442,-0.074127,0.456719,-0.006109,-0.011454,0.001680
1765410016.426167,-9.962337,0.014347,0.323410,-0.005040,-0.008705,0.000916
1765410016.429779,-9.794952,-0.047226,0.150048,-0.007483,-0.008552,0.002596
1765410016.430749,-9.890003,-0.058584,0.248685,-0.007483,-0.014508,0.002596
1765410016.432671,-10.086082,0.005978,0.545194,-0.002596,-0.011454,0.002749
1765410016.437747,-9.979673,-0.040650,0.373027,-0.005651,-0.005498,0.003207
1765410016.439739,-9.850550,-0.076518,0.205643,-0.005192,-0.006567,0.002443
1765410016.442709,-9.900764,-0.035868,0.269010,-0.005192,-0.008399,0.000305
1765410016.443209,-10.011955,0.031086,0.480631,-0.003818,-0.010079,0.000305
1765410016.447708,-9.909731,-0.004782,0.296509,-0.006109,-0.003818,0.001527
1765410016.449714,-9.692131,-0.056193,0.003587,-0.003512,-0.007178,0.001680
1765410016.452732,-9.820659,-0.049617,0.233142,-0.005803,-0.014050,0.002443
1765410016.454745,-10.041844,-0.022716,0.549976,-0.005651,-0.006567,0.003207
1765410016.457770,-9.970109,-0.037661,0.364658,-0.007178,-0.006567,0.001222
1765410016.459690,-9.771639,-0.012554,0.105213,-0.009316,-0.007636,0.002138
1765410016.462745,-9.912720,0.065758,0.364658,-0.007025,-0.012065,0.002902
1765410016.464745,-10.021520,-0.132114,0.459708,-0.005498,-0.012065,0.005040
1765410016.467772,-9.919893,-0.166188,0.180536,-0.005040,-0.013897,0.002291
1765410016.469677,-9.837996,-0.033477,0.183525,-0.004276,-0.006261,0.000458
1765410016.472653,-9.927068,0.019130,0.401722,-0.005345,-0.006414,-0.000305
1765410016.474681,-10.035867,0.041846,0.467480,-0.003054,-0.009316,0.002749
1765410016.477670,-10.065758,-0.019727,0.385581,-0.005803,-0.008094,0.003512
1765410016.479656,-10.037063,-0.043639,0.322812,-0.005803,-0.005803,0.002902
1765410016.482733,-10.004184,-0.152439,0.346724,-0.003971,-0.014508,0.003665
1765410016.484694,-9.943208,-0.114778,0.264228,-0.005345,-0.011759,0.003665
1765410016.486728,-9.872069,-0.086083,0.176949,-0.003818,-0.007789,0.000305
1765410016.489724,-9.975489,-0.047824,0.340746,0.000153,-0.007789,-0.001527
1765410016.492690,-10.089071,0.019130,0.516499,-0.005192,-0.005651,0.000458
1765410016.494747,-10.139286,-0.028694,0.459110,-0.009010,-0.011912,0.003054
1765410016.497675,-10.063964,-0.111191,0.297704,-0.006261,-0.014050,0.001527
1765410016.499724,-9.974294,-0.090268,0.255261,-0.003054,-0.013897,-0.002749
1765410016.502676,-9.899570,-0.097441,0.197274,-0.003665,-0.013897,-0.001222
1765410016.504667,-9.930654,0.038259,0.321616,-0.004429,-0.014966,-0.003512
1765410016.507709,-10.065758,0.080703,0.441176,-0.006414,-0.014966,-0.001833
1765410016.508209,-10.105211,0.051411,0.398733,-0.005651,-0.014355,0.002902
1765410016.512734,-10.059779,-0.150048,0.402319,-0.003054,-0.013134,0.004123
1765410016.514751,-10.034073,-0.304878,0.349713,-0.003971,-0.014203,0.002749
1765410016.517703,-9.994618,-0.167982,0.198470,-0.006261,-0.020922,-0.005192
1765410016.519646,-9.886416,0.063965,0.080105,-0.002749,-0.016341,-0.006109
1765410016.522663,-9.878048,0.144668,0.133907,-0.001069,-0.016341,0.001985
1765410016.524649,-9.878048,0.144668,0.133907,-0.001069,-0.017715,0.001985
1765410016.525688,-10.045432,-0.082496,0.395146,-0.004734,-0.015424,0.005498
1765410016.527702,-10.001194,-0.185318,0.214012,-0.001985,-0.017104,0.002596
1765410016.532674,-9.996411,-0.228360,0.209828,-0.000611,-0.017257,-0.001527
1765410016.534718,-10.045432,-0.057389,0.384983,-0.000764,-0.020006,-0.002443
1765410016.537694,-10.028693,0.053802,0.347920,-0.001069,-0.015577,-0.000305
1765410016.539709,-10.007771,0.023912,0.243902,-0.002596,-0.020006,0.001833
1765410016.542673,-10.054996,0.026303,0.400526,0.000458,-0.022144,0.001985
1765410016.544678,-10.121950,-0.082496,0.469273,0.000458,-0.018021,0.004887
1765410016.547738,-10.094451,-0.180536,0.478240,-0.005803,-0.019700,0.003360
1765410016.549713,-10.047822,-0.196078,0.315638,-0.002443,-0.024282,-0.000305
1765410016.552690,-9.986848,-0.095648,0.199067,-0.000153,-0.025962,-0.002902
1765410016.554788,-9.939023,0.050813,0.181731,0.003207,-0.025962,-0.000916
1765410016.557754,-9.981467,0.139287,0.398135,0.005192,-0.019242,-0.000611
1765410016.559715,-10.064561,0.038259,0.463893,0.000458,-0.020159,0.003360
1765410016.562750,-10.088473,-0.084290,0.558943,0.000305,-0.026267,0.005192
1765410016.564734,-10.090266,-0.219990,0.477044,-0.003665,-0.029169,-0.000305
1765410016.566746,-9.959349,-0.117169,0.267814,0.000458,-0.031001,-0.001985
1765410016.569763,-9.959349,-0.117169,0.267814,0.000458,-0.028253,-0.001985
1765410016.572638,-9.965924,0.133907,0.298900,-0.003207,-0.027489,0.001374
1765410016.574754,-10.147058,0.122549,0.520086,-0.004734,-0.030849,0.004581
1765410016.577742,-10.147655,-0.064562,0.501554,-0.003818,-0.026114,0.006720
1765410016.579752,-9.843375,-0.282162,0.108800,-0.006567,-0.024893,0.006109
1765410016.582764,-9.799137,-0.270206,0.092061,-0.004887,-0.032987,-0.002749
1765410016.584740,-9.931850,0.047824,0.355093,-0.001680,-0.032070,-0.006872
1765410016.587690,-9.967718,0.183525,0.339550,-0.000916,-0.023824,0.001069
1765410016.589723,-9.867287,0.131516,0.314443,-0.000764,-0.026878,0.003512
1765410016.592693,-9.974891,-0.029292,0.455524,-0.003054,-0.026878,0.006567
1765410016.594728,-9.888808,-0.223577,0.352104,-0.001985,-0.027642,0.003360
1765410016.597664,-9.898971,-0.194883,0.220588,0.000611,-0.026573,-0.000153
1765410016.599708,-9.880439,-0.049617,0.352702,0.002443,-0.027947,-0.003360
1765410016.602741,-9.836202,0.076518,0.230751,0.002291,-0.022755,-0.002902
1765410016.604700,-9.863700,0.102822,0.233740,0.002902,-0.025198,-0.000153
1765410016.607713,-10.035867,0.075323,0.468077,0.000305,-0.025809,0.002291
1765410016.608213,-10.045432,-0.092061,0.456121,0.000611,-0.021686,0.006109
1765410016.612793,-9.980869,-0.278575,0.419656,0.002138,-0.022907,0.002902
1765410016.614735,-9.922284,-0.221784,0.309660,0.003360,-0.023824,-0.001222
1765410016.617766,-9.966521,0.087279,0.318030,0.000153,-0.025809,-0.010079
1765410016.619708,-9.945002,0.282759,0.365854,0.000764,-0.021380,-0.002902
1765410016.622689,-9.952174,0.059780,0.419058,-0.003054,-0.025351,0.007330
1765410016.624719,-10.051410,-0.111191,0.457317,-0.004734,-0.029780,0.002596
1765410016.627693,-9.982065,-0.194883,0.424438,-0.004429,-0.027947,0.002291
1765410016.629742,-9.809898,-0.082496,0.100430,-0.000458,-0.027184,-0.001222
1765410016.632737,-9.855330,0.105213,0.234338,-0.001680,-0.032223,-0.002749
1765410016.634773,-10.147058,0.268412,0.731707,-0.001222,-0.026725,-0.000764
1765410016.637739,-9.970109,-0.006576,0.358680,-0.002596,-0.024435,0.006109
1765410016.639698,-9.851745,-0.148852,0.125538,-0.001069,-0.031918,-0.000764
1765410016.642729,-10.007172,-0.155428,0.474653,-0.000153,-0.026878,0.001374
1765410016.644964,-10.005977,-0.248087,0.539216,0.002443,-0.024893,-0.000611
1765410016.647746,-9.846962,-0.111191,0.150048,0.003818,-0.030696,-0.005803
1765410016.649770,-9.860114,-0.019130,0.211621,0.000764,-0.030696,-0.003360
1765410016.652705,-10.020324,0.165591,0.347920,0.004276,-0.032987,-0.001680
1765410016.654841,-10.096842,0.178144,0.485414,0.005498,-0.031918,0.002443
1765410016.655752,-10.096842,0.178144,0.485414,0.005498,-0.027184,0.002443
1765410016.657702,-9.929459,-0.081301,0.256456,-0.001222,-0.026573,0.001680
1765410016.662737,-9.927068,-0.157819,0.322214,0.000764,-0.026573,-0.000153
1765410016.664741,-9.888808,-0.074127,0.184720,-0.002138,-0.025198,-0.004581
1765410016.667681,-10.077712,0.159015,0.429818,-0.005498,-0.024129,-0.006109
1765410016.669727,-10.089668,0.159015,0.526064,-0.005498,-0.023060,-0.006109
1765410016.672731,-9.964130,-0.193687,0.353898,0.000611,-0.027489,0.003665
1765410016.674710,-9.972500,-0.154830,0.279770,-0.002138,-0.027489,-0.001833
1765410016.677670,-10.045432,-0.190100,0.512315,0.000305,-0.026114,0.004276
1765410016.678170,-10.031085,-0.161406,0.297107,0.001680,-0.034514,0.000916
1765410016.682736,-10.010758,-0.084888,0.326399,0.000305,-0.031612,-0.003971
1765410016.684715,-9.965924,0.150646,0.295313,0.002902,-0.026114,-0.002749
1765410016.687680,-10.090864,0.020325,0.475251,0.003207,-0.032223,0.002902
1765410016.689691,-10.294117,0.032281,0.712578,0.003054,-0.032834,0.000458
1765410016.691777,-10.172164,0.040650,0.496174,0.004276,-0.028253,0.003665
1765410016.694799,-9.801530,-0.219990,0.148254,0.000916,-0.038026,0.001680
1765410016.695824,-9.850550,-0.148254,0.182329,0.001222,-0.042302,-0.000916
1765410016.699691,-10.041844,-0.056193,0.466284,0.003207,-0.037721,-0.001374
1765410016.702792,-10.025704,-0.118962,0.340746,0.000764,-0.036652,-0.001374
1765410016.704739,-9.941415,-0.081899,0.210426,0.004581,-0.039401,-0.001833
1765410016.707719,-10.079505,0.002989,0.469273,0.004887,-0.039401,-0.003665
1765410016.708219,-10.079505,0.002989,0.469273,0.004887,-0.036346,-0.003665
1765410016.711727,-9.814083,0.005978,0.237924,0.001374,-0.031918,-0.000305
1765410016.714717,-9.812290,-0.015543,0.273792,0.000611,-0.037721,-0.001680
1765410016.717721,-9.988043,0.010760,0.351506,0.000000,-0.038026,-0.000611
1765410016.718221,-9.991630,0.124940,0.304878,0.001069,-0.038026,0.001069
1765410016.722680,-9.718434,0.017934,0.131516,-0.000305,-0.034667,0.003360
1765410016.724680,-9.860114,-0.042444,0.289335,-0.001374,-0.033903,0.003054
1765410016.727685,-10.033475,-0.271401,0.510521,0.002596,-0.038485,0.003360
1765410016.729723,-10.033475,-0.271401,0.510521,0.002596,-0.039859,0.003360
1765410016.732774,-9.881634,-0.248685,0.237924,0.006872,-0.032987,-0.001833
1765410016.734729,-9.766856,-0.081301,0.167384,0.006872,-0.038485,-0.002749
1765410016.736866,-9.862504,0.054400,0.357484,0.007178,-0.040775,-0.003971
1765410016.739740,-9.981467,0.243902,0.407700,0.003360,-0.040775,-0.002291
1765410016.742718,-9.981467,0.243902,0.407700,0.003360,-0.031154,-0.002291
1765410016.744733,-9.835006,0.011358,0.216404,0.001985,-0.038943,0.009621
1765410016.747726,-10.044236,-0.154232,0.496174,0.003665,-0.041692,0.009774
1765410016.749740,-10.052606,-0.363462,0.493783,0.000611,-0.039859,0.004429
1765410016.752724,-9.990434,-0.203252,0.319225,0.005040,-0.037110,-0.000916
1765410016.754705,-9.815877,-0.127929,0.095648,0.007330,-0.041539,-0.001069
1765410016.755877,-10.173361,0.083692,0.663558,0.004581,-0.042302,-0.001985
1765410016.759830,-10.151840,0.015543,0.538618,0.003818,-0.033750,0.003512
1765410016.762825,-9.952772,-0.032281,0.298900,0.005803,-0.036499,0.003360
1765410016.764770,-9.995814,-0.030488,0.337757,0.003818,-0.039248,0.002138
1765410016.765728,-9.995814,-0.030488,0.337757,0.003818,-0.041539,0.002138
1765410016.769756,-10.024508,-0.098039,0.468675,0.004429,-0.037874,-0.000305
1765410016.772727,-9.885221,0.050813,0.263032,0.006720,-0.038637,-0.000153
1765410016.773227,-10.121950,0.166188,0.500956,0.001222,-0.044135,0.002596
1765410016.777698,-10.142276,-0.035868,0.475251,0.001985,-0.044135,0.006567
1765410016.779754,-10.127330,-0.185318,0.489598,0.006567,-0.037721,0.006261
1765410016.782731,-9.843375,-0.301291,0.157819,0.006720,-0.036805,0.006414
1765410016.784704,-9.867287,-0.259445,0.300096,0.003665,-0.045204,-0.000611
1765410016.787703,-9.950979,-0.105213,0.426829,0.007636,-0.046426,-0.002749
1765410016.789675,-10.011955,0.117169,0.515304,0.010843,-0.039248,-0.002138
1765410016.792677,-9.939023,0.109995,0.418460,0.006567,-0.039095,0.002138
1765410016.794732,-10.097439,-0.028097,0.535629,0.005192,-0.048869,0.005192
1765410016.797757,-10.198468,-0.105213,0.539216,0.008552,-0.051618,0.007330
1765410016.799741,-10.198468,-0.105213,0.539216,0.008552,-0.044746,0.007330
1765410016.802684,-9.857125,-0.090268,0.187709,0.007636,-0.044135,0.002291
1765410016.804709,-10.008368,-0.118364,0.468675,0.008858,-0.048717,0.003207
1765410016.807701,-10.109993,-0.007771,0.541607,0.007789,-0.045815,0.001833
1765410016.808692,-10.006575,0.089670,0.363462,0.005803,-0.044288,0.002291
1765410016.812690,-9.830821,-0.080703,0.223577,0.009316,-0.044288,0.006414
1765410016.814717,-10.058583,-0.221784,0.445959,0.010843,-0.051313,0.006720
1765410016.817698,-10.153036,-0.149450,0.556552,0.009163,-0.051007,-0.000153
1765410016.819689,-9.913317,-0.029890,0.182927,0.008247,-0.044899,-0.000153
1765410016.822700,-9.787182,0.056193,0.180536,0.008399,-0.043677,0.001222
1765410016.823796,-10.119559,0.237924,0.612147,0.010385,-0.045509,0.004429
1765410016.827709,-10.285748,0.105811,0.673721,0.008247,-0.046731,0.011148
1765410016.829760,-10.034670,-0.168580,0.306074,0.006261,-0.048717,0.009621
1765410016.832775,-9.733977,-0.382592,0.022716,0.008858,-0.052687,0.007330
1765410016.834759,-10.038258,-0.162602,0.456719,0.011301,-0.052687,-0.000153
1765410016.837728,-10.193686,0.006576,0.744859,0.008247,-0.048258,-0.001374
1765410016.839809,-9.887015,0.070540,0.341344,0.010385,-0.043066,0.004887
1765410016.842722,-9.802128,0.028694,0.226566,0.007330,-0.047037,0.006109
1765410016.844889,-9.858320,-0.110593,0.309660,0.008552,-0.054520,0.006414
1765410016.847729,-10.240315,-0.174558,0.700024,0.010537,-0.060018,0.003360
1765410016.848823,-9.909132,-0.230751,0.371832,0.013897,-0.054672,0.002596
1765410016.852755,-9.777617,0.015543,0.130320,0.013744,-0.053298,-0.000611
1765410016.854734,-9.887612,0.084888,0.297107,0.011454,-0.056047,0.006109
1765410016.857821,-10.234337,0.057389,0.801052,0.011759,-0.057421,0.006414
1765410016.859766,-10.130320,-0.031086,0.542802,0.008552,-0.056810,0.005040
1765410016.862781,-10.002987,-0.087279,0.392157,0.008705,-0.051924,0.004429
1765410016.864963,-9.893590,-0.229555,0.202654,0.010079,-0.068111,0.005803
1765410016.865858,-10.129722,-0.040650,0.494381,0.012523,-0.068111,-0.000458
1765410016.869708,-10.056191,-0.038857,0.482425,0.010385,-0.055741,0.001069
1765410016.872720,-9.677187,-0.019727,0.064562,0.013439,-0.056810,0.004123
1765410016.874728,-9.869678,-0.013749,0.309660,0.013592,-0.056810,0.002596
1765410016.877719,-10.185316,-0.023314,0.639646,0.010996,-0.058338,0.006109
1765410016.880703,-10.376015,-0.190100,0.742468,0.011454,-0.058338,0.004123
1765410016.881203,-10.376015,-0.190100,0.742468,0.011454,-0.057116,0.004123
1765410016.884760,-9.685556,0.046628,0.083692,0.012675,-0.059254,-0.000305
1765410016.887743,-9.765661,0.112386,0.133309,0.012523,-0.065363,0.002596
1765410016.889739,-10.190099,0.142874,0.718556,0.011148,-0.058643,0.001680
1765410016.892770,-10.130917,0.093257,0.662362,0.013592,-0.058643,0.006720
1765410016.894747,-10.130917,0.093257,0.662362,0.013592,-0.054672,0.006720
1765410016.897695,-9.807508,-0.173362,0.292922,0.014813,-0.057116,0.002902
1765410016.899744,-9.882831,-0.201459,0.429220,0.012523,-0.065210,0.004123
1765410016.902785,-10.173361,-0.032281,0.604974,0.014355,-0.067042,0.000611
1765410016.904752,-9.997607,0.009565,0.398135,0.011454,-0.054825,0.003512
1765410016.907746,-9.923481,0.004782,0.374223,0.016035,-0.059407,0.006414
1765410016.909747,-10.052606,-0.049020,0.555954,0.011759,-0.068264,0.006872
1765410016.912770,-10.243901,-0.139885,0.713773,0.015577,-0.068264,0.005192
1765410016.914791,-10.024508,-0.258250,0.425036,0.016799,-0.064141,0.006109
1765410016.917794,-9.784791,-0.076518,0.102822,0.018326,-0.064294,-0.001069
1765410016.919814,-9.977880,0.077714,0.543400,0.013286,-0.063530,-0.000305
1765410016.920729,-10.000596,0.081301,0.534433,0.017104,-0.067653,0.003818
1765410016.924757,-10.162600,0.087279,0.599593,0.014355,-0.067653,0.006414
1765410016.927723,-9.876254,-0.092061,0.321616,0.014355,-0.057727,0.006414
1765410016.929710,-9.968315,-0.247489,0.454926,0.015730,-0.065363,0.006414
1765410016.930721,-9.986848,-0.263032,0.481827,0.016799,-0.068570,0.003512
1765410016.934702,-10.101624,-0.109397,0.560139,0.016493,-0.071166,0.000000
1765410016.937783,-9.924676,0.074725,0.312052,0.016341,-0.064752,0.002596
1765410016.939804,-9.924676,0.074725,0.312052,0.016341,-0.072540,0.002596
1765410016.942778,-10.163198,-0.005978,0.747250,0.016341,-0.071624,0.006414
1765410016.944755,-9.967119,-0.236131,0.331181,0.020006,-0.071624,0.008094
1765410016.947746,-9.967119,-0.236131,0.331181,0.020006,-0.071013,0.008094
1765410016.949758,-9.687947,-0.109995,0.221784,0.018326,-0.073304,0.001527
1765410016.951846,-10.033475,0.074127,0.714969,0.018326,-0.075442,0.001527
1765410016.954777,-9.803921,0.013152,0.300096,0.022144,-0.072235,0.004429
1765410016.957809,-9.775226,0.104017,0.243902,0.018021,-0.067806,0.005651
1765410016.960916,-9.811094,-0.017934,0.219990,0.015272,-0.071166,0.009774
1765410016.961835,-10.215207,-0.203252,0.862028,0.016799,-0.071166,0.011454
1765410016.962776,-10.124939,-0.336561,0.603778,0.019242,-0.066126,0.009163
1765410016.967750,-9.832614,-0.211621,0.270206,0.020769,-0.072540,0.002291
1765410016.969712,-9.733977,-0.014347,0.200861,0.024282,-0.068111,0.001374
1765410016.971783,-9.934240,0.087279,0.606169,0.027184,-0.077274,0.005192
1765410016.974787,-10.192491,0.115973,0.924797,0.019395,-0.070402,0.004429
1765410016.977757,-10.017933,0.042444,0.591822,0.017715,-0.067653,0.007789
1765410016.979940,-9.765063,-0.174558,0.318627,0.015119,-0.074067,0.008247
1765410016.982783,-9.903154,-0.204448,0.283357,0.021228,-0.088117,0.004123
1765410016.984785,-10.147655,-0.090268,0.598996,0.021228,-0.078954,0.004123
1765410016.987732,-9.800333,0.042444,0.246294,0.022755,-0.066279,0.003665
1765410016.989754,-9.845766,0.117169,0.462697,0.021533,-0.069333,0.006109
1765410016.990797,-10.056191,0.068149,0.726925,0.017868,-0.076205,0.010079
1765410016.994784,-10.223577,-0.180536,0.817790,0.019395,-0.083078,0.008552
1765410016.995799,-9.837996,-0.288140,0.210426,0.022297,-0.076969,0.005803
1765410016.999743,-9.668818,-0.269608,0.013152,0.021075,-0.078191,-0.000305
1765410017.002779,-9.923481,0.105811,0.432807,0.025351,-0.078191,-0.003207
1765410017.003279,-9.923481,0.105811,0.432807,0.025351,-0.070708,-0.003207
1765410017.007752,-9.893590,0.129125,0.642037,0.025198,-0.065821,0.006261
1765410017.009785,-9.972500,-0.014347,0.460306,0.018937,-0.072693,0.008247
1765410017.012805,-10.224771,-0.153037,0.744859,0.022297,-0.078649,0.007178
1765410017.014780,-10.171567,-0.273195,0.673123,0.026420,-0.076053,0.008247
1765410017.017750,-10.027497,-0.022716,0.498565,0.024893,-0.072998,0.001069
1765410017.019749,-9.978478,0.054998,0.573888,0.023671,-0.072540,0.003512
1765410017.022729,-9.907937,0.145863,0.456719,0.025656,-0.080634,0.005040
1765410017.024733,-10.093256,0.214012,0.671927,0.022907,-0.082620,0.005192
1765410017.027763,-10.017933,0.015543,0.531444,0.020311,-0.078496,0.010537
1765410017.028263,-10.066953,-0.237924,0.450741,0.021075,-0.083230,0.008552
1765410017.032770,-10.035867,-0.259445,0.446557,0.020922,-0.087048,0.000000
1765410017.034735,-10.075322,0.014945,0.612147,0.022449,-0.084299,-0.002902
1765410017.037735,-9.888808,0.160210,0.438785,0.023366,-0.074373,0.001985
1765410017.039895,-10.038258,0.132712,0.680296,0.017562,-0.080940,0.003207
1765410017.042831,-10.174556,0.082496,0.714371,0.019242,-0.081398,0.007483
1765410017.043331,-10.076518,-0.172166,0.490196,0.021380,-0.083841,0.007941
1765410017.047827,-9.897775,-0.221186,0.357484,0.025351,-0.080023,0.005956
1765410017.049767,-9.918698,-0.047226,0.569106,0.021838,-0.087812,-0.000916
1765410017.052755,-9.942610,0.101626,0.485414,0.025351,-0.087812,-0.000916
1765410017.054771,-9.764465,0.050215,0.259445,0.025656,-0.083536,0.004887
1765410017.057752,-9.968913,0.077714,0.643233,0.024587,-0.079412,0.004887
1765410017.059760,-10.084887,-0.098039,0.741272,0.021380,-0.079412,0.009010
1765410017.062801,-10.033475,-0.212219,0.457915,0.022755,-0.091172,0.003207
1765410017.066282,-9.888808,-0.167982,0.159015,0.022907,-0.088728,-0.000611
1765410017.067846,-9.950979,0.127929,0.408895,0.026267,-0.084605,-0.000916
1765410017.069776,-10.237924,0.191296,0.972023,0.025045,-0.082925,0.002443
1765410017.072821,-10.407699,0.187709,1.107126,0.021991,-0.086590,0.002749
1765410017.074764,-10.281563,0.103419,0.692850,0.019242,-0.089492,0.011301
1765410017.077787,-9.797344,-0.089670,0.090268,0.016799,-0.091324,0.011912
1765410017.079752,-9.842180,-0.262434,0.325203,0.022755,-0.098960,0.005651
1765410017.082774,-9.939023,-0.372429,0.515901,0.021075,-0.088575,0.002138
1765410017.084754,-9.848158,0.036466,0.393352,0.024129,-0.088575,-0.007483
1765410017.087808,-9.757292,0.164993,0.402917,0.019853,-0.084452,0.000153
1765410017.089780,-9.962337,0.076518,0.591822,0.020922,-0.093921,0.004581
1765410017.092751,-10.412481,0.126136,1.025825,0.023366,-0.096211,0.004734
1765410017.094774,-10.333572,-0.078312,1.000717,0.027184,-0.093004,0.008094
1765410017.095791,-9.871471,-0.261836,0.414275,0.027947,-0.093004,0.008247
1765410017.099742,-9.662840,-0.396939,0.086083,0.024587,-0.105985,0.004887
1765410017.102770,-10.100429,-0.066954,0.607365,0.027336,-0.106596,-0.001527
1765410017.104753,-10.137493,0.022716,0.546987,0.029169,-0.095600,0.002902
1765410017.107750,-9.913916,0.087279,0.329986,0.028253,-0.087659,0.002291
1765410017.109728,-10.007172,0.027499,0.562530,0.022907,-0.087659,0.005498
1765410017.112744,-10.132710,-0.182927,0.949306,0.022907,-0.092393,0.005498
1765410017.114722,-10.262432,-0.193687,0.976805,0.026114,-0.095142,0.003360
1765410017.117792,-9.981467,0.019727,0.582257,0.029780,-0.095142,0.000764
1765410017.119770,-9.981467,0.019727,0.582257,0.029780,-0.099113,0.000764
1765410017.122780,-10.046627,0.002989,0.736490,0.027184,-0.106291,0.006261
1765410017.124800,-10.178741,-0.028694,0.992348,0.025962,-0.105680,0.008399
1765410017.127780,-9.960544,-0.086083,0.386777,0.024587,-0.110872,0.006720
1765410017.128280,-9.915112,-0.248685,0.208034,0.021533,-0.110872,0.003054
1765410017.130743,-10.035269,-0.206839,0.543400,0.025656,-0.111025,-0.000153
1765410017.134745,-10.141079,0.014347,0.738881,0.025504,-0.103847,-0.001680
1765410017.137752,-9.858918,0.019130,0.595409,0.025809,-0.094379,0.002138
1765410017.139941,-9.856527,0.100430,0.663558,0.029169,-0.107207,0.002596
1765410017.144614,-10.078907,0.050813,0.674318,0.028558,-0.107207,0.005192
1765410017.145114,-9.948587,-0.137494,0.526662,0.027794,-0.105527,0.005803
1765410017.147832,-9.791367,-0.267814,0.285748,0.031154,-0.103694,0.005345
1765410017.149885,-9.842180,-0.114778,0.541607,0.032070,-0.103694,-0.000611
1765410017.150826,-10.214011,0.145863,1.006695,0.031307,-0.104000,-0.001527
1765410017.154937,-10.099831,0.198470,0.742468,0.031154,-0.102320,0.007178
1765410017.157828,-9.826636,-0.072932,0.401124,0.030085,-0.104611,0.009316
1765410017.159744,-9.909132,-0.160808,0.522477,0.026725,-0.104458,0.006414
1765410017.162255,-10.229554,-0.222979,1.004304,0.032529,-0.109803,0.004276
1765410017.164803,-10.229554,-0.222979,1.004304,0.032529,-0.104305,0.004276
1765410017.167831,-9.878646,0.060976,0.359278,0.030696,-0.109956,-0.002596
1765410017.168331,-9.974294,0.217599,0.648613,0.028253,-0.104458,0.002291
1765410017.172834,-10.226564,0.133907,0.950502,0.033903,-0.114079,0.009163
1765410017.174785,-10.261237,-0.001793,0.981588,0.031918,-0.112399,0.009927
1765410017.177789,-10.261237,-0.001793,0.981588,0.031918,-0.104916,0.009927
1765410017.179764,-9.904350,-0.334768,0.445959,0.036499,-0.111025,0.007636
1765410017.182826,-10.032877,-0.319823,0.492587,0.036194,-0.121257,-0.002138
1765410017.184822,-10.194881,0.173362,0.767575,0.033445,-0.107360,-0.010843
1765410017.187930,-9.827234,0.389766,0.361071,0.032834,-0.107360,-0.001374
1765410017.189835,-9.598277,0.266619,0.239120,0.028558,-0.109956,0.009927
1765410017.192792,-10.002390,0.053802,0.717360,0.030849,-0.113316,0.015119
1765410017.194791,-10.362266,-0.225968,1.108919,0.029322,-0.113163,0.012370
1765410017.197782,-10.146461,-0.413678,0.691655,0.032681,-0.115301,0.007483
1765410017.199797,-9.808105,-0.209828,0.425036,0.034361,-0.115301,0.000458
1765410017.202756,-10.091461,0.141081,0.686274,0.034972,-0.118661,-0.000611
1765410017.204725,-10.132710,0.183525,0.817790,0.033445,-0.119424,0.007789
1765410017.205730,-9.979075,0.126734,0.548183,0.031918,-0.114232,0.008705
1765410017.209794,-9.853538,0.016738,0.468077,0.033292,-0.111330,0.011759
1765410017.212799,-10.109993,-0.274988,1.011478,0.032529,-0.119882,0.014813
1765410017.214817,-10.194881,-0.429220,0.801052,0.037721,-0.121257,0.007483
1765410017.217780,-9.907339,-0.162602,0.308465,0.039248,-0.122631,-0.002902
1765410017.219846,-9.787182,0.283955,0.376614,0.036957,-0.109039,-0.001833
1765410017.222857,-10.049617,0.358680,0.986370,0.036957,-0.113468,-0.001833
1765410017.224800,-10.468077,0.095648,1.491511,0.027794,-0.123089,0.012523
1765410017.227803,-10.257649,-0.280966,0.900287,0.029474,-0.122020,0.011606
1765410017.229818,-9.934240,-0.358082,0.361071,0.036805,-0.129656,0.008858
1765410017.232751,-9.813485,-0.301291,0.328790,0.036652,-0.133779,0.001985
1765410017.233251,-10.181131,0.217001,1.010282,0.036346,-0.129198,-0.003512
1765410017.237725,-9.952174,0.330583,0.695839,0.034514,-0.112552,0.005651
1765410017.239773,-9.647895,0.167982,0.393950,0.034361,-0.123242,0.012065
1765410017.242825,-10.013150,0.033477,0.719751,0.028863,-0.125991,0.010843
1765410017.244811,-10.306072,-0.335964,1.123864,0.034056,-0.125991,0.014355
1765410017.247813,-10.072930,-0.473458,0.790292,0.036805,-0.118508,0.004276
1765410017.249861,-9.689142,-0.123745,0.398135,0.039554,-0.120951,-0.002596
1765410017.252836,-9.792562,0.257054,0.558345,0.035736,-0.129809,-0.003207
1765410017.254832,-10.137493,0.309660,0.894309,0.038332,-0.120951,0.004581
1765410017.258219,-10.141678,0.161406,1.122668,0.035125,-0.120951,0.011912
1765410017.260979,-9.839788,-0.138690,0.780727,0.037568,-0.113468,0.016188
1765410017.262815,-9.932447,-0.277379,0.777140,0.037568,-0.129962,0.008705
1765410017.264792,-9.932447,-0.277379,0.777140,0.037568,-0.140194,0.008705
1765410017.267814,-10.137493,0.010163,0.575084,0.040317,-0.121409,-0.002291
1765410017.269799,-9.815279,0.202056,0.462697,0.036346,-0.121409,0.002902
1765410017.272783,-9.810495,0.249283,0.773553,0.037263,-0.121868,0.008858
1765410017.274813,-10.389765,0.054998,1.406026,0.037874,-0.126296,0.015577
1765410017.277768,-10.483619,-0.264228,1.303802,0.036499,-0.125533,0.010843
1765410017.279770,-10.109993,-0.291726,0.765782,0.040623,-0.126144,0.005803
1765410017.281829,-9.743543,-0.156624,0.515304,0.040317,-0.128587,0.002749
1765410017.282757,-9.893590,0.089670,0.827355,0.037874,-0.135612,0.000000
1765410017.287731,-10.044236,0.098039,0.934959,0.041386,-0.138361,0.008247
1765410017.289792,-9.814083,-0.003587,0.491392,0.041997,-0.131794,0.008705
1765410017.290729,-9.863102,0.044237,0.560736,0.034667,-0.130267,0.005803
1765410017.294809,-9.861907,-0.087279,0.793878,0.038332,-0.127365,0.008247
1765410017.297824,-9.899570,-0.228957,0.737087,0.043524,-0.129198,0.012675
1765410017.299798,-9.836202,-0.232544,0.553563,0.041081,-0.129198,0.008399
1765410017.302815,-9.995216,-0.035868,0.747250,0.041233,-0.129198,0.003971
1765410017.304833,-9.900764,-0.070540,0.728120,0.042761,-0.124311,0.005956
1765410017.307768,-9.812290,0.134505,0.804639,0.041539,-0.125991,0.001527
1765410017.309807,-9.983260,0.161406,0.928981,0.035888,-0.127213,0.008705
1765410017.312826,-10.156025,-0.001793,1.080822,0.043371,-0.136681,0.014661
1765410017.314750,-10.127929,-0.429220,0.872788,0.040470,-0.136681,0.016493
1765410017.317867,-10.127929,-0.429220,0.872788,0.040470,-0.138972,0.016493
1765410017.318808,-9.705284,-0.098637,0.446557,0.044746,-0.130725,-0.003207
1765410017.322813,-9.763269,0.270206,0.681492,0.045509,-0.134238,-0.000458
1765410017.324787,-10.270204,0.428025,1.208752,0.042455,-0.141110,0.006414
1765410017.327777,-10.292920,0.131516,1.045552,0.040164,-0.134543,0.015424
1765410017.329804,-9.960544,-0.283357,0.587040,0.047495,-0.130725,0.020922
1765410017.332774,-9.702892,-0.570301,0.625897,0.047342,-0.140041,0.012065
1765410017.334750,-9.991630,-0.184122,1.007891,0.049786,-0.140041,-0.003054
1765410017.338830,-9.991630,-0.184122,1.007891,0.049786,-0.138056,-0.003054
1765410017.339872,-9.894786,0.474653,0.631875,0.043066,-0.137292,0.006109
1765410017.342830,-9.876254,0.222382,0.642037,0.045357,-0.135001,0.020769
1765410017.345750,-10.133906,-0.420851,1.088594,0.042455,-0.139583,0.023518
1765410017.347859,-10.250477,-0.564323,1.239239,0.049480,-0.135765,0.011148
1765410017.349767,-10.250477,-0.564323,1.239239,0.049480,-0.137292,0.011148
1765410017.352780,-9.802725,0.224773,0.578670,0.047647,-0.138666,0.000305
1765410017.354819,-9.830223,0.325801,0.793878,0.048411,-0.147677,0.011912
1765410017.357791,-10.112385,0.007771,1.104735,0.045051,-0.149357,0.016493
1765410017.359813,-10.115973,-0.138092,0.903874,0.042150,-0.144622,0.013439
1765410017.362887,-10.081299,-0.169775,0.824964,0.049786,-0.144470,0.009621
1765410017.364869,-9.989837,-0.186514,0.860234,0.046120,-0.143095,0.008094
1765410017.367811,-10.111190,0.068149,0.961262,0.049633,-0.146302,0.002596
1765410017.369774,-10.092059,-0.037661,0.980392,0.047495,-0.150426,0.008399
1765410017.372834,-9.888808,-0.125538,0.777140,0.054062,-0.150426,0.011606
1765410017.373784,-10.037063,0.043042,0.905069,0.048258,-0.147829,0.006261
1765410017.377874,-10.031085,0.044237,0.896700,0.045204,-0.147219,0.009010
1765410017.381043,-9.873264,-0.066356,0.619321,0.047037,-0.149051,0.014508
1765410017.382865,-9.927068,-0.252272,0.608560,0.048258,-0.156840,0.010843
1765410017.384784,-10.010758,-0.172764,0.842898,0.049633,-0.145997,0.005345
1765410017.387830,-10.023313,0.066954,1.024629,0.056658,-0.141263,0.005651
1765410017.389819,-9.927666,0.235533,1.040172,0.051465,-0.141721,0.007025
1765410017.392863,-9.997607,0.295313,0.920612,0.047189,-0.149509,0.014966
1765410017.394820,-10.062170,-0.078910,0.817790,0.047189,-0.153785,0.014966
1765410017.397783,-9.848158,-0.411286,0.665949,0.061392,-0.151342,0.023213
1765410017.399799,-9.821855,-0.291726,0.725729,0.058490,-0.155771,0.007025
1765410017.402801,-10.268411,0.148254,1.208752,0.051313,-0.153785,0.001222
1765410017.404788,-10.156623,0.390961,1.084409,0.052534,-0.150273,0.012370
1765410017.407850,-9.860711,0.170971,0.725131,0.053145,-0.154549,0.022297
1765410017.409880,-9.849951,-0.164993,0.749043,0.046731,-0.155618,0.020006
1765410017.412806,-10.071735,-0.338355,1.077236,0.054062,-0.159894,0.018326
1765410017.414833,-9.960544,-0.357484,0.783716,0.052840,-0.155312,0.013286
1765410017.417827,-9.951577,0.056193,0.628288,0.052687,-0.155312,0.002902
1765410017.418327,-9.906144,0.211621,0.853658,0.051924,-0.148746,0.010996
1765410017.422794,-9.898971,-0.109995,0.972023,0.054062,-0.159130,0.017257
1765410017.424759,-10.252270,0.054998,1.245815,0.052076,-0.161268,0.007483
1765410017.427776,-10.141678,0.052606,1.150167,0.047037,-0.157909,0.012675
1765410017.429795,-9.896580,-0.141081,0.795672,0.055894,-0.157909,0.017562
1765410017.432843,-10.054996,-0.251076,1.111310,0.055283,-0.168599,0.011606
1765410017.433783,-10.257052,-0.132712,1.278694,0.056200,-0.162796,0.010079
1765410017.437776,-9.823050,0.071736,0.728120,0.056200,-0.165697,0.010079
1765410017.439827,-9.713055,0.312052,0.604974,0.053451,-0.168904,0.012370
1765410017.442803,-10.096842,0.277977,1.020445,0.049633,-0.169515,0.015272
1765410017.444813,-10.191893,-0.142276,1.163319,0.055894,-0.169973,0.020464
1765410017.447837,-10.059779,-0.286944,0.903874,0.055436,-0.166614,0.015882
1765410017.448337,-9.765661,-0.107006,0.767575,0.054062,-0.161727,0.006872
1765410017.452939,-9.744141,0.225968,0.607365,0.055589,-0.171348,0.011454
1765410017.454990,-10.120754,0.199665,1.092181,0.056963,-0.177915,0.018784
1765410017.457805,-10.059779,-0.033477,1.105930,0.051924,-0.163712,0.018937
1765410017.459882,-9.784791,-0.126734,0.595409,0.054672,-0.159894,0.018937
1765410017.462813,-9.898373,-0.011358,1.109517,0.055741,-0.162490,0.013897
1765410017.464828,-10.210424,-0.033477,1.561454,0.060018,-0.166308,0.021686
1765410017.467848,-10.050214,-0.196676,1.007891,0.062156,-0.171959,0.019853
1765410017.469877,-9.745934,-0.194883,0.716762,0.056963,-0.167835,0.011759
1765410017.472843,-9.687947,-0.025108,0.728718,0.064446,-0.177151,0.012675
1765410017.473343,-9.942013,0.070540,1.133429,0.058338,-0.177151,0.014508
1765410017.477807,-10.174556,0.144668,1.387494,0.055741,-0.170890,0.012828
1765410017.479858,-9.895982,-0.090866,1.059899,0.058796,-0.165239,0.019090
1765410017.482861,-9.508009,-0.361669,0.595409,0.061697,-0.181274,0.016035
1765410017.484885,-10.011955,-0.075323,0.977403,0.057421,-0.168752,0.001833
1765410017.485780,-10.107603,0.187111,1.170492,0.059712,-0.168752,0.005345
1765410017.489811,-10.107603,0.187111,1.170492,0.059712,-0.164323,0.005345
1765410017.492780,-9.976088,0.224773,1.249402,0.054214,-0.169668,0.011912
1765410017.494839,-10.209229,0.130320,1.538737,0.052382,-0.166308,0.015730
1765410017.497806,-10.068149,-0.258847,1.024629,0.062003,-0.177609,0.023976
1765410017.499801,-9.620994,-0.225968,0.445959,0.061087,-0.180816,0.013134
1765410017.502836,-9.620994,-0.225968,0.445959,0.061087,-0.175166,0.013134
1765410017.504841,-10.035867,0.211621,1.618842,0.061850,-0.173486,0.006720
1765410017.507831,-9.852941,0.395146,1.137016,0.062919,-0.173486,0.013134
1765410017.509784,-9.866689,0.236729,0.746652,0.053298,-0.181580,0.016799
1765410017.512779,-10.230749,0.019130,1.353419,0.058643,-0.180358,0.021991
1765410017.514791,-9.948587,-0.460904,1.287661,0.064141,-0.170431,0.026420
1765410017.517839,-9.693925,-0.150646,0.845289,0.059865,-0.179136,0.005040
1765410017.519806,-9.738162,0.298900,0.756815,0.057116,-0.179136,0.003054
1765410017.522806,-9.867287,0.351506,0.968436,0.061545,-0.181122,0.016188
1765410017.524813,-10.313247,0.417264,1.664873,0.064446,-0.171959,0.016646
1765410017.527757,-10.216402,-0.011358,1.773075,0.053298,-0.162032,0.022144
1765410017.529762,-10.030487,-0.332377,1.232664,0.056352,-0.195782,0.016341
1765410017.531838,-9.679578,-0.328192,0.547585,0.063988,-0.195782,0.011454
1765410017.534832,-9.906144,0.128527,0.884744,0.063988,-0.185245,0.011454
1765410017.537834,-9.989238,0.375418,1.230273,0.062919,-0.162490,0.004734
1765410017.539805,-9.964130,0.224773,1.493304,0.060934,-0.162490,0.013286
1765410017.542815,-9.900764,-0.090866,1.166308,0.057879,-0.174555,0.015730
1765410017.543315,-10.255259,0.002391,1.579388,0.059254,-0.176693,0.009316
1765410017.547913,-10.145264,-0.004782,1.538737,0.059254,-0.174555,0.009316
1765410017.549883,-9.785987,-0.026303,0.989957,0.057269,-0.189674,0.010996
1765410017.552841,-9.827832,0.117169,0.838713,0.054062,-0.189826,0.006109
1765410017.554878,-9.880439,0.068149,1.047346,0.056810,-0.186008,0.009163
1765410017.557943,-9.946198,0.261836,1.285868,0.061850,-0.176998,0.009010
1765410017.559850,-9.991630,0.211023,1.248206,0.053756,-0.172111,0.014661
1765410017.565299,-9.893590,-0.050215,1.027020,0.056810,-0.180663,0.020922
1765410017.565799,-9.974891,-0.189503,1.131635,0.062156,-0.189063,0.012675
1765410017.567791,-9.913317,-0.008369,1.210545,0.061087,-0.179442,0.010079
1765410017.569860,-9.778812,0.153037,1.043759,0.057879,-0.181122,0.008247
1765410017.572814,-9.750119,0.129723,1.005500,0.055589,-0.181122,0.009774
1765410017.573314,-10.169774,0.186514,1.406623,0.062308,-0.186008,0.014661
1765410017.577801,-10.258247,0.098039,1.683405,0.058796,-0.175318,0.017410
1765410017.578836,-10.019128,-0.294118,1.318747,0.054367,-0.176693,0.018479
1765410017.580806,-9.664036,-0.416069,0.872788,0.060781,-0.186161,0.013439
1765410017.585778,-9.901959,-0.077714,1.029412,0.059712,-0.195935,0.000305
1765410017.587795,-10.124939,0.331181,1.322334,0.057574,-0.182343,0.003054
1765410017.589765,-9.966521,0.327594,1.325323,0.059254,-0.178525,0.013439
1765410017.592786,-9.972500,0.012554,1.297226,0.056963,-0.185856,0.018937
1765410017.594792,-10.186513,-0.381396,1.276901,0.055131,-0.196240,0.014661
1765410017.597785,-10.137493,-0.319823,1.024032,0.061087,-0.189674,0.009163
1765410017.599842,-10.137493,-0.319823,1.024032,0.061087,-0.178984,0.009163
1765410017.602804,-10.046627,0.089670,1.648733,0.063835,-0.177304,0.002443
1765410017.603304,-10.214011,0.153037,1.799378,0.064904,-0.186467,0.006720
1765410017.607824,-10.198468,0.293520,1.629005,0.063072,-0.189063,0.008858
1765410017.609788,-9.784791,0.138690,0.945122,0.062156,-0.185092,0.021991
1765410017.612815,-9.821855,-0.198470,0.923601,0.061087,-0.199142,0.023671
1765410017.613315,-10.076518,-0.485414,1.216523,0.060781,-0.203418,0.016035
1765410017.617866,-10.116570,-0.083094,1.400645,0.069639,-0.191201,0.009163
1765410017.619841,-9.744739,0.099833,1.113104,0.069639,-0.182191,0.011301
1765410017.622860,-9.748923,0.169177,1.217121,0.061545,-0.200364,0.016341
1765410017.624847,-10.107603,0.018532,1.462219,0.059101,-0.209069,0.014813
1765410017.627807,-10.078907,-0.083692,1.071855,0.065057,-0.199600,0.019395
1765410017.628799,-9.780008,-0.288140,0.865614,0.069791,-0.191964,0.016646
1765410017.631904,-9.852941,-0.257054,1.356408,0.072235,-0.191659,0.010996
1765410017.632828,-10.049617,0.059780,1.450263,0.070708,-0.201738,0.006567
1765410017.637850,-9.895982,0.192492,1.181851,0.064904,-0.195782,0.010843
1765410017.639839,-9.644905,0.205045,0.988761,0.071777,-0.191812,0.019242
1765410017.642826,-9.953370,-0.029890,1.626016,0.075595,-0.199753,0.023518
1765410017.644859,-10.170969,-0.168580,1.611669,0.071929,-0.206625,0.020464
1765410017.647835,-9.943208,-0.276184,1.034194,0.071471,-0.210138,0.017104
1765410017.649862,-9.464370,-0.196078,0.466284,0.071929,-0.203265,0.012675
1765410017.652902,-9.831419,0.140483,1.348039,0.074984,-0.201433,0.011912
1765410017.655876,-10.156623,0.200861,2.034911,0.069639,-0.199447,0.013744
1765410017.657854,-10.014346,0.157819,1.529172,0.073457,-0.202196,0.016493
1765410017.659907,-9.587517,-0.107006,0.755619,0.070555,-0.205098,0.017715
1765410017.662897,-9.587517,-0.107006,0.755619,0.070555,-0.205251,0.017715
1765410017.664844,-9.955761,-0.053802,1.800573,0.078343,-0.203265,0.021686
1765410017.667882,-9.695121,0.121353,1.119082,0.078038,-0.203265,0.016341
1765410017.668866,-9.525944,0.065758,0.800454,0.071013,-0.208610,0.016952
1765410017.671952,-9.741151,0.112386,1.215327,0.076358,-0.207694,0.022602
1765410017.674916,-10.197272,0.057389,1.859756,0.080023,-0.206014,0.025045
1765410017.677810,-10.137493,-0.084290,1.755141,0.067959,-0.205556,0.020159
1765410017.679828,-9.852343,-0.164395,0.970229,0.070555,-0.209374,0.016646
1765410017.682818,-9.606647,-0.294118,0.796270,0.081245,-0.213650,0.017257
1765410017.684808,-9.968315,0.035868,1.659493,0.080023,-0.205403,0.012217
1765410017.687824,-10.013150,0.228360,1.639168,0.074831,-0.192117,0.012828
1765410017.689842,-9.883428,0.150048,1.211741,0.073304,-0.206931,0.018326
1765410017.692796,-9.980869,0.133907,1.208752,0.076053,-0.206931,0.021838
1765410017.694814,-10.332973,-0.077714,1.953610,0.078343,-0.198684,0.025656
1765410017.697836,-10.343135,-0.216404,2.263271,0.076511,-0.191964,0.020769
1765410017.699842,-10.028693,-0.083692,1.490315,0.080940,-0.209985,0.014355
1765410017.702798,-9.997607,0.168580,1.258369,0.080176,-0.212734,0.012217
1765410017.704854,-9.844571,0.080703,1.150167,0.081398,-0.212734,0.024435
1765410017.707815,-9.910329,0.029890,1.465806,0.080940,-0.211207,0.021380
1765410017.709827,-10.081299,0.107006,1.690578,0.073151,-0.208763,0.016188
1765410017.710839,-10.167382,0.057389,1.866332,0.076969,-0.215941,0.020006
1765410017.714846,-10.167382,0.057389,1.866332,0.076969,-0.215025,0.020006
1765410017.717823,-9.695121,-0.129125,1.012673,0.085979,-0.218537,0.015577
1765410017.719818,-9.695121,-0.129125,1.012673,0.085979,-0.206472,0.015577
1765410017.722795,-10.170969,0.326997,1.967360,0.081703,-0.204029,0.015577
1765410017.725859,-10.163795,0.353898,1.866332,0.077885,-0.204029,0.021686
1765410017.727828,-10.163795,0.353898,1.866332,0.077885,-0.216552,0.021686
1765410017.729792,-10.095049,-0.254065,1.767097,0.086590,-0.223729,0.026878
1765410017.732838,-9.677187,-0.329986,1.125060,0.079718,-0.224340,0.018173
1765410017.734842,-9.708870,0.143472,1.093376,0.081551,-0.222050,0.008705
1765410017.737805,-9.974294,0.234935,1.605093,0.082161,-0.218995,0.018937
1765410017.739868,-10.223577,0.172166,1.887852,0.083230,-0.218079,0.024282
1765410017.742830,-10.034670,0.035270,1.333692,0.075900,-0.211512,0.023060
1765410017.744862,-9.949782,-0.039455,1.339072,0.078191,-0.211512,0.020464
1765410017.745856,-10.031085,-0.099235,1.821497,0.093157,-0.217773,0.026420
1765410017.749949,-10.252868,-0.167982,2.235772,0.085521,-0.217773,0.022144
1765410017.752022,-10.114776,0.010760,1.783835,0.080329,-0.221591,0.015424
1765410017.754809,-9.593494,0.158417,0.759206,0.083841,-0.229227,0.018326
1765410017.755790,-9.903752,0.353898,1.366571,0.090103,-0.231671,0.020617
1765410017.759920,-9.903752,0.353898,1.366571,0.090103,-0.217010,0.020617
1765410017.761881,-10.313247,-0.101626,2.073768,0.086896,-0.220675,0.029169
1765410017.764847,-9.701099,-0.280966,0.967240,0.081245,-0.220522,0.021533
1765410017.767857,-9.653872,-0.075323,0.870995,0.085216,-0.234878,0.017562
1765410017.769826,-10.029292,0.065758,1.572214,0.090408,-0.224798,0.020464
1765410017.774322,-10.029292,0.065758,1.572214,0.090408,-0.217163,0.020464
1765410017.774934,-9.862504,0.273792,1.449067,0.082620,-0.222966,0.020922
1765410017.777864,-9.999999,0.060976,1.465208,0.087659,-0.222966,0.024282
1765410017.779849,-10.363461,-0.147657,2.204686,0.091172,-0.224035,0.027642
1765410017.780853,-10.253465,-0.289335,1.989478,0.091324,-0.224646,0.021838
1765410017.784856,-9.878048,0.136298,1.345050,0.091324,-0.229685,0.021838
1765410017.787874,-9.735173,0.412482,1.074844,0.088575,-0.232282,0.015577
1765410017.789888,-9.932447,0.367049,1.642754,0.091477,-0.231671,0.026878
1765410017.792853,-9.943208,0.196078,1.547106,0.088270,-0.228922,0.029627
1765410017.794858,-10.010758,0.059780,1.631396,0.087506,-0.228922,0.025504
1765410017.797828,-9.979673,-0.078910,1.816117,0.089034,-0.223424,0.026725
1765410017.798328,-9.800333,-0.021521,1.576996,0.092088,-0.233351,0.026573
1765410017.802852,-10.011955,0.081301,1.624820,0.083994,-0.241750,0.015119
1765410017.804875,-9.844571,0.307269,1.563845,0.086896,-0.228158,0.015424
1765410017.807785,-9.667622,0.363462,1.547106,0.094531,-0.228158,0.023518
1765410017.809826,-9.735771,0.135103,1.597322,0.084758,-0.237779,0.025351
1765410017.812839,-9.799137,-0.005978,1.573410,0.082620,-0.238085,0.023366
1765410017.814791,-9.516976,-0.222382,1.050932,0.089950,-0.233656,0.021686
1765410017.817865,-9.516976,-0.222382,1.432927,0.089950,-0.238390,0.021686
1765410017.819859,-9.939023,0.534433,2.081540,0.089034,-0.222050,0.009621
1765410017.822817,-9.771639,0.285748,1.712099,0.089797,-0.228158,0.022907
1765410017.823893,-9.596484,0.225968,1.037781,0.084299,-0.236252,0.018326
1765410017.826966,-10.115973,0.326399,1.863940,0.090255,-0.229991,0.020464
1765410017.830840,-10.437589,0.001196,2.834170,0.093157,-0.221897,0.027031
1765410017.832865,-10.040051,-0.100430,1.857365,0.087048,-0.235489,0.021533
1765410017.833849,-9.751313,0.118364,1.161525,0.085216,-0.248775,0.009621
1765410017.837883,-9.759683,0.216404,1.450861,0.089644,-0.238390,0.017410
1765410017.839866,-9.812290,0.288140,1.802965,0.094531,-0.236863,0.020159
1765410017.842863,-10.133906,0.311454,2.131755,0.077885,-0.232129,0.010537
1765410017.844834,-9.733380,0.097441,1.500478,0.079718,-0.229074,0.020159
1765410017.847876,-9.653275,-0.014347,1.341463,0.091019,-0.243124,0.021380
1765410017.849866,-10.050214,0.060976,2.204089,0.088423,-0.232587,0.010537
1765410017.852819,-10.281563,0.288737,2.515543,0.080787,-0.232587,0.011148
1765410017.854841,-9.727402,0.191296,1.355811,0.084299,-0.240986,0.014508
1765410017.857852,-9.649688,0.216404,1.299617,0.083689,-0.255647,0.014966
1765410017.859814,-9.918698,0.284553,1.989478,0.085979,-0.242514,0.020159
1765410017.862860,-9.966521,0.084888,2.225012,0.084910,-0.248164,0.023976
1765410017.864879,-9.434480,-0.231349,1.087996,0.080329,-0.248164,0.021380
1765410017.867882,-9.624580,0.023912,1.043759,0.084605,-0.257938,0.011454
1765410017.868382,-10.031085,0.188905,1.822094,0.091630,-0.240681,0.016341
1765410017.870841,-10.019128,0.157819,2.309899,0.091630,-0.231212,0.016341
1765410017.874949,-10.182328,0.123147,2.486848,0.085216,-0.231518,0.022144
1765410017.877898,-10.004781,-0.222382,2.019368,0.085368,-0.244499,0.024740
1765410017.879919,-9.829028,-0.278575,1.388092,0.092546,-0.261908,0.020006
1765410017.882912,-9.894786,-0.141679,1.597919,0.089950,-0.254884,0.012675
1765410017.884896,-9.998802,0.098039,2.181970,0.095448,-0.242514,0.014203
1765410017.887840,-9.840983,0.206839,1.754543,0.087048,-0.246637,0.016952
1765410017.888880,-9.901959,0.231946,1.771281,0.086285,-0.253662,0.014661
1765410017.892843,-9.868484,0.280368,1.916547,0.090408,-0.240375,0.023824
1765410017.894839,-9.658655,-0.036466,1.727044,0.093768,-0.257327,0.035277
1765410017.896889,-9.808105,-0.312052,1.774271,0.082314,-0.257327,0.021838
1765410017.899895,-9.808105,-0.312052,1.774271,0.082314,-0.249386,0.021838
1765410017.900910,-9.684361,0.063367,1.727044,0.098960,-0.244957,0.025045
1765410017.902840,-9.582734,0.000000,1.739598,0.094837,-0.251829,0.023518
1765410017.906915,-9.932447,0.153037,2.148493,0.091630,-0.254884,0.020006
1765410017.908915,-9.959349,0.029890,1.783835,0.096211,-0.254884,0.028711
1765410017.912873,-9.772835,-0.211621,1.519010,0.097586,-0.253814,0.027031
1765410017.914847,-9.749520,-0.291726,1.994859,0.098960,-0.241597,0.023671
1765410017.917881,-9.684361,-0.137494,2.073170,0.102014,-0.243583,0.019548
1765410017.919830,-9.780606,0.080105,1.801769,0.096669,-0.253814,0.016493
1765410017.922867,-9.707077,0.267814,1.846604,0.102320,-0.253814,0.017868
1765410017.924884,-9.644308,0.222979,2.049258,0.107970,-0.242514,0.028711
1765410017.927867,-9.595288,-0.132114,1.755141,0.103236,-0.259923,0.031001
1765410017.928886,-9.840983,-0.163797,2.002630,0.101404,-0.259923,0.019853
1765410017.932890,-9.643710,-0.313247,1.573410,0.101404,-0.254884,0.019853
1765410017.934895,-9.554638,0.289335,1.678622,0.109498,-0.246179,0.015882
1765410017.936932,-9.766856,0.614538,2.285389,0.101404,-0.241139,0.021686
1765410017.939855,-9.829028,0.172166,2.305715,0.100793,-0.246331,0.040317
1765410017.942875,-9.497847,-0.278575,1.326518,0.100335,-0.258243,0.033903
1765410017.944877,-9.497847,-0.278575,1.326518,0.100335,-0.247400,0.033903
1765410017.947822,-9.789574,-0.156624,2.423481,0.108581,-0.234267,0.029780
1765410017.949834,-9.672404,-0.132114,2.001434,0.109956,-0.252593,0.024435
1765410017.952328,-9.925274,0.160210,1.853180,0.105985,-0.262367,0.012675
1765410017.955108,-9.826636,0.253467,1.759325,0.109956,-0.248622,0.026114
1765410017.957892,-9.693327,0.238522,1.911764,0.114690,-0.242972,0.029474
1765410017.959864,-9.705881,0.043042,1.997250,0.104458,-0.249386,0.029322
1765410017.962870,-9.964130,-0.074127,2.241750,0.106749,-0.249386,0.028405
1765410017.964859,-10.054996,-0.005978,2.057628,0.111941,-0.248011,0.022144
1765410017.965862,-9.858918,0.127929,2.022955,0.110567,-0.248011,0.023671
1765410017.969921,-9.733380,0.377212,2.157460,0.109498,-0.238237,0.021075
1765410017.972890,-9.569583,0.444763,2.013391,0.111788,-0.249997,0.032681
1765410017.973904,-9.747129,0.270803,1.880679,0.104611,-0.262672,0.034361
1765410017.977927,-10.071735,-0.036466,2.244141,0.105680,-0.260534,0.035430
1765410017.981191,-9.824244,-0.212219,2.067193,0.111330,-0.253662,0.038026
1765410017.982913,-9.624580,-0.135103,1.491511,0.108734,-0.257022,0.027489
1765410017.984899,-10.011955,0.203850,1.892635,0.109498,-0.259618,0.021838
1765410017.987912,-10.160210,0.147059,2.390004,0.115148,-0.247400,0.031765
1765410017.989910,-10.176349,0.255261,2.736728,0.114232,-0.246179,0.031307
1765410017.992883,-10.051410,0.383788,2.449784,0.106138,-0.248928,0.026267
1765410017.994859,-9.808702,0.016738,1.774271,0.103236,-0.267406,0.036041
1765410017.997879,-9.805116,-0.090866,1.612864,0.116828,-0.275042,0.036041
1765410017.999894,-9.950381,0.056193,2.105452,0.117439,-0.265268,0.029016
1765410018.001884,-10.118362,0.205643,2.446198,0.107512,-0.255800,0.020159
1765410018.004883,-9.773433,0.298900,1.713295,0.106443,-0.264963,0.023976
1765410018.007880,-9.713055,0.358680,1.594930,0.112094,-0.269697,0.030849
1765410018.009899,-10.157818,0.428025,2.431253,0.109039,-0.263588,0.033292
1765410018.012845,-10.562529,0.279770,3.142635,0.109956,-0.257938,0.031154
1765410018.013933,-10.010758,-0.140483,2.130559,0.112552,-0.267406,0.035277
1765410018.017881,-9.491868,0.102822,1.329507,0.113774,-0.276417,0.024740
1765410018.019865,-9.685556,0.441774,1.823290,0.111483,-0.275195,0.023671
1765410018.022811,-10.041844,0.255858,2.421090,0.114385,-0.267712,0.032070
1765410018.024841,-9.974294,0.404711,2.338594,0.113163,-0.267712,0.025656
1765410018.027859,-9.741151,0.243902,2.027738,0.102014,-0.266490,0.029474
1765410018.029842,-9.580342,-0.032879,1.838833,0.106291,-0.274126,0.029016
1765410018.032903,-9.802725,0.211621,2.031922,0.111330,-0.289245,0.020769
1765410018.034863,-10.112385,0.300693,2.682329,0.109039,-0.282525,0.019700
1765410018.035969,-9.799736,0.347920,2.479077,0.112094,-0.267101,0.018784
1765410018.039895,-9.490674,0.443568,1.860354,0.110872,-0.274278,0.026725
1765410018.042851,-9.565398,0.285151,1.660091,0.106749,-0.293368,0.028405
1765410018.043351,-10.108798,0.400526,2.450980,0.106749,-0.285579,0.028405
1765410018.047852,-10.011955,0.023912,2.642276,0.111636,-0.265268,0.034514
1765410018.049851,-9.319702,-0.123147,1.698948,0.115454,-0.277638,0.025656
1765410018.052881,-9.227641,0.329986,1.464012,0.104916,-0.282983,0.012675
1765410018.054935,-9.620994,0.554758,2.155069,0.107054,-0.271682,0.019700
1765410018.057903,-9.894786,0.617527,2.760640,0.119271,-0.271682,0.030696
1765410018.059919,-9.946795,0.315638,2.569345,0.101862,-0.274278,0.031001
1765410018.062023,-9.818267,-0.082496,2.165232,0.102778,-0.279165,0.028100
1765410018.064875,-9.351983,-0.104017,1.420373,0.110872,-0.283594,0.021991
1765410018.067878,-9.729793,0.187709,2.113821,0.106291,-0.286649,0.012065
1765410018.068378,-10.098636,0.726925,2.840746,0.100182,-0.267406,0.004581
1765410018.072856,-9.970706,0.840507,2.620157,0.104305,-0.267254,0.028711
1765410018.074882,-9.555235,0.321616,2.070779,0.101556,-0.282220,0.036346
1765410018.077890,-9.901959,0.280966,2.493424,0.102167,-0.282220,0.029780
1765410018.079893,-10.150645,0.019130,3.056552,0.101556,-0.287870,0.038026
1765410018.082859,-9.811094,-0.102224,2.269249,0.104763,-0.287870,0.031612
1765410018.084893,-9.714250,0.260641,2.003228,0.104763,-0.289703,0.031612
1765410018.087878,-9.537899,0.203850,1.961980,0.100945,-0.281762,0.027947
1765410018.090943,-9.695121,0.367647,2.226207,0.107207,-0.286038,0.028863
1765410018.092869,-10.003586,0.108202,2.580105,0.101709,-0.280234,0.027947
1765410018.094850,-10.300095,0.038857,3.051171,0.104916,-0.276264,0.030085
1765410018.097907,-10.300095,0.038857,3.051171,0.104916,-0.270002,0.030085
1765410018.099873,-9.782400,-0.249880,2.129364,0.105222,-0.292604,0.025962
1765410018.102872,-10.150046,0.264228,2.658417,0.106291,-0.286649,0.010843
1765410018.104862,-10.068746,0.455524,2.703252,0.111483,-0.277944,0.026725
1765410018.107888,-9.778215,0.277379,2.329029,0.103542,-0.284358,0.033598
1765410018.109882,-9.696316,0.271401,2.116212,0.099571,-0.288023,0.031307
1765410018.112825,-9.742945,-0.126734,2.394189,0.105069,-0.289856,0.039859
1765410018.114915,-9.600669,-0.359876,2.265662,0.115912,-0.289856,0.036499
1765410018.117866,-9.870873,-0.092061,2.517934,0.112246,-0.290008,0.025962
1765410018.118895,-9.775824,-0.034672,2.553802,0.111636,-0.287259,0.022755
1765410018.122880,-9.674795,0.564323,2.142515,0.122326,-0.299477,0.028100
1765410018.124881,-9.533715,0.039455,1.927307,0.114690,-0.304364,0.040164
1765410018.127974,-9.912720,-0.055595,2.566355,0.117592,-0.295964,0.029474
1765410018.129955,-9.976088,-0.065758,2.735533,0.124311,-0.282831,0.034208
1765410018.132923,-9.640123,-0.344333,2.198111,0.118202,-0.293521,0.029474
1765410018.134956,-9.714250,0.398135,2.141320,0.122326,-0.296575,0.011454
1765410018.137916,-9.695121,0.396939,2.539454,0.121104,-0.283441,0.033445
1765410018.139943,-9.515182,0.258250,2.502391,0.132863,-0.294742,0.041386
1765410018.141949,-9.515182,0.258250,2.502391,0.132863,-0.299019,0.041386
1765410018.144991,-9.576756,-0.129125,2.289574,0.115606,-0.300393,0.043066
1765410018.146991,-9.497249,0.050215,1.855571,0.131183,-0.300393,0.041386
1765410018.149901,-9.497249,0.050215,1.855571,0.131183,-0.303142,0.041386
1765410018.152930,-9.851745,0.124342,2.705045,0.118508,-0.292452,0.024435
1765410018.154946,-9.672404,0.347322,2.559182,0.125227,-0.284205,0.037415
1765410018.157930,-9.551649,0.166786,2.514347,0.122020,-0.296117,0.039248
1765410018.158430,-9.887015,0.492587,2.752869,0.125533,-0.297797,0.036499
1765410018.162983,-9.847560,-0.104615,2.649449,0.124311,-0.301920,0.051007
1765410018.165048,-9.675991,-0.199665,2.261477,0.128740,-0.304058,0.037721
1765410018.167009,-9.512194,0.194883,2.177786,0.130572,-0.294742,0.033598
1765410018.167966,-9.427306,0.203252,2.361310,0.123242,-0.284510,0.033903
1765410018.172871,-9.689142,0.694644,2.711621,0.135001,-0.289397,0.040164
1765410018.173923,-9.928263,0.237327,3.097800,0.131336,-0.289856,0.055283
1765410018.177923,-10.011356,0.223577,3.006934,0.134696,-0.293368,0.047495
1765410018.179875,-9.797942,-0.193687,2.832974,0.130267,-0.287565,0.053451
1765410018.182895,-9.580342,-0.324605,2.494022,0.133779,-0.305738,0.042302
1765410018.184877,-9.841581,0.376614,2.661406,0.134543,-0.310778,0.029322
1765410018.185924,-9.826636,0.160210,2.641081,0.125533,-0.299171,0.038637
1765410018.189874,-9.721423,0.493185,2.589670,0.140194,-0.301004,0.034514
1765410018.192896,-9.723815,0.414873,2.779770,0.125838,-0.290161,0.041539
1765410018.193939,-10.054996,0.327594,3.289096,0.131489,-0.296270,0.041539
1765410018.196978,-9.830223,0.138092,2.708632,0.128740,-0.300851,0.044746
1765410018.197981,-9.857722,-0.053802,2.541846,0.132405,-0.315817,0.038790
1765410018.203021,-9.854733,0.480631,2.754065,0.140194,-0.300240,0.030696
1765410018.204966,-9.626971,0.178144,2.675753,0.132863,-0.300240,0.046884
1765410018.208013,-9.626971,0.178144,2.675753,0.132863,-0.308945,0.046884
1765410018.209965,-9.947989,0.507532,2.611788,0.130878,-0.298102,0.038332
1765410018.210935,-9.675393,0.005978,2.719392,0.141110,-0.296117,0.048411
1765410018.214904,-9.748923,0.288140,2.828790,0.138972,-0.297950,0.034667
1765410018.217917,-9.721423,0.123147,2.907700,0.126907,-0.300393,0.037415
1765410018.218917,-9.514585,0.482425,2.076159,0.137292,-0.307723,0.029932
1765410018.222881,-9.560018,0.313247,2.176590,0.131794,-0.308640,0.040164
1765410018.224891,-9.648493,0.621712,2.922644,0.138056,-0.295048,0.030085
1765410018.227840,-9.972500,0.602582,3.146819,0.127976,-0.284969,0.037263
1765410018.229856,-9.796746,0.347920,2.621951,0.125227,-0.303142,0.040012
1765410018.232846,-10.054996,0.497370,2.660808,0.131489,-0.310625,0.036194
1765410018.234895,-9.777020,0.279770,2.947154,0.132558,-0.300851,0.039706
1765410018.237980,-9.641318,0.664156,2.740315,0.133321,-0.297797,0.027336
1765410018.239975,-9.401601,0.524868,2.586680,0.123089,-0.311999,0.035430
1765410018.242877,-9.849353,0.791487,2.717599,0.128740,-0.311999,0.033598
1765410018.244833,-10.011955,0.542802,2.925633,0.123395,-0.308945,0.046578
1765410018.247943,-9.551050,0.187111,2.495217,0.124006,-0.306654,0.042455
1765410018.249845,-9.362743,0.478240,2.382831,0.124464,-0.296117,0.026114
1765410018.252986,-9.084169,0.384983,2.346963,0.124311,-0.299019,0.037263
1765410018.254937,-9.316713,0.694644,2.458153,0.129045,-0.310472,0.031612
1765410018.257951,-9.735771,0.497370,3.003945,0.121257,-0.311541,0.035736
1765410018.259933,-9.691534,0.618723,2.613582,0.125380,-0.294132,0.038026
1765410018.262942,-9.557627,0.349713,2.600430,0.118355,-0.294132,0.043524
1765410018.264967,-9.307747,0.106408,2.415112,0.115912,-0.299629,0.034819
1765410018.266946,-9.776422,0.224175,2.700860,0.119882,-0.310930,0.030085
1765410018.270307,-9.776422,0.224175,2.700860,0.119882,-0.296575,0.030085
1765410018.272869,-9.713055,0.694644,2.941176,0.122326,-0.294437,0.025656
1765410018.274925,-9.759683,0.583453,3.275944,0.117744,-0.293826,0.036652
1765410018.277978,-10.031085,0.309063,3.211382,0.123395,-0.310320,0.034514
1765410018.279873,-10.067551,-0.083692,3.193448,0.120340,-0.311236,0.041844
1765410018.282892,-9.459588,-0.146461,2.421090,0.127060,-0.310472,0.027489
1765410018.284944,-9.355571,0.396939,2.600430,0.121715,-0.311541,0.018631
1765410018.285927,-9.439860,0.706600,2.733142,0.124464,-0.311541,0.024740
1765410018.289865,-9.646101,0.787900,2.852702,0.128587,-0.313374,0.038637
1765410018.292914,-9.652678,0.218197,3.123505,0.120340,-0.300546,0.040928
1765410018.294918,-9.993423,0.049617,3.434959,0.124464,-0.300546,0.039401
1765410018.298001,-9.740554,-0.243305,3.120516,0.119882,-0.325286,0.037721
1765410018.299945,-9.903154,0.357484,3.124103,0.124158,-0.325286,0.021533
1765410018.302928,-9.976088,0.442372,2.988402,0.120951,-0.311541,0.034208
1765410018.303926,-9.441654,0.324008,2.587278,0.126296,-0.316275,0.041692
1765410018.305917,-9.739358,0.181731,3.109756,0.119577,-0.313527,0.035125
1765410018.309875,-9.739358,0.181731,3.109756,0.119577,-0.310625,0.035125
1765410018.312858,-9.638927,0.011956,2.715806,0.131947,-0.319483,0.031460
1765410018.314910,-9.521759,0.107604,2.743902,0.131947,-0.318413,0.031460
1765410018.317844,-9.671208,0.528455,3.174916,0.142484,-0.316123,0.035430
1765410018.319944,-9.554040,0.218795,3.109756,0.128893,-0.316123,0.049480
1765410018.322939,-9.554040,0.218795,3.109756,0.128893,-0.326202,0.049480
1765410018.324932,-9.664633,0.087279,2.749880,0.138514,-0.317192,0.043677
1765410018.327916,-9.335245,-0.213415,2.851506,0.138514,-0.311389,0.043677
1765410018.329932,-9.604854,0.382592,2.996173,0.139888,-0.309861,0.034361
1765410018.332884,-9.637732,0.013152,3.308225,0.133321,-0.309861,0.041844
1765410018.333384,-9.637732,0.013152,3.308225,0.133321,-0.324217,0.041844
1765410018.337862,-9.023790,-0.144070,2.164036,0.133627,-0.325897,0.044899
1765410018.339881,-9.140363,0.283357,2.693687,0.141110,-0.315817,0.030391
1765410018.340925,-9.557627,0.382592,3.265184,0.142179,-0.301767,0.043371
1765410018.344912,-9.551649,0.194883,3.384744,0.142026,-0.317039,0.047647
1765410018.347928,-9.661644,0.344333,2.892157,0.142790,-0.321926,0.046273
1765410018.349924,-9.230033,0.074127,2.562768,0.147829,-0.323300,0.053451
1765410018.352917,-9.412958,0.318030,2.571736,0.151800,-0.323300,0.045357
1765410018.354951,-9.705881,0.120756,3.308225,0.140957,-0.307113,0.048106
1765410018.357040,-9.884026,0.307269,3.428981,0.148135,-0.307113,0.037110
1765410018.359957,-9.497847,0.277379,2.764825,0.144011,-0.305585,0.051771
1765410018.362947,-9.547464,0.223577,3.089431,0.150578,-0.320552,0.047037
1765410018.365087,-10.002390,0.055595,3.717120,0.147066,-0.308487,0.051618
1765410018.367911,-10.002390,0.055595,3.717120,0.147066,-0.314137,0.051618
1765410018.369976,-9.293399,0.255858,2.456958,0.148288,-0.317497,0.040775
1765410018.374305,-9.321496,0.528455,2.745098,0.150426,-0.327424,0.042913
1765410018.376340,-9.867287,0.799856,3.527020,0.154702,-0.319483,0.042150
1765410018.376968,-9.629362,0.636657,3.337518,0.153327,-0.313374,0.061392
1765410018.377981,-9.629362,0.636657,3.337518,0.153327,-0.314443,0.061392
1765410018.382945,-9.270085,-0.124342,2.795313,0.153480,-0.322079,0.059407
1765410018.384851,-9.746531,0.237327,3.407460,0.160658,-0.323300,0.040470
1765410018.385898,-9.848756,0.640842,3.570659,0.154091,-0.318872,0.035583
1765410018.389898,-9.720228,0.911047,3.182687,0.151036,-0.318872,0.044746
1765410018.392883,-9.497249,0.582257,2.728359,0.151036,-0.332616,0.044746
1765410018.394850,-9.665230,0.643233,3.179101,0.154854,-0.333685,0.053603
1765410018.397859,-9.876852,0.286944,3.629244,0.150884,-0.322995,0.051313
1765410018.399874,-9.512194,0.509326,3.014108,0.156687,-0.334449,0.049480
1765410018.402914,-9.402199,0.371234,2.828790,0.153022,-0.334449,0.044899
1765410018.405892,-9.635341,0.637255,3.408655,0.154702,-0.328035,0.045051
1765410018.406392,-9.759085,0.595409,3.555117,0.153174,-0.326660,0.047189
1765410018.409924,-9.653275,0.664754,3.335724,0.146150,-0.328493,0.043066
1765410018.410941,-9.566593,0.679101,3.051171,0.148746,-0.332311,0.043066
1765410018.414897,-9.589311,0.622908,3.354256,0.152869,-0.336129,0.048258
1765410018.417911,-9.609037,0.439383,3.206599,0.146455,-0.339336,0.037721
1765410018.419860,-9.478120,0.899091,3.255619,0.150884,-0.334143,0.032376
1765410018.420928,-9.024986,0.681492,2.896939,0.147219,-0.329562,0.042608
1765410018.424893,-9.031563,0.847083,2.694882,0.149967,-0.352775,0.039706
1765410018.427908,-9.571974,0.766977,3.161166,0.141873,-0.340405,0.031918
1765410018.429863,-9.540888,0.835724,3.562888,0.154396,-0.321162,0.047953
1765410018.432936,-8.876135,0.605571,2.712816,0.152869,-0.325744,0.055283
1765410018.434967,-9.236010,0.449546,3.212577,0.139888,-0.353844,0.033139
