time,acc_x_g,acc_y_g,acc_z_g,gyro_x_rad_s,gyro_y_rad_s,gyro_z_rad_s
0.0,-0.037661,-0.036466,-0.009565,-2.039221,0.227395,-1.497842
0.0025,-8.699129168820024,1.4372766851489869,-5.544629938164482,-0.01988826493444577,-0.008326203432657926,-0.012507820357568533
0.005,-9.79452936907531,0.8132734595996186,-6.086650404995234,-0.01881339519542421,-0.0992582690943756,-0.07707251748331745
0.0075,-9.621563392221162,1.1743634473975215,-5.943199516415634,0.031670296739752135,-0.2567251575977121,-0.14017156270734032
0.01,-9.336342503244275,1.2029562611450386,-4.995119509045802,0.05697226286259542,-0.37459015984732824,-0.2076759172519084
0.0125,-8.601831357173447,1.618754116916488,-4.807131429122056,0.059559,-0.42815046124197004,-0.260076
0.015,-8.676486049580152,2.0641963769083977,-4.571246779122138,0.058198385000000005,-0.4692558998473282,-0.3106378153435114
0.0175,-8.798081525496187,1.7007592758778622,-4.530946393282436,0.05402895312977101,-0.5238564242748092,-0.33751627099236636
0.02,-8.227702351453674,0.9992716980511179,-4.841320552140575,0.07848623087859426,-0.5756194153194888,-0.34043963073482425
0.0225,-9.107912355419847,1.4343817990839673,-5.093878130076336,0.12680533038167935,-0.6415084775572517,-0.32954427877862597
0.025,-8.457351829551953,1.141063029742615,-4.872819108293615,0.13019089189704486,-0.6702268714966635,-0.3032892486177311
0.0275,-8.40384680922636,0.6753053695128942,-5.339737037077364,0.1600861864756447,-0.6926818135243553,-0.25180850252148995
0.03,-9.106952817906128,0.46601884028881285,-4.134215198267154,0.23205673877256316,-0.6918215142238267,-0.1803038336462094
0.0325,-9.189383,0.874581,-4.073409,0.241903,-0.7527010435081031,-0.1518
0.035,-8.565812624809157,1.08164063614504,-5.222724653167931,0.3312825456870227,-0.7454979302290075,-0.1250716562977097
0.0375,-9.137077407280513,0.46639274104211503,-3.942254302498218,0.35991154204139897,-0.7487838254104211,-0.08680087894361174
0.04,-10.931180080610103,-0.061204271839848626,-3.274741102116305,0.4147986467874166,-0.7506695081410868,-0.05683893349857006
0.0425,-8.662352082141323,0.4357503426124164,-3.9127819268522637,0.4344889001284797,-0.7337555846680942,-0.04794072436830817
0.045,-8.62959112793892,0.21763307801526205,-3.964852798854971,0.5120877135877863,-0.770607,-0.06823106595419849
0.0475,-7.992983336930411,-0.4466284839275482,-4.539550412697806,0.5168197955004767,-0.7255144729456626,-0.026688802783603412
0.05,-8.589118388167943,-0.9713088992366403,-4.742039373282435,0.576988470610687,-0.7487504874045802,-0.0008225530534353162
0.0525,-9.753368611832064,0.17810428790076105,-2.960017309809156,0.5759288429007634,-0.715870479351145,0.031829096335877834
0.055,-10.145511836720688,-0.6229696192564341,-2.554534354509056,0.6327262249380362,-0.7460629783412774,0.042031122592945634
0.0575,-7.9142892115538555,0.5393723739942686,-4.358706293498579,0.6324476869018111,-0.7471063497807435,0.057444712221163104
0.06,-10.479332341117475,-0.7936700546704909,-1.8046595942406802,0.6691426389398278,-0.7393766783954158,0.07282645220630371
0.0625,-9.996251660305344,-0.03252402099236642,-2.3519623263358778,0.6609895076335878,-0.7013205305343512,0.09220116030534352
0.065,-8.028163228941853,-0.10166148903717333,-3.669960341239269,0.6620680453384173,-0.721432,0.0986881074547188
0.0675,-12.023838469427487,0.1344644547709904,-0.6036310425954096,0.6074425486641222,-0.7474688656488548,0.12809718339694684
0.07,-8.638894707187816,-0.8533407228598727,-2.947786133956148,0.5721038349666348,-0.7118553227073406,0.15485404385128637
0.0725,-10.047003839541961,0.4351891591984501,-1.8712592523664167,0.5648623128625953,-0.728198207366412,0.17586788687022883
0.075,-10.850645127099245,-0.5628405080152712,-1.3678619454198462,0.4831695190839695,-0.674853,0.1880792751908397
0.0775,-7.7216188243540325,-0.011358856017130076,-3.4734809492648124,0.4752913649678801,-0.6927124652391148,0.19613875628836544
0.08,-9.463773266734522,0.27506060637828744,-2.899079113859202,0.40924078232400346,-0.7138635053095845,0.2344657937234945
0.0825,-9.940720220305336,-0.2547315812977054,-1.4913821458778715,0.3675237906106868,-0.6763441359541983,0.23381018740458015
0.085,-10.385031130794562,-1.1302147684180237,-0.9834197961918416,0.3489601165354328,-0.6756243074874732,0.23512149388690026
0.08750000000000001,-9.624573863740462,-0.638665586641217,-1.3178893526717306,0.22912455229007625,-0.6383492381679384,0.23128155801526654
0.09,-9.32392151385791,-0.4900950241405617,-1.5704100743162714,0.18414336987012997,-0.6934797526355995,0.22271399899159658
0.0925,-9.675473901679391,-0.4268717190839725,-1.1218661199236646,0.17404719148854964,-0.6425048595038167,0.1681805452671756
0.095,-10.314038568816791,-0.18428844946564765,-0.3137027084351161,0.05949220629770983,-0.6678594529770993,0.14205582465648856
0.0975,-9.702552987607246,-0.3563089707149659,-1.0710241371973235,0.02867083714013357,-0.6195843177121066,0.09243838939942799
0.1,-10.542334811248809,-0.4620728320305053,-0.045254335748324104,-0.02645008198284083,-0.625221,0.03876989018112481
0.10250000000000001,-10.226894930839679,-0.6897896633587994,-1.019763546870214,-0.05281545450381684,-0.612851,0.03541832519083975
0.105,-9.104898210422336,-1.201334600830351,-0.777585062476727,-0.05197372758768788,-0.562878467258411,0.022036601717967053
0.1075,-10.096681579790278,-1.210571272373691,0.058104827530982436,-0.06947743832221158,-0.509156,0.0020437731172545746
0.11,-9.8286107589313,-1.4238215417557247,-0.11880710213740323,-0.06579885847328244,-0.4428666969465649,0.0015751622137404426
0.1125,-9.180148688931293,-1.0166518353053433,-0.14864709198473655,-0.05596279408396941,-0.37074413683206087,0.0007362692748091484
0.115,-8.311243438627264,-0.8948082571973313,-0.1412010260438493,-0.05573787778836991,-0.2719223993136321,-0.001186727168732187
0.11750000000000001,-8.181322219541977,-0.7513314485496088,0.9100108882442668,-0.047480159694656555,-0.118355,0.003555520916030349
0.12,-8.90856175475566,-1.3329301784982177,0.7772261879380211,-0.01248548867699658,-0.02024168548271781,0.0036307512276521087
0.1225,-9.755840967321257,-0.10889854253575136,-0.11161863115348178,0.006696284995233591,0.019810207244995104,0.001190111382268857
0.125,-10.483488676610978,0.15034529713603817,0.3013486706443914,-0.006590678997613365,0.007976760143198092,0.0041301766109785205
0.1275,-9.855475485292015,0.12574699437425346,0.1611353038855783,-0.01358270755661501,-0.017458773921334957,-0.004111395852204997
0.13,-10.015971527008345,-0.09707047175208558,0.5031326914898688,-0.014134230893921318,-0.018607106317044018,-0.0052333154707985795
0.1325,-9.863512299618133,-0.14183588620525162,0.3796483094988007,-0.009897364868735069,-0.01019688229116938,-6.09369928393326e-06
0.135,-9.901934261120386,0.004826774255064467,0.430012458212159,-0.004775541978546058,-0.0051287153754469746,-0.0005301858879617306
0.1375,-9.941734460786654,0.010672048152562907,0.2994717930870161,-0.007600741597139698,-0.004429,0.0010472302741358422
0.14,-9.948080357663883,-0.007468233611446254,0.2291295944696018,-0.00818779809296795,-0.007178,0.00018402974970208724
0.14250000000000002,-9.943208,-0.092659,0.419656,-0.012065,-0.012964210992366554,-0.000916
0.145,-9.9242712194994,-0.007074232467221361,0.3298597537544673,-0.008032875756853335,-0.007440820405244469,0.001507751752085931
0.1475,-9.971510250488674,-0.032706230655541825,0.391245920953514,-0.007045004910607718,-0.006711719094159773,-0.0008721714898687668
0.15,-9.891135269606677,-0.008303569249106045,0.24729440810488879,-0.01023072348033377,-0.0075691468414779165,-0.0021727578069129705
0.1525,-9.180173874421934,0.4257132680810408,-0.25132314712752185,-0.009373727389749705,-0.001069,-0.006729857640047843
0.155,-9.84221724328963,0.3491738937306341,0.2204228840524438,-0.009398174445768749,0.00168,0.002046194374255032
0.1575,-9.818281431847439,0.09776718932061917,0.10133506674612626,-0.012761422026221696,0.005348990464839055,0.0022917721573301763
0.16,-9.948661590750893,-0.10671666812872421,0.2274856872943957,-0.0068767164719904725,0.001989716471990472,0.003639842050059554
0.1625,-9.985643169249107,0.007758863170442144,0.24374800834326563,-0.01024547103694876,-0.006432514183552014,-0.002463669129916538
0.165,-9.86071635960844,-0.18825927175114185,0.19075022659995716,-0.00657851019360453,-0.0077534962888840585,0.000704738420709147
0.1675,-10.032073492300777,-0.12280747869190026,0.403924183922849,-0.008204103325357124,-0.008914525621057216,-0.002894680609092901
0.17,-10.092058884303503,-0.006548706956665484,0.4528177677038021,-0.008029967637390003,-0.007282178289888748,-0.004605752947036366
0.17250000000000001,-10.002966185688072,0.08828744124770685,0.32607500080733826,-0.007789,-0.0032548741834862106,-0.004103678935779808
0.17500000000000002,-9.900498058555133,0.06282092141951805,0.21054180608364953,-0.008912482953105205,-0.0039257044993663,-0.00044554372623571356
0.1775,-9.92804377531667,-0.04344402834263478,0.28716269837418035,-0.009001066537248243,-0.006370563513710254,-6.398068429991962e-05
0.18,-10.037300909549433,-0.14327876200972423,0.46101411064505626,-0.008858,-0.005919695520259323,-3.4522534846030575e-05
0.1825,-10.020234770509092,-0.17484337686363635,0.3973410205000003,-0.010136039536363632,-0.005846625436363636,-0.0024046014545454474
0.185,-9.889072691015794,-0.05963280982602434,0.23873715312755567,-0.00776555595927203,-0.006263863538843903,-0.004233435859857291
0.1875,-9.841498596263008,0.11625613493377485,0.2375174136707663,-0.006876224101229896,-0.006414,-0.003578817999053926
0.19,-9.849214518905162,0.0979839335414165,0.25263296868187274,-0.007025,-0.008885714717887157,-0.003207
0.1925,-9.882601155854303,-0.04407131777088394,0.3163159936205908,-0.009276994264046887,-0.009966916460990462,0.0007343586579340576
0.195,-9.901537677341114,-0.14091859345979266,0.3602142269844359,-0.008962230350194549,-0.007795166507782094,0.00010787231517509063
0.1975,-9.78133972108642,-0.153347688098765,0.1941314266666667,-0.005517671506172835,-0.008247,-0.0025191631604938314
0.2,-9.800215352050587,-0.03367993878952069,0.19941693170731709,-0.00407094605239385,-0.008247,-0.0036760383378500504
0.2025,-9.807508,0.012554,0.201459,-0.003512,-0.007181162149138649,-0.004123
0.20500000000000002,-9.964134413415435,0.005726396791893947,0.425957687794234,-0.006795134593920524,-0.004923079710054545,-0.0010454392112236714
0.20750000000000002,-10.001315110088724,-0.036942889911276484,0.46422276016454184,-0.007781007365704138,-0.003816122239070816,0.000535438880464592
0.21,-9.847005534981784,-0.08894296626184105,0.26816552216662715,-0.00758228065581734,-0.002694302540684972,4.458319650231177e-05
0.2125,-9.81673836416309,-0.11139938998569382,0.24417966056270832,-0.00709800913209347,-0.0070108092036242076,-0.0011803382927992345
0.215,-9.836202,-0.11418,0.267814,-0.006872,-0.00882174872617535,-0.001374
0.2175,-9.99328985025902,-0.02193570921369109,0.4185096194357076,-0.005121928200740057,-0.0031769365957446854,-0.0014908751572617945
0.22,-9.738840022260199,0.04403275483451676,0.15899072670116737,-0.007807706511012155,-0.003148655087254786,-0.0005272243976411118
0.2225,-9.664531079417499,-0.006135214856180113,0.05375074792153073,-0.006362743795883979,-0.00748543619689494,5.1391676495367235e-05
0.225,-9.792929092256763,-0.05082850814695205,0.24431162383528515,-0.007281595236172792,-0.009525687186112236,-6.057984658861584e-05
0.2275,-9.968148638767577,-0.057990757774875105,0.4676790067583564,-0.009055110325009611,-0.00794221208759123,-0.000707020441029584
0.23,-9.997325332099413,-0.058398844705882434,0.4423431053727973,-0.010473150413388288,-0.00603655898089172,-0.001382591432496567
0.2325,-9.793386121256972,-0.065758,0.12665599818285184,-0.008943727441648626,-0.006109,-0.002575068427644321
0.23500000000000001,-9.826728154330503,-0.033379040052253194,0.2625781344742013,-0.008294786178967995,-0.0050613768517308875,-0.0020641757282821626
0.23750000000000002,-9.99531050942004,-0.040026590014989274,0.5507667628963471,-0.008129948737461085,-0.0064507600368961335,-0.00016139375072061124
0.24,-9.949364133412482,-0.06040252550617674,0.35813894872453184,-0.006645119967912729,-0.0028850523311407207,0.0004086850537461892
0.2425,-9.733626933153474,-0.03584297340906415,0.06942113158679519,-0.005956,-0.0032540528458170526,-0.0010611603597207363
0.245,-9.77464944429353,-0.02466722355326682,0.18152532745413547,-0.0073140159961377505,-0.003971,-0.0013183375925329905
0.2475,-9.818267,-0.023912,0.257054,-0.007941,-0.00365476278974359,-0.001222
0.25,-9.94349300254145,-0.054586231756020814,0.3560328431562386,-0.006890965508895074,0.00011384206704586697,-0.0010601307031344548
0.2525,-9.921438435310971,-0.05276725101534959,0.28057902493234765,-0.006184663649801024,0.003207,-0.0011454133666856173
0.255,-9.837241847904346,-0.03263916477944738,0.23717131073517533,-0.006159267325900791,-0.0007793145193084592,-0.002346413766359673
0.2575,-9.92893483271838,-0.03773513530398327,0.40203900877707965,-0.0053131291264849724,-0.003771943480083862,-0.001196349699510824
0.26,-10.023513423293503,-0.023802682583074077,0.4859304900703881,-0.00504,-0.002050329337043697,-0.000611
0.2625,-9.892244309043297,-0.04763598601790407,0.23607697643261635,-0.005507362803726938,0.0015379657633518026,0.00028480429937275396
0.265,-9.825442208279641,-0.08695391430972557,0.14675229842275087,-0.00628768061141222,0.000855347321113205,0.00018774349187016573
0.2675,-9.835563060706054,-0.09105865714802942,0.15895234578963371,-0.006237635741958835,0.0005670080912437379,4.316399251704486e-05
0.27,-9.985359270547344,-0.04717868447287399,0.3533853304882037,-0.004787941929877487,0.0003733781015026237,-0.0004402782040914885
0.2725,-9.999287674542897,-0.003643763384903548,0.3835520775339892,-0.0029404196905766363,0.0013981088842006698,-0.0015824756774496136
0.275,-9.948451883624193,-0.009731284962945397,0.3153587216351894,-0.004297510112359569,-0.0009780874013865931,-0.002470718192684683
0.2775,-9.92656625358078,-0.013726308236365678,0.30764707435272715,-0.0045757596538768,-0.002138,-0.001124538690652372
0.28,-9.89275929079365,-0.07256107815295894,0.2638732844733038,-0.0047365407215007255,0.00022025985569988724,0.0017479313419913735
0.28250000000000003,-9.83487887782507,-0.13690125969130096,0.17854389053788472,-0.004202797698783897,-0.0001086873012161177,0.001532848451824109
0.28500000000000003,-9.849052593101762,-0.0640749532289615,0.19675985110567576,-0.0055248613502935666,-0.0014401784148728113,-7.095068493152465e-05
0.28750000000000003,-9.993543785626041,0.027202385507247465,0.35832796849608295,-0.006261,-0.00028926129722020946,-0.000729928510334999
0.29,-10.01554359047271,0.0046292601890843416,0.3854250324143959,-0.004902999475649493,0.000153,-0.0011813200603797529
0.2925,-9.957970152182718,-0.014844811264421918,0.2823326113586072,-0.0056808367506475,-0.0018366105862961863,0.00014733166941368627
0.295,-9.934910288538395,-0.022837320771868216,0.2662428252962283,-0.006626245980384335,-0.001097346957977843,0.0009214831704010822
0.2975,-9.94983755440066,-0.09702122786495646,0.2843834976967415,-0.0058300745135866465,-0.0021953007928478853,0.0008377137748500197
0.3,-10.011440751636748,-0.13184211687109082,0.3544630201933227,-0.0045563299488262585,-0.004422090861830874,-0.0009097757127771818
0.3025,-10.057550745063082,-0.05973279204339155,0.3915017217592265,-0.004123,-0.0023372843532602446,-0.00168
0.305,-10.009977095288283,-0.01809647675062816,0.30149803331830216,-0.0024289241847581062,-0.0003410359878889427,-0.0020189261044901105
0.3075,-9.946491814445226,0.023861781615168397,0.22438676783707867,8.096292837078039e-05,-5.965486657303026e-05,-0.0006623563764045028
0.31,-9.996467155975107,0.02409997510062234,0.3048119265529782,-0.002023521357795196,-0.002109964645599287,0.000511833544007112
0.3125,-10.071083028584985,-0.08793576657573242,0.4111348460443601,-0.007487069268176967,-0.005080762898825762,-0.0005699689242082789
0.315,-10.038478452935323,-0.15960386971163595,0.3550177337139545,-0.004167205689996618,-0.004682730730811958,-0.0006489499183693189
0.3175,-10.023036736716417,-0.12327065813070562,0.3504760822663382,-0.0031618328648022006,-0.003445387752499636,-0.0011128902246051306
0.32,-10.012376132138922,-0.05785817392574823,0.35021708114011973,-0.003350896407185633,-0.003922795286227552,-0.0023803455377245574
0.3225,-9.981694498938605,0.003220578730489078,0.33374766984391224,-0.00504,-0.004808084994797085,-0.00168
0.325,-9.959056117292036,0.0043714000367264545,0.24549835323498767,-0.00504,-0.004415920009793718,-0.00168
0.3275,-9.98413644311743,-0.0009432545643909516,0.30465650936750366,-0.005120044687847413,-0.004344108038148735,-0.00043312670060264246
0.33,-10.022280534786729,-0.0640265340073727,0.35306978662453953,-0.006712756229594533,-0.004625102601369144,0.0021903072564507797
0.3325,-9.975162828315353,-0.17222066409958603,0.2835339198672189,-0.006400378224066379,-0.0022923152863070255,0.0026253201991701175
0.335,-9.908959256348574,-0.10486651269714739,0.22438822275609335,-0.003738035612553744,-0.0011146290234188266,-0.0015760984706070184
0.3375,-9.879171121327762,-0.018121568903255725,0.23307795707640183,-0.003058557249862027,-0.0019956368997871322,-0.003049442750137973
0.34,-9.858840133768807,0.010409407667277989,0.2315350475938832,-0.005398750062385367,-0.002818284907645254,-0.0005527927584097364
0.3425,-9.883685919335075,-0.000578912093722779,0.2691055802897184,-0.005995936126019136,-0.0027538836950843056,0.0012166322647035517
0.34500000000000003,-9.914310869426721,0.008147827757256162,0.3386204795298636,-0.00448650200047972,-0.0005000604269608353,0.0016293826721036377
0.34750000000000003,-9.873790032415451,-0.06940201532938141,0.2910013575060094,-0.005160507536464198,0.001999192902708774,0.0035741068568681165
0.35000000000000003,-9.860697363850829,-0.17220578651257076,0.26053929386393493,-0.006438516311211734,-0.001333140116764082,0.0029924160371737766
0.3525,-10.054699831342766,-0.12266145586008605,0.4825170397744768,-0.004626331740881398,-0.005591979785985488,-0.0017661215832469972
0.355,-10.056515303716472,-0.05829533867740674,0.4408592856544512,-0.0034532203076923125,-0.005438220307692312,-0.0009896334015304222
0.3575,-9.887026691090867,-0.01967093141213157,0.24876211983217597,-0.004275083231838877,-0.006260860584991598,-0.0013400182642052147
0.36,-9.817468615086728,0.043080332492133555,0.24174164999435235,-0.005006330926986685,-0.006567,-0.00114816231060912
0.3625,-9.89834283249326,0.022006975290118712,0.3369698320009372,-0.00555351832141601,-0.005243795686320487,0.000887653499003621
0.365,-9.94925378166154,-0.07961836419408246,0.3206343348165682,-0.0062778518627218905,-0.008858202357396433,0.0025236846390532496
0.3675,-9.938105598668885,-0.12858791402899927,0.2685303980033279,-0.00668491801283575,-0.0056287739196577355,0.002348033334917997
0.37,-9.838380089810776,-0.05768826335555968,0.20933244533429432,-0.00791751585510903,-0.001833,-0.0020799782951883214
0.3725,-9.903523826517691,0.014231817802607016,0.2989505140409683,-0.007147791657355681,-0.001833,-0.002656956499068901
0.375,-9.913916,0.025705,0.313247,-0.007025,-0.002348629092860977,-0.002749
0.3775,-10.007460827186796,0.011206056444111007,0.3525359995498875,-0.0077416926931732945,-0.003671821455363842,0.0005966091222805755
0.38,-9.985082124940883,-0.04935283450528948,0.3504491614747977,-0.00814916187927816,-0.00272406952706907,0.001527
0.3825,-9.862389441279975,-0.14408061195925925,0.2596679113417271,-0.0047329010794770875,-0.0026063420065763113,0.002230024300264659
0.385,-9.780429188295264,-0.20923,0.1651693397210867,-0.0008095505217600336,-0.005634415902861287,-0.0007270563741284268
0.3875,-9.896763204424673,-0.06966644941685607,0.3246620956113996,0.0013812874113262117,-0.0055322433329325306,-0.0038503255500781522
0.39,-9.923846460537618,0.033700360585335244,0.33743776129791614,0.0005605767074916411,-0.0027669886877683975,-0.002440062064577691
0.3925,-9.906445242813207,0.11907834368339548,0.2982058505757537,-0.0019337587030635545,-0.0021955302848968923,-0.0014696781642627214
0.395,-9.928640987844828,0.1022218343199231,0.30423324718390815,-0.003828044770114954,0.0006911004214559644,0.0006491696264367987
0.3975,-9.976433641082641,-0.09507147751714223,0.24362791734391928,-0.004098984193431989,-0.00494963897509926,0.002377796838686398
0.4,-9.972662778635872,-0.14559245699506843,0.2583316950799953,-0.0060257252496090635,-0.007261097558041642,0.0027631450499218126
0.4025,-10.050607397086093,-0.16451491682119207,0.3522627141721868,-0.00690308079470199,-0.0036022177483443028,-0.0006731777483444247
0.405,-10.060138137445726,-0.12663920973987802,0.36835812588304245,-0.006485833764912957,-0.000611,-0.003413640359867012
0.40750000000000003,-9.919277612272616,-0.02563622277952804,0.25550972422992807,-0.0035505429541595433,0.000784729691971892,-0.004711987630366258
0.41000000000000003,-9.808248250358087,0.049746541496419154,0.14578491980776603,-0.00535014334338486,-0.0008757152318130493,-0.0015498568733508982
0.41250000000000003,-9.883561539766303,0.050041984602336984,0.24649742338861802,-0.0064064265548435875,-0.0014794467960799174,0.0004871195910290506
0.41500000000000004,-9.995825035672182,-0.03755192159597714,0.36305379533669024,-0.005752585545171296,-0.0010374806518092226,0.0021568951066379266
0.4175,-10.017525628292214,-0.11089959093994473,0.35868108718257374,-0.00434295684197858,-0.000305,0.0005699015140209645
0.42,-9.970784907444731,-0.05217057084915284,0.3283816427122882,-0.004792953637997028,-0.0010283291086633803,-0.001963611855323788
0.4225,-9.939226933770845,-0.010391408197956047,0.2905659154240626,-0.004214450450062759,-0.004066214724762403,-0.00028732082481620235
0.425,-10.012659216819078,0.019206374466558953,0.38273167836949334,-0.003927409742394359,-0.006650834546649921,-0.0016272619448927084
0.4275,-10.040649,0.030488,0.417862,-0.003818,-0.004900732843772513,-0.002138
0.43,-10.038169951922553,-0.00215994325306014,0.3525661134938797,-0.008991094468357452,-0.0019059595135610921,-0.0010823651940155248
0.4325,-9.925079398932764,-0.1585236595090715,0.1847202130202773,-0.010647435176093923,-0.002569598847385271,-0.0005477696051227327
0.435,-9.983429986197082,-0.17785013498399146,0.28432436395114424,-0.007704260277481325,-0.003139706870627297,-0.0002630264484762246
0.4375,-10.099282612594953,-0.1221722550845381,0.42789777628032344,-0.004158782651310953,-0.00336,-0.0015971421220289143
0.44,-10.124342,-0.105213,0.456121,-0.003512,-0.0012609134787384254,-0.001985
0.4425,-9.842730952750978,-0.0435052686381415,0.1448446502382364,-0.002255405658409386,0.00013038897238354418,-0.0031478739907550082
0.445,-9.844959347640156,-0.030875004800284427,0.16490455414720878,-0.0014966577053454999,-0.002432327291691366,-0.0035275586748844383
0.4475,-9.891141465124488,-0.031975196693980495,0.266697340497952,0.0005490789788843466,-0.003842829864481566,-0.0020552157138354777
0.45,-9.941418089217134,-0.08061547392909943,0.35381578618906945,0.00045243559822745667,-0.004276,-0.000611
0.4525,-9.960278469586328,-0.08992921421803161,0.3590673899351797,-0.002394834588096653,-0.0053853276370064915,-0.0033217933529758616
0.455,-9.882644467765301,-0.07156486070536129,0.29129358557646634,-0.0034968029479677427,-0.003941336384627537,-0.0026887522884706536
0.4575,-9.87368123514687,-0.015628676883779766,0.24907438242656435,-0.0013726281481481208,-0.004674116372924666,-0.0009969687867177396
0.46,-9.953648206875949,0.021242937313572043,0.3422421292192807,-0.0019673518030109026,-0.006949366637880751,0.0009104506010036342
0.4625,-10.118626753423689,-0.09981299417796184,0.5100565179964637,-0.009172157006482011,-0.007599932044784908,-0.0006818618031820885
0.465,-10.110131248754271,-0.18329249609428486,0.44135161875309303,-0.007379629619328209,-0.006844858460813192,-0.0009648599222156775
0.4675,-9.987327570184606,-0.16462160470870213,0.23085442183648694,-0.004050721265883436,-0.008265487480220598,-0.0042236743610645465
0.47000000000000003,-9.873271438650267,-0.06627305812677271,0.22509070293282935,-0.003993406345001586,-0.006593184522232705,-0.003983400769473337
0.47250000000000003,-9.885726900493431,-0.02688865668434399,0.26866495540696383,-0.003967347087848737,-0.009353824625317112,-0.0032038522480977573
0.47500000000000003,-9.940766058707634,-0.01662528678315906,0.28270690730620346,-0.003665,-0.011458775090887715,-0.002249346663539323
0.47750000000000004,-9.926404314484522,0.013172573671016095,0.26680841564594515,-0.004486256720388867,-0.005667716398055666,-0.0008232851675620188
0.48,-9.8313569338344,-0.06415139920785834,0.19224855030095184,-0.005663879931389357,-0.0043255297239981295,-0.000817264275690003
0.4825,-9.683569241393183,-0.12073359642874647,0.11775162523424126,-0.0021941426048565534,-0.005580952465047816,-0.0013905987834191757
0.485,-9.653275,-0.125538,0.106408,-0.001069,-0.006374676564921712,-0.001527
0.4875,-9.9149393880597,-0.05369907247369761,0.3452365416197683,0.0022122502569121368,-0.006688763591876682,-0.0026212806459505675
0.49,-9.943835234222643,0.04368363849889593,0.32838173048249797,0.002417265897193317,-0.0077814552128666,-0.00268929188268685
0.4925,-9.896406044244822,0.08957575716590221,0.25532055605250686,0.0007792939174442568,-0.006888293917444257,-0.0017167140914123079
0.495,-9.87038862950429,0.006458870600572361,0.21617914715919925,-0.0017564419828407954,-0.008003496358436595,-0.0004293498951382289
0.4975,-9.872069,-0.075921,0.212817,-0.002902,-0.009843252306240415,0.0
0.5,-9.971253056138384,-0.1230534631216465,0.29560578473612553,-0.002797104268439177,-0.006318611195643469,-0.002512698406342596
0.5025000000000001,-9.957254515501047,-0.059873284060025914,0.3057292749265763,-0.004284938641278094,-0.0036834010327577472,-0.003907405202517356
0.505,-9.763899099536609,0.020697285078776665,0.14244748493049064,-0.00597971028730306,-0.0067813591473586815,-0.002641648229842441
0.5075000000000001,-9.742138086227321,-0.0018210321681004088,0.19198370643744705,-0.005905291041069708,-0.010232,4.883583572116491e-05
0.51,-10.023016436318112,-0.1286082369248058,0.4136460060251985,-0.006919970933311932,-0.0023433423545461845,-0.0014248465034909054
0.5125,-9.930155732602273,-0.1863827745933982,0.294512875308042,-0.006196976170527396,-0.002094602784622995,-0.004646712592410037
0.515,-9.740872466370185,-0.05767942481365423,0.055708654033824294,-0.005447198098966496,-0.0010539772564985886,-0.005584175355465085
0.5175,-9.748553313361557,0.02426207986452232,0.13289368372565388,-0.005926415918712989,-0.000764,-0.004665613276884108
0.52,-9.83049004764549,0.002407072205018745,0.2816990922797662,-0.00414828160170848,-0.0014332750453817514,-0.0011823311478910907
0.5225,-9.965474380060506,0.01058816703327983,0.43267301126416113,-0.002818356058610685,-0.0029529233624013547,-0.0021321891012635566
0.525,-10.096487005744123,0.02241485117493423,0.607520268407308,-0.007746884073107036,0.0026682835509138116,-0.0017150851174934842
0.5275,-9.905204019634466,-0.03333352689294969,0.3016707720104476,-0.006178640104438662,-0.00033730349869447954,-0.003021527310704945
0.53,-9.862205760644862,-0.07918346178887041,0.2632520416803597,-0.0037196208463803784,-0.0036391453852116307,-0.0022488506526119863
0.5325,-9.884542724074718,-0.024443321248405897,0.2763773897621532,0.00016616415361405887,-0.002788051268128589,-0.002065877178326948
0.535,-10.022907393873934,-0.005707239504267944,0.4244233549015124,-0.0014720867202889427,-0.002455549172685494,-0.0008671099704530337
0.5375,-10.042735226155688,-0.04389774136526896,0.4268743379640727,-0.004489065245508956,-0.002596,-0.0005523432814371224
0.54,-10.002797502235834,-0.10053170529862254,0.3639404360796321,-0.006532353996937226,-0.003019908851454837,-0.0024585256967841274
0.5425,-9.838365868724546,-0.09210721989281918,0.21005970112183084,-0.003944661450518075,0.0010314071882814805,-0.003695794598070741
0.545,-9.885735847083856,-0.0922911224030039,0.2963405227284128,-0.004362877847309158,-0.00027833511889866934,-0.0027196570463078667
0.5475,-10.05405414459072,-0.07913768458586364,0.492206135010929,-0.0051276751518095675,-0.000771917571046884,-0.00409803638571774
0.55,-10.032752323739862,-0.08595260671012904,0.3774581860391127,-0.003811242963905202,-0.0020981831451741453,-0.005218861058991904
0.5525,-9.855034394456053,0.008691656579894944,0.09253073213151529,-0.0014674360899592667,0.002405788305294843,-0.005074038373177505
0.555,-9.798051923697537,0.004991528294669664,0.08439082127855482,-0.0025072847883832326,0.00354033751018242,-0.0032778235381618207
0.5575,-9.921883214121621,-0.013305427012548214,0.3891158552557906,-0.0020629123889961414,-0.0015431164333976682,-0.001756912388996141
0.56,-10.039667639510451,-0.034231268724468966,0.470012133430818,-0.004977446170229634,-0.00265494796153531,-0.0056079056822697345
0.5625,-10.037424388462433,-0.040440586531751574,0.3291046132821587,-0.00312255617585485,0.0010669952314491743,-0.004980746336357292
0.5650000000000001,-9.955906318915028,-0.06296731181948868,0.1797368645031252,-0.0022965710729716845,0.0015555655040806373,-0.004487191675468164
0.5675,-10.03452434906385,0.042358447412386174,0.38361769300048043,-0.002681040549687951,0.0008829012313970222,-0.008330627950072018
0.5700000000000001,-10.025183437642127,-0.07875160413867896,0.45951966469556416,-0.003961367585511463,0.0037888868067942087,-0.004268583535251641
0.5725,-9.881468275477449,-0.04299305948138125,0.2315687719405187,-0.0022287955364384926,-0.0011501326656015568,-0.002857859569866046
0.5750000000000001,-9.867601093056408,-0.01680121088853316,0.2554500677891121,-0.0027210605382819355,0.0033762569128672707,-0.0034480621113432627
0.5775,-9.788104073554216,-0.011766616506024136,0.264228,-0.0006725297590361259,0.00504,0.0004413123493976247
0.58,-9.903761865487443,-0.06318204985001533,0.28159357949461983,-0.0019013812096510875,-0.0018261372383435222,-0.0019111135833060917
0.5825,-10.148163475967513,-0.0955364173817488,0.4850950406115645,-0.0026264998518872418,-0.005253699789775446,-0.004857099665551854
0.585,-10.080792962763509,-0.124352500101457,0.36789254370239427,-0.001403287929785027,-0.0018754857814639449,-0.004433065950559639
0.5875,-9.908938058288935,-0.09125753121278538,0.2040227532121579,-0.0016575347853337611,-0.0010345095894703932,-0.004288025195863368
0.59,-9.800682812364668,-0.04167155656146601,0.11580415604514327,-0.0048272915834291,-0.003002655457187191,-0.005065766758126646
0.5925,-9.912096049707374,0.026532299420153463,0.19756360458201075,-0.0026631021504358765,-0.009171374846252684,-0.005173480181117795
0.595,-10.11839067674882,-0.06731725782244419,0.39172167510887546,-0.005040544037648524,-0.0071645615761346815,-0.006990631200446655
0.5975,-10.113965199598162,-0.06369203738016038,0.38793600413858403,-0.003697416336022731,0.001486977937035422,-0.00698745389020723
0.6,-9.92403503105056,-0.03392177411258482,0.20141649616350177,-0.002763101685191796,0.004990050412334235,-0.003565704123341756
0.6025,-9.85402936426293,-0.11736625358144187,0.18047056407926704,-0.003727184997583368,-0.0017247765103915844,-0.0029255178927018273
0.605,-10.007762150027785,-0.08960611364001274,0.4356788238839128,-0.0034577450138931786,-0.002541065489348566,-0.006369614208088891
0.6075,-9.94779972394158,-0.1875034410159895,0.24227455031576547,-0.002750580266697479,-0.000916,-0.005031729721179946
0.61,-9.937668674751487,-0.13756790693067047,0.26145314639265704,-0.0043225665693009205,-0.000916,-0.005771416768458115
0.6125,-9.933045,-0.114778,0.270206,-0.00504,0.005151519568648279,-0.006109
0.615,-9.834345841880022,-0.1605879298384607,0.1810843064534463,-0.0015289131910057787,0.00217748787401577,-0.004832051166490792
0.6175,-9.958985111281578,-0.12453781227346394,0.26201282020857625,-0.003139966016222447,-0.007113024885283753,-0.008427988672074149
0.62,-10.016365790178448,-0.087857092848204,0.3379161142062571,-0.0014705066604866774,3.0778813441470834e-05,-0.007871502220162226
0.6225,-9.800892986249991,-0.08657256500000053,0.19090959932926166,0.004281578262195308,0.003054,-0.005641433048780415
0.625,-9.740527173180807,-0.01270844645694312,0.18831544312043216,0.003911370034953924,0.001688090403558945,-0.005880189227836034
0.6275000000000001,-9.916328266557542,0.04159623364468053,0.36691076381319787,-0.0010454552142514762,-0.0018247795377950033,-0.004814505016851174
0.63,-10.108532506643895,-0.07340046742954764,0.45979620471391985,-0.0024486734073441508,-0.004460718770281815,-0.004843457318531171
0.6325000000000001,-9.95654537546357,-0.13929696692187923,0.13838874553893982,0.003117802895083196,0.001527,-0.004075633963392745
0.635,-9.858308016927863,-0.0838042275989949,0.1275153674219404,0.005225241201100617,0.001527,-0.0038843337600191407
0.6375000000000001,-9.824244,-0.064562,0.123745,0.005956,0.0012902647025495653,-0.003818
0.64,-10.06279788957573,-0.05052962131905564,0.5389418553711391,0.005323593659446739,-0.0005702782315243082,-0.003818
0.6425,-10.124742725440857,-0.14737251788195027,0.594880816546032,0.001823596099101368,-0.001374,-0.0039419259120718935
0.645,-10.04874544790311,-0.08713898932953305,0.42374731470276145,-0.002165977240560464,-0.00018833599936672802,-0.006559123026992819
0.6475,-9.923015445202315,-0.08516851300577963,0.2808929782273622,-0.001519166290944167,-0.001064614325626174,-0.005143938198458629
0.65,-9.933304685412669,-0.17700594059501049,0.21473888349328168,0.002211998368522107,-0.0021396379078694894,-0.0030497241842610207
0.6525,-10.094866090606574,-0.10281757498122428,0.42073335451006744,0.005562338445430711,-0.006783685703880651,-0.0032869783589393265
0.655,-10.052530126168877,-0.10607593249409698,0.42430037606058063,0.0026724135298428022,0.0022611683055127115,-0.005982376155036266
0.6575,-10.017933,-0.11956,0.400526,0.001222,0.0002795661944445466,-0.007025
0.66,-9.921158150485981,0.023933188972610403,0.28831769370069715,-0.00016378737569284758,-0.0019071024949795245,-0.009369534532894243
0.6625,-10.005487733848899,0.02678669163593181,0.42095462634146086,-0.0010079782272456837,6.100375966683466e-05,-0.00659813794170142
0.665,-9.92348191974007,-0.008310872606498534,0.28852401894584534,0.0009807129819494934,0.0012579803898917076,-0.003061665819494541
0.6675,-9.743980029231299,-0.10741428274487243,0.12907605874212488,0.0008775581120403357,0.001168904758849815,-7.489809141942726e-05
0.67,-9.55714354516839,-0.1721681357577728,-0.04845826558290456,0.0008229019106217658,0.0006445014183937742,-0.0009210993199482132
0.6725,-9.696456749556582,-0.20716787286020522,0.10506597658129115,0.00357777826018276,-0.003591873270901467,-0.004766898616721174
0.675,-9.980228546933908,-0.05553977633022917,0.4569652522548335,0.0013890157003101768,-0.0018091690288713027,-0.006803021713194945
0.6775,-10.096891696578382,0.07234095979957007,0.5523147373800998,0.0007203639799570532,0.003158494173228328,-0.0069937969935576225
0.68,-10.038134872596375,0.05057175594859826,0.3645285607534472,0.002748902376885675,0.005039951188442838,-0.004459377141032744
0.6825,-9.923582974835416,-0.02300969999214377,0.22177224744756086,0.0018088518532484927,9.3614737999995e-06,-0.0020683069274884157
0.685,-9.850822189119146,-0.1409610439990328,0.11232081936422901,0.000734612783305052,-0.007379393040524269,-0.0009992429895656436
0.6875,-10.043573586600143,-0.1951251817533856,0.3182641917320028,0.0008559482062247565,-0.005318347350914707,-0.00570698812069375
0.6900000000000001,-10.10387065075331,-0.1191996225367007,0.4239310135451275,0.004535627533092763,0.0021897480048136556,-0.007842250300842386
0.6925,-10.001126293562335,-0.04676501725678586,0.338887264857074,0.006233442834494355,0.004887,-0.008871670281047324
0.6950000000000001,-9.90267538367308,0.008010498657222719,0.24730285799323126,0.002927400560372075,0.0020606771156691924,-0.008720059892154781
0.6975,-9.85010852535012,0.053961348229740046,0.17610747068450075,-7.511318646730158e-05,-0.0018234030212431673,-0.007349237025963736
0.7000000000000001,-9.977511904603993,-0.06342710577914046,0.2153079937218294,0.005261088795879037,-0.004164163393432053,-0.0027815109304571554
0.7025,-10.154124688867165,-0.11478116958083837,0.4703031792447779,0.004610258873273844,0.00043086690455826793,-0.004888926408407696
0.705,-10.005650789765685,-0.18529516530177384,0.42996685642603744,0.003163170755029604,0.007714894797633018,-0.006031005614201173
0.7075,-9.7855775456654,0.05688519895437331,0.08563778724334839,0.0037608546768060644,-0.0006062950380228265,-0.009530233307984776
0.71,-10.012747000874521,0.1525945464828884,0.4222953470912499,0.0010970530038023197,-0.002413518764258529,-0.007342377490494328
0.7125,-10.12585561775391,0.11939647948191347,0.5422458936976781,0.0006427293950402848,-0.003217599557731798,-0.00468881292054965
0.715,-10.134858541914609,-0.050584371945015694,0.38514878859506596,0.001069,-0.0020799382362243404,-0.003054
0.7175,-9.955891728167586,-0.20739751952253077,0.1355407590418952,0.0014831979193675956,-0.0009036461185770725,-0.003633551800790523
0.72,-9.902253963655095,-0.18591624891540315,0.2968894142841623,0.003978237700650733,0.00023564656182216176,-0.009261121963123627
0.7225,-10.053099070466379,-0.012125012472882862,0.5373923182321071,0.0064745764425163,-0.003129292960954489,-0.010888859924078112
0.725,-10.073357689853466,0.13410175722772152,0.4951113247524761,0.005698807762376249,-0.0013186155247525001,-0.012534880823762362
0.7275,-9.866705846301652,0.17330265497893899,0.1013877995238951,-0.0006547160178233772,0.000859996904107882,-0.003799559086858276
0.73,-9.778704315114448,-0.008822381051088263,-0.013396806372458436,-0.0023168974693279503,-0.0015830322065555587,-8.541239333458017e-05
0.7325,-9.74836496807034,-0.1819877341780526,-0.01936345940021896,0.0008452622860732595,-0.0038282868550793244,0.0015479184707175462
0.735,-9.867415713343028,-0.25104716356848517,0.1328740015709076,0.004964314947878777,-7.855432242430318e-05,-0.003044204063030243
0.7375,-9.95898151252904,-0.09846599815311284,0.30808851808161575,0.004123,0.0040800610425975655,-0.007963268811438821
0.74,-9.76665449506345,-0.09510505750372357,0.039950424116771854,0.004123,0.0045567148930592775,-0.010062294941912416
0.7425,-9.733718799426114,-0.005833592410327243,0.08190116754663282,0.004123,0.0010065013773313046,-0.012405966786226736
0.745,-9.912429449463291,0.099591413374741,0.37839323402771086,0.0015817582258321442,0.0005297431692944725,-0.010921895324096197
0.7475,-10.072526000646846,-0.07674092914149999,0.3946496069250844,0.005316637155766984,-0.001868209341260451,-0.002138
0.75,-9.943581076337694,-0.1598471229488704,0.16992705255648038,0.007220531985731272,-0.0040582494649227105,-0.002138
0.7525000000000001,-9.912415074211845,-0.16800068214268316,0.1358857726169527,0.007458632046537916,-0.003037045174113206,-0.005033260925911072
0.755,-9.893744138250323,-0.18939331947250693,0.2338347778123162,0.004779016017897082,-0.00020933501000823746,-0.008134986497115275
0.7575000000000001,-10.10516291948818,0.04463185580879864,0.3805555487687148,0.002902,-0.0008229012650893913,-0.008552
0.76,-10.0693039993565,0.13571506806306316,0.48794393960102994,-2.415580437581692e-05,0.0015955957078507199,-0.010177563275418283
0.7625000000000001,-9.724588604671894,0.007647973038513035,0.06046682093437452,-0.0022890484308130737,-0.0023239924393723965,-0.003847089300998543
0.765,-9.628833746279124,-0.11903127633856463,-0.12470868407750932,-0.0003856062624821581,-0.0049890607798383415,-0.002705273304802657
0.7675000000000001,-9.863925121921977,-0.2775431503131071,0.1712490982032917,-0.00018580024084780613,-0.007676214614643622,-0.003765009903660952
0.77,-10.159524914914766,-0.19112254904792442,0.5031454906207804,0.0027424855323255315,-0.0018899865390800373,-0.009891556571244822
0.7725,-10.154683044727662,-0.10162067350658692,0.511155857742971,0.00459690446422213,0.003116258497685955,-0.013970845012459912
0.775,-9.958685582833828,0.048478346775460424,0.30709129160520754,0.003659181766828798,0.004632829122862085,-0.016182965259689333
0.7775,-9.997539487119301,0.10312909528128131,0.3989919141052366,0.0008021039427739949,-0.003796719866634337,-0.005866007371484036
0.78,-10.09557778345296,0.022570032002908927,0.4848707716028137,0.0016754935063045678,-0.003699464696896216,-0.0026623076624635927
0.7825,-10.084151827939769,-0.2414317388364096,0.3380205670454056,0.0022213202464065667,-0.004255028327629468,-0.004593757184576724
0.785,-9.929301637446807,-0.3264575421276598,0.16668150297872159,0.0037593965957447035,-0.003904278297872332,-0.006441674893617036
0.7875,-9.83968736923612,-0.20890432242958332,0.0807607802016928,0.00278977579691668,0.00019844750202846094,-0.01331235701866225
0.79,-9.825946464228188,0.0038607010226940075,0.11767877425056011,0.005495852943432463,0.002408435001597973,-0.012377206762543894
0.7925,-9.841733374125637,0.04944501112781999,0.21368479659956258,0.005951440446276995,0.0019472039485811414,-0.008966863056027188
0.795,-9.940543045166306,0.04329415446689471,0.40173464541187764,0.0031773673546782234,0.00168,-0.0056170067112215815
0.7975,-9.917079589056465,-0.20569173410259345,0.25771034007627214,0.001985,0.002982096100381339,-0.004276
0.8,-9.752007016012229,-0.29231820472914677,0.042883159978983516,0.005548817426196633,-0.0011880518486671937,-0.00810862659787908
0.8025,-9.760690551665233,-0.18092841803955328,0.1524767330753794,0.006390322957867581,0.0014131018572656829,-0.009944911883061043
0.805,-9.869136528084699,-0.0400944161009507,0.3915015753395375,0.004877278430114386,-0.000458,-0.008383424108651493
0.8075,-9.97706214641001,0.01487368488503893,0.47529458314618744,0.002822401390225648,-0.000458,-0.008982786606780022
0.81,-10.037063,0.045433,0.521879,0.00168,-0.001480999870550211,-0.009316
0.8125,-10.04327450117564,-0.10078386727016225,0.46023878321185047,0.004243413237714554,-0.0016803209499177052,-0.007728554197037385
0.8150000000000001,-9.926252972151813,-0.15521811596011628,0.14261369564167709,0.006611550553232598,-0.001527,-0.0050661303216467685
0.8175,-9.738898643382685,-0.2512859474670102,-0.07063167165111063,0.008672847029288706,-0.004715437524943684,-0.005214200572899907
0.8200000000000001,-9.782927407596162,-0.1274006712499895,0.10482009211539778,0.008834330769230719,-0.0068176565384615116,-0.01191705076923108
0.8225,-9.906742,0.027499,0.299498,0.008094,0.003129905423769273,-0.016493
0.8250000000000001,-9.751856313813942,0.08650014970983932,-0.04196620435536519,0.004459475788214104,-0.001985,-0.007430462746036481
0.8275,-9.853485065072093,0.006621430456475799,0.11666518334669544,0.001681047368232112,-0.001985,-0.006951185411905471
0.8300000000000001,-9.901254419009003,-0.17377214950612846,0.2863067774908815,0.0005710556775605974,0.005712043934798737,-0.0053543130192198005
0.8325,-10.07297188374283,-0.29471145652007563,0.5931133949569801,0.008853294125238956,0.002396443097514339,-0.0035950182552581993
0.835,-10.113031896106738,-0.17034082081615667,0.6060017242935296,0.004868115076627206,0.0013457735801430675,-0.01116312996213709
0.8375,-10.044843891808402,-0.04036945065208131,0.43421335247310383,0.004483067936775043,-0.0007716705931847053,-0.015300968784181778
0.84,-9.94534585062133,0.033185728380474004,0.1669195443171703,0.005830827125284004,-0.002363483184204322,-0.01146041832171126
0.8425,-9.654229328348077,-0.060927088803033366,-0.1013932751904659,0.005659469904314838,-0.00519619071312505,-0.007483
0.845,-9.694216187569356,-0.09148263256664829,0.05855163759041776,0.0037316852981886224,0.0006824480399590157,-0.007483
0.8475,-9.743375113920553,-0.1389216645533058,0.09690772615167181,0.0037063127712356854,0.002749,-0.007075704873606524
0.85,-9.78721125385525,-0.170971,0.04400920092242271,0.006575513055818307,0.005130792171239308,-0.006145121736045423
0.8525,-9.892978945655173,0.05858048670630722,0.17979479995244138,0.010224053279429289,0.007178,-0.007323053279429289
0.855,-10.005294032023018,0.004714778981697129,0.4973779816385558,0.01069,0.012141792409879264,-0.007789
0.8575,-9.938683639629136,-0.053549102506923685,0.5212810685081252,0.008983801343768772,0.0026558080915108414,-0.008885499978326336
0.86,-9.911272162619085,-0.10261236164379109,0.39176410196350786,0.0039906134216050665,-0.000305,-0.008185864802196033
0.8625,-9.910927,-0.121951,0.349115,0.002138,-0.0028853164919637312,-0.007789
0.865,-9.955569817229794,-0.1428123252297939,0.16052903868462834,0.006614565407289997,-0.0058570670047543485,-0.0073625607321711585
0.8675,-9.941383859896996,-0.09367795179462621,0.09597951551541134,0.008794180790745591,-0.00364221775136667,-0.009439059085650969
0.87,-9.902846788023128,-0.009805302654693204,0.11319364826669946,0.00696380376430066,0.003414371794808692,-0.011027453226719155
0.8725,-9.965520451086121,0.013887322593187607,0.26776226003535203,0.0057681975706941006,0.005704658184447268,-0.010097855755141369
0.875,-10.048392740858867,-0.016670330447659185,0.3472927961043399,0.007138417473516346,0.004372291263241827,-0.010135708736758172
0.8775000000000001,-10.067936778997636,-0.09763295384397375,0.44461692764066674,0.0037460216075648582,0.010562884661938773,-0.009099170174940845
0.88,-9.969564074382204,-0.13166506475077128,0.34521659747361555,0.0035632909563240805,0.01237,-0.008382804176002597
0.8825000000000001,-9.84142103869641,-0.25332798586614147,0.25092133242378084,0.003726754738932358,0.005178333979674998,-0.008002754738932359
0.885,-9.899776202586791,-0.06616240149846511,0.17768323036331313,0.004420881217503636,0.001308019370256733,-0.011720406087518181
0.8875000000000001,-10.026250953317014,-0.03356488263961991,0.36298647007112905,0.0019259559752826186,0.00631955203451114,-0.013042135128832915
0.89,-9.9737117379887,-0.03382722115254228,0.3374725346440673,0.0030784215141243057,0.009164093694915262,-0.010986798960451965
0.8925000000000001,-9.8829207823359,-0.01708555010169444,0.24346260685361829,0.005298903716486966,0.010808855432973852,-0.00860151744838206
0.895,-9.791463118723573,-0.22141322490141807,0.39686036014886367,0.0015689054240240617,0.012266148778208892,-0.0073048108353789025
0.8975,-9.806256348957143,-0.2862408019230296,0.1884965671385259,0.007680040058273496,0.001200018312492666,-0.008565022066286255
0.9,-9.857255077324632,-0.19371010365881974,0.24649046982055572,0.010015125005826157,-0.005633927709158749,-0.011260677697506435
0.9025,-9.942390353327696,0.01968963252566397,0.2327273904191339,0.010749527947819778,-0.0029860940934896404,-0.012612753327696577
0.905,-9.88510055349509,-0.027095344565447876,0.20906484348616397,0.007463885167572788,0.0006745687381319804,-0.010277355994481832
0.9075,-9.699576771871186,-0.10097175871185997,-0.236962499039335,0.007945472619177104,-0.001018916652770214,-0.007548912080236827
0.91,-9.773050582787748,-0.13316394787747005,-0.04835376356715376,0.006687257444263171,-0.0020826343157513273,-0.009096656124705475
0.9125,-10.093928752197211,-0.07677753433369033,0.4626625479099668,0.008761526473740585,0.006969707752768826,-0.010102005787781377
0.915,-10.214861520528762,-0.10738379070144143,0.5757581565702052,0.012766270110753899,0.009258043491723267,-0.007050683344051404
0.9175,-10.111032648636188,-0.10543979364128317,0.47416098412987373,0.01243118828327192,0.011447935481138719,-0.00772781171672808
0.92,-9.959336531358504,-0.08058776110234259,0.2836242323321574,0.010843,0.010195309204807483,-0.009316
0.9225,-9.859996779592839,-0.04475763409369655,0.08902119065980005,0.010340394427274961,0.0036972294824626313,-0.009692748530782435
0.925,-10.003380148169423,-0.05928182944883187,0.19478485155938702,0.009571562319534165,-0.0005546304059983131,-0.008232498077690007
0.9275,-10.069675894612566,-0.018294510172527458,0.4086364110129251,0.008296450305981369,0.008324178010219405,-0.009999078489930868
0.93,-9.93213688801683,-0.11551361064262289,0.2639379657589392,0.006660079223324284,0.01169336269311699,-0.01028777569942892
0.9325,-9.613388463107004,-0.2142684063135441,-0.20846231684322675,0.006360346889441876,0.008045816395307513,-0.010007567621756133
0.935,-9.719597913071144,-0.049520454677529774,-0.03660185773521546,0.007175440655218821,0.006480808549497494,-0.01275480112368449
0.9375,-10.029794401063201,-0.07500068635558181,0.6808027849970467,0.0055060891907855875,0.0113283006497342,-0.010931229178972239
0.9400000000000001,-10.058563909199531,-0.07123939414132224,0.589511406400138,0.00980800347983047,0.011788906784586209,-0.00888709639924191
0.9425,-9.9495164845,-0.18648309675000024,0.28489613499999944,0.007854476249999992,0.005771993499999986,-0.00891111525
0.9450000000000001,-9.867519797977897,-0.19961912456148195,0.016976164194680787,0.006407181368445845,0.0015957963978368165,-0.011264237601693039
0.9475,-9.992761010802782,-0.1149593401235049,0.17496060895177182,0.010682766434769035,0.0033561435566325437,-0.010516107999687316
0.9500000000000001,-9.986162309135615,-0.0989569227917514,0.35666593709096756,0.010150161225647655,0.00352453489691693,-0.012537841006241935
0.9525,-9.982367638759577,-0.04916323964976308,0.051903046742065,0.006231095293688458,0.003188137575094267,-0.018220169125623235
0.9550000000000001,-9.954925245705946,-0.09032778561109203,0.06295689698650159,0.01051568164903332,0.006791143154566563,-0.015493846022132964
0.9575,-9.863224460956088,-0.07551997953047042,0.19886751930908797,0.015546801007176782,0.009710317820216537,-0.010901616309451365
0.96,-10.050670909695173,-0.0074743831986569115,0.6300161481270435,0.012290563577886299,0.007452057956636575,-0.010188664974797982
0.9625,-10.176669679245283,-0.11399326264151119,0.6278990192452808,0.009189488301886772,0.0059135564150943325,-0.013108526792452868
0.965,-9.913403999857609,-0.23451844238905245,0.04742900728739904,0.014624965132505292,0.000153,-0.009732489334704497
0.9675,-9.808183583022096,-0.14454579392729722,0.07088504738418001,0.016650974497505307,0.001471577148966556,-0.012367434255167517
0.97,-9.905731170838678,-0.01125531702542315,0.37581538264670616,0.013036762969826601,0.006702623611309044,-0.01417422861012115
0.9725,-9.97168496995875,0.08159215564183539,0.335629836893955,0.01150815248726037,0.004281835127396181,-0.011045352603736885
0.975,-9.958314412542915,0.026445549416343084,0.14113768517586192,0.01082276929884795,-0.005680985854886607,-0.010862542336156246
0.9775,-9.816553293298503,-0.11012994597957805,-0.020328337421038276,0.006195289289954896,0.0014791781405842763,-0.011584350016623128
0.98,-9.824740702199003,-0.16297459065305114,0.11029420171930565,0.007241126193303246,0.007944068760389411,-0.011489726677748755
0.9825,-9.827832,-0.182927,0.159613,0.007636,0.012843428794926066,-0.011454
0.985,-9.931404202268425,-0.06538094504975403,0.2862006360876943,0.010050571740150458,0.007292250326025444,-0.015653374769031607
0.9875,-9.995901773534339,0.03443761847332043,0.23352010772912052,0.007149826082794984,0.003957978798755647,-0.018195416223976982
0.99,-9.98682008202708,0.10988503524903039,0.17064209183624932,0.01006430161691347,0.0023071901211497016,-0.015579929742655808
0.9925,-10.003199255953758,0.003666586358379423,0.3329476080924887,0.005246116069364068,0.01156411768786145,-0.01126822242774558
0.995,-10.028153775630225,-0.05535405110932467,0.5282655796334401,0.002611908514469457,0.013882255315112538,-0.009788744684887461
0.9975,-10.018263489899374,-0.14759108541746235,0.48527449858036065,0.001833,0.005881901452270598,-0.00834643933641552
1.0,-10.030227752705738,-0.20397695303246885,0.2908485558505207,0.006188868490912804,0.000611,-0.010249394323054932
1.0025,-10.072472730283284,-0.021788963257796445,0.17044176269121974,0.007958991954674245,0.003844244475920575,-0.015490669065155687
1.0050000000000001,-9.84033499740899,-0.09592868966369786,0.09931147089564168,0.0070756108771525775,0.013037630722292868,-0.010786369277707132
1.0075,-9.80194073218768,-0.039786309226856345,0.06779905370853961,0.010221460057783505,0.013500540732693874,-0.010323459267306125
1.01,-9.884620837820046,-0.09608147020840256,0.39434925616936967,0.006592142378432003,0.01167914886205755,-0.009381689308633805
1.0125,-10.051301221965314,-0.15050287799929152,0.5191695531438014,0.0021584880736110175,0.010843,-0.014406769611890852
1.0150000000000001,-10.111608985702683,-0.2812153859496418,0.29789171390413016,0.0037143090365557756,0.009858209585702623,-0.013541974752233827
1.0175,-10.008689471889564,-0.2605854304503251,0.304445944412767,0.011710191618013429,0.009589048309572306,-0.013883900764878984
1.02,-9.9187644226049,-0.08426425932249842,0.3897567347659477,0.013378250749454278,0.016235351808553698,-0.013989250749454278
1.0225,-9.892993,-0.016141,0.416069,0.013286,0.009062662319932201,-0.013897
1.025,-9.846216160737404,-0.002460876509627768,0.12614147455961866,0.014413215010241658,-4.233019254120188e-06,-0.014235090684145827
1.0275,-9.812908507066785,-0.09692644719314536,0.005286040731046101,0.011715035649819351,-0.0031969293772563523,-0.012429327292418683
1.03,-9.750982330866995,-0.1916052410935964,-0.11379123997537208,0.010932426704433541,0.0051135495763549015,-0.012275314226601022
1.0325,-9.68180977021317,-0.257307861913784,-0.08166683424917293,0.015094082993841738,0.01237,-0.014676998432022718
1.035,-9.674795,-0.270206,-0.0544,0.01573,0.010856758435932206,-0.014966
1.0375,-10.0302669384835,0.01165303113859395,0.42408227748992394,0.011523015783218215,0.013449010268600129,-0.016698049346327647
1.04,-10.242553708795914,0.10698730115618063,0.691927351223254,0.013463762363462202,0.015936773145959787,-0.011684805672309076
1.0425,-10.09005790942055,-0.14257848144092616,0.49796005872260024,0.014661,0.010324495442588053,-0.007980969138523539
1.045,-9.988018920290067,-0.203252,0.381193338187094,0.0077642988252359085,0.008858,-0.014642377432922172
1.0475,-9.966521,-0.203252,0.35868,0.00504,0.007466031946755326,-0.01741
1.05,-9.978523388582303,-0.20239443044719313,0.24123240799238577,0.01336186641294023,0.0004981354900093771,-0.015000774500475687
1.0525,-10.073361183149014,0.0207744822492959,0.3653962741330825,0.01206764667291474,0.007019516982193015,-0.016648721968134945
1.055,-9.905100819248869,0.014182291172954442,0.1297369035324218,0.007648267028147774,0.008515370981580436,-0.016393023296387876
1.0575,-9.79926072144862,-0.03417262978928419,-0.20356131970884947,0.011698734166813371,0.008247,-0.009515461341785535
1.06,-9.99426249898222,-0.08200325446733683,0.2530366896495959,0.010852463109702394,0.008247,-0.009703795118858959
1.0625,-10.194601617186239,-0.1874725076724277,0.6890198341947988,0.011186094976578905,0.01416853093199806,-0.011152928444516234
1.065,-10.108078852485825,-0.31634455492348984,0.4909476089074415,0.01594417564472985,0.01601703447833095,-0.011370811432851747
1.0675000000000001,-9.92562775055751,-0.251279544517921,0.28535490031887756,0.013716863327982776,0.0023081235312995274,-0.013512846300695658
1.07,-9.776956181714015,-0.1884049361822009,0.08808545105423343,0.01104022624090154,-0.00504,-0.014399401239727622
1.0725,-9.866760025602288,-0.08756696097223834,0.047050512760633996,0.00868300081973072,-0.004542563155010125,-0.01556993365423568
1.075,-9.786944167334719,-0.09797418101819734,-0.12345724432158228,0.012792534899792722,0.008297433402441708,-0.015672740428472706
1.0775000000000001,-9.612624,-0.151841,-0.237924,0.01069,0.013979322870331566,-0.015577
1.08,-9.612624,-0.151841,-0.237924,0.01069,0.015035379269827977,-0.015577
1.0825,-9.919753630791407,-0.20795093600695802,0.3723963933109772,0.014839643831531916,0.015046909350229839,-0.009541902919617276
1.085,-10.076348095170136,-0.1476032177728892,0.5408185200031428,0.016600413554420417,0.010832604045579636,-0.013468056754420348
1.0875000000000001,-9.911654829705583,-0.07012409092663698,0.44569076252412226,0.012549935376447515,0.013313094594594933,-0.01419363513513502
1.09,-9.688517502351036,-0.10829625474590786,0.05589608857690653,0.011606,0.009223950251402905,-0.013049354584454493
1.0925,-9.609037,-0.129723,-0.105811,0.011606,0.002122791714084092,-0.012675
1.095,-10.00567481527741,-0.0894512474834506,0.3700254108845841,0.011235242060416374,0.013407917219882038,-0.01542742646527866
1.0975,-9.906092906657845,-0.19054247960283707,0.2644081012299949,0.015186489449993857,0.015046593277169283,-0.010994735166686868
1.1,-9.703956045564444,-0.22736604014759082,0.04870943210864301,0.01627169525828233,0.008441528073480642,-0.014071083592400844
1.1025,-9.896923393043279,0.03274712780579922,0.238379657563041,0.014303613481881035,0.002974994652280931,-0.017888240333059743
1.105,-10.03223661553166,0.005455284301076085,0.3561257184707284,0.012502308180007976,0.006016075459976074,-0.013866504006372002
1.1075,-10.004471626934599,-0.10879377304129087,0.2767600295428596,0.014165286156937424,0.008513126852205379,-0.011113038380387782
1.11,-9.69895267849766,-0.11884832225352082,-0.19030997802815441,0.014902367511737055,0.012389771455399112,-0.016862632488262946
1.1125,-9.916471019078728,-0.11117075109205947,0.18416371590121094,0.014030516200585137,0.013696834959515571,-0.01773448379941486
1.115,-10.12425812737377,-0.16983955735789114,0.4846813304826919,0.017557974299777693,0.013897,-0.013238379698316944
1.1175,-10.016117462022207,-0.2651964419353255,0.3564577526447965,0.023080932905405253,0.015893283262548186,-0.013421438359073277
1.12,-9.703782909677034,-0.07372659134172245,-0.05517130997149947,0.014943295613868451,0.019193765483257887,-0.0194251668059842
1.1225,-9.662475464604606,-0.03613996006174225,0.03228244341724243,0.015229033196390414,0.013394973367371048,-0.016478147817620456
1.125,-9.83370683380481,-0.06731550699355651,0.1818633510136728,0.016554515165802294,0.013699105610561056,-0.013362159987427315
1.1275,-10.041054776399703,-0.028904404290964344,0.48050650758265184,0.016231001660543747,0.014203,-0.017205911932402475
1.1300000000000001,-9.925554704265082,-0.11254675878185921,0.37376293906744695,0.012677867559763134,0.02254193543826475,-0.017351623157396395
1.1325,-9.669751767966678,-0.18666010883521847,-0.061598837277825,0.01574864324092819,0.01731425422962489,-0.013492092735276488
1.135,-9.924815631596143,-0.05449050699439892,0.3012298158120741,0.016693318130056006,0.00830942974486618,-0.01615628512756691
1.1375,-10.201184882080634,-0.05991261299153612,0.7676428024887928,0.015037991911398752,0.01632654467396683,-0.014127157267297265
1.1400000000000001,-10.019083050971087,-0.12094402631014592,0.34092457148984423,0.017946865371867935,0.01586990540709293,-0.013286
1.1425,-9.774077464875948,-0.10745030536259409,-0.08777482450382693,0.015822073788167794,0.008707027080152417,-0.015186327662213821
1.145,-9.935065229763993,-0.18776206306397517,0.3617746955164509,0.01610884876464016,0.01091788892237071,-0.01635359239597431
1.1475,-10.027295607389794,-0.20547016720381353,0.5052859999387891,0.023648400875757647,0.01685535563769046,-0.01220643759637461
1.1500000000000001,-9.891512369694965,-0.21690356268122152,0.2276388088024761,0.01941885838825063,0.014464952796083544,-0.01868123836377341
1.1525,-9.76374888265298,-0.10212289174166456,0.05236955745245159,0.016252992042929668,0.01340966401430989,-0.02071629713236685
1.155,-9.654930176876334,0.022911802416331867,-0.11535492924756874,0.017920020778542687,0.013595969973890358,-0.016891156320911347
1.1575,-9.716774426084664,0.038495690032563736,-0.07655187269964493,0.022138772203442368,0.012119939875949795,-0.012179984434796105
1.16,-9.91797443841478,0.053514449779687584,0.21848514791084744,0.018551388655356167,0.012252269764497186,-0.013389931081286253
1.1625,-10.022252835345025,-0.02691456171715499,0.42164558920519424,0.014266924276930071,0.024519349647005806,-0.014724924276930071
1.165,-9.781057097082732,-0.24994593526542652,0.03249126135819502,0.017990856250597865,0.025547156116690548,-0.009504636834050605
1.1675,-9.789854032913,-0.23491099105246124,0.03251256228087118,0.018143886207233645,0.017531239827305395,-0.01242083219941343
1.17,-10.38848048333158,0.006608813900560603,0.8303776704106505,0.013371636769766646,0.02474,-0.01743372233928014
1.1725,-10.190628593032823,-0.032762873784441524,0.48893462613742983,0.01548472827615336,0.02474,-0.014560183549033984
1.175,-9.905048693463268,-0.11211858179225329,-0.0034109736629547305,0.014674538340860393,0.018996265462324472,-0.0138381816496316
1.1775,-9.737335240126598,-0.10341648201148781,0.07655621097174833,0.01057961754542259,0.020711955390927173,-0.017549045279568614
1.18,-9.961151644569014,-0.14263685247893557,0.43324663289046494,0.013282571490602623,0.020997726121192523,-0.01215568951717452
1.1825,-10.014845336935462,-0.3792999610409755,0.31369599430503803,0.015397678221496139,0.013831483304935967,-0.011217404224530388
1.185,-10.005609391526303,-0.30532454297711403,0.05913491817881075,0.01303849252182112,0.012217,-0.01763538815758449
1.1875,-9.954919576060655,-0.15414514066784965,0.06168696636554283,0.016367575334731408,0.017077868769156318,-0.01901501588965962
1.19,-9.892670103027246,-0.06555789175438556,0.18472384568495828,0.02044803095558056,0.017212762612915482,-0.015949405763344512
1.1925000000000001,-9.96871943633656,-0.09050673070926886,0.15081170562729168,0.015456447843372651,0.009766016193622098,-0.016924541360879286
1.195,-10.059069142583631,-0.13718728632274454,0.19448085626088632,0.012860039911116386,0.01178558452705548,-0.01817457040417996
1.1975,-10.105435947604642,-0.18480749968467405,0.1989601210212084,0.01817691663545422,0.015370689379751916,-0.0152137727442977
1.2,-9.962776007590133,-0.25029635673624506,0.24507289639468474,0.022224449146110152,0.017427033776091044,-0.017790448007590085
1.2025000000000001,-10.035840919707242,-0.12667865481159593,0.36784070885335385,0.016906955104364064,0.019379789840065154,-0.020612280005421663
1.205,-9.949322255623144,-0.08679009436281325,0.19792088982685363,0.01645273682108877,0.0197,-0.019717868101700155
1.2075,-9.903752,-0.077714,0.109995,0.016646,0.015294397883499601,-0.01909
1.21,-9.934280353596145,-0.17685505330459764,0.16017024875142416,0.017495442413487102,0.012696099074660851,-0.018163197652427465
1.2125000000000001,-9.996431064864867,-0.22961651351350976,0.4942351891892134,0.020995837837838066,0.02033237837837887,-0.017984848648648712
1.215,-9.910316879152997,-0.2595770996274494,0.3338399585670982,0.02286065728387204,0.008704212845087862,-0.015397172966088097
1.2175,-9.88331054213826,-0.20997203865629852,0.12571237674644709,0.022145429004981176,0.002701081329121597,-0.01818214502490588
1.22,-10.006684152188068,-0.13153139434090716,0.1950144474547435,0.022826347328392654,0.001144969575993213,-0.021586736641963273
1.2225,-9.9590784739589,-0.13169398112507208,0.09017044631826815,0.0271367710628301,0.004810721301232914,-0.019419165900176324
1.225,-9.667759742082172,-0.13938184174110774,-0.22834891979861532,0.026451908851713425,0.011296157576742152,-0.017752641513724177
1.2275,-9.667330927970209,-0.06842275344026061,-0.10356963206823391,0.022763375721751695,0.020006,-0.018493836167477597
1.23,-9.981747515530724,-0.14599167797440926,0.3618432852477891,0.024687056327266158,0.020006,-0.016665898670030647
1.2325,-10.080778271241941,-0.28910582262984535,0.46056161399343415,0.029432920102177174,0.01758207281839203,-0.012463424318209619
1.235,-10.017279981726379,-0.23159295278086664,0.2651785397475418,0.025536614936887286,0.01896250397804791,-0.016569919388475324
1.2375,-9.743604146919997,-0.14108342091249992,0.06390900493767046,0.020119896623502262,0.020587775844124433,-0.019366775844124433
1.24,-9.95121878225096,0.018864603045359533,0.2604813825971118,0.022534630517769466,0.010656662021488652,-0.015933287438378144
1.2425,-10.045081347408233,0.015512259335893905,0.3561725452126963,0.020277304187855567,0.009877711110895056,-0.015699806079051006
1.245,-10.09926056724708,-0.02232361638571258,0.41749778915481656,0.017597534216672314,0.017103884814430103,-0.01645454919181416
1.2475,-9.860123997653352,-0.18968445606134834,0.07743903420641507,0.02383215919182108,0.012885496241479716,-0.011537076246348405
1.25,-9.802535842285897,-0.3132091304174316,0.11495313337058026,0.025793656796232738,0.010843,-0.012376593343443211
1.2525,-10.092818252101132,-0.17458205886776118,0.4007815643410082,0.025962,0.007838424515551673,-0.013134
1.2550000000000001,-10.078205126973012,-0.16550227457072988,0.18709988927553617,0.025962,0.009704005998364828,-0.015490935869174296
1.2575,-9.797518146256857,-0.13969734899146735,-0.14393132832068123,0.026938411845272913,0.015479757723501405,-0.01576109062989363
1.26,-9.734452100737423,-0.129125,-0.1541042502663359,0.023435839571302873,0.01632488936095337,-0.014827508137247057
1.2625,-9.961177674195092,-0.15594345343584742,0.30923063901968983,0.019857033157136047,0.015940446708313318,-0.01640680941854872
1.2650000000000001,-10.15483,-0.178742,0.68747,0.018173,0.017112191359466376,-0.018021
1.2675,-9.972006957965354,-0.23617322150725792,0.2873659302449506,0.023389653275082144,0.014097456270868912,-0.0163904622718052
1.27,-9.616987273038069,-0.14618285877341222,-0.14304749340996492,0.02610987354925963,0.016571300382716883,-0.018956278393400472
1.2725,-9.739905139365742,-0.08260465205220187,0.12906680594225053,0.032064968433294934,0.016246567264859024,-0.015058062930556549
1.2750000000000001,-9.90236236294402,-0.0972068688641621,0.3120786883084473,0.026335201939667808,0.012960865996310899,-0.016097738823109622
1.2775,-10.057515050847867,-0.06662366215267351,0.39450361224728053,0.022810209734039275,0.009911903711548663,-0.01990909765216886
1.28,-10.0048662355423,-0.14203246349395798,0.19045786569768997,0.02476634778213784,0.016233394179877653,-0.017135442938314194
1.2825,-9.803537371553162,-0.2969351932997284,-0.12058347854647385,0.031328602860156984,0.015849737765795388,-0.014050155029891015
1.285,-10.104758499945078,-0.21508134179718,0.36513296826057495,0.03208025368052278,0.019242,-0.021518447609127894
1.2875,-10.221982862910714,-0.16166264474954833,0.5654530821891937,0.02904751493229797,0.019242,-0.02250387671622009
1.29,-10.226224509195513,-0.08957456707947206,0.5500159829156467,0.03014237815699668,0.020007628961482227,-0.022039903812774223
1.2925,-9.69764230383165,-0.052797301807565984,-0.12866197583749078,0.02822250859506144,0.020483065242671256,-0.020256570319912418
1.295,-9.872916842071406,-0.11939579892172687,0.0397333004871091,0.028479911572475685,0.01789451621659961,-0.017812763225348943
1.2975,-10.018872374578644,-0.2352693391916574,0.1714131214317939,0.030835584776579397,0.018907518326419268,-0.013835740836790365
1.3,-10.085367528932085,-0.2761323595827908,0.30811887158942997,0.031974638828967665,0.017009716320967136,-0.014784641839516433
1.3025,-10.19526145854163,0.03681722862542362,0.6603537577678741,0.029570206532358725,0.02433977251559994,-0.02330209369941167
1.305,-9.953496362046717,-0.017943401999166636,0.3764935724561787,0.02576400090568738,0.021580460381529755,-0.020066694286563342
1.3075,-9.905480756539687,-0.06776648252618712,0.10455694650320846,0.02540500910543881,0.010832721474124582,-0.017076933412987695
1.31,-10.014602641322625,-0.1677415524042064,-0.022883312360938112,0.02637151942521632,0.0026599139925834628,-0.017719328553770203
1.3125,-10.140746000501505,-0.14531929488465395,0.46971350551654967,0.027194970912738214,0.02254023671013039,-0.01775014142427282
1.315,-9.875578474638386,-0.22625991635165316,0.25314855671810466,0.03348730982963662,0.027871928113146854,-0.014156913384763829
1.3175000000000001,-9.8526218982353,-0.2473426562984208,0.06303733235293624,0.03065364230989921,0.007235997360113301,-0.02138221624103359
1.32,-10.086265485276147,-0.1297856627543372,0.09267961371671113,0.03050198233639723,0.0072098080854742334,-0.024153369908083935
1.3225,-10.076235221622673,-0.06080677279163106,0.14496952132830576,0.034167091327089186,0.016899147772777078,-0.016928644627174267
1.325,-9.866523581350588,-0.03680501042915786,0.19147895585358077,0.03261793237614394,0.025413011659829458,-0.017185430672136282
1.3275000000000001,-9.902595264246411,-0.06337313318011513,0.34446175301126736,0.026624243114446146,0.02519787224827996,-0.018199749308943112
1.33,-10.002725692132968,-0.37981082529837074,0.20589453684904635,0.029493248969647147,0.01615026263885999,-0.016309657105100194
1.3325,-9.737821142060705,-0.44970362285360366,-0.2911242804239832,0.037759743225273645,0.008434434972812939,-0.018073522301603702
1.335,-9.745499544574752,-0.15952874719069826,-0.11401718441440437,0.03419703829586551,0.011967906326049285,-0.024905371910076923
1.3375000000000001,-9.776741827608063,0.13246980197285302,0.30052807999043213,0.029628398613021,0.02500578072577233,-0.022481534644586305
1.34,-9.850941414900463,0.034285927145330755,0.2536847478926272,0.03211772443115928,0.018017363646798366,-0.017024576385484373
1.3425,-9.965007998659708,-0.1614550173558361,-0.040514183430865325,0.031595167828092734,0.014818120077698178,-0.01613139221075636
1.345,-10.087613082343331,-0.24769793448719898,0.2307770195445224,0.027172405792366943,0.014661,-0.019387618099575902
1.3475,-9.953378450285928,-0.30036649472255705,0.22213028245215352,0.03310311716016486,0.02142822862369785,-0.01622719825054508
1.35,-9.787061516610123,-0.35352703663678403,-0.06227848975043415,0.03029048417736845,0.013668080215652741,-0.019719487351587232
1.3525,-10.077960940129172,-0.05396024023153624,0.23766044106019993,0.030465563353643744,0.012494577779673536,-0.03018425784791606
1.355,-10.032128866427005,0.06291330470631162,0.24224332897635872,0.035344265727516415,0.02137348386790147,-0.02315946311235686
1.3575,-9.78654442810379,0.06722776494363182,0.049944163504923554,0.02914448781389819,0.014736132798091234,-0.02153970789859825
1.36,-9.733826042247538,0.0934005721586649,-0.04128663941068057,0.022649133349239233,0.015691203213838392,-0.022208319735162567
1.3625,-9.776261493264759,-0.05242894734264453,-0.07461846431545434,0.022193850746999807,0.017165039186872427,-0.020064822777369515
1.365,-9.861790598364992,-0.18119359644145278,0.07461294176484606,0.03126004720750181,0.017578603327723003,-0.018695171200769405
1.3675,-9.99562963890358,-0.04072374349603616,0.4206631915364184,0.03149099109208944,0.020273789055061248,-0.022160337958162933
1.37,-10.065758,0.07570996428054999,0.7026207860567251,0.026274512400513,0.024176788712802183,-0.02175258079589197
1.3725,-9.862349015513953,0.03434707901014995,0.3063530135659748,0.023453346757614246,0.018095986878172335,-0.017815524232233426
1.375,-9.681280356732435,-0.1701973266874351,-0.4734480815507096,0.024970519349255798,0.0015129970924195224,-0.014991256767047422
1.3775,-9.911707201199027,-0.20447911981723707,-0.035160009464876074,0.024083458170993444,0.0038409882533748207,-0.016875717338871544
1.3800000000000001,-10.215846128265204,-0.11795038842144712,0.5578475702162159,0.023762791049078347,0.018962342984147028,-0.018705513792004937
1.3825,-10.034769196969314,-0.2598605753293486,0.29791532356346556,0.02573887912501536,0.021823019782475722,-0.015624067882194644
1.385,-9.995724298546822,-0.1520718469151262,0.15234835814594416,0.024579730917632315,0.015015522229877832,-0.02109444719699345
1.3875,-9.937005330879604,-0.02314424214597801,0.18538848194634938,0.027558986749843938,0.02083711141609458,-0.016879443643169262
1.3900000000000001,-9.866133642839754,-0.15320361174286992,0.2822421310282466,0.030122084462474746,0.022755,-0.014413457768762628
1.3925,-10.032115681713655,-0.15159453954550822,0.49062731410406824,0.024014917044579354,0.02262821272072519,-0.019491908908481556
1.395,-10.091264408623054,-0.2317462956884736,0.35120378726459206,0.024930971549883763,0.020848928398831134,-0.02069419143419403
1.3975,-9.855017465716504,-0.349869767141748,-0.10895405744408682,0.03190251059454937,0.014832857258035747,-0.018116053889915953
1.4000000000000001,-9.745040507952565,-0.26865559887746404,-0.0968477805533544,0.030100330403161873,0.023410970213439332,-0.024343000584980658
1.4025,-9.785038624819107,-0.07933922369029656,0.22408239218525303,0.02861691222865411,0.027489,-0.02545815821997097
1.405,-9.802128,-0.044237,0.292324,0.028558,0.026169656062747116,-0.025045
1.4075,-9.850733711084848,-0.08490476453793314,0.3105687895627506,0.02873599340108721,0.02249408453793437,-0.023337288442448645
1.41,-9.979996539541474,-0.19305728723232932,0.35908928336563306,0.02920935198298273,0.015303247232333011,-0.01879577220515259
1.4125,-9.652928939117698,-0.2471650539720796,-0.2106559742719194,0.026573,0.01783313260382578,-0.027568567396174408
1.415,-9.700462428961776,-0.22660879677678267,0.0514410089240247,0.030872560712600416,0.023904211708353103,-0.023837953633789398
1.4175,-9.725011,-0.255858,0.148852,0.034208,0.02129042947569727,-0.020769
1.42,-10.098574136485162,0.11078576287422652,0.29272147458040265,0.02473422869101,0.023213,-0.027926012607303135
1.4225,-9.96204318220798,0.09003871382019991,0.10064095839845502,0.02593103388426227,0.023213,-0.023566462165278496
1.425,-9.874654620242337,0.06786286813970022,0.12050588766928481,0.02639629208838203,0.025770644903777718,-0.01964051617961505
1.4275,-9.896760480617274,-0.15239665708976213,0.3329124566728603,0.022676279353639833,0.02541893300799872,-0.01796564003231801
1.43,-9.930254178448212,-0.37791295328761876,0.16041615695418204,0.019205180599061743,0.02237536119812349,-0.021171366091663472
1.4325,-9.83762916861117,-0.39296833220524374,-0.2659935741756142,0.023555084998860047,0.02605332144127736,-0.02577816072063868
1.435,-9.800065078977099,-0.09821485071133046,-0.10882497561867238,0.028669073500040568,0.027031,-0.027370048351541665
1.4375,-9.779997212955594,-0.030479407766990287,0.15373915533980584,0.029894962836224732,0.030117773038357474,-0.022735465064459653
1.44,-9.798510756189444,-0.08192739817473971,0.2940268136721454,0.028559212521626347,0.028831819476643768,-0.018619931898788935
1.4425000000000001,-9.77983192402667,-0.22638515985125401,-0.039504384365247724,0.026911443339317716,0.0192076623647084,-0.019330652203129073
1.445,-9.815254881475411,-0.18077364845708543,-0.06320085279652665,0.028800587637415682,0.020511594561234418,-0.020858295159112864
1.4475,-9.869420348733767,-0.2885194107792215,0.12908498623376713,0.03294588113636365,0.026972221785714314,-0.016708773409090882
1.45,-9.836350060053359,-0.25370963143342373,0.24295992389036952,0.03570663725442635,0.027600313073005107,-0.016555674508852754
1.4525000000000001,-10.048393582487812,-0.21731126603115491,0.26778752456637955,0.028758624766332827,0.024387400558009545,-0.023586147612183715
1.455,-10.137398106326234,-0.10907076977719596,0.27089873857212565,0.03037667554399101,0.023671,-0.022902061291266797
1.4575,-10.01858894698074,-0.20799025189877596,0.10361913666719538,0.03473911010663699,0.023585866445965303,-0.021991
1.46,-9.84509608964137,-0.28893442598832453,-0.005896506698439941,0.034518013897295446,0.025841950511140167,-0.02172296440843561
1.4625000000000001,-9.909009064120932,-0.26595253209228314,0.11922166930788444,0.027915420111375912,0.029361351312649313,-0.021533
1.465,-10.006120135428171,-0.34284614246607925,0.17416660335516873,0.028260766972391486,0.030585368170332226,-0.021269368170332224
1.4675,-9.865494,-0.315638,-0.001793,0.038485,0.030238090969843232,-0.024587
1.47,-9.865494,-0.315638,-0.001793,0.038485,0.03448741675030152,-0.024587
1.4725,-9.82875752482556,-0.2060967338536172,0.08871186918222566,0.031317929225145376,0.0377651032663116,-0.024672475238019548
1.475,-9.749442462251496,-0.1084605044112449,0.013144874626503406,0.03017528756616903,0.03074148119044754,-0.02332253697212082
1.4775,-9.707704818376852,-0.20256672454481517,-0.05629307030345721,0.03220264486944246,0.024338854410726883,-0.022793291178546237
1.48,-9.980525750582734,-0.1376216878923196,0.26267656278229773,0.030493221478197805,0.02570606111066332,-0.025098691029257658
1.4825,-10.035700514042556,-0.16989622978723118,0.25971094434043085,0.03219998348936161,0.02790549225531908,-0.02067031353191512
1.485,-9.872211561057854,-0.14744998343324084,-0.025719293412417604,0.0347753890751724,0.023954522628626188,-0.019768120147459538
1.4875,-9.65172297930095,-0.22323028937812314,-0.3624714649114906,0.03096457063095766,0.027644445619609766,-0.022283584748070878
1.49,-9.714443183409019,-0.23051676380556452,-0.3385455290246246,0.03168921434601854,0.028273566338343464,-0.022907
1.4925,-10.125912235631498,-0.24316470803698859,0.24482441066133886,0.03407757417768928,0.033427470326582956,-0.022788419005033367
1.495,-10.429121316244908,-0.08195298591252778,0.8732119999767011,0.038236618588921474,0.040446945212828274,-0.023411763988338226
1.4975,-10.327425141281637,-0.1895967795211001,0.702955505669316,0.036620150476624765,0.042484339712656784,-0.02144915601368294
1.5,-10.016304623786706,-0.24519470377196215,-0.04519429131342917,0.0341963010197813,0.02954108440840398,-0.023557777368227055
1.5025,-10.065595683464798,-0.21284718416513154,-0.029790955945448172,0.03340912822705494,0.03386989060081082,-0.02365633500921489
1.5050000000000001,-10.104479937710053,-0.11758086905187633,0.25487199518055836,0.03469522040201594,0.035248779597984066,-0.022155658129854837
1.5075,-10.155400379941891,0.018082420288174167,0.40503068971716943,0.033081165675659614,0.036862834324340385,-0.024529487461606936
1.51,-10.120590535348075,-0.0033155536019657747,0.3558537658149055,0.02883543653398852,0.03877618932350533,-0.021116255714987698
1.5125,-9.991406003369628,-0.13335665405705813,0.15200995034570916,0.029594259699594633,0.035145508352539254,-0.016486913295716527
1.5150000000000001,-9.826605569009692,-0.36121414028501037,-0.17941768321879656,0.031307,0.02655232828643221,-0.01405
1.5175,-9.934644163271287,-0.2841359053969699,-0.06805647553220967,0.034540274303898305,0.02812908739538605,-0.02130340739856832
1.52,-10.29439421602067,-0.05175973534989217,0.6428159716015385,0.031505651759742646,0.04188195090017398,-0.02349090311026735
1.5225,-10.162170679069769,-0.09043534109159888,0.4540667620123425,0.030070170403417203,0.035632962145230276,-0.021802166568580944
1.5250000000000001,-9.958788105220494,-0.07294202075735906,0.10008597140405445,0.03033754290166756,0.032376,-0.023251958983949144
1.5275,-9.781158223454504,-0.05159255692153889,-0.11027703655049043,0.02966702742541962,0.032376,-0.023399711426422228
1.53,-10.119019884004826,-0.3393235040965026,0.28339131450905003,0.03465963296501811,0.029003860139927607,-0.018613082412545272
1.5325,-10.283857549047044,-0.41380275694089186,0.5646746724632057,0.0360117774089264,0.02726529836429435,-0.021993443522316008
1.5350000000000001,-10.020585587205236,-0.18151618623626997,0.10644715738661412,0.032156406594272165,0.03477567056801909,-0.029368672761336333
1.5375,-9.769252055405719,-0.06033746325775227,-0.2582114133055021,0.033684850011933234,0.03468057298329356,-0.026119713830548813
1.54,-9.716079054034497,0.02533970123419048,-0.2529988768846292,0.03221955669758526,0.025511080573399618,-0.023761695604446118
1.5425,-10.111209625203108,0.07707535408815878,0.3978878960069072,0.030368366464995692,0.023198859948141727,-0.01963368722558344
1.545,-10.173821180681855,-0.18283943524931395,0.35987732095906366,0.026438656001274617,0.02678148874621624,-0.019534759193882402
1.5475,-9.965311564794588,-0.45702098648408274,-0.19421522624459822,0.029852492081332886,0.026208800277432012,-0.02341924756417095
1.55,-9.795122626391603,-0.4443869790147606,-0.38707140776572757,0.036592494196455154,0.02715798253601282,-0.02303945034086193
1.5525,-9.84817784952381,-0.21979570767735784,-0.14355612190476363,0.03649357792031099,0.02689779832847425,-0.026708056209912515
1.555,-10.112198197551011,0.0404377608163222,0.34068449836733466,0.03240325918367358,0.03345599469387718,-0.02608605959183693
1.5575,-10.222470224645098,-0.1330353798165291,0.457617919014965,0.03613604378561116,0.03246878225012031,-0.015434610024142406
1.56,-10.04684253056331,-0.42094885164915075,0.21132508242271503,0.0359643627867566,0.028773519347246135,-0.017206324092264327
1.5625,-9.908281245729304,-0.4251580822930355,0.05561333754927726,0.03526041639290408,0.027794,-0.023725736366622865
1.565,-9.785062879028228,-0.39840871088721946,0.04019357238537433,0.038728078547099996,0.02927249630105984,-0.02576197501012275
1.5675000000000001,-9.677060583566389,-0.219339549312363,-0.20397922615973127,0.044496671785508146,0.02138194096844965,-0.02620621180631007
1.57,-9.961470894261426,-0.07915012902046964,0.1830697784567057,0.03903422500787383,0.019548,-0.029711399042519775
1.5725,-9.973594427338583,0.006745380220472691,0.09433566425196704,0.03361152762204723,0.027708891464566975,-0.026606484094488167
1.575,-9.688041079903542,-0.10893272697748937,-0.32814376090031394,0.03464702909967843,0.026042306655948626,-0.02122828919614157
1.5775000000000001,-9.594751684811063,-0.16971040475861346,-0.14414053265941118,0.035277,0.028211576812492808,-0.019548
1.58,-10.06135342787732,-0.3664236702153477,0.46174991520835196,0.031144073086603993,0.027184,-0.02186739014449521
1.5825,-10.087941237061619,-0.4806653753705611,0.43399300292346393,0.03457758031136387,0.027184,-0.022240310573319662
1.585,-10.05075303048241,-0.35468558525934596,0.24957636221980958,0.03888636354007972,0.02905938684076889,-0.02560404943054034
1.5875000000000001,-9.884026,-0.164993,0.147059,0.036194,0.03180071376975124,-0.027031
1.59,-9.961952416746053,-0.2335799640769715,0.20980877564488884,0.037386971724138005,0.028160061851781337,-0.02647174110497234
1.5925,-10.12137881872738,-0.3738991698380659,0.33818592134120923,0.039827622758620715,0.029532959272242348,-0.025327576685082863
1.595,-10.132876396528966,-0.3942338636325883,0.32388626989153185,0.038833693302561784,0.030238,-0.030223475430417607
1.5975000000000001,-9.878886059748876,-0.2823935513188982,-0.020594548473060803,0.041812764285543855,0.029858990898003077,-0.029632847925385248
1.6,-9.566227896063833,-0.31515640946807916,-0.43841596950354333,0.04560250872340429,0.025436385035460873,-0.028932297056737607
1.6025,-9.648472322503547,-0.14807400424822456,-0.36098743200945516,0.046454011929078026,0.022029132761229267,-0.02940514781796691
1.605,-10.136485932414447,0.03248824416907289,0.6333830651999819,0.04731339326170306,0.04047,-0.02423335467600703
1.6075,-10.077739470700054,0.0132027243924841,0.5194497513097017,0.04473600169262089,0.04047,-0.02067076721541166
1.61,-9.834708234960223,-0.2177502726837046,-0.1362051077038216,0.03488481062622846,0.021825899017130085,-0.01920249987831162
1.6125,-9.965730802198095,-0.2653045897717718,0.0061978984888107925,0.03327889651229786,0.02380989651229786,-0.023283625145136183
1.615,-9.97684296611921,-0.3408638657194768,0.045088845793042176,0.03625942674230001,0.026790426742300012,-0.01810324612984713
1.6175,-9.975431669032753,-0.43743423607006143,0.09389920280273836,0.04216309279512486,0.03147909855293172,-0.017023511500379913
1.62,-9.979269408099016,-0.24243474703902326,0.13589470161853484,0.04099517891462997,0.034514,-0.027628208416376015
1.6225,-9.853306112029086,-0.12085202257454472,-0.1120180320581903,0.04149973570909101,0.03463985390545455,-0.025005777338181663
1.625,-9.741492073941867,-0.25074458592554816,-0.10940293421723611,0.044101639979602245,0.030238,-0.022887829678735337
1.6275,-9.847267925327522,-0.20308738762041728,0.06611530086504655,0.0377176296842985,0.030238,-0.026005703891335524
1.6300000000000001,-9.907937,-0.175753,0.166786,0.034056,0.03316821984601824,-0.027794
1.6325,-9.732704164947904,-0.4476665427326169,-0.11771613267394176,0.044217843362471934,0.03298640686384855,-0.020590412099149535
1.635,-9.723301085394468,-0.20825362331699482,-0.29056210013596884,0.04977311949407116,0.02566562926798416,-0.02765504721581031
1.6375,-9.929009825616916,0.020056495370149613,0.21416467647472098,0.040098013254994416,0.03248808216216191,-0.03298583440658044
1.6400000000000001,-10.077114,0.044237,0.220588,0.043219,0.03404332578180912,-0.018937
1.6425,-10.077114,0.044237,0.220588,0.043219,0.026302286679398205,-0.018937
1.645,-10.118647683000473,-0.0731550547515399,0.24083979029815458,0.037080875863700805,0.02626555800283963,-0.022181190960719407
1.6475,-9.990821364361997,-0.20721069696277694,0.061001950510171904,0.03615546301819471,0.029821580497086445,-0.020835232365322948
1.6500000000000001,-9.700027926796484,-0.34246266208459186,-0.09282816744075756,0.040921018156228,0.019853,-0.02229765353037796
1.6525,-10.024499435098923,-0.11552864546406344,0.1296947624020714,0.04079557275158339,0.019853,-0.027807412479474724
1.655,-10.077712,-0.078312,0.166188,0.040775,0.029439450214012654,-0.028711
1.6575,-10.006592910500057,0.007506150331471451,-0.15242859830048472,0.0404117468914455,0.02856812333067555,-0.02435037643923005
1.6600000000000001,-9.897643398355251,-0.05943107618775441,0.02646083169974768,0.033397319859749454,0.030332452941270592,-0.022319922489441223
1.6625,-9.966057816319717,-0.2260186902833327,0.15562213166716257,0.030931686310766714,0.034016931524008205,-0.01887466289293153
1.665,-10.059531502346557,-0.34865736222129606,0.1223454018705632,0.03761780467640928,0.02981387114822541,-0.014002990680584483
1.6675,-10.187625807625116,-0.19016585466217537,0.3902650772606436,0.040641224193568165,0.02756783234548234,-0.024597914945176103
1.67,-10.101616240791428,-0.07958074949096794,0.33190066267197715,0.03750224048024511,0.03433588460398143,-0.025284547560183748
1.6725,-9.989183809985285,-0.0461673435600318,0.14867128493831802,0.037609088831051324,0.03193754407604364,-0.02094173673871197
1.675,-9.82060319557884,-0.28736275500246133,-0.17561546693958355,0.03468906526936296,0.02217294727362025,-0.01864489651219909
1.6775,-9.876887931182592,-0.2906234606149484,-0.2779667803216651,0.027838409271523208,0.017764468174077584,-0.024416172384105927
1.68,-10.131746612645406,-0.20651223952300019,0.0181139088439925,0.03223980163543425,0.029604947150157844,-0.02689412197614988
1.6825,-9.9496040589876,-0.47240230984250914,0.17937563481544172,0.03806532510761115,0.0374938221762657,-0.020553239119874535
1.685,-9.8332580058132,-0.34676277910739417,0.0051935743598963136,0.04296449109355019,0.032833577391435116,-0.027986218023632325
1.6875,-9.80153,-0.277379,-0.069943,0.044746,0.031820893374613,-0.03146
1.69,-9.935328187250903,-0.11056545857430941,0.07124045884816402,0.039529874886830574,0.03084990052033833,-0.030016809072895726
1.6925000000000001,-9.989431677883085,-0.14625103425207497,0.15659621929476075,0.04186347207158408,0.027755055856831842,-0.026200475596632834
1.695,-9.933342398881496,-0.14329857707423319,0.28538150016130304,0.04026100942603163,0.030959981147936737,-0.02874552701713081
1.6975,-9.540502234611552,-0.13207344743027882,-0.2816577092280911,0.043094619626494045,0.03233112253984064,-0.025065888969123484
1.7,-9.443756062600855,-0.22098822074038738,-0.6548198467014659,0.043677,0.022144193592786153,-0.024282
1.7025000000000001,-9.76142403560084,-0.002496680325847267,-0.3103584797555687,0.04119061841140511,0.024235718778004494,-0.028992587861507473
1.705,-9.883677102410962,-0.03662381227397505,0.1960747684201052,0.03926337867884318,0.03934275965905677,-0.024164800499238786
1.7075,-9.801563779870941,-0.11034023864945916,0.04442351134823895,0.032724868407467064,0.023518,-0.023512279930859695
1.71,-10.019982236514592,-0.22038557484915217,0.2756214054280085,0.02677898320088296,0.023433112447878345,-0.026766481687515352
1.7125000000000001,-10.205635099227383,-0.33454456092715845,0.43590603322296656,0.029724486423841217,0.02323700275938189,-0.02509729889624715
1.715,-10.082725021223183,-0.37878477351407497,0.02301014487200398,0.03792912952715123,0.020972029787098237,-0.023324174094569754
1.7175,-9.852873025020195,-0.25663408416387556,-0.29958243800577294,0.03699647066128095,0.022174050682054275,-0.03069065395499147
1.72,-9.886503321082305,-0.13628811860661166,-0.10458902301361273,0.031311939598185415,0.028482267394685606,-0.030822749235256016
1.7225000000000001,-10.0789329607533,-0.22445359911406926,0.21815690933556406,0.03911912810138657,0.030696,-0.02265090342295329
1.725,-10.058617620805244,-0.21191760557113168,0.24599422090067818,0.03649483645690404,0.03124257286012534,-0.026296676790933504
1.7275,-9.927379562393078,-0.250055374838056,0.026516287358183566,0.030095176670444288,0.033344103048016736,-0.026678830048314946
1.73,-9.956775142352205,-0.21544582389740413,-0.09481040684391541,0.03570704648420389,0.03458852205817954,-0.023863011229277472
1.7325,-9.818898428150813,-0.44671701588508805,0.013980979059239673,0.04374214657091538,0.03231708764093369,-0.0194676108581689
1.735,-9.831914360900386,-0.4707690723307778,0.03171733047254094,0.03883270881226026,0.030000720312899028,-0.026945328180077
1.7375,-10.116944349098398,-0.1927146509016025,0.3588565980636661,0.03222704032433729,0.028156303521723314,-0.03448666990197277
1.74,-10.063884686420247,-0.18231864293251518,0.1303679009263815,0.03535003804601225,0.03205358373312882,-0.029657427119631923
1.7425,-9.84372776150669,-0.2807656030716857,-0.18157494742162064,0.04017709017253936,0.027310630556500858,-0.028450989671931912
1.745,-9.899928752950512,-0.2721524218432727,0.17353320455903015,0.036060980126903314,0.03359679838832526,-0.03087396255710671
1.7475,-9.92003514533416,-0.4049485796701845,0.2606511783459367,0.03869657105021714,0.040285006264104264,-0.02776928094730303
1.75,-9.76495559602649,-0.3350599394512772,-0.005088971617786209,0.04355323651844844,0.031150714285714285,-0.02891966982024598
1.7525,-9.721640949050421,-0.21133604817560325,-0.26600702700174433,0.04248989529505336,0.022195714833784165,-0.030480701568315546
1.7550000000000001,-9.89489446948707,-0.055689561621877215,-0.025575971099133066,0.04047,0.027698243917929626,-0.0301401072789447
1.7575,-9.96170733262893,-0.21654697277988202,0.18563835256260602,0.049192732230989446,0.03494093885877648,-0.022142004235562916
1.76,-9.8488915287166,-0.3783050487421238,-0.06961050769402671,0.04706887605328227,0.030202703208103993,-0.024335941348009905
1.7625,-9.815553045914774,-0.2600032843511031,-0.1192044929464624,0.03934315029743855,0.027481637902148862,-0.03171828978997192
1.7650000000000001,-10.035301116556887,-0.2751045218457695,0.24624453380082206,0.04467926063988717,0.0325145650247625,-0.025011322295416583
1.7675,-9.88318192849796,-0.3929865457104238,0.12137359891744476,0.052536866630582095,0.034514,-0.023556416725304535
1.77,-10.156143304497082,-0.06213206922985402,0.4708264122937722,0.03784331274372097,0.03492953155576719,-0.03310820743720983
1.7725,-9.981917553010359,-0.12331668477562108,0.13729848858945842,0.03641354984882754,0.03721677774074512,-0.02929633848827526
1.7750000000000001,-9.762136800994435,-0.14546308988149578,-0.4556242817104842,0.04439365101516585,0.02229184715339259,-0.0228694474020051
1.7775,-9.793599299242304,-0.05741229677327557,-0.24486782134307117,0.03919104986663482,0.04572247609111428,-0.02537048167119105
1.78,-10.041526459936668,-0.20273536560438907,0.330327437701404,0.03644633796864137,0.050396,-0.024687056831698445
1.7825,-9.930956183324811,-0.3975645700671334,0.2195756416080613,0.041152083398337515,0.05181693593030688,-0.02003471291240416
1.7850000000000001,-9.720469248175231,-0.3488845630894363,-0.14622666610969268,0.043843745868312,0.030270985540110328,-0.03024994778870276
1.7875,-9.864139874238832,-0.24899502473723112,0.2852111271987676,0.04036887578490528,0.03863214725706953,-0.02970671047670711
1.79,-9.87145962477768,-0.1698295303368969,0.2078889677735765,0.04765943868135415,0.03865041040443835,-0.02270566636970319
1.7925,-9.72641131362171,-0.3968683603757366,-0.16221345046967076,0.04066610409370299,0.026532655154818632,-0.025209737780354808
1.795,-9.793493168449178,-0.2317616196833624,-0.43264583473603874,0.034393543652521716,0.03055662604908452,-0.030081250932846956
1.7975,-9.829647471541406,-0.2103642757530449,-0.36144375363427417,0.04183929107174415,0.040640630427873976,-0.024709080913424546
1.8,-9.715062632232453,-0.2359351922197529,-0.11237106440139222,0.048056978056525985,0.04792988748809158,-0.021275666957764314
1.8025,-9.839966069554015,-0.34817173351804537,0.20316037836432013,0.042841489673107344,0.044844319222262764,-0.022502630083849787
1.805,-10.027979474985258,-0.36764765066614274,0.28833463356258493,0.04597985002161511,0.040762819382982984,-0.024039886657496533
1.8075,-10.08497814544201,-0.25903894526853144,0.07223966992217931,0.0528718027605559,0.039292503599949014,-0.023276251312667345
1.81,-9.95877605072851,-0.3178827614522489,-0.02468438582568435,0.047958304380588956,0.039859,-0.02444161596995361
1.8125,-9.978956794145702,-0.3832796722904495,-0.10689764516513652,0.0455715968761178,0.039859,-0.0295969791939907
1.815,-10.032638108119002,-0.35214465942755974,-0.0507245655663984,0.05166364973635381,0.040902521551237546,-0.027759044247359633
1.8175000000000001,-10.097954028853682,-0.2737392279669876,0.06847601664960144,0.060128167662188765,0.044302731587254035,-0.024049701991446362
1.82,-10.050755160351784,-0.22238673271007642,0.11227669294620916,0.05453378320824033,0.04980047600265058,-0.025400135994217247
1.8225,-9.913407356501269,-0.3631818699192253,0.10334756783752586,0.05245360993307177,0.042961887588275974,-0.024778064057235167
1.825,-9.848910629952757,-0.3053381901732301,0.025310030110237733,0.056004842614173156,0.041386,-0.026124137826771622
1.8275000000000001,-9.927165151168351,-0.24816712354951828,0.11452029299930652,0.052474739227346856,0.033554465427299805,-0.028208932212596693
1.83,-10.053460191910846,-0.24347556272977808,0.05202738885548652,0.0458007081993487,0.0317925836013026,-0.03149281807663424
1.8325,-9.863965169047502,-0.3500777718419172,-0.3688649705325381,0.05089731971576854,0.034306501093812364,-0.030047791022754462
1.835,-9.827632636019187,-0.21070730908452218,-0.13432713695561477,0.05787922058779812,0.03808403064117282,-0.03201089139382477
1.8375000000000001,-9.941556971812723,-0.15014480118910561,0.12316801789069676,0.058419767502195824,0.04316928064320005,-0.030171048226471087
1.84,-10.181456051839373,-0.04425737711967832,0.39256388406203657,0.05893329009622268,0.03917581674751474,-0.027827278937574473
1.8425,-10.10247148868429,-0.1693569590171099,0.10383494208086491,0.0596025776080871,0.03591190810575425,-0.024858955636080836
1.845,-10.001030860728566,-0.3877341639789015,-0.12176108603459058,0.058795445931558964,0.034667,-0.024805526005151436
1.8475000000000001,-9.912801734956512,-0.42549824521738916,-0.136633132637688,0.059341148637681286,0.04077120313043531,-0.026544143072463805
1.85,-9.89216609798784,-0.3574416992044887,-0.05508841394477179,0.0621027596630792,0.038912013196068775,-0.02723956789892375
1.8525,-9.97515037219264,-0.05627304489408963,-0.041378414866881486,0.056018566110519315,0.0372692369045084,-0.03381046228375354
1.855,-10.098635942827496,-0.061429328346303005,0.2143408181744465,0.05094233251945528,0.037874,-0.02919955686770433
1.8575,-9.874924256457662,-0.21124483480111778,-0.0767528524192631,0.05681704016846016,0.04313350368273258,-0.02164296987365488
1.86,-9.873172559441862,-0.35029141342472975,0.0773831885238781,0.058185,0.030613220308444926,-0.020617
1.8625,-9.78967073831603,-0.4526003885121123,-0.06034818006920964,0.04834622671280252,0.03372909568627471,-0.026960029250288512
1.865,-9.643031933161897,-0.37770478518541784,-0.6703770600580181,0.058738473699725596,0.027881664473539763,-0.02828038423833788
1.8675,-9.868099201429082,-0.2553674748177598,-0.21486491634790042,0.0591110752363768,0.03579022087333072,-0.03423439926380368
1.87,-10.10486950382775,-0.07439635022734706,0.24962788904128047,0.05747381835197876,0.04436248419102647,-0.034330893987730066
1.8725,-10.178741,-0.017934,0.394548,0.056963,0.04790413983627207,-0.034361
1.875,-10.040468273049646,-0.0872945780141844,0.17351396985815604,0.05487148936170213,0.04046439273049646,-0.028488502659574467
1.8775,-10.022514340829243,-0.15654464221494668,0.12649251554282698,0.050066231096563114,0.03271090830060028,-0.031000537225859194
1.8800000000000001,-10.035851004510722,-0.0026247472674426897,-0.14364685380301243,0.04959354163791714,0.03278464843462846,-0.02915341939061733
1.8825,-9.942322128595384,0.0035787734730939394,-0.2548111764220831,0.051577196072676516,0.033010009252271134,-0.02529479545772176
1.885,-9.939347966764105,0.029140915995599707,0.10939804408612436,0.04575016689297499,0.04753769890931956,-0.025511638909319505
1.8875,-9.780009739479159,-0.15300736415209157,-0.16013336354076413,0.04207423553001593,0.05197816674410077,-0.017508688323756183
1.8900000000000001,-10.148042682511752,-0.24629058209821328,0.2854205985972843,0.04560582458176688,0.04002404046287635,-0.02285652144031959
1.8925,-10.224630491233555,-0.22640742781249942,0.4835173252138214,0.0448531460855263,0.04830165610197392,-0.023703438733552656
1.895,-10.021902315315868,-0.2658673032973809,0.2741081720801213,0.04719647026194147,0.04903439365177196,-0.01959183365177192
1.8975,-9.452368845601512,-0.5510930990640523,-0.5898708490805964,0.04240575302765303,0.03958209489482398,-0.024731626731269156
1.9000000000000001,-9.482740003096197,-0.45701555922949155,-0.5391279243441239,0.04278431597731035,0.035229550342708346,-0.028043278066651085
1.9025,-9.591467331911383,-0.3492484508599287,-0.40673034912504136,0.04586786942546015,0.036131627067217544,-0.02978642678182504
1.905,-9.740546952336132,-0.23443141327324948,-0.23228181337505555,0.05034445374222894,0.03973975752659911,-0.030721819400008357
1.9075,-9.848513635142877,-0.12690164400188048,0.051120045784981416,0.039748703844550495,0.05497005894977479,-0.021898248614267472
1.9100000000000001,-9.729662096445901,-0.32835965169906345,-0.12926491905601778,0.04297839970685152,0.0520632621717204,-0.02103671437638669
1.9125,-9.81206881095595,-0.44663054896998977,-0.09198020803949833,0.045344839719157544,0.04264392463544436,-0.020343530807808017
1.915,-10.029132348222554,-0.4589725445593294,0.030322301250616968,0.046872319310684404,0.03615590857705565,-0.02214985356967018
1.9175,-9.908126797592086,-0.3025625849946373,0.026035404048158704,0.053146240195494035,0.04385763468351405,-0.025354291357730346
1.92,-9.825482131738465,0.0048985095223378905,-0.06631277289581877,0.05148570918936402,0.048955865125676755,-0.02827113932271874
1.9225,-9.883267869166803,0.025047099889323743,0.1016194218371652,0.047984927607904994,0.048210225713833876,-0.025455755402371334
1.925,-9.894655615628297,-0.10201092615276568,0.021104095318541738,0.048153897923266534,0.042293954828112004,-0.021183571723571454
1.9275,-9.94173268632325,-0.27099000820415814,-0.018803947712665955,0.04703813706049151,0.03798737844990549,-0.020672279253308126
1.93,-9.616684437799645,-0.4392317139634222,-0.45954662954351033,0.04389012996687938,0.04994136772044372,-0.022136050396966343
1.9325,-9.603745977349396,-0.4870727108433755,-0.5555301146987993,0.047579498795180884,0.04217809012048159,-0.022443581686747
1.935,-9.668709536106114,-0.44836691199431267,-0.37641019650401647,0.04708901029843666,0.04250096526764586,-0.02968224374230254
1.9375,-9.990428015347433,-0.3344327985498489,0.15815075057401812,0.05076975335347432,0.04417292145015106,-0.030416080845921453
1.94,-9.999143771401842,-0.21880092320552397,0.15150515180368263,0.051837098815950916,0.052183169404907775,-0.029232968969325167
1.9425000000000001,-9.73130749044515,-0.3312266006173708,-0.23752972353018076,0.05218343985698105,0.0405318797139621,-0.026332197394672668
1.945,-9.819089566726657,-0.4589777871068502,-0.19046408890054112,0.050847491172158955,0.03785998234431791,-0.028909116186162986
1.9475,-9.956379091929575,-0.4359978108256004,-0.33253854768498775,0.056702140547228205,0.03468675636926004,-0.02902270156078991
1.95,-10.188336491285774,-0.3009991197092256,0.12911777286686849,0.055778394529759245,0.04284695760109024,-0.031367461517492
1.9525000000000001,-10.202475565675616,-0.21827213497827136,0.1749272920065493,0.05639313551392556,0.04798313820072674,-0.03293547281145387
1.955,-10.170593321067983,-0.1886910176334984,0.21673155912021197,0.05418203472124188,0.04813502314749459,-0.03164202314749459
1.9575,-10.144808524498957,-0.23537221790751917,0.11351130630687917,0.05181663664908622,0.04179629335949952,-0.030238
1.96,-10.024302723653141,-0.17773961609195507,-0.18104573774336896,0.04966845346156857,0.03473193590742054,-0.027914475965282702
1.9625000000000001,-10.17531387833139,-0.2841155130434888,-0.12369289673324227,0.04786920009400697,0.032001279576968245,-0.0291549611750883
1.965,-10.234765351039094,-0.37461183304019735,0.05022701711948921,0.05473412882875823,0.04222527268150751,-0.026083435585620887
1.9675,-9.946072457599994,-0.4431632336000007,-0.2114816032000053,0.057297937599999994,0.046663924800000006,-0.02647397600000003
1.97,-9.927432184217587,-0.26630676861886704,-0.1379827029035745,0.0545103785941364,0.0442783785941364,-0.03474020528435167
1.9725000000000001,-9.97248416745986,-0.11336070291727286,0.0013372265089434537,0.056644238669636984,0.046837085813042814,-0.03180901570320242
1.975,-9.88043225841053,-0.23531265236471124,-0.1693130220380399,0.06026002642613365,0.040629437932715,-0.022610015212091383
1.9775,-9.934908025154083,-0.4257167154033168,-0.0010315040834812939,0.054622496319214106,0.039231426465316264,-0.028260522696132773
1.98,-9.962756712118821,-0.28726224241355425,-0.059103638291946294,0.05724017465769317,0.04567460827106053,-0.03161084784404733
1.9825000000000002,-9.797127413350802,-0.31130773334605605,-0.3846753575158208,0.05789093004172123,0.03714211776373725,-0.025980942243413407
1.985,-9.832274017649729,-0.1533428572385805,-0.3541327613499472,0.05361797843638699,0.034819,-0.029140299067659647
1.9875,-10.016543460334802,-0.2857088441173031,0.1604408342633391,0.04781998031580186,0.04668585385254691,-0.029300818995607224
1.99,-10.074909552483758,-0.2738172933130165,0.2548444336546635,0.05389267266019726,0.04302456665650817,-0.025756335565001218
1.9925,-9.968958884694569,-0.29541304452781647,-0.11355176015711343,0.05256540664422011,0.03282540532307228,-0.026965298964245547
1.995,-9.90735994334711,-0.26114250789255655,-0.4030831717355387,0.04659172818181791,0.03691551819559315,-0.03236057206611602
1.9975,-10.074595189752944,-0.22229717560086362,-0.09662953307266914,0.05300459386903361,0.043677,-0.02612717604221608
2.0,-10.036683234732154,-0.45976873209471336,-0.07638527423514241,0.05883764705192826,0.04618804137850194,-0.022938933946782324
2.0025,-10.463588625875035,-0.3580017947977984,0.5327456882123889,0.05442627761809879,0.05275777378970798,-0.03232400257648556
2.005,-10.55088280143926,-0.1830017262856313,0.718397922171624,0.051485795284190526,0.053756,-0.02888537673618875
2.0075,-10.123537068988835,-0.4069262120718047,-0.039772104852278,0.05669655010726708,0.03970445689767524,-0.01935027026154106
2.0100000000000002,-9.841147976817194,-0.3145736305036485,-0.48310163954602103,0.0514203544100253,0.03394204156065234,-0.02725379818396887
2.0125,-9.816862192521114,-0.2767157590052152,-0.4973015463009224,0.049875805108637455,0.03501333116358442,-0.02997836873765452
2.015,-10.041135351738204,-0.3864603746417724,-0.08505574653795756,0.054835782354103316,0.039110949263781856,-0.02494637132339713
2.0175,-10.223322796858481,-0.445220291145028,0.24959671224896396,0.05938245338813861,0.042761,-0.021516678878450067
2.02,-10.062264576221542,-0.2664696814785264,0.2845419058812515,0.05587241498709217,0.04630151394977711,-0.025343515320347315
2.0225,-9.76983342010854,-0.36539613676862165,-0.16491770083866464,0.05881983177602355,0.04276201088801198,-0.01891629504686741
2.025,-9.682676328910329,-0.5965129447888573,-0.3592425887078887,0.06322558633560006,0.029149082049660473,-0.019084970425430916
2.0275,-9.671547956372372,-0.5356467533069189,-0.48860325241080227,0.06123550456696724,0.04408225662462295,-0.03328804593393277
2.0300000000000002,-9.98327124101059,-0.21887684287812498,0.011747791327209711,0.06308893405820304,0.0478,-0.030183906415093692
2.0325,-9.804025744160745,-0.3518613041419649,0.00010537080858105674,0.06578532989166296,0.048741538577484804,-0.02467627430365795
2.035,-9.623710569044407,-0.41303302626446337,-0.20187717736487024,0.06170224683397617,0.03984527699806833,-0.02910457524131361
2.0375,-9.73246703536449,-0.329160994691589,-0.08491106284111372,0.060609473420560896,0.03667855162616841,-0.02950609375700911
2.04,-9.685328516570015,-0.31400200784485177,-0.2770127068999012,0.06559384890959225,0.03449509530943998,-0.025288648320182485
2.0425,-9.751207556484399,-0.36699303451913734,-0.3158615207237065,0.06456248782566745,0.033383175734963,-0.02596099273721452
2.045,-9.812082898672504,-0.4309127504157541,-0.06594949570387587,0.06392479281546307,0.04019560872720605,-0.027336
2.0475,-9.702327169342395,-0.43568210515756545,-0.060476184427983165,0.06871582321613103,0.04348980488398063,-0.026041311537136642
2.05,-9.532276473954768,-0.3901632902759729,-0.45162689913535725,0.07456300388487465,0.038332,-0.023980635816652916
2.0525,-9.839654540439982,-0.22877848225197578,-0.03936042002543453,0.06409166459729733,0.04728041364038593,-0.02955415096297171
2.055,-9.955518343894317,-0.12355167877582504,0.17717074638629346,0.0663234074686384,0.05310315280043671,-0.02683691505242089
2.0575,-9.590082497398159,-0.2538736253516053,-0.5091229786396693,0.06361326773278356,0.050568731648884556,-0.021215050824442333
2.06,-9.612502674468963,-0.3686315473690616,-0.48442334379970853,0.060021182999514956,0.05008309145489815,-0.0222829507274491
2.0625,-9.855501707438016,-0.34686925667060214,-0.18988402975206614,0.06027391286894923,0.049938,-0.028258688075560805
2.065,-10.179894505129996,-0.37821373291026894,0.3243029223391428,0.06130240829477994,0.06163814268440811,-0.03155314268440811
2.0675,-9.855675235234404,-0.4064440748277026,-0.12053657415487706,0.06152135353940634,0.05879686305561254,-0.02871186305561254
2.07,-9.794424761101034,-0.24290543670942702,-0.15021574020644485,0.059645526418517496,0.056479351992493106,-0.030415648007506894
2.0725000000000002,-9.755354075390724,-0.09951018522334813,-0.22975363648887398,0.06361586489103015,0.05703828947862751,-0.02622718662010769
2.075,-10.130378848516918,0.04560133478178832,0.15395549302854739,0.06321849563574476,0.05047451535990992,-0.024241505497827335
2.0775,-10.242589159312304,0.06040481893066388,0.4233789045380825,0.055201138613262396,0.058945535529945636,-0.024468337071604018
2.08,-9.921193468794494,-0.0990346277175476,0.01960327907474413,0.04951198326275845,0.05608734000244724,-0.01972743065475433
2.0825,-9.424579992916664,-0.47582403134722495,-0.6917319504305592,0.049209996069444456,0.051465,-0.01328394181944441
2.085,-9.703389179291138,-0.29615776055364806,-0.4657690163309112,0.050222635369229524,0.04542129357228588,-0.020846390124009788
2.0875,-9.980241370988733,-0.14867691082178477,0.029489144152541613,0.05038203837022288,0.05325093058129687,-0.02357328384774452
2.09,-9.638638680246544,-0.13609693812578078,-0.37693482090486946,0.056433647211094264,0.06569059298501238,-0.016937730270345917
2.0925000000000002,-9.430102926286574,-0.2616580022076046,-0.7145442730746939,0.05161084388289628,0.05739114111780279,-0.018171521893822786
2.095,-9.75749019983571,-0.32979732058145517,-0.171117408683784,0.05012217724127026,0.05723754742929381,-0.022420388686996733
2.0975,-10.040295736443476,-0.4198561960886332,0.13763546347805494,0.05625433722835473,0.05940958600932074,-0.020217827958465873
2.1,-10.048957322667256,-0.46698954846721824,0.0031092992168129108,0.05875211597672841,0.06087096153501903,-0.0218098834414861
2.1025,-9.869154256205737,-0.2687655325531079,-0.2707003465523697,0.04782198243756968,0.06390240575475221,-0.030572020007454466
2.105,-9.95694696273339,-0.15966308911236105,-0.0740004906136687,0.049695539554992445,0.06344072245783515,-0.024907954789769635
2.1075,-10.05424869178406,-0.1885546367155034,0.0839574864749635,0.050412598141502805,0.060863983367546906,-0.02584582034944748
2.11,-10.207017980240952,-0.0353912915954942,0.18979423259583308,0.05056499055129603,0.05596604724351987,-0.02864773765607885
2.1125,-10.148753935010928,0.0231945793404658,0.10384749902333765,0.04553467829484144,0.060099788325863976,-0.022242600091923005
2.115,-9.849223757155201,-0.4416754767943232,-0.38456257640847724,0.05323195678664,0.054294856185814366,-0.014651148931759561
2.1175,-9.882012514310397,-0.5012366869219733,-0.2997324861502969,0.055691113573279744,0.05414137903829541,-0.017878697863518776
2.12,-9.909288198542207,-0.4274398312438187,-0.192527601241471,0.05596312151422517,0.0594244435457329,-0.023819504697860712
2.1225,-10.005989865044432,-0.25605461111870265,-0.12547044274322094,0.055283,0.06013171638186366,-0.026725
2.125,-9.996866782977007,-0.24443058531665993,-0.06638724889068173,0.05323509762000807,0.05854435377168213,-0.024569090359015732
2.1275,-10.000471954901915,-0.3144372407150298,0.16604788299476966,0.04656080306906577,0.059882683677306967,-0.023307324076610576
2.13,-9.864100211820135,-0.4332604705188549,-0.2606413296919535,0.04932425095700851,0.04947557199143525,-0.02332277290067534
2.1325,-9.96606545512142,-0.4576223193241831,-0.19331358990498743,0.048731396958817536,0.045204,-0.026652338331573076
2.1350000000000002,-10.19943707505688,-0.359154868828618,0.15335010662428597,0.047819827241351844,0.053198680709344796,-0.030183764361034104
2.1375,-10.105016831805912,-0.24650957373192037,0.1431557589806285,0.0555554416564576,0.06101930487625632,-0.02962191448174449
2.14,-9.86912251019829,-0.34326042399119283,-0.1517117967327821,0.05485081267233227,0.05629030939880359,-0.028320877085300542
2.1425,-9.809506621103155,-0.18836351090258108,-0.45582432398280076,0.052129784555874005,0.04883267753581667,-0.025566720444126032
2.145,-9.916524342745943,-0.2688138019436491,-0.2010025792645636,0.055092988223495724,0.05036247680993315,-0.024132690109837623
2.1475,-9.94841805293338,-0.3157079139139858,-0.2147097296422098,0.05408474925430675,0.060272261872063415,-0.022232073220093997
2.15,-9.842377009085896,-0.5444748183926087,-0.3657253939742828,0.052188695417619745,0.05479712937928887,-0.022103159776007568
2.1525,-9.896403961419066,-0.2900864360969829,-0.014234792429271281,0.05493873535536002,0.06155474149512741,-0.029247529289279955
2.1550000000000002,-9.847234670009502,-0.260659261045873,-0.24704570757073863,0.05655633893035433,0.05746275279058671,-0.026012322139291333
2.1575,-9.8932868621951,-0.19091801130020042,-0.10637106522277909,0.05379129709681318,0.054128869969478466,-0.023358328526431264
2.16,-9.86824915911385,-0.35072528220726584,-0.28892019487788534,0.055526929439260075,0.055797759909113176,-0.02113187751034638
2.1625,-10.042239326604225,-0.5094339606791619,-0.045464358641669755,0.05792215552693217,0.053234485105386246,-0.021118445620608932
2.165,-9.97999679521384,-0.4010637932099934,-0.23493480118692833,0.06081323305141763,0.0553560539908698,-0.029414759718885155
2.1675,-9.947239502681404,-0.27342196193656987,-0.1618884574675642,0.0634107387121576,0.05708751448101873,-0.02960686428399808
2.17,-9.803996793023737,-0.2348241147993385,-0.32545324350074356,0.059161733097847655,0.05896382750137975,-0.032000498601277225
2.1725,-9.988024542860925,-0.06197807625775234,-0.232438099195864,0.05778155513171413,0.04652788058593037,-0.027522138954729086
2.1750000000000003,-10.13652361176685,-0.2395741968292431,-0.004963666393368926,0.05092779084935728,0.047976001398517244,-0.026556935776719408
2.1775,-10.137501023043937,-0.18903861996919258,0.16932787385527764,0.05391111487386062,0.04973778087409705,-0.02480728037427437
2.18,-9.909321150916623,-0.3542198765506357,-0.3456168508080866,0.05341466441392517,0.053712253337592095,-0.01944083552858475
2.1825,-9.862092935457722,-0.44758199421383843,-0.39079201637082817,0.05912887525739614,0.041529857628697056,-0.019934413706033213
2.185,-9.866689,-0.453132,-0.368245,0.06017,0.04573117195405957,-0.020311
2.1875,-10.249235941091085,-0.37765026829563325,0.14575333047054556,0.06239985315108262,0.04823656150961655,-0.026476595500181443
2.19,-10.072102050677648,-0.3065823147341179,-0.023387669058818082,0.058621731449411775,0.04788588738823544,-0.026277651679999996
2.1925,-10.025642115355296,-0.2944145154682358,-0.27891638811763614,0.058244860898823546,0.04129219477647087,-0.026466395359999992
2.195,-10.084887,-0.32341,-0.127929,0.050244,0.04352823456289061,-0.027947
2.1975000000000002,-10.084887,-0.32341,-0.127929,0.050244,0.04809125256984059,-0.027947
2.2,-9.944718573346934,-0.5149726874823466,-0.35474570763312685,0.055235424140097786,0.044485124956808196,-0.025668352709282048
2.2025,-10.023121108881334,-0.38975513484210206,-0.11506345767341042,0.0576345591595258,0.042761,-0.029128306242517065
2.205,-9.926374501974271,-0.46473376437299463,-0.21812643033441154,0.06267743392282975,0.05147799183279772,-0.025825243099678305
2.2075,-9.550345004071618,-0.43579047324993775,-0.5956607329605135,0.07138613383370132,0.047475973137110536,-0.025635160029433425
2.21,-9.635104565537572,-0.3758634382951457,-0.28060266955296237,0.06788226475885283,0.045184891126422065,-0.027975813183784618
2.2125,-9.676887385133844,-0.2209880870936975,-0.3426994806883262,0.07264835583173962,0.038767848852772784,-0.025319135803059452
2.215,-9.735482924090508,-0.3841738561651329,-0.307131524198496,0.06724571902501035,0.037721,-0.02249336169591122
2.2175000000000002,-9.720513348555956,-0.3488347872504229,-0.5052190921095692,0.06664432372233746,0.04137482532080932,-0.023338595456137798
2.22,-9.800379308386523,-0.3484920273939518,-0.326811957616868,0.06778124776672381,0.04688493160891983,-0.022901839121783604
2.2225,-9.87904246861884,-0.4299816669594947,-0.03273974379697031,0.0737537945143978,0.051918981161542484,-0.022702105592972272
2.225,-10.017524897915537,-0.4037600453869896,-0.024079708392230975,0.07163292785934364,0.0369882690592716,-0.024459835816567112
2.2275,-10.138719021833124,-0.5151070200277944,0.2906457753223415,0.06592471097818856,0.04405099955773075,-0.02833014624131478
2.23,-9.878930855766974,-0.491104261066479,-0.22800608289405244,0.07078913997337713,0.04904175583431208,-0.026449491457207756
2.2325,-9.744807976248662,-0.4926170276527325,-0.45861697560557185,0.07712551001071792,0.0459858709539123,-0.028133493076098505
2.235,-9.80459774588235,-0.29257087208004345,-0.26932444666827837,0.07324627796398585,0.045204,-0.03036799807282903
2.2375000000000003,-9.827832,-0.221784,-0.200861,0.071624,0.049554857259650066,-0.031001
2.24,-9.814217174634145,-0.37979053333336155,-0.21447582536585608,0.07519372617886241,0.05183309268292665,-0.02752297430894247
2.2425,-9.92076750967743,-0.3712576461149963,0.007725185469867446,0.07083053486675954,0.04733913896213148,-0.02965511528751795
2.245,-9.879706251902189,-0.37949138457923304,-0.058048904845988375,0.06926579272149888,0.042731568942521246,-0.02966432978088278
2.2475,-9.874461,-0.301291,-0.056193,0.075442,0.042087781880820574,-0.027947
2.25,-9.874461,-0.301291,-0.056193,0.075442,0.04559686389920263,-0.027947
2.2525,-10.109363078118887,0.06246048395798573,0.3204935231129167,0.06817707579374555,0.05074914242539969,-0.028239387739317414
2.255,-9.93129164394367,0.03776988591549401,0.2307099853521165,0.06731661267605638,0.05858592760563347,-0.021071573521127065
2.2575,-9.734023780413413,-0.20028435629363486,-0.2674182356093643,0.06548828641482553,0.049948094853885586,-0.01671209918745565
2.2600000000000002,-9.502604501091731,-0.4000460344003264,-0.612321517782451,0.059330754248547585,0.047953,-0.020913509063879693
2.2625,-9.677807411477042,-0.34367434152264736,-0.4254002429898603,0.05907236097163375,0.04719334276165626,-0.0238516688131726
2.265,-9.978532626588159,-0.27500541226295216,0.12907401088334047,0.06151463469775275,0.04951193843528452,-0.023731402379521586
2.2675,-9.876379950384473,-0.2841134673460321,-0.004410376561893581,0.05663589792216876,0.051465,-0.023571272118733222
2.27,-9.792625194851249,-0.3155813835092117,-0.46349815351576923,0.057027314119120036,0.05470135292911224,-0.02320705710606331
2.2725,-9.685740835540454,-0.38434553847254416,-0.4380848923364935,0.059986807819710206,0.05193253214332562,-0.02225244221785013
2.275,-10.094364689964111,-0.44087715199680955,0.0320725486966732,0.06122838072538857,0.05376809399760852,-0.021917284368274222
2.2775,-10.277758538696881,-0.403797547554301,0.2598084062700608,0.06037070585457989,0.054128853295561885,-0.02692461522190704
2.2800000000000002,-10.03934302596251,-0.20021874615457427,-0.2056620418867695,0.056658,0.06233731118098868,-0.028405
2.2825,-9.599608107018689,-0.09489298692269937,-0.8853896040567022,0.056658,0.059550379409505305,-0.028405
2.285,-9.839353725476698,-0.16251500878419473,-0.24738000647584413,0.05450830851541488,0.0616296239114626,-0.023767088771541208
2.2875,-9.927208343673469,-0.25905535686274866,-0.205670070588246,0.05419663142056825,0.062461,-0.021791610212084814
2.29,-10.069162954170007,-0.3228278926724751,-0.08608199037908337,0.06050034398869808,0.06049875699081699,-0.022000462943254074
2.2925,-9.689931707796141,-0.48119972385385,-0.5679983014009706,0.059311778971375434,0.07062376968117279,-0.020252582909006306
2.295,-9.597081,-0.510521,-0.695839,0.058338,0.06225941816793928,-0.019853
2.2975,-10.09020017785199,-0.4493860949679736,-0.20271897697278035,0.05962858257505329,0.06730185863082455,-0.021789296450194548
2.3000000000000003,-10.183633203506526,-0.5174566479385253,-0.1872272090945571,0.061674748426867564,0.05341586406212285,-0.01931566619165765
2.3025,-9.861133338422402,-0.4579343655286394,-0.5058365614433351,0.05779692252217638,0.06387557431791134,-0.03172716699113088
2.305,-9.810068031112518,-0.27150739118213674,-0.4082619455166856,0.06165580198449154,0.06673305451178987,-0.02875688663712577
2.3075,-9.79390821433226,-0.3585942384717851,-0.3155828044561699,0.06068752737494248,0.06574792966957313,-0.02550851642496549
2.31,-10.111804964853851,-0.28141146003438694,-0.08088821816752081,0.06005787321051339,0.053799225851141934,-0.029140879538197103
2.3125,-10.243358042298203,-0.4264133755140406,0.04287753354482435,0.06236918505463518,0.06400620150393609,-0.02675355363647045
2.315,-9.644842900726902,-0.4546261463417125,-0.8965537301902181,0.07089050752717393,0.055894,-0.02229802642323365
2.3175,-9.665957483915307,-0.42872072721127824,-0.8630187690307985,0.06993833593297105,0.055894,-0.024338012510190132
2.32,-9.687072067103712,-0.40281530808084404,-0.8294838078713789,0.06898616433876818,0.055894,-0.02637799859714661
2.3225000000000002,-9.86378556943774,-0.3166623378073644,-0.4376526355953932,0.06971613195424396,0.06027688737846068,-0.029055363870353634
2.325,-10.154870545452287,-0.32161006753408,-0.0341249044857827,0.06403670993804204,0.06033967638165875,-0.025727548203222487
2.3275,-9.959643335866367,-0.33924760614297894,-0.4672500436546538,0.06225405286073542,0.0526657207663752,-0.0280079151023827
2.33,-10.050091962224887,-0.38090624611423896,-0.5010277265381401,0.06570577771284886,0.05103591397916412,-0.023022439101903824
2.3325,-10.125653757264308,-0.36516810360009466,0.022812218347191382,0.06513664430776536,0.04814890300166229,-0.027932676608881567
2.335,-10.37151121336282,-0.41754749179555956,0.16446659487795146,0.06285980406667196,0.05529761674381851,-0.031021754220712502
2.3375,-10.04094878807042,-0.4725108486740445,-0.3762739745161772,0.07061273138488448,0.05461975495739445,-0.030972397754240703
2.34,-9.865553718742307,-0.339884273017727,-0.5745418214817739,0.06891819696422209,0.050516095814962254,-0.034292234304300236
2.3425000000000002,-10.019841984989993,-0.32372653523159645,-0.18144833696637397,0.061094970234531094,0.0571605384749569,-0.03042814527283353
2.345,-10.032125248494257,-0.06212760038967896,-0.11803949048079006,0.06232613093702986,0.05313094201980152,-0.028116088224950375
2.3475,-9.82386325448468,-0.33358400193114607,-0.44705542398522635,0.058326801210240434,0.05033921850450569,-0.018258019714746124
2.35,-9.601288809512434,-0.559152054102771,-0.9064201936026899,0.057179794103956516,0.05234601162499261,-0.019117805728949125
2.3525,-9.61413443844943,-0.6769636131488559,-0.6902625996087709,0.06574060306297728,0.05169807103053432,-0.0208187438931298
2.355,-9.980946656984326,-0.7282016576015347,-0.1375873596258434,0.06352625962264154,0.05708572602494399,-0.026583105401343097
2.3575,-10.016642682695831,-0.33167416553906376,0.03246864007131839,0.06998117803874923,0.06131797721145837,-0.03025318480922375
2.36,-9.953591391622172,-0.23114987849387494,0.04605408067840542,0.06432051659173942,0.05871460636208732,-0.029166741777164728
2.3625000000000003,-9.543814953471372,-0.21040860384899157,-0.8144314047259502,0.06532607327649165,0.05221334143727113,-0.017567447356881614
2.365,-9.503730230255783,-0.46274758807310307,-0.8728393868745482,0.06123011318879381,0.04762949336906173,-0.015324695278927946
2.3675,-9.797762637044038,-0.682838474991776,-0.44712344333250864,0.058425563454930426,0.053039769366910475,-0.01956949235114189
