time,acc_x_g,acc_y_g,acc_z_g,gyro_x_rad_s,gyro_y_rad_s,gyro_z_rad_s
1765917992.797726,-9.729196,-0.437590,0.026901,0.004734,-0.008705,0.003818
1765917992.797926,-9.894786,-0.339550,0.037661,-0.007178,-0.005040,-0.000764
1765917992.798126,-9.836202,-0.407700,0.031086,-0.007941,-0.007178,-0.000458
1765917992.798326,-9.890003,-0.399330,0.093257,-0.008399,-0.007178,-0.002138
1765917992.798526,-9.956957,-0.347920,0.137494,-0.006720,-0.007178,-0.000764
1765917992.798701,-9.909731,-0.360473,0.057389,-0.010843,-0.008247,0.000305
1765917992.798901,-9.866092,-0.428025,0.007174,-0.007483,-0.009316,-0.002291
1765917992.799101,-9.939023,-0.362267,0.118364,-0.007025,-0.004734,-0.000764
1765917992.799301,-9.949782,-0.324008,0.111191,-0.007941,-0.005192,0.000000
1765917992.799501,-9.928263,-0.397537,0.112386,-0.008705,-0.006414,-0.000458
1765917992.799724,-9.923481,-0.384983,0.085485,-0.005956,-0.005803,-0.000764
1765917992.799974,-9.929459,-0.368245,0.109995,-0.004581,-0.008705,-0.001222
1765917992.800224,-9.929459,-0.368245,0.109995,-0.004581,-0.005345,-0.001222
1765917992.800474,-9.884026,-0.356289,0.086083,-0.008399,-0.004429,-0.002138
1765917992.800692,-9.866092,-0.374223,0.020923,-0.006567,-0.004734,0.000305
1765917992.800892,-9.928263,-0.398135,0.072932,-0.008094,-0.008094,0.000305
1765917992.801092,-9.982065,-0.399330,0.169775,-0.007941,-0.005956,-0.000916
1765917992.801292,-9.912122,-0.341344,0.078312,-0.008858,-0.009621,-0.000305
1765917992.801492,-9.852941,-0.373625,-0.045433,-0.007178,-0.007941,-0.002596
1765917992.801696,-9.863700,-0.359876,0.043639,-0.007330,-0.009316,0.000458
1765917992.801946,-9.827832,-0.391559,0.052009,-0.010385,-0.008858,0.001222
1765917992.802196,-9.873264,-0.347322,0.038259,-0.009316,-0.009010,0.000000
1765917992.802446,-9.900764,-0.357484,0.060976,-0.008858,-0.003360,-0.000458
1765917992.802710,-9.999999,-0.392157,0.145863,-0.009468,-0.009468,-0.000611
1765917992.802910,-9.996411,-0.362267,0.217001,-0.007483,-0.004123,-0.001374
1765917992.803110,-9.928861,-0.410091,0.068149,-0.005956,-0.004429,0.001374
1765917992.803310,-9.909132,-0.379005,0.043639,-0.004887,-0.007483,-0.002596
1765917992.803510,-9.919893,-0.328790,0.035868,-0.009163,-0.004276,-0.000916
1765917992.803699,-9.922284,-0.290531,-0.071736,-0.008552,-0.004276,-0.000153
1765917992.803899,-10.150645,-0.081301,0.010760,-0.009010,-0.005192,0.001527
1765917992.804099,-10.365253,0.117169,0.098039,-0.009621,-0.002902,0.011759
1765917992.804299,-10.595408,-0.074127,0.099235,-0.012065,-0.007025,0.024129
1765917992.804499,-10.834527,-0.498565,0.249880,-0.019853,-0.009927,0.028558
1765917992.804730,-10.934958,-1.085605,0.213415,-0.023060,-0.009927,0.029322
1765917992.804980,-10.815398,-1.382114,-0.016738,-0.020769,-0.017104,0.023213
1765917992.805230,-10.737086,-1.014467,0.000598,-0.026420,-0.025045,0.012828
1765917992.805480,-10.626493,-0.857245,-0.044237,-0.027336,-0.024129,0.020159
1765917992.805704,-10.445958,-1.164515,-0.270206,-0.023824,-0.023213,0.027794
1765917992.805954,-10.144069,-1.573410,-0.527260,-0.020006,-0.022449,0.031154
1765917992.806204,-9.782400,-1.794596,-0.954687,-0.013134,-0.014203,0.030391
1765917992.806454,-9.758488,-1.711501,-0.972023,-0.004581,-0.019242,0.028253
1765917992.806716,-10.160210,-1.579985,-0.425036,-0.003818,-0.011912,0.027336
1765917992.806916,-10.160210,-1.579985,-0.280368,-0.003818,-0.001680,0.027336
1765917992.807116,-10.013748,-1.936872,-0.760402,0.015730,-0.002749,0.039706
1765917992.807316,-10.013748,-1.936872,-0.760402,0.015730,-0.003054,0.039706
1765917992.807516,-10.189501,-2.020564,-0.686872,0.039401,0.004429,0.044440
1765917992.807691,-10.151840,-2.045672,-0.697633,0.045968,0.004429,0.046120
1765917992.807941,-10.290529,-1.987685,-0.602582,0.054367,0.002902,0.050549
1765917992.808191,-10.408894,-2.150884,-0.638450,0.065515,0.000305,0.059712
1765917992.808441,-10.378406,-2.397178,-0.872788,0.075289,0.001985,0.062766
1765917992.808778,-10.335963,-2.327235,-0.890722,0.083383,0.018784,0.064446
1765917992.809028,-10.541606,-2.332616,-0.365854,0.095448,0.018784,0.074984
1765917992.809278,-10.414873,-2.523314,-0.740674,0.110261,0.010690,0.081551
1765917992.809528,-10.452533,-2.539454,-0.928981,0.111177,0.008858,0.080329
1765917992.809752,-10.649210,-2.311095,-0.487805,0.130114,0.009163,0.083383
1765917992.810002,-10.649210,-2.311095,-0.487805,0.130114,0.016799,0.083383
1765917992.810252,-10.741869,-2.372071,-0.420851,0.147066,0.000764,0.100945
1765917992.810502,-10.782518,-2.451578,-0.662362,0.152105,0.002443,0.104153
1765917992.811600,-10.828549,-2.372071,-0.326399,0.168904,-0.001374,0.113774
1765917992.811850,-10.888927,-2.397178,-0.048422,0.181580,-0.001374,0.118661
1765917992.812100,-10.848875,-2.501195,-0.318030,0.184481,-0.018631,0.118966
1765917992.812350,-11.052127,-2.149091,-0.406504,0.190132,-0.028863,0.114232
1765917992.811756,-11.235651,-1.874103,0.067551,0.209832,-0.031154,0.128893
1765917992.812006,-10.802246,-2.154471,-0.414275,0.221591,-0.048717,0.144622
1765917992.812256,-10.636058,-2.232185,-0.755619,0.225562,-0.048717,0.135918
1765917992.812506,-10.636058,-2.232185,-0.755619,0.225562,-0.051618,0.135918
1765917992.812715,-10.951097,-1.413797,-0.301291,0.247248,-0.057879,0.144928
1765917992.812965,-10.577474,-1.392874,-0.564323,0.255189,-0.055894,0.152258
1765917992.813215,-10.571496,-1.394070,-0.801052,0.252287,-0.071777,0.149967
1765917992.813465,-10.663557,-1.128049,-0.652798,0.262061,-0.074373,0.151342
1765917992.813719,-10.797463,-0.921808,-0.395146,0.268017,-0.086437,0.153633
1765917992.813969,-10.790888,-0.603778,-0.481827,0.272751,-0.082314,0.153785
1765917992.814219,-10.685675,-0.514108,-0.515304,0.265421,-0.082772,0.154091
1765917992.814469,-10.578072,-0.212817,-0.538020,0.272140,-0.094531,0.162337
1765917992.814732,-10.728120,-0.469871,-0.591822,0.269392,-0.113926,0.165697
1765917992.814982,-10.811810,-0.399330,-0.206839,0.269697,-0.110567,0.163254
1765917992.815232,-11.035388,-0.384385,0.113582,0.274584,-0.113010,0.162948
1765917992.815482,-10.576279,-0.176949,-0.323410,0.264352,-0.125227,0.158520
1765917992.815773,-10.576279,-0.176949,-0.323410,0.264352,-0.138666,0.158520
1765917992.816023,-10.636058,0.181133,-0.147059,0.270155,-0.131183,0.165544
1765917992.816273,-10.496173,-0.007174,-0.150646,0.274889,-0.140804,0.165086
1765917992.816523,-10.590028,0.022716,-0.063367,0.259923,-0.155312,0.155923
1765917992.816750,-10.325203,-0.002391,-0.655189,0.260534,-0.160505,0.153174
1765917992.817000,-10.535626,0.233142,-0.285748,0.275042,-0.169668,0.155465
1765917992.817250,-10.646220,0.104017,0.113582,0.265268,-0.165850,0.155312
1765917992.817500,-10.517095,0.341942,-0.008369,0.259160,-0.164934,0.149204
1765917992.817785,-10.135101,0.015543,-0.870397,0.256869,-0.181732,0.151953
1765917992.818035,-10.305474,0.282162,-0.270803,0.269850,-0.181732,0.149357
1765917992.818285,-10.407699,0.134505,0.045433,0.262977,-0.173028,0.152258
1765917992.818535,-10.394547,0.115973,0.060976,0.256105,-0.176082,0.145691
1765917992.818687,-10.174556,-0.012554,-0.231349,0.259160,-0.184329,0.140957
1765917992.818937,-10.157818,0.281564,-0.150646,0.259618,-0.187536,0.138666
1765917992.819187,-10.312649,0.332975,0.069345,0.258701,-0.187536,0.141873
1765917992.819437,-10.331181,0.311454,0.136896,0.249997,-0.185550,0.138972
1765917992.819685,-9.930056,0.105213,-0.149450,0.253204,-0.187077,0.138514
1765917992.819885,-9.542084,-0.009565,-0.493783,0.253662,-0.194561,0.139583
1765917992.820085,-9.807508,0.320421,-0.197274,0.249233,-0.194255,0.130878
1765917992.820285,-10.265422,0.281564,0.677905,0.247553,-0.193644,0.138056
1765917992.820485,-9.904350,0.059780,0.154232,0.247706,-0.189063,0.138666
1765917992.820737,-9.893590,0.151841,-0.094452,0.242208,-0.201738,0.131641
1765917992.820987,-9.747727,0.171569,0.200861,0.237168,-0.189063,0.131489
1765917992.821237,-9.789574,0.243305,0.722142,0.251524,-0.188452,0.140804
1765917992.821487,-9.453609,-0.114778,0.481827,0.241750,-0.183870,0.142026
1765917992.821734,-9.157698,-0.187709,-0.105811,0.231671,-0.194713,0.134696
1765917992.821984,-9.416546,-0.121951,0.105811,0.235489,-0.195477,0.133474
1765917992.822234,-9.381873,0.174558,0.566117,0.235794,-0.180969,0.135154
1765917992.822484,-9.374700,0.278575,0.691655,0.224188,-0.176693,0.136223
1765917992.822829,-9.104494,0.038259,0.104615,0.218384,-0.175013,0.137750
1765917992.823079,-9.244379,-0.231946,0.370038,0.225409,-0.185550,0.140804
1765917992.823329,-9.320897,-0.010760,0.905069,0.224646,-0.164628,0.135001
1765917992.823579,-9.302963,-0.021521,0.851865,0.219606,-0.156229,0.135154
1765917992.823758,-8.978956,-0.147059,0.278575,0.216704,-0.154243,0.138819
1765917992.824008,-9.201936,-0.086083,0.454926,0.222966,-0.159894,0.136987
1765917992.824258,-9.201936,-0.086083,0.454926,0.222966,-0.142942,0.136987
1765917992.824508,-8.624461,-0.320421,0.073529,0.220980,-0.132863,0.137597
1765917992.824746,-8.752988,-0.008967,0.397537,0.225715,-0.132863,0.135765
1765917992.824996,-8.752988,-0.008967,0.397537,0.225715,-0.119730,0.135765
1765917992.825246,-9.059660,-0.184122,0.965447,0.221133,-0.118202,0.137292
1765917992.825496,-8.937110,-0.264825,0.657580,0.218690,-0.104763,0.134085
1765917992.825738,-8.878526,-0.242109,0.869201,0.231518,-0.102320,0.139125
1765917992.825938,-9.005857,-0.216404,0.864419,0.231060,-0.109650,0.137292
1765917992.826138,-8.930534,-0.194883,0.492587,0.219453,-0.102931,0.128282
1765917992.826338,-8.981347,-0.117767,0.558345,0.225409,-0.087354,0.132405
1765917992.826538,-8.754184,-0.341942,0.665351,0.233656,-0.073609,0.136376
1765917992.826710,-8.629841,-0.102822,0.646820,0.229838,-0.074984,0.128434
1765917992.826960,-8.774508,0.090866,0.666547,0.221744,-0.067042,0.122326
1765917992.827210,-8.547345,0.285748,0.409493,0.229685,-0.055436,0.130878
1765917992.827460,-8.781682,0.374821,0.510521,0.231365,-0.045968,0.129962
1765917992.827700,-9.188187,0.673123,1.194404,0.216246,-0.045968,0.119119
1765917992.827950,-9.265901,0.711382,1.183644,0.212581,-0.034667,0.127365
1765917992.828200,-8.817550,0.924199,0.609756,0.217163,-0.025504,0.131947
1765917992.828450,-8.950262,0.752032,0.773553,0.196699,-0.033292,0.122478
1765917992.828697,-9.427306,1.302009,1.406026,0.189979,-0.003360,0.116064
1765917992.828947,-9.279052,1.077236,1.196198,0.185550,-0.003360,0.128740
1765917992.829197,-9.279052,1.077236,1.196198,0.185550,-0.016493,0.128740
1765917992.829447,-9.230033,1.494500,0.620516,0.155923,-0.014203,0.112552
1765917992.829704,-9.475131,1.517814,1.450263,0.153938,-0.004123,0.121104
1765917992.829904,-9.048302,1.505858,0.835724,0.139430,-0.006109,0.119882
1765917992.830104,-9.475131,1.635581,1.670253,0.125075,-0.006109,0.115454
1765917992.830304,-9.475131,1.635581,1.670253,0.125075,0.004123,0.115454
1765917992.830504,-9.191773,1.560258,0.739479,0.119424,0.012828,0.113926
1765917992.830702,-9.453609,1.565040,1.300813,0.107360,0.012828,0.105527
1765917992.830952,-9.903154,1.741989,1.863343,0.093310,0.004734,0.100640
1765917992.831202,-9.502629,1.530368,0.889526,0.081703,0.000764,0.091630
1765917992.831452,-9.595885,1.796987,0.697035,0.076053,-0.011759,0.084299
1765917992.831703,-9.638927,1.701339,1.234457,0.068570,0.014661,0.088575
1765917992.831903,-9.556431,1.713295,1.221903,0.059865,0.012523,0.077580
1765917992.832103,-9.861309,1.759923,1.394070,0.041997,0.002138,0.069028
1765917992.832303,-9.539692,1.848398,0.789096,0.034361,0.001985,0.065057
1765917992.832503,-9.658057,1.759923,0.960067,0.031460,-0.008705,0.063377
1765917992.832764,-9.630558,1.785629,1.153156,0.023824,0.000000,0.056352
1765917992.833014,-9.609037,1.790411,1.193209,0.013286,0.000000,0.053145
1765917992.833264,-9.482305,1.752152,0.617527,0.013286,-0.006109,0.053145
1765917992.833514,-9.710664,1.694763,0.763988,-0.003818,-0.019395,0.038790
1765917992.833722,-9.927666,1.762314,1.235055,-0.001222,-0.006720,0.040775
1765917992.833972,-9.891200,1.588952,1.182449,-0.006567,-0.009927,0.036805
1765917992.834222,-9.882233,1.432329,0.820182,-0.015424,-0.020922,0.030849
1765917992.834472,-9.667622,1.278096,0.436992,-0.010690,-0.028863,0.030849
1765917992.834751,-9.540888,1.208154,0.314443,-0.006720,-0.025198,0.025962
1765917992.834951,-9.289214,1.101148,0.426829,-0.017257,-0.022297,0.015272
1765917992.835151,-9.154709,1.168699,0.372429,-0.024282,-0.018937,0.006414
1765917992.835351,-8.834289,0.750239,0.060976,-0.022449,-0.018937,0.006720
1765917992.835551,-8.841462,0.582257,0.228360,-0.021991,-0.017410,-0.003665
1765917992.835714,-8.748803,0.530846,0.260043,-0.025198,-0.004887,-0.009774
1765917992.835914,-8.639406,0.336561,0.145863,-0.026573,-0.003360,-0.009927
1765917992.836114,-8.819942,0.231946,-0.179340,-0.026878,-0.002291,-0.014050
1765917992.836314,-9.554638,0.177547,0.235533,-0.024129,-0.003360,-0.014813
1765917992.836514,-10.022716,-0.219393,0.479436,-0.022144,0.005345,-0.011454
1765917992.836708,-10.086082,-0.340746,0.334768,-0.024435,0.005345,-0.021380
1765917992.836958,-9.966521,-0.318030,0.136298,-0.019700,0.010079,-0.024282
1765917992.837208,-9.962337,-0.242707,0.175155,-0.011454,0.003818,-0.024740
1765917992.837458,-10.395742,0.100430,0.686274,-0.018937,0.002291,-0.031918
1765917992.837722,-10.319224,0.097441,0.461502,-0.022602,0.009774,-0.023518
1765917992.837972,-10.027497,-0.308465,-0.068149,-0.022297,0.000611,-0.014355
1765917992.838222,-10.154231,-0.304878,0.167384,-0.025351,-0.008399,-0.019242
1765917992.838472,-10.443566,-0.277977,0.691057,-0.025962,-0.000153,-0.021838
1765917992.838746,-10.229554,-0.254663,0.294118,-0.028253,-0.002291,-0.017562
1765917992.838946,-10.235533,-0.329986,0.309063,-0.030849,-0.010537,-0.013897
1765917992.839146,-10.061573,-0.365854,0.178144,-0.028100,-0.006720,-0.010232
1765917992.839346,-10.062768,-0.554758,0.242109,-0.026725,-0.007178,-0.007025
1765917992.839546,-9.858918,-0.601387,-0.008369,-0.027489,-0.009621,-0.004276
1765917992.839828,-9.966521,-0.535629,0.093257,-0.025656,-0.009774,-0.003665
1765917992.840028,-9.947989,-0.515304,0.189503,-0.021991,-0.012217,0.000305
1765917992.840228,-10.068149,-0.587637,0.383788,-0.021991,-0.014355,-0.000153
1765917992.840428,-10.026302,-0.610952,0.351506,-0.017104,-0.006414,0.004429
1765917992.840628,-9.934838,-0.674318,0.127929,-0.015424,-0.011759,0.006567
1765917992.840731,-9.884026,-0.485414,0.157819,-0.010690,-0.009927,0.002596
1765917992.840981,-10.027497,-0.381396,0.419058,-0.008399,-0.010385,0.004276
1765917992.841231,-10.038857,-0.328790,0.408297,-0.007025,-0.009163,0.006109
1765917992.841481,-10.051410,-0.382592,0.420851,-0.006109,-0.013439,0.007636
1765917992.841719,-9.981467,-0.465686,0.307269,-0.000611,-0.008705,0.015424
1765917992.841919,-9.966521,-0.587637,0.308465,0.003512,-0.014355,0.013286
1765917992.842119,-10.012553,-0.416069,0.423242,0.002596,-0.012370,0.009010
1765917992.842319,-10.005379,-0.242707,0.300096,0.006109,-0.012065,0.005651
1765917992.842519,-10.015541,-0.175753,0.380201,0.012523,-0.011912,0.009621
1765917992.842789,-10.106407,-0.227762,0.388570,0.011148,-0.014508,0.013134
1765917992.842989,-10.172762,-0.196078,0.533238,0.016341,-0.017257,0.009468
1765917992.843189,-10.118960,-0.025108,0.483620,0.014508,-0.011148,0.008247
1765917992.843389,-9.953370,0.023912,0.346724,0.015272,-0.011148,0.008705
1765917992.843589,-9.884026,0.035270,0.261836,0.014355,-0.013286,0.009163
1765917992.843713,-9.930056,0.078910,0.371832,0.013592,-0.011759,0.007330
1765917992.843913,-9.844571,0.182927,0.326399,0.010232,-0.011606,0.005345
1765917992.844113,-9.895982,0.289933,0.381396,0.011606,-0.011606,0.006261
1765917992.844313,-9.895982,0.289933,0.381396,0.011606,-0.011454,0.006261
1765917992.844513,-9.971903,0.276184,0.548780,0.007636,-0.008705,0.005498
1765917992.844701,-9.974891,0.276781,0.486609,0.003207,-0.007483,0.006567
1765917992.844901,-9.923481,0.254663,0.358680,0.000458,-0.011454,0.006872
1765917992.845101,-10.049019,0.190100,0.489000,0.001680,-0.013592,0.007330
1765917992.845301,-9.867287,0.173362,0.331181,0.000153,-0.005040,0.006872
1765917992.845501,-9.778812,0.199665,0.209828,0.002138,-0.008247,0.005192
1765917992.845715,-9.838593,0.286944,0.413678,-0.005040,-0.010843,0.003665
1765917992.845882,-9.918698,0.326399,0.432209,-0.004734,-0.012065,0.003512
1765917992.846048,-9.935436,0.344333,0.381994,-0.004429,-0.009468,0.006872
1765917992.846215,-9.836799,0.142874,0.265423,-0.007636,-0.006414,0.004887
1765917992.846382,-9.794355,0.049020,0.249880,-0.009316,-0.007483,0.000611
1765917992.846548,-9.774031,0.092061,0.252272,-0.008247,-0.007483,-0.003512
1765917992.846715,-9.818267,0.228360,0.340746,-0.010843,-0.007636,-0.004276
1765917992.846915,-9.858320,0.263630,0.310856,-0.009774,-0.004887,-0.002749
1765917992.847115,-9.897775,0.214012,0.329986,-0.011301,-0.004429,-0.001374
1765917992.847315,-9.838593,0.136896,0.228360,-0.012828,-0.000764,-0.000153
1765917992.847515,-9.827832,0.065758,0.242109,-0.014050,0.000458,-0.000611
1765917992.847770,-9.805116,-0.001196,0.229555,-0.014050,-0.001069,-0.000611
1765917992.848020,-9.915112,0.051411,0.316834,-0.012675,-0.002596,-0.002596
1765917992.848270,-9.974891,0.096844,0.345528,-0.013286,-0.002596,-0.006567
1765917992.848520,-10.047822,0.090866,0.380201,-0.014508,-0.003818,-0.004276
1765917992.848783,-10.078907,0.036466,0.371234,-0.015730,-0.004429,-0.005803
1765917992.848983,-10.078907,0.036466,0.371234,-0.015730,0.000153,-0.005803
1765917992.849183,-10.065758,-0.099235,0.359876,-0.015730,-0.003054,-0.006414
1765917992.849383,-10.063964,-0.109397,0.321616,-0.012981,-0.003054,-0.006720
1765917992.849583,-10.063964,-0.109397,0.321616,-0.012981,-0.002749,-0.006720
1765917992.849796,-9.909132,0.060976,0.282162,-0.013744,-0.007025,-0.010996
1765917992.849996,-9.929459,0.037064,0.270803,-0.013592,-0.005956,-0.005803
1765917992.850196,-9.988043,-0.005978,0.269010,-0.017257,-0.006414,-0.005651
1765917992.850396,-9.985652,0.019727,0.343137,-0.014203,-0.005651,-0.008247
1765917992.850596,-9.986250,-0.016141,0.355093,-0.015730,-0.007789,-0.008399
1765917992.850769,-9.961142,0.008967,0.319823,-0.015577,-0.008247,-0.005345
1765917992.850969,-10.031085,-0.060378,0.307269,-0.016799,-0.008247,-0.003360
1765917992.851169,-9.972500,-0.120756,0.292922,-0.017104,-0.003818,-0.005192
1765917992.851369,-9.916306,-0.196676,0.233142,-0.014508,-0.006720,-0.003054
1765917992.851569,-9.849951,-0.227164,0.185318,-0.012523,-0.005803,-0.003971
1765917992.851733,-10.008368,-0.202056,0.355093,-0.013592,-0.008705,-0.004734
1765917992.851983,-10.102820,-0.143472,0.507532,-0.013592,-0.009621,-0.006109
1765917992.852233,-10.111190,-0.096844,0.459708,-0.013134,-0.006720,-0.003665
1765917992.852483,-10.001194,-0.111191,0.354495,-0.012981,-0.006720,-0.002596
1765917992.852710,-10.016738,-0.186514,0.294118,-0.013744,-0.005498,-0.001069
1765917992.852910,-9.965326,-0.203850,0.300096,-0.013592,-0.008094,0.000458
1765917992.853110,-9.937828,-0.107604,0.263032,-0.009621,-0.006720,-0.003054
1765917992.853310,-9.819464,-0.187111,0.240316,-0.008399,-0.006872,-0.001222
1765917992.853510,-9.909731,-0.209230,0.263032,-0.008094,-0.009010,-0.001527
1765917992.853706,-9.972500,-0.189503,0.391559,-0.007330,-0.009010,0.002138
1765917992.853906,-9.943806,-0.240316,0.321616,-0.005345,-0.006872,0.001833
1765917992.854106,-9.994021,-0.374821,0.344931,-0.007483,-0.009316,-0.002443
1765917992.854306,-9.967119,0.031086,0.459110,-0.007483,-0.006109,-0.002443
1765917992.854506,-10.001194,-0.322812,0.188905,-0.003971,-0.004123,-0.000305
1765917992.854720,-9.751313,0.173362,0.239120,-0.001985,-0.007483,0.001222
1765917992.854920,-9.918698,-0.659971,0.107604,-0.005345,-0.006872,0.002443
1765917992.855120,-9.970109,0.282162,0.429818,0.000458,-0.009774,-0.001527
1765917992.855320,-9.893590,-0.228360,0.395744,-0.009010,-0.002596,-0.000153
1765917992.855520,-9.916904,-0.135103,0.596604,-0.003665,-0.009468,0.000764
1765917992.855729,-10.048421,-0.148254,0.584051,-0.007483,-0.002138,0.005803
1765917992.855929,-10.007172,0.274988,0.528455,-0.003360,-0.005192,0.005192
1765917992.856129,-10.095646,0.374223,0.710186,-0.005956,-0.005192,0.000305
1765917992.856329,-9.880439,-0.019727,0.536824,-0.001374,-0.006720,0.001527
1765917992.856529,-9.942610,0.253467,0.467480,-0.005803,-0.007025,0.004123
1765917992.856721,-10.368243,0.675514,0.309660,-0.006109,-0.004429,0.002291
1765917992.856921,-9.777617,-0.484218,0.043042,-0.008094,-0.005956,0.006567
1765917992.857121,-9.942013,-0.335366,-0.257652,-0.005192,-0.004887,0.000000
1765917992.857321,-9.931252,-0.772358,0.190100,-0.005651,-0.004123,0.007483
1765917992.857521,-10.084887,-0.129723,0.776542,-0.001985,-0.007789,0.000153
1765917992.857734,-10.293518,0.104017,1.290053,-0.005803,-0.004123,0.002443
1765917992.857934,-10.280965,0.530846,0.573290,-0.003818,-0.006414,-0.001680
1765917992.858134,-9.818267,-0.142276,0.320421,-0.005956,-0.006414,0.000305
1765917992.858334,-10.036465,0.255261,0.248685,-0.008094,-0.007789,-0.003512
1765917992.858534,-9.753107,0.008369,-0.166188,-0.007483,-0.001680,0.003512
1765917992.858734,-10.178741,0.328790,0.309063,-0.006872,-0.008858,-0.000611
1765917992.858934,-9.896580,-0.231349,0.593018,-0.010079,-0.004734,0.004276
1765917992.859134,-9.702294,-0.057389,-0.355093,-0.003818,-0.008552,0.001222
1765917992.859334,-9.451816,0.021521,1.296030,-0.006414,-0.007789,0.001680
1765917992.859534,-10.707793,-0.387374,0.285748,-0.008858,-0.006567,-0.006109
1765917992.859762,-9.631754,1.323529,-0.290531,-0.005803,-0.006567,0.004581
1765917992.860012,-11.076038,-0.668340,1.123864,-0.012675,-0.006261,-0.005345
1765917992.860262,-9.935436,0.856647,-1.649330,-0.008094,-0.006109,0.000153
1765917992.860512,-9.518172,-1.131635,2.560378,-0.014355,-0.008858,0.000458
1765917992.860822,-11.584168,0.551172,-0.145265,-0.007941,-0.003971,-0.007789
1765917992.861022,-8.805594,-0.199665,0.957676,-0.011912,-0.003971,-0.001527
1765917992.861222,-10.960664,0.339550,0.182927,-0.010079,-0.006414,-0.003665
1765917992.861422,-9.356168,0.125538,-0.095648,-0.011301,-0.009468,0.002443
1765917992.861622,-10.783116,0.628288,-0.327594,-0.011301,-0.005498,0.002443
1765917992.861724,-9.632950,-0.915830,0.802248,-0.011759,-0.003207,-0.001833
1765917992.861974,-10.256454,0.747250,-1.276901,-0.007178,-0.003207,-0.005803
1765917992.862224,-9.956359,-0.810019,1.840626,-0.017257,-0.003512,-0.002749
1765917992.862474,-10.607364,0.705404,-1.708512,-0.007636,-0.007025,-0.002291
1765917992.862710,-9.432089,-1.316356,2.131157,-0.018173,-0.006720,-0.002902
1765917992.862910,-9.432089,-1.316356,2.131157,-0.018173,-0.003207,-0.002902
1765917992.863110,-9.716641,-0.805237,1.126255,-0.016188,-0.004276,-0.005803
1765917992.863310,-9.260520,-0.940937,0.403515,-0.004887,-0.008399,0.000305
1765917992.863510,-11.339668,1.465208,1.323529,-0.011301,-0.006872,-0.006414
1765917992.863736,-8.786465,-1.001913,0.411286,-0.008094,-0.006872,0.000153
1765917992.863986,-8.786465,-1.001913,0.411286,-0.008094,-0.003054,0.000153
1765917992.864236,-8.907221,-0.728120,0.669536,-0.009163,-0.011759,0.000916
1765917992.864486,-11.062886,0.974414,0.071138,-0.008552,-0.008399,-0.007789
1765917992.864799,-8.268172,-0.962458,0.831540,-0.009774,-0.006720,0.005040
1765917992.864999,-11.648730,1.505261,0.338953,-0.008858,-0.006720,-0.005651
1765917992.865199,-8.415231,-1.321138,1.487326,-0.013439,-0.009927,0.000764
1765917992.865399,-11.238641,1.184840,-0.120158,-0.007941,-0.006109,-0.005345
1765917992.865599,-8.403873,-1.327714,1.729435,-0.009468,-0.006109,0.004887
1765917992.865739,-11.571017,0.675514,0.355093,-0.007789,-0.008552,-0.007330
1765917992.865989,-7.938784,-0.722142,0.437590,-0.008552,-0.008552,0.007941
1765917992.866239,-12.489238,0.833333,-0.120158,-0.008552,-0.003512,-0.006414
1765917992.866489,-8.122309,-0.028694,-1.131038,-0.004276,-0.009010,0.010232
1765917992.866806,-11.248205,-0.433405,1.494500,-0.010996,-0.009010,-0.008858
1765917992.867006,-9.544475,0.202056,-0.756815,-0.003360,0.001374,0.006567
1765917992.867206,-10.257052,0.058584,1.061693,-0.007483,-0.007025,-0.006567
1765917992.867406,-9.572572,0.225968,0.692252,-0.009163,-0.005498,0.004429
1765917992.867606,-10.167382,0.258250,0.332975,-0.006872,-0.007025,-0.001985
1765917992.867790,-9.598277,0.048422,1.131038,-0.008399,-0.007483,0.002138
1765917992.867990,-9.598277,0.048422,1.131038,-0.008399,-0.006109,0.002138
1765917992.868190,-9.630558,-0.187709,0.229555,-0.007636,-0.008399,-0.001985
1765917992.868390,-9.711859,-0.727523,-0.463893,-0.002291,-0.009316,0.000916
1765917992.868590,-9.924078,-0.056193,-0.026303,-0.009927,-0.003971,-0.000916
1765917992.868787,-9.456000,-0.511717,-0.306074,-0.009010,-0.008705,0.001680
1765917992.868987,-9.456000,-0.511717,-0.306074,-0.009010,-0.005956,0.001680
1765917992.869187,-9.374102,-0.187709,-0.379005,-0.005192,-0.007636,0.006414
1765917992.869387,-10.754423,0.384983,0.811215,-0.009316,-0.005498,-0.007025
1765917992.869587,-8.987326,0.166786,-0.240316,-0.006261,-0.004734,0.005192
1765917992.869776,-11.176470,1.335485,0.715567,-0.006872,-0.010537,-0.007483
1765917992.870026,-8.217359,-1.540531,0.271401,-0.006720,-0.005956,0.005040
1765917992.870276,-11.499281,1.636777,-0.074725,-0.008552,-0.004887,-0.005498
1765917992.870526,-8.589190,-1.560856,0.783118,-0.009316,-0.011606,0.003207
1765917992.870799,-11.551888,1.174079,0.231946,-0.009010,-0.002902,-0.009468
1765917992.870999,-8.388927,-1.153754,2.332018,-0.008552,-0.002902,0.008705
1765917992.871199,-11.627212,1.533357,-1.014467,-0.009163,-0.006261,-0.010537
1765917992.871399,-7.398373,-1.195600,1.782640,-0.010843,-0.009774,0.009163
1765917992.871599,-12.696077,2.428861,-0.085485,-0.008399,-0.003818,-0.009927
1765917992.871794,-7.875418,-2.241750,0.255858,-0.012523,-0.009316,0.005498
1765917992.872044,-10.719750,0.971425,-0.796270,-0.004276,-0.000611,-0.000611
1765917992.872294,-9.912720,-0.905069,1.571018,-0.017104,-0.005956,-0.004123
1765917992.872544,-10.130320,1.324725,-1.144189,-0.001069,-0.010537,-0.002443
1765917992.872785,-9.909731,-0.365854,2.645863,-0.015119,-0.004734,-0.001222
1765917992.872985,-10.107005,0.857245,-1.704328,-0.005040,-0.007483,0.000153
1765917992.873185,-8.354854,-0.896700,2.234576,-0.012065,-0.012217,0.000764
1765917992.873385,-11.106526,1.336681,-1.886059,-0.001833,-0.006109,-0.004887
1765917992.873585,-8.095408,-0.995935,1.092778,-0.011759,-0.004429,0.001374
1765917992.873812,-10.508725,0.529053,-1.663080,-0.001833,-0.003818,-0.003207
1765917992.874062,-9.317311,-0.585844,1.113701,-0.012217,-0.002749,-0.004429
1765917992.874312,-10.326996,0.093257,-1.541128,-0.003360,-0.009468,0.001985
1765917992.874562,-9.675991,-0.922405,1.373744,-0.012217,-0.007025,-0.003971
1765917992.874772,-10.546388,0.235533,-1.183644,-0.001985,-0.009621,-0.003207
1765917992.874972,-9.366928,-0.706002,1.512434,-0.011912,-0.001680,-0.003360
1765917992.875172,-10.306072,0.314443,-1.221903,-0.006261,-0.005956,0.001069
1765917992.875372,-9.112266,-0.636059,0.865614,-0.011148,-0.006109,-0.001985
1765917992.875572,-9.986848,-0.050215,-0.411286,-0.011148,-0.004734,-0.001985
1765917992.875800,-9.930654,0.037064,0.796270,-0.010843,-0.007178,-0.003512
1765917992.876000,-9.580342,-0.210426,0.959469,-0.003971,-0.007178,0.005803
1765917992.876200,-10.656384,0.716164,0.280368,-0.009774,-0.003360,-0.005192
1765917992.876400,-8.878526,-0.591822,0.963654,-0.005345,-0.003360,0.004887
1765917992.876600,-11.103539,1.164515,0.114778,-0.005345,-0.001985,0.004887
1765917992.876842,-8.516857,-0.869201,0.799856,-0.009468,-0.008858,0.004429
1765917992.877092,-10.747249,1.178862,0.673123,-0.006567,-0.008858,-0.002443
1765917992.877342,-9.227044,-1.306791,2.083931,-0.009621,-0.007330,-0.002902
1765917992.877592,-10.864417,1.758728,0.074127,-0.006720,-0.004581,-0.005040
1765917992.877780,-10.132113,-0.419656,0.956480,-0.010996,-0.004581,-0.003360
1765917992.877980,-9.288616,-0.822573,-0.396939,-0.003054,-0.003054,0.006567
1765917992.878180,-10.752031,0.472262,0.734098,-0.010385,-0.004887,-0.006414
1765917992.878380,-9.528933,-0.823171,-0.540411,-0.003971,-0.007636,0.005498
1765917992.878580,-9.962935,-0.460904,0.657580,-0.013134,-0.002443,-0.003971
1765917992.878822,-10.279769,0.928981,-0.029890,-0.002902,-0.002443,-0.000153
1765917992.879022,-10.215207,-0.082496,1.074844,-0.009774,-0.005803,-0.002596
1765917992.879222,-9.603060,0.010163,-0.761597,-0.007330,-0.006720,0.000764
1765917992.879422,-10.445958,0.052606,0.682688,-0.011454,-0.009316,-0.004734
1765917992.879622,-9.623384,0.047824,-1.496891,-0.005651,-0.005345,0.004429
1765917992.879782,-10.504542,-0.790889,1.040172,-0.013592,-0.005345,-0.005956
1765917992.880032,-8.953849,-0.137494,-0.516499,-0.013592,-0.005956,-0.005956
1765917992.880282,-10.533237,-0.474653,1.519608,-0.012523,-0.011912,-0.004123
1765917992.880532,-8.773314,-0.200861,-0.472262,-0.005040,-0.008094,0.004887
1765917992.880791,-10.893710,-0.224773,1.748565,-0.015882,-0.003665,-0.006872
1765917992.880991,-8.885700,0.251076,-1.135820,-0.000611,-0.003665,0.005345
1765917992.881191,-8.885700,0.251076,-1.135820,-0.000611,-0.007941,0.005345
1765917992.881391,-9.287420,0.760402,-2.272836,-0.000764,-0.008399,0.006414
1765917992.881591,-11.046148,0.024510,2.761836,-0.014661,-0.008094,-0.006414
1765917992.881811,-9.527737,-0.071736,-1.434720,-0.007025,-0.004887,0.000764
1765917992.882011,-9.228837,-0.271401,1.545911,-0.012675,-0.006567,-0.001069
1765917992.882211,-10.371830,-0.034672,-0.429818,-0.007483,-0.012065,-0.005498
1765917992.882411,-9.808702,0.911047,0.456719,-0.007483,-0.008399,0.000153
1765917992.882611,-10.151840,-0.789096,1.040770,-0.011759,-0.008399,-0.001527
1765917992.882799,-9.954566,0.712578,-1.199187,-0.011759,-0.007789,-0.001527
1765917992.883049,-9.341224,-1.552487,2.104854,-0.010690,-0.005192,-0.003207
1765917992.883299,-10.587636,1.362984,-1.273314,-0.001833,-0.008705,0.004123
1765917992.883549,-9.254542,-1.586561,2.013391,-0.010843,-0.007941,-0.006414
1765917992.883738,-10.092059,0.657580,-0.978599,-0.003207,-0.006261,0.008705
1765917992.883938,-11.141796,-0.170373,1.404830,-0.013286,-0.007178,-0.014508
1765917992.884138,-9.264107,-0.200861,-0.658178,-0.004123,-0.008247,0.011301
1765917992.884338,-11.445479,0.389766,1.639168,-0.016341,-0.003665,-0.013897
1765917992.884538,-9.329267,0.194883,-0.643831,-0.001069,-0.006567,0.011454
1765917992.884726,-10.999520,1.006097,1.366571,-0.010843,-0.005956,-0.011454
1765917992.884976,-10.999520,1.006097,1.366571,-0.010843,-0.005498,-0.011454
1765917992.885226,-10.557148,0.422047,1.056910,-0.009621,-0.007789,-0.007636
1765917992.885476,-9.275465,-0.493783,0.141081,-0.007025,-0.009010,0.005040
1765917992.885759,-10.436392,0.178144,1.065877,-0.010232,-0.007941,-0.006567
1765917992.885959,-9.013629,-0.051411,0.301291,-0.005040,-0.003512,0.006567
1765917992.886159,-10.625298,0.469871,0.424438,-0.008858,-0.008094,-0.005651
1765917992.886359,-8.891678,0.083692,0.099235,-0.008247,-0.009316,0.005498
1765917992.886559,-10.903872,0.099235,0.326399,-0.008247,-0.008399,-0.006414
1765917992.886755,-8.053562,-0.720947,0.320421,-0.006109,-0.006414,0.006720
1765917992.886955,-11.697153,0.483022,1.138211,-0.012523,-0.008552,-0.010079
1765917992.887155,-8.026063,-0.914634,-0.153037,-0.004123,-0.004887,0.008247
1765917992.887355,-11.453849,0.458513,1.349832,-0.013744,-0.004887,-0.012828
1765917992.887555,-8.587995,-0.318627,-2.034911,-0.008247,-0.002443,0.008858
1765917992.887766,-11.378525,-0.557150,0.778336,-0.009621,-0.004887,-0.003512
1765917992.888016,-10.200860,0.202056,-0.613343,-0.005192,-0.007941,-0.000458
1765917992.888266,-9.424915,-0.564323,1.380320,-0.009468,-0.006261,0.002443
1765917992.888516,-9.950979,0.135103,-0.600191,-0.007025,-0.008552,-0.005345
1765917992.888774,-9.797942,0.099235,0.539216,-0.009010,-0.003971,0.004581
1765917992.888974,-10.515302,-0.020325,0.404113,-0.011301,-0.010843,-0.005956
1765917992.889174,-9.239597,-0.472262,-0.578670,-0.005040,-0.003971,0.007789
1765917992.889374,-10.526062,-0.022716,0.453132,-0.008399,-0.001985,-0.011148
1765917992.889574,-9.272476,-0.147059,-1.419775,-0.002902,-0.011301,0.011454
1765917992.889747,-10.613341,-0.070540,1.084409,-0.009163,-0.011301,-0.010232
1765917992.889947,-9.324485,0.038857,-0.518890,-0.004123,-0.001680,0.009774
1765917992.890147,-10.320420,-0.048422,1.202176,-0.011148,-0.007941,-0.009010
1765917992.890347,-9.263509,0.060976,-0.252272,-0.006414,-0.007178,0.004887
1765917992.890547,-10.307866,0.197274,0.932568,-0.010996,-0.006109,-0.008858
1765917992.890736,-8.992107,-0.730512,-0.203252,-0.007483,-0.002291,0.006261
1765917992.890986,-10.422045,0.601387,-0.001196,-0.007178,-0.008858,-0.008094
1765917992.891236,-9.347201,-0.690459,0.697633,-0.009316,-0.004581,0.007178
1765917992.891486,-10.930176,0.545791,0.227762,-0.006720,-0.006261,-0.003360
1765917992.891793,-8.656742,-1.148972,1.549498,-0.009468,-0.005040,0.008858
1765917992.891993,-11.983499,1.580583,0.462697,-0.009316,-0.007636,-0.011912
1765917992.892193,-7.790530,-1.368962,1.319942,-0.009468,-0.011912,0.010690
1765917992.892393,-12.413916,1.366571,0.312052,-0.009316,-0.008552,-0.016035
1765917992.892593,-7.575920,-1.212936,1.569823,-0.008094,-0.006872,0.012523
1765917992.892729,-12.165230,1.905787,-0.683883,-0.006261,-0.014355,-0.016952
1765917992.892979,-7.822213,-1.469392,1.685796,-0.008399,-0.006109,0.007483
1765917992.893229,-11.978716,1.527379,-0.799856,-0.005803,-0.005040,-0.005040
1765917992.893479,-8.234695,-1.221903,1.417384,-0.007789,-0.004734,0.005498
1765917992.893754,-11.580582,1.624820,-1.170492,-0.005498,-0.007178,-0.005345
1765917992.893954,-8.719511,-1.400645,1.590148,-0.012981,-0.009621,-0.001680
1765917992.894154,-10.963054,1.070062,-1.116690,-0.005651,-0.007789,-0.003207
1765917992.894354,-9.188784,-0.937350,2.471305,-0.011912,-0.008247,-0.000153
1765917992.894554,-11.007890,0.481827,-0.706600,-0.006567,-0.004734,-0.001069
1765917992.894777,-8.728478,-0.918819,2.080942,-0.008094,-0.004734,0.002291
1765917992.894977,-8.728478,-0.918819,2.080942,-0.008094,-0.003054,0.002291
1765917992.895177,-8.551529,-0.587040,0.710186,-0.009010,-0.005040,0.004734
1765917992.895377,-11.135818,0.090866,-0.145863,-0.004734,-0.004276,-0.004123
1765917992.895577,-8.981347,-0.531444,0.593018,-0.010232,-0.003207,0.000916
1765917992.895722,-10.119559,0.009565,0.276781,-0.006720,-0.007025,0.002443
1765917992.895972,-10.119559,0.009565,0.276781,-0.006720,-0.008552,0.002443
1765917992.896222,-9.348397,-0.047824,-0.088474,-0.003512,-0.002596,0.002902
1765917992.896472,-10.862025,0.105811,0.646222,-0.011912,-0.008552,-0.005040
1765917992.896734,-8.700381,-0.300693,0.957676,-0.007178,-0.007330,0.008399
1765917992.896934,-11.596125,0.897298,0.873386,-0.012065,-0.007178,-0.011148
1765917992.897134,-8.171926,-1.518412,0.489000,-0.006720,-0.005345,0.006567
1765917992.897334,-11.409611,1.274510,0.301291,-0.010537,-0.006414,-0.008247
1765917992.897534,-9.213892,-1.275705,0.637255,-0.008247,-0.006414,0.001680
1765917992.897732,-10.086679,0.646222,-0.835724,-0.005803,-0.005803,0.003818
1765917992.897982,-9.532519,-0.756217,1.801769,-0.012065,-0.005651,0.000000
1765917992.898232,-9.946795,1.232066,-0.836920,-0.003054,-0.008247,-0.001374
1765917992.898482,-8.712935,-0.942133,2.002032,-0.006261,-0.008705,0.005803
1765917992.898754,-11.802964,1.446676,-0.872788,-0.007483,-0.008705,-0.008247
1765917992.898954,-8.372787,-1.788020,0.579866,-0.014050,-0.006872,0.004123
1765917992.899154,-10.708391,0.995935,0.506934,-0.006872,-0.005498,-0.002749
1765917992.899354,-10.288735,1.090387,0.888331,-0.012675,-0.002443,-0.006261
1765917992.899554,-9.499640,-1.023434,-0.386777,-0.007025,-0.009468,0.005192
1765917992.899817,-10.341940,0.018532,0.570899,-0.013439,-0.009621,-0.007025
1765917992.900017,-10.062170,-0.117767,-1.250000,-0.013439,-0.005498,-0.007025
1765917992.900217,-9.765063,-0.277379,1.278096,-0.009468,-0.008552,-0.001680
1765917992.900417,-9.980869,0.245098,-1.506456,-0.005651,-0.008552,0.002443
1765917992.900617,-9.980869,0.245098,-1.506456,-0.005651,-0.003512,0.002443
1765917992.900781,-9.840983,0.098039,-1.366571,-0.004276,-0.005192,0.004429
1765917992.901031,-10.141079,-0.028097,1.600909,-0.009621,-0.005956,-0.003665
1765917992.901281,-9.781802,-0.156624,-0.926590,-0.005803,-0.003665,0.002596
1765917992.901531,-10.423838,0.087279,1.737207,-0.013439,-0.003665,-0.004734
1765917992.901747,-10.423838,0.087279,1.737207,-0.013439,-0.007330,-0.004734
1765917992.901947,-10.398134,-0.245098,1.426351,-0.010690,-0.003512,-0.004429
1765917992.902147,-9.096126,0.172764,-1.900406,-0.002596,-0.008705,0.007330
1765917992.902347,-9.983260,-0.909852,1.579388,-0.016188,-0.006261,-0.007789
1765917992.902547,-9.276661,0.216404,-0.875179,-0.005345,-0.005192,0.004429
1765917992.902726,-10.624699,0.324008,1.412004,-0.010996,-0.003818,-0.010690
1765917992.902926,-9.225250,-0.224175,-0.425036,-0.003360,-0.010843,0.006567
1765917992.903126,-10.810018,0.149450,1.651124,-0.010843,-0.005498,-0.004581
1765917992.903326,-9.569583,0.133907,-1.629603,-0.004123,-0.002902,0.004887
1765917992.903526,-9.930654,-0.398135,1.376136,-0.008247,-0.002902,-0.003512
1765917992.903743,-9.610233,-0.100430,-0.616930,-0.007941,-0.007789,0.001527
1765917992.903993,-9.717837,0.194285,0.719751,-0.009468,-0.008094,-0.005192
1765917992.904243,-10.338352,-0.229555,-0.373027,-0.010537,-0.007941,-0.001374
1765917992.904493,-9.182806,0.532042,-0.127929,-0.000611,-0.011454,0.007330
1765917992.904776,-11.281683,-0.210426,0.728120,-0.014813,-0.009316,-0.006261
1765917992.904976,-9.018411,0.347322,-0.986370,-0.001833,-0.007636,0.006261
1765917992.905176,-10.486609,-0.857843,1.019847,-0.015730,-0.004581,-0.005345
1765917992.905376,-9.146938,0.725729,-1.972740,-0.002596,-0.006414,0.005956
1765917992.905576,-9.146938,0.725729,-1.972740,-0.002596,-0.004734,0.005956
1765917992.905841,-8.862983,0.108202,-1.550693,0.002596,-0.007483,0.008247
1765917992.906091,-10.903872,0.399330,1.327714,-0.015119,-0.007941,-0.008858
1765917992.906341,-9.029171,-0.841105,-1.079029,-0.004429,-0.007941,0.002749
1765917992.906591,-10.187110,0.322214,0.896700,-0.012217,-0.007941,-0.004734
1765917992.906813,-10.050214,0.168580,0.659971,-0.006872,-0.006567,-0.001374
1765917992.907013,-10.154231,-0.370636,0.979196,-0.009163,-0.007025,-0.002138
1765917992.907213,-9.175035,0.153037,-0.064562,-0.006567,-0.005040,0.002291
1765917992.907413,-10.432806,-0.808226,1.004304,-0.012675,-0.004887,-0.004734
1765917992.907613,-8.873146,0.125538,-0.436394,-0.002596,-0.008552,0.003054
1765917992.907777,-11.227880,0.481827,1.357006,-0.009010,-0.004581,-0.009468
1765917992.907977,-8.886894,-0.231349,-0.213415,-0.003971,-0.001833,0.005803
1765917992.908177,-10.846484,0.123147,1.182449,-0.010537,-0.005192,-0.004429
1765917992.908377,-8.891678,-0.418460,-1.676231,-0.002443,-0.008094,0.008399
1765917992.908577,-11.061093,-0.173362,1.227283,-0.010996,-0.008094,-0.007178
1765917992.908785,-8.949664,-0.035270,-1.926112,-0.005498,-0.010996,0.004887
1765917992.909035,-9.924676,-0.050215,2.844332,-0.013897,-0.007025,-0.001833
1765917992.909285,-10.298899,0.488403,-1.004304,-0.003512,-0.009927,-0.000153
1765917992.909535,-9.497249,0.108800,1.267336,-0.009927,-0.005345,-0.000916
1765917992.909762,-10.163198,-0.540411,-0.543998,-0.007789,-0.005345,-0.000153
1765917992.909962,-9.314322,0.396939,0.406504,-0.007636,-0.007025,-0.001069
1765917992.910162,-10.504542,-0.376016,0.576877,-0.012981,-0.003971,-0.001985
1765917992.910362,-9.137971,-0.353300,-0.332975,-0.004887,-0.007483,0.006567
1765917992.910562,-10.919415,0.320421,0.639048,-0.013286,-0.005498,-0.006720
1765917992.910921,-9.051888,-0.938546,-0.557150,-0.001985,-0.004887,0.006414
1765917992.911121,-10.019726,0.055595,0.890124,-0.001985,-0.006261,0.006414
1765917992.911321,-9.906742,0.787900,0.282162,-0.005192,-0.010232,-0.000764
1765917992.911521,-10.126732,0.543400,0.724534,-0.009774,-0.010232,-0.002291
1765917992.911721,-10.002390,-0.159015,0.786705,-0.008399,-0.007178,0.002138
1765917992.911790,-9.980869,-0.289933,-0.104615,-0.008705,-0.008247,0.000458
1765917992.912040,-9.594690,-0.231946,0.818986,-0.006261,-0.010385,-0.000916
1765917992.912290,-10.572094,0.054998,0.411286,-0.009010,-0.006720,-0.001222
1765917992.912540,-8.828311,-0.760402,0.894907,-0.004734,-0.006720,0.004276
1765917992.912793,-10.977999,1.077236,0.410091,-0.008705,-0.005956,-0.002291
1765917992.912993,-9.057866,-0.386179,0.827355,-0.008552,-0.009316,0.001680
1765917992.913193,-10.970826,0.763988,0.016738,-0.009163,-0.006567,-0.004429
1765917992.913393,-9.012433,-0.289335,1.206360,-0.007178,-0.009316,0.001374
1765917992.913593,-10.831539,0.258250,0.508130,-0.006720,-0.009316,-0.005651
1765917992.913852,-8.156384,-0.430416,1.046748,-0.003512,-0.007330,0.005498
1765917992.914052,-11.268530,-0.295313,1.238642,-0.012370,-0.002902,-0.006567
1765917992.914252,-8.818746,0.328790,-1.019249,-0.004887,-0.004887,0.003665
1765917992.914452,-10.572692,-0.393352,0.883548,-0.010537,-0.006720,-0.001527
1765917992.914652,-9.746531,0.048422,-0.597800,-0.004581,-0.006261,0.001069
1765917992.914757,-10.188306,0.135103,0.524868,-0.008552,-0.006720,-0.002138
1765917992.915007,-9.850550,-0.417264,1.262554,-0.007636,-0.006109,0.002596
1765917992.915257,-10.129124,-0.006576,1.032998,-0.008858,-0.006109,0.002596
1765917992.915507,-10.129124,-0.006576,1.032998,-0.008858,-0.011301,0.002596
1765917992.915747,-11.032997,-0.447154,1.142994,-0.008705,-0.001069,-0.005345
1765917992.915947,-9.149927,1.034194,-2.491630,-0.003665,-0.010537,0.003207
1765917992.916147,-9.582734,-1.355811,3.076279,-0.012065,-0.009927,-0.001069
1765917992.916347,-10.506933,0.652798,-1.419177,-0.004734,-0.009927,0.000000
1765917992.916547,-10.506933,0.652798,-1.419177,-0.004734,-0.003665,0.000000
1765917992.916754,-11.477162,0.665949,-0.587040,-0.007789,-0.008552,-0.004734
1765917992.916954,-8.928741,-0.314443,0.927786,-0.007941,-0.006414,-0.000153
1765917992.917154,-10.176947,-0.404113,-0.436394,-0.009163,-0.009621,0.000611
1765917992.917354,-9.036345,-0.161406,0.449546,-0.007636,-0.009621,-0.000153
1765917992.917554,-10.512910,-0.094452,0.294715,-0.008552,-0.001833,-0.000916
1765917992.917787,-10.150645,0.033477,0.795672,-0.009468,-0.006567,-0.001833
1765917992.917987,-10.285748,0.050813,0.526064,-0.006414,-0.006567,-0.002596
1765917992.918187,-9.549257,0.141679,0.375418,-0.007789,-0.007025,0.000458
1765917992.918387,-9.901959,0.208034,0.398135,-0.010385,-0.004887,-0.000153
1765917992.918587,-9.708273,0.165591,0.274988,-0.009010,-0.006261,0.000764
1765917992.918750,-9.698708,0.125538,0.242707,-0.005192,-0.009163,0.000764
1765917992.918950,-9.866092,-0.099235,0.578670,-0.005803,-0.012675,-0.002902
1765917992.919150,-9.866092,-0.099235,0.578670,-0.005803,-0.008399,-0.002902
1765917992.919350,-10.047822,0.204448,0.404113,-0.008858,-0.008399,-0.000153
1765917992.919550,-9.897775,-0.026303,0.423242,-0.008094,-0.007941,-0.001069
1765917992.919764,-9.857722,0.082496,0.168580,-0.007025,-0.007330,-0.000458
1765917992.919964,-9.833811,-0.035270,0.314443,-0.009163,-0.010537,-0.000153
1765917992.920164,-9.833811,-0.035270,0.314443,-0.009163,-0.011759,-0.000153
1765917992.920364,-9.945002,-0.074127,0.219990,-0.006567,-0.008552,-0.001069
1765917992.920564,-10.227163,-0.016141,0.373027,-0.006109,-0.009621,-0.002443
1765917992.920770,-10.038857,-0.075921,0.364658,-0.008399,-0.002596,-0.001527
1765917992.920970,-9.870873,-0.145863,0.281564,-0.011454,-0.002443,-0.000305
1765917992.921170,-9.825441,-0.176949,0.319225,-0.007941,-0.006414,-0.001680
1765917992.921370,-10.005977,-0.032281,0.445959,-0.007941,-0.009010,-0.003665
1765917992.921570,-9.992825,0.063367,0.258250,-0.006567,-0.006567,-0.002291
1765917992.921774,-10.056191,-0.066356,0.347322,-0.008705,-0.004734,-0.002596
1765917992.922024,-9.735771,-0.180536,0.245098,-0.012217,-0.004734,-0.001069
1765917992.922274,-10.029292,-0.025108,0.735294,-0.009621,-0.007941,0.000153
1765917992.922524,-10.194283,0.298900,0.676710,-0.007941,-0.009621,-0.004276
1765917992.922851,-9.922284,0.030488,0.374223,-0.008858,-0.003512,-0.000153
1765917992.923051,-10.133906,0.271401,0.546389,-0.007636,-0.009316,-0.000764
1765917992.923251,-10.237924,0.208034,0.509326,-0.007483,-0.009316,0.001527
1765917992.923451,-10.101624,-0.155428,0.567910,-0.005345,-0.007941,-0.005345
1765917992.923651,-10.026302,-0.219990,0.570301,-0.009621,-0.004123,0.002291
1765917992.923762,-10.083092,0.087877,0.601387,-0.004276,-0.010996,-0.003665
1765917992.923962,-10.047226,0.315041,0.717360,-0.004276,-0.005803,-0.003665
1765917992.924162,-9.921089,0.374223,0.228360,-0.010843,-0.011912,-0.001680
1765917992.924362,-9.803921,0.008369,0.184122,-0.010232,-0.009010,-0.000458
1765917992.924562,-9.799137,-0.161406,-0.185318,-0.004429,-0.005345,-0.001527
1765917992.924752,-9.867885,-0.221186,0.112386,-0.009163,-0.003207,0.000916
1765917992.924952,-10.031085,-0.176949,0.222382,-0.011148,-0.007483,-0.003054
1765917992.925152,-9.898373,-0.129125,0.274988,-0.009468,-0.007483,0.002138
1765917992.925352,-9.998802,0.002989,0.328192,-0.007789,-0.004734,-0.001680
1765917992.925552,-9.795551,-0.059780,0.263630,-0.006109,-0.003360,-0.000153
1765917992.925787,-9.974891,0.052009,0.346724,-0.009316,-0.008552,-0.001069
1765917992.925987,-9.991630,0.098039,0.407700,-0.011606,-0.007636,-0.001069
1765917992.926187,-10.001194,-0.160808,0.369440,-0.008552,-0.007025,-0.000305
1765917992.926387,-9.999401,-0.031683,0.300693,-0.010079,-0.006414,-0.001833
1765917992.926587,-9.991032,-0.205045,0.340746,-0.009927,-0.008399,-0.000764
1765917992.926754,-9.863700,-0.034672,0.253467,-0.006109,-0.008399,0.000000
1765917992.926954,-9.890003,-0.151841,0.318030,-0.007330,-0.005956,0.000458
1765917992.927154,-10.078310,0.086083,0.359876,-0.006109,-0.008858,-0.003665
1765917992.927354,-9.827832,-0.192492,0.448350,-0.006109,-0.007025,-0.003665
1765917992.927554,-10.059779,0.007174,0.361071,-0.008399,-0.009621,-0.001985
1765917992.927747,-9.837996,0.056193,0.272597,-0.006872,-0.005956,-0.001374
1765917992.927947,-9.853538,0.002391,0.211621,-0.009316,-0.005498,-0.000458
1765917992.928147,-9.833811,-0.008369,0.229555,-0.008552,-0.003971,-0.000611
1765917992.928347,-9.930654,0.004782,0.255858,-0.008399,-0.007941,-0.001069
1765917992.928547,-9.903752,0.023912,0.257054,-0.007330,-0.009163,0.000764
1765917992.928771,-9.975489,-0.105811,0.319225,-0.010385,-0.006567,-0.002749
1765917992.928971,-10.013150,-0.194883,0.355691,-0.008705,-0.008552,0.000916
1765917992.929171,-10.009563,-0.034672,0.416069,-0.007941,-0.003971,-0.001833
1765917992.929371,-9.994021,0.082496,0.367049,-0.009774,-0.003971,-0.000153
1765917992.929571,-9.910329,0.059780,0.333572,-0.007178,-0.009774,-0.001069
1765917992.929790,-9.891797,-0.077116,0.224773,-0.007025,-0.007178,0.003207
1765917992.929990,-9.918099,-0.083692,0.157819,-0.006261,-0.005192,-0.001222
1765917992.930190,-9.840386,-0.112984,0.252272,-0.009010,-0.005956,-0.000458
1765917992.930390,-9.983260,0.001196,0.324605,-0.010232,-0.005956,-0.003818
1765917992.930590,-9.952174,-0.088474,0.530846,-0.009010,-0.006414,0.000153
1765917992.930822,-9.919893,-0.058584,0.280368,-0.005345,-0.004734,-0.002443
1765917992.931022,-9.903752,-0.068747,0.329986,-0.008399,-0.004123,-0.001374
1765917992.931222,-9.918698,-0.051411,0.265423,-0.006872,-0.008247,-0.001374
1765917992.931422,-9.787182,0.039455,0.260641,-0.007330,-0.008247,0.000305
1765917992.931622,-9.879243,-0.008967,0.277379,-0.007330,-0.008858,0.000305
1765917992.931776,-9.851147,0.057389,0.254663,-0.006414,-0.010385,0.000458
1765917992.931976,-10.039454,-0.022716,0.407700,-0.007025,-0.009163,-0.001680
1765917992.932176,-9.958152,-0.021521,0.350311,-0.008094,-0.006109,0.001069
1765917992.932376,-9.886416,-0.113582,0.289335,-0.010537,-0.007178,0.000305
1765917992.932576,-9.886416,-0.113582,0.289335,-0.010537,-0.007483,0.000305
1765917992.932767,-9.909132,-0.040053,0.269010,-0.007636,-0.006261,-0.004276
1765917992.932967,-9.935436,-0.020325,0.246294,-0.008705,-0.006261,0.000611
1765917992.933167,-9.895982,-0.045433,0.277379,-0.007636,-0.006872,0.000153
1765917992.933367,-9.983858,-0.049020,0.316834,-0.006414,-0.005498,-0.001833
1765917992.933567,-10.020324,-0.072334,0.407102,-0.008705,-0.007330,-0.003665
1765917992.933792,-9.928263,-0.146461,0.273792,-0.010385,-0.001985,0.000000
1765917992.933992,-9.815877,-0.118364,0.150646,-0.007025,-0.007789,-0.003054
1765917992.934192,-9.851147,0.028097,0.276184,-0.007025,-0.006872,-0.003054
1765917992.934392,-9.885221,0.002391,0.357484,-0.009468,-0.009468,0.001527
1765917992.934592,-9.928263,-0.011956,0.342539,-0.008247,-0.007636,0.000458
1765917992.934763,-9.902557,-0.058584,0.276184,-0.009468,-0.006109,0.000458
1765917992.934963,-9.901959,-0.063367,0.291129,-0.007178,-0.006261,0.000916
1765917992.935163,-9.877449,-0.011956,0.331181,-0.006109,-0.009621,0.000000
1765917992.935363,-9.811094,-0.022716,0.235533,-0.005498,-0.003818,-0.000153
1765917992.935563,-9.858320,-0.027499,0.239120,-0.008552,-0.005651,-0.001069
1765917992.935759,-10.025107,-0.050215,0.358680,-0.007025,-0.007789,-0.000305
1765917992.935959,-10.034670,-0.069345,0.429220,-0.012828,-0.007025,0.000458
1765917992.936159,-10.044236,-0.043639,0.331181,-0.008858,-0.006567,-0.001222
1765917992.936359,-9.906742,0.001196,0.338355,-0.008094,-0.004887,0.000305
1765917992.936559,-9.916904,0.019727,0.254065,-0.008705,-0.005498,0.001069
1765917992.936765,-9.953967,-0.014347,0.361071,-0.008094,-0.007178,-0.000153
1765917992.936965,-10.056191,-0.094452,0.390961,-0.006872,-0.007789,-0.000916
1765917992.937165,-10.012553,-0.058584,0.369440,-0.007178,-0.006414,-0.002902
1765917992.937365,-9.975489,-0.009565,0.348517,-0.008399,-0.007025,-0.002291
1765917992.937565,-9.906742,0.009565,0.270206,-0.009163,-0.005345,0.000153
1765917992.937793,-9.835006,-0.062171,0.248685,-0.009468,-0.009010,-0.001222
1765917992.937993,-9.940218,-0.005978,0.370636,-0.007178,-0.008858,-0.001985
1765917992.938193,-9.946198,-0.076518,0.371832,-0.009010,-0.007636,-0.002291
1765917992.938393,-9.930056,-0.019130,0.291726,-0.008094,-0.007789,-0.001833
1765917992.938593,-9.937828,-0.015543,0.317432,-0.006414,-0.003207,-0.001069
1765917992.938788,-9.937230,0.002989,0.301889,-0.006567,-0.006261,0.000764
1765917992.938988,-9.910927,-0.026303,0.271401,-0.009927,-0.006414,-0.000458
1765917992.939188,-9.924078,-0.056193,0.241511,-0.007483,-0.005651,-0.002443
1765917992.939388,-9.967119,-0.035868,0.309660,-0.005345,-0.006720,-0.002443
1765917992.939588,-9.932447,-0.039455,0.329986,-0.008399,-0.010537,-0.001069
1765917992.939773,-9.911524,-0.052606,0.301291,-0.009163,-0.007330,0.000764
1765917992.939973,-9.879243,-0.042444,0.257652,-0.007330,-0.007483,0.000153
1765917992.940173,-9.857722,-0.041248,0.255858,-0.009927,-0.006720,-0.001527
1765917992.940373,-9.893590,-0.014945,0.242707,-0.005498,-0.006720,-0.001680
1765917992.940573,-9.941415,-0.021521,0.343735,-0.007330,-0.008705,-0.001374
1765917992.940850,-9.934838,-0.062171,0.300693,-0.007330,-0.006261,-0.001985
1765917992.941050,-9.947392,-0.054998,0.317432,-0.009010,-0.008552,-0.001222
1765917992.941250,-9.998802,-0.056193,0.365854,-0.008247,-0.007178,-0.002902
1765917992.941450,-9.976088,-0.035270,0.393352,-0.010690,-0.005345,-0.001527
1765917992.941650,-9.901959,-0.041846,0.316834,-0.007330,-0.004276,-0.001527
1765917992.941832,-9.864896,0.015543,0.217599,-0.006720,-0.007330,-0.001833
1765917992.942082,-9.891797,-0.062171,0.296509,-0.008552,-0.007483,-0.001985
1765917992.942332,-10.001194,-0.008369,0.349115,-0.007941,-0.005040,0.000305
1765917992.942582,-10.034670,-0.040053,0.430416,-0.008247,-0.006872,-0.001680
1765917992.942907,-10.014943,-0.047824,0.357484,-0.007636,-0.008858,-0.001222
1765917992.943107,-9.949782,-0.019130,0.292922,-0.006261,-0.007941,-0.001680
1765917992.943307,-9.935436,-0.035868,0.187709,-0.006872,-0.004734,-0.001222
1765917992.943507,-9.912720,-0.048422,0.230751,-0.006567,-0.007025,-0.000153
1765917992.943707,-9.989837,-0.024510,0.345528,-0.007330,-0.003665,-0.001069
1765917992.943802,-10.004781,-0.060976,0.382592,-0.007636,-0.005651,-0.002291
1765917992.944002,-9.998206,-0.060976,0.356289,-0.009621,-0.005040,-0.000764
1765917992.944202,-9.949186,-0.035868,0.328790,-0.007178,-0.007330,0.000153
1765917992.944402,-9.894188,-0.038857,0.263032,-0.006567,-0.007330,-0.000764
1765917992.944602,-9.939023,-0.032879,0.255261,-0.008399,-0.008094,-0.001222
1765917992.944844,-9.991630,-0.013152,0.417264,-0.009316,-0.005956,0.000000
1765917992.945044,-9.925871,-0.075323,0.354495,-0.006567,-0.008858,0.000000
1765917992.945244,-9.790769,-0.039455,0.153037,-0.007941,-0.005345,-0.001069
1765917992.945444,-9.840386,-0.037064,0.239120,-0.008858,-0.010843,-0.001374
1765917992.945644,-9.840386,-0.037064,0.239120,-0.008858,-0.007178,-0.001374
1765917992.945765,-9.830223,-0.054998,0.184122,-0.006414,-0.010385,-0.004429
1765917992.945965,-9.872069,-0.046628,0.297704,-0.006414,-0.010385,-0.001069
1765917992.946165,-9.961142,-0.029890,0.373027,-0.007636,-0.009163,-0.000458
1765917992.946365,-9.925871,-0.044237,0.338953,-0.007178,-0.006109,0.001527
1765917992.946565,-9.925871,-0.044237,0.338953,-0.007178,-0.007636,0.001527
1765917992.946778,-9.843973,-0.023912,0.267814,-0.008705,-0.007178,-0.001222
1765917992.946978,-9.922284,0.017934,0.307269,-0.006109,-0.007178,-0.000305
1765917992.947178,-9.881036,-0.038259,0.249880,-0.008858,-0.007636,-0.001069
1765917992.947378,-9.913916,-0.003587,0.319225,-0.010385,-0.007330,-0.001222
1765917992.947578,-9.928861,-0.040650,0.343137,-0.007330,-0.007178,-0.002138
1765917992.947834,-9.982663,-0.072932,0.326399,-0.008247,-0.005498,-0.000458
1765917992.948034,-9.938425,-0.101028,0.336561,-0.010079,-0.005498,-0.002443
1765917992.948234,-9.916904,0.000000,0.319225,-0.008094,-0.006109,-0.000916
1765917992.948434,-9.880439,0.057389,0.286944,-0.009468,-0.006109,-0.002138
1765917992.948634,-9.901959,0.010163,0.246294,-0.008399,-0.007941,0.000764
1765917992.948831,-9.964728,-0.054998,0.355093,-0.007178,-0.004887,-0.002138
1765917992.949031,-10.002987,-0.092061,0.411286,-0.007483,-0.004887,-0.002291
1765917992.949231,-9.940218,-0.078312,0.341344,-0.007025,-0.009621,-0.001527
1765917992.949431,-9.901362,0.033477,0.347920,-0.010079,-0.006414,-0.000611
1765917992.949631,-9.918698,0.022716,0.237924,-0.009774,-0.006414,0.000764
1765917992.949807,-9.918698,0.022716,0.237924,-0.009774,-0.008094,0.000764
1765917992.950007,-9.947392,-0.027499,0.306074,-0.007789,-0.008399,0.001069
1765917992.950207,-9.936033,-0.029890,0.326399,-0.008552,-0.009468,-0.001527
1765917992.950407,-10.037063,-0.072932,0.439981,-0.007483,-0.006720,-0.001833
1765917992.950607,-9.973696,-0.049617,0.363462,-0.006872,-0.006720,-0.002443
1765917992.950779,-9.973696,-0.049617,0.363462,-0.006872,-0.008552,-0.002443
1765917992.950979,-9.880439,0.000000,0.258250,-0.007483,-0.011148,0.000153
1765917992.951179,-9.879243,-0.044237,0.267217,-0.010079,-0.005803,0.001374
1765917992.951379,-9.977283,-0.057389,0.386179,-0.008552,-0.010079,-0.000458
1765917992.951579,-10.072930,-0.024510,0.475251,-0.008399,-0.005040,-0.001985
1765917992.951785,-10.005977,-0.022119,0.377810,-0.010232,-0.005040,-0.001527
1765917992.951985,-9.935436,-0.026303,0.288140,-0.007330,-0.008399,0.000000
1765917992.952185,-9.973696,-0.019130,0.321019,-0.009774,-0.008399,0.000611
1765917992.952385,-10.002390,-0.057987,0.335366,-0.006720,-0.004581,0.000153
1765917992.952585,-9.929459,-0.021521,0.269608,-0.007941,-0.005498,-0.000764
1765917992.953822,-9.934240,0.004185,0.363462,-0.009163,-0.005803,-0.003054
1765917992.954022,-9.994021,-0.037064,0.387374,-0.008705,-0.005345,0.000305
1765917992.954222,-10.012553,-0.052606,0.363462,-0.006261,-0.009163,-0.001680
1765917992.954422,-9.967718,-0.063965,0.354495,-0.008247,-0.005040,-0.002443
1765917992.954622,-9.890003,-0.025705,0.255858,-0.007941,-0.005040,-0.002291
1765917992.953902,-9.901959,-0.007174,0.249880,-0.006720,-0.006109,-0.000611
1765917992.954102,-9.974891,-0.041248,0.318627,-0.009163,-0.006109,-0.002749
1765917992.954302,-9.979673,-0.075323,0.357484,-0.009316,-0.005040,-0.000916
1765917992.954502,-9.979673,-0.075323,0.357484,-0.009316,-0.001985,-0.000916
1765917992.954702,-9.838593,-0.037064,0.245696,-0.009468,-0.006872,0.000153
1765917992.954810,-9.868484,-0.037064,0.227164,-0.007941,-0.007483,-0.002443
1765917992.955010,-9.878048,0.000598,0.249880,-0.007178,-0.005192,0.000764
1765917992.955210,-9.879841,0.005978,0.219990,-0.008399,-0.005956,-0.001374
1765917992.955410,-9.853538,-0.068747,0.194883,-0.009010,-0.008094,-0.001374
1765917992.955610,-9.984456,-0.034672,0.438785,-0.007330,-0.006720,-0.000305
1765917992.955836,-9.999401,-0.068747,0.429220,-0.008399,-0.004887,-0.001222
1765917992.956036,-9.968913,-0.010760,0.334768,-0.010079,-0.003512,-0.004123
1765917992.956236,-9.924078,0.029890,0.252272,-0.009163,-0.003512,-0.000916
1765917992.956436,-9.925871,-0.025705,0.277379,-0.011912,-0.005651,0.000000
1765917992.956636,-9.985053,-0.043042,0.343137,-0.010079,-0.005956,0.000305
1765917992.956814,-9.971903,-0.060378,0.322812,-0.006567,-0.003360,-0.001222
1765917992.957014,-9.915112,-0.070540,0.316834,-0.011301,-0.006720,-0.002443
1765917992.957214,-9.968315,-0.028694,0.406504,-0.010079,-0.008094,-0.001985
1765917992.957414,-9.973696,-0.000598,0.301291,-0.007330,-0.008858,-0.001069
1765917992.957614,-9.924676,-0.053802,0.240316,-0.007330,-0.007330,-0.000916
1765917992.957845,-9.917501,-0.031086,0.294715,-0.006720,-0.005192,-0.001374
1765917992.958045,-10.002987,-0.063367,0.385581,-0.006872,-0.004734,0.001069
1765917992.958245,-10.005977,-0.021521,0.373027,-0.009163,-0.007483,-0.001069
1765917992.958445,-10.029292,-0.028694,0.413080,-0.010079,-0.004429,0.000153
1765917992.958645,-9.929459,-0.064562,0.297704,-0.007789,-0.004276,-0.000153
1765917992.959466,-9.894786,-0.057987,0.261239,-0.009621,-0.005192,-0.001833
1765917992.959666,-9.907937,-0.003587,0.257652,-0.007483,-0.004276,0.000153
1765917992.959866,-9.941415,-0.050215,0.315638,-0.008858,-0.007483,-0.001069
1765917992.960066,-9.992227,-0.014945,0.392157,-0.011912,-0.009163,-0.001222
1765917992.960266,-9.983260,-0.044237,0.402917,-0.009163,-0.008247,0.000916
1765917992.959777,-9.935436,-0.054998,0.322812,-0.006414,-0.004429,-0.002138
1765917992.959977,-9.939621,-0.026303,0.352702,-0.008858,-0.003665,-0.002138
1765917992.960177,-9.935436,-0.062769,0.206839,-0.006414,-0.006414,0.000000
1765917992.960377,-9.923481,0.003587,0.290531,-0.008552,-0.007330,-0.002443
1765917992.960577,-9.858918,-0.022119,0.285748,-0.005498,-0.006567,0.000764
1765917992.960833,-9.870873,-0.018532,0.297704,-0.009316,-0.006567,0.002291
1765917992.961033,-9.904350,-0.016141,0.341344,-0.009621,-0.008399,-0.001680
1765917992.961233,-9.942610,-0.036466,0.294118,-0.011301,-0.010385,0.001222
1765917992.961433,-9.991630,-0.014347,0.368245,-0.010843,-0.008858,-0.003360
1765917992.961633,-9.983858,0.009565,0.399928,-0.007330,-0.005345,0.000305
1765917992.961829,-9.931850,-0.020325,0.242707,-0.007789,-0.005345,0.000611
1765917992.962029,-9.935436,-0.025705,0.265423,-0.009774,-0.005803,-0.003207
1765917992.962229,-9.968913,-0.026901,0.321019,-0.006567,-0.004429,-0.001985
1765917992.962429,-9.965326,-0.021521,0.306671,-0.008247,-0.008399,-0.001374
1765917992.962629,-9.986250,0.020923,0.411286,-0.009774,-0.006567,-0.001985
1765917992.962777,-10.027497,0.039455,0.493783,-0.007178,-0.008399,-0.001069
1765917992.962977,-9.916306,-0.008369,0.447154,-0.007330,-0.009927,-0.001833
1765917992.963177,-9.830821,0.010760,0.154830,-0.007178,-0.000611,0.000611
1765917992.963377,-10.028095,-0.059780,0.413678,-0.007178,-0.011454,-0.002138
1765917992.963577,-10.028095,-0.059780,0.413678,-0.007178,0.000611,-0.002138
1765917992.963777,-10.114776,0.056791,0.539813,-0.008399,-0.010537,0.001222
1765917992.963977,-9.874461,0.012554,0.189503,-0.008094,-0.003360,-0.003207
1765917992.964177,-10.002390,-0.051411,0.471664,-0.010079,-0.010079,-0.003512
1765917992.964377,-9.895982,-0.167384,0.237924,-0.006567,-0.010079,0.001222
1765917992.964577,-9.895982,-0.167384,0.237924,-0.006567,-0.004123,0.001222
1765917992.964785,-9.925274,0.108800,0.271401,-0.007941,-0.006872,0.002902
1765917992.964985,-9.809898,-0.045433,0.272597,-0.006720,-0.005345,0.003818
1765917992.965185,-9.787182,-0.149450,0.347920,-0.006261,-0.004429,0.000611
1765917992.965385,-9.744141,0.112386,0.068149,-0.008552,-0.004429,-0.003971
1765917992.965585,-9.784791,0.002391,0.297704,-0.005651,-0.001527,0.006109
1765917992.965782,-10.145862,0.001196,0.622310,-0.006414,-0.010996,0.002596
1765917992.965982,-10.065758,-0.026303,0.508130,-0.007483,-0.005345,0.001833
1765917992.966182,-9.801530,-0.089670,0.077116,-0.010843,-0.006872,0.001069
1765917992.966382,-9.708273,-0.225968,0.089670,-0.009163,-0.006872,0.001833
1765917992.966582,-10.040649,-0.091463,0.486609,-0.005192,-0.010232,-0.004429
1765917992.966805,-10.034670,0.141679,0.482425,-0.006872,-0.003818,-0.005956
1765917992.967055,-10.038258,0.222382,0.382592,-0.012828,-0.003818,0.001833
1765917992.967305,-9.750119,-0.267814,0.071736,-0.012828,-0.001222,0.001833
1765917992.967555,-9.813485,-0.310856,0.206241,-0.006567,-0.009468,-0.002291
1765917992.967777,-9.937230,-0.006576,0.442970,-0.008094,-0.004123,-0.007025
1765917992.967977,-9.921089,0.185916,0.228360,-0.009621,-0.005498,-0.005192
1765917992.968177,-9.895982,0.068149,0.131516,-0.011148,-0.008705,0.000916
1765917992.968377,-9.895982,0.068149,0.131516,-0.011148,-0.006109,0.000916
1765917992.968577,-10.035867,-0.228360,0.456719,-0.008705,-0.006261,0.001069
1765917992.968779,-10.014346,-0.028694,0.316834,-0.007025,-0.006261,-0.005192
1765917992.968979,-9.868484,0.054400,0.132114,-0.008094,-0.004887,-0.002902
1765917992.969179,-9.906742,0.044237,0.221784,-0.007941,-0.007941,0.000305
1765917992.969379,-9.906742,0.044237,0.221784,-0.007941,-0.006414,0.000305
1765917992.969579,-9.897178,-0.083692,0.251076,-0.008399,-0.006720,-0.001374
1765917992.969779,-9.861309,-0.060378,0.221186,-0.007789,-0.005192,-0.000916
1765917992.969979,-9.915112,-0.032281,0.307867,-0.006261,-0.006261,-0.000305
1765917992.970179,-9.909731,-0.076518,0.334768,-0.008094,-0.006261,-0.000305
1765917992.970379,-9.907937,-0.004782,0.243902,-0.006109,-0.009468,-0.003207
1765917992.970579,-9.833811,0.033477,0.191296,-0.009774,-0.010843,-0.002138
1765917992.970787,-9.843375,-0.008369,0.199665,-0.007483,-0.013286,0.001222
1765917992.970987,-9.939023,-0.093257,0.375418,-0.008705,-0.005651,0.001069
1765917992.971187,-9.984456,-0.098039,0.419656,-0.008705,-0.005651,-0.001680
1765917992.971387,-9.897775,-0.021521,0.303682,-0.008094,-0.004581,-0.002291
1765917992.971587,-9.878048,0.018532,0.219990,-0.009468,-0.008858,0.000000
1765917992.971775,-9.852941,-0.026303,0.278575,-0.006720,-0.007178,0.000153
1765917992.971975,-9.867287,-0.066954,0.307269,-0.006720,-0.008247,0.000153
1765917992.972175,-9.849353,-0.066954,0.200263,-0.005192,-0.007330,-0.001833
1765917992.972375,-9.835006,0.008369,0.247489,-0.008858,-0.007636,-0.002291
1765917992.972575,-9.934240,0.000598,0.398135,-0.008705,-0.004429,-0.000764
1765917992.972788,-9.947392,-0.065758,0.402319,-0.008094,-0.004887,0.000458
1765917992.972988,-9.929459,-0.064562,0.266619,-0.008094,-0.004429,0.000000
1765917992.973188,-9.854136,-0.020325,0.190100,-0.006567,-0.002902,-0.001833
1765917992.973388,-9.921686,-0.001793,0.315638,-0.007789,-0.008705,-0.001374
1765917992.973588,-10.010161,0.020325,0.397537,-0.008094,-0.005498,-0.001833
1765917992.973830,-9.999999,-0.009565,0.370636,-0.008094,-0.008858,-0.000611
1765917992.974030,-9.995814,-0.041248,0.393950,-0.009316,-0.006414,-0.002749
1765917992.974230,-9.983858,-0.066954,0.345528,-0.004734,-0.005803,-0.001069
1765917992.974430,-9.925274,-0.042444,0.313845,-0.006567,-0.007178,-0.000764
1765917992.974630,-9.937828,-0.030488,0.268412,-0.006109,-0.007941,-0.002443
1765917992.974795,-9.885221,-0.016738,0.249880,-0.007789,-0.005040,0.001374
1765917992.974995,-9.943806,0.001196,0.335964,-0.007330,-0.006109,0.000000
1765917992.975195,-9.968913,-0.037661,0.414873,-0.008552,-0.002749,-0.001069
1765917992.975395,-9.984456,-0.092061,0.374223,-0.008094,-0.006567,-0.000305
1765917992.975595,-9.973696,-0.056791,0.315638,-0.004581,-0.007941,-0.002291
1765917992.975772,-9.936033,-0.009565,0.303085,-0.007941,-0.003665,-0.001527
1765917992.975972,-9.882831,-0.002391,0.295313,-0.008094,-0.005956,-0.000458
1765917992.976172,-9.890003,-0.017336,0.295911,-0.007941,-0.004276,-0.000153
1765917992.976372,-9.958751,-0.034672,0.332377,-0.007941,-0.003360,-0.000153
1765917992.976572,-9.959349,-0.069943,0.347322,-0.007025,-0.006109,0.000305
1765917992.976829,-9.983260,-0.009565,0.374223,-0.006109,-0.002902,-0.001527
1765917992.977029,-9.924676,-0.040650,0.312052,-0.010385,-0.005803,0.000764
1765917992.977229,-9.964130,0.007174,0.350311,-0.008705,-0.008399,-0.001985
1765917992.977429,-9.961142,-0.024510,0.235533,-0.007178,-0.004123,-0.001069
1765917992.977629,-9.894786,-0.041248,0.227164,-0.006261,-0.005956,-0.000305
1765917992.977788,-9.997607,-0.029890,0.356887,-0.008399,-0.007636,-0.000916
1765917992.977988,-10.003586,-0.032281,0.361071,-0.008858,-0.009010,0.001069
1765917992.978188,-10.032280,-0.047824,0.359876,-0.010232,-0.001069,0.000153
1765917992.978388,-9.946198,-0.048422,0.359876,-0.007483,-0.001069,-0.000764
1765917992.978588,-9.946198,-0.048422,0.359876,-0.007483,-0.003818,-0.000764
1765917992.978777,-9.900764,0.001196,0.246891,-0.007941,-0.006720,-0.002291
1765917992.981809,-9.949186,0.051411,0.283955,-0.006414,-0.004123,-0.002138
1765917992.984779,-9.931252,-0.014945,0.337757,-0.008094,-0.008399,0.003054
1765917992.986814,-9.973696,-0.051411,0.359876,-0.007483,-0.008399,-0.000458
1765917992.989833,-10.008368,-0.062171,0.388570,-0.007330,-0.004581,-0.001527
1765917992.991799,-9.992825,-0.062769,0.341344,-0.009163,-0.005498,-0.001680
1765917992.994878,-10.011356,-0.013152,0.365854,-0.007483,-0.005498,-0.003360
1765917992.996839,-9.989238,0.053204,0.331181,-0.007941,-0.004276,-0.003207
1765917992.998853,-9.906742,0.037064,0.292922,-0.007025,-0.005803,0.000764
1765917993.001840,-9.929459,0.037064,0.274390,-0.007025,-0.002902,0.000764
1765917993.004018,-9.937828,-0.080105,0.331181,-0.009927,-0.008705,0.000611
1765917993.006820,-10.005977,-0.070540,0.367049,-0.006872,-0.008705,0.001222
1765917993.008833,-10.022118,-0.058584,0.406504,-0.006720,-0.004887,-0.001833
1765917993.011787,-9.979673,-0.034672,0.309063,-0.008705,-0.004429,-0.004887
1765917993.013795,-9.952174,0.066954,0.290531,-0.007025,-0.003818,0.000000
1765917993.016798,-9.937828,0.050215,0.280368,-0.007941,-0.007178,0.000305
1765917993.017792,-9.941415,-0.015543,0.312052,-0.010079,-0.007178,0.001527
1765917993.021820,-9.958152,-0.092061,0.288737,-0.010996,-0.006414,0.000000
1765917993.022829,-9.962935,-0.051411,0.320421,-0.008858,-0.006109,-0.001069
1765917993.026819,-9.994021,0.002391,0.340746,-0.007636,-0.005498,-0.003971
1765917993.028790,-10.006575,0.006576,0.401722,-0.009621,-0.002749,-0.003512
1765917993.031836,-10.064561,0.043042,0.389766,-0.008399,-0.005803,-0.000458
1765917993.033853,-9.977283,0.002989,0.346724,-0.008247,-0.000916,-0.000916
1765917993.036841,-9.958152,-0.051411,0.337159,-0.009163,-0.001527,-0.000764
1765917993.038822,-9.958152,-0.053204,0.345528,-0.010690,-0.001527,-0.000916
1765917993.041870,-9.891797,-0.016738,0.211621,-0.008858,-0.002291,-0.001985
1765917993.043821,-9.842180,0.008369,0.159015,-0.010996,-0.002596,-0.004123
1765917993.046973,-9.876852,0.078910,0.276184,-0.008399,-0.005192,-0.005803
1765917993.048938,-9.974891,0.071138,0.457915,-0.008094,-0.006109,-0.005345
1765917993.055071,-9.947392,0.028694,0.390961,-0.010843,-0.004429,0.001222
1765917993.055571,-9.908535,-0.059182,0.236729,-0.011148,-0.005498,0.001680
1765917993.056845,-9.899570,-0.094452,0.217599,-0.008705,-0.007789,-0.002138
1765917993.058820,-9.933045,-0.063367,0.334170,-0.008858,-0.009163,-0.003971
1765917993.061812,-9.907339,0.000000,0.270206,-0.010843,-0.004581,-0.005040
1765917993.063838,-9.848158,0.132114,0.237924,-0.011759,-0.006872,-0.002291
1765917993.066819,-9.892395,0.131516,0.402319,-0.012675,-0.001527,-0.001985
1765917993.069850,-9.971304,-0.081301,0.382592,-0.013439,-0.005040,0.001833
1765917993.071827,-9.892395,-0.179340,0.200861,-0.010843,-0.003054,-0.000305
1765917993.073979,-9.874461,-0.180536,0.272597,-0.012217,-0.005651,-0.003818
1765917993.076910,-9.885221,-0.102822,0.222382,-0.008858,-0.005803,-0.005803
1765917993.078875,-10.001194,0.108800,0.326399,-0.010690,-0.009774,-0.006567
1765917993.081903,-10.038258,0.245098,0.407700,-0.010843,-0.003818,-0.003665
1765917993.083878,-10.012553,0.046628,0.447154,-0.012675,-0.002749,0.000000
1765917993.086868,-10.032280,-0.121951,0.369440,-0.013592,-0.003054,-0.001069
1765917993.088900,-9.984456,-0.142874,0.405308,-0.012370,-0.003665,-0.003818
1765917993.091889,-9.881036,0.039455,0.237924,-0.011606,-0.002291,-0.005040
1765917993.092870,-9.821855,-0.086083,0.190100,-0.012828,-0.005192,-0.001527
1765917993.094853,-9.968913,0.046628,0.211023,-0.012065,-0.006414,-0.005040
1765917993.099836,-9.884026,0.170971,0.447154,-0.012370,-0.007483,-0.001833
1765917993.100336,-9.861309,-0.142276,0.095648,-0.011148,-0.007483,-0.000611
1765917993.103862,-9.907937,-0.072932,0.401124,-0.012523,-0.004581,0.000305
1765917993.106841,-10.099831,-0.148254,0.407700,-0.012523,-0.005345,0.001374
1765917993.108849,-10.103418,0.066954,0.272597,-0.011148,-0.005345,-0.006567
1765917993.111845,-9.904350,-0.338953,0.357484,-0.012981,-0.005498,-0.003360
1765917993.113853,-9.885221,0.260641,-0.026303,-0.012217,0.000458,-0.006872
1765917993.116899,-9.932447,-0.214610,0.482425,-0.012217,-0.002596,0.003054
1765917993.118937,-10.031085,0.313247,0.087279,-0.013134,-0.001069,-0.004734
1765917993.121874,-9.968913,-0.182329,0.728120,-0.016035,-0.006261,0.002443
1765917993.123900,-10.271400,0.026303,0.518890,-0.013286,-0.001985,-0.004887
1765917993.126872,-9.878048,-0.248685,0.335964,-0.014966,-0.004734,-0.001069
1765917993.128842,-10.080104,0.107604,0.672525,-0.011301,-0.003512,-0.008399
1765917993.131892,-9.972500,0.273792,0.312052,-0.011148,-0.010537,-0.006109
1765917993.133863,-9.935436,-0.114778,0.498565,-0.012370,-0.007789,-0.003818
1765917993.136854,-9.750119,-0.399330,-0.081301,-0.015272,-0.002749,0.004276
1765917993.138865,-9.930654,-0.052606,0.699426,-0.012065,-0.008552,-0.001985
1765917993.141877,-10.131515,0.257054,0.908656,-0.014355,-0.011912,-0.004429
1765917993.144906,-10.167382,0.273195,0.679699,-0.012217,-0.011148,-0.004429
1765917993.146921,-10.039454,0.002989,0.278575,-0.012828,-0.011148,-0.006109
1765917993.148931,-10.015541,0.338355,0.325801,-0.017104,-0.010843,-0.004887
1765917993.151922,-9.872069,0.279173,0.410091,-0.015272,-0.004123,0.005498
1765917993.153908,-10.057388,-0.321616,0.244500,-0.012828,-0.011606,0.000305
1765917993.156950,-9.928263,0.113582,0.307269,-0.013744,-0.002749,-0.003207
1765917993.158878,-9.942610,-0.101028,0.506337,-0.012065,-0.003054,-0.003207
1765917993.161853,-9.508607,0.224773,-0.205643,-0.010843,-0.002291,-0.003207
1765917993.163863,-9.856527,0.011956,0.663558,-0.011606,0.000305,-0.008552
1765917993.166865,-10.087276,0.630679,0.931372,-0.013134,0.000305,-0.001069
1765917993.168879,-9.894786,0.221784,-0.430416,-0.016493,-0.002443,-0.001833
1765917993.171873,-10.028693,0.059780,0.375418,-0.017410,-0.001069,-0.000458
1765917993.173908,-10.028693,0.059780,0.375418,-0.017410,0.000000,-0.000458
1765917993.176935,-10.032280,0.075323,-0.938546,-0.016493,-0.000458,-0.004276
1765917993.178891,-9.627569,-0.879962,1.781444,-0.015424,-0.000458,-0.003054
1765917993.181911,-10.298302,0.769966,-1.722860,-0.008705,0.000611,-0.006567
1765917993.183875,-8.434958,-1.401841,1.451458,-0.018631,0.002443,-0.000305
1765917993.186871,-11.150166,1.531564,-0.964849,-0.018631,-0.001833,-0.000305
1765917993.188879,-8.417623,-2.110234,1.803563,-0.016952,0.000764,-0.003971
1765917993.191914,-10.025107,0.635461,-0.486011,-0.012675,0.000764,-0.000458
1765917993.192870,-10.108798,-0.389168,1.532759,-0.013897,-0.007330,-0.011454
1765917993.196894,-9.770443,1.171688,-0.404711,-0.010690,-0.000764,-0.002138
1765917993.198869,-10.263031,0.016738,1.158536,-0.018326,-0.003512,-0.011759
1765917993.200905,-9.817072,0.740076,-0.400526,-0.012675,-0.003360,0.002902
1765917993.204025,-10.210424,-0.439383,0.432209,-0.016952,-0.003360,-0.004123
1765917993.206911,-9.398612,-0.180536,-0.136896,-0.013744,0.000458,0.003665
1765917993.208916,-9.990434,-0.878766,0.193089,-0.012828,0.000000,-0.012065
1765917993.211878,-9.689142,0.423242,-0.267814,-0.012065,0.000000,-0.008247
1765917993.213877,-10.321615,-0.349115,-0.098039,-0.013744,-0.003054,-0.016646
1765917993.216912,-9.344810,0.888331,-0.159015,-0.012217,-0.000764,0.002138
1765917993.218899,-10.755618,0.338355,0.537422,-0.017715,-0.005040,-0.008399
1765917993.221892,-9.332255,-0.032281,-0.460306,-0.014661,-0.003818,0.009774
1765917993.222890,-10.558942,-0.529651,0.686872,-0.019090,-0.003818,-0.006567
1765917993.226953,-10.558942,-0.529651,0.686872,-0.019090,0.000153,-0.006567
1765917993.228906,-9.776422,-0.979794,1.901004,-0.017410,-0.003818,-0.017868
1765917993.230905,-9.423121,0.743663,-0.249880,-0.014813,-0.000305,-0.003665
1765917993.233918,-9.645503,0.146461,1.154950,-0.019395,0.001069,-0.005040
1765917993.236986,-9.851745,0.255261,-0.061573,-0.017562,0.001069,0.001833
1765917993.239973,-10.139884,-0.218795,0.373027,-0.019853,-0.006567,-0.008858
1765917993.240473,-9.702294,-0.029890,0.632472,-0.015424,-0.001833,-0.005651
1765917993.243965,-10.726326,0.233142,0.023912,-0.012981,-0.001833,-0.014966
1765917993.246955,-9.747727,0.883548,0.705404,-0.010690,-0.003818,-0.007178
1765917993.249970,-10.363461,-0.722740,-0.274988,-0.015730,-0.000916,-0.006872
1765917993.251968,-9.018411,0.877571,-0.329986,-0.014813,-0.002596,0.006872
1765917993.253938,-10.564322,-0.460306,0.713773,-0.024587,0.000000,-0.006109
1765917993.256960,-8.951457,-1.169297,-0.404113,-0.014661,-0.003818,-0.004887
1765917993.257985,-10.895503,0.694644,0.563725,-0.016341,0.007789,-0.012828
1765917993.259960,-9.065040,-1.482544,-0.319225,-0.015577,0.000764,-0.006414
1765917993.262914,-9.704685,1.120875,0.677905,-0.017257,-0.000764,-0.003054
1765917993.264918,-10.145862,-0.790292,0.576279,-0.018173,-0.007330,-0.006414
1765917993.267680,-8.926948,0.037064,0.552965,-0.014661,-0.005040,0.000611
1765917993.271926,-10.932567,0.534433,-0.001196,-0.020006,-0.008552,-0.016646
1765917993.273905,-9.145145,-0.111191,-0.211621,-0.015424,0.000000,0.001985
1765917993.276911,-10.279769,-0.457317,0.078910,-0.015577,-0.010232,-0.008247
1765917993.277965,-9.672404,0.359876,0.541607,-0.019242,-0.003512,-0.003054
1765917993.281915,-10.361668,0.294118,0.430416,-0.015882,-0.004734,-0.008552
1765917993.290482,-10.361668,0.294118,0.430416,-0.015882,-0.004276,-0.008552
1765917993.290815,-10.221185,-0.081301,-0.289335,-0.017410,-0.004581,-0.009774
1765917993.291149,-9.470347,-0.181133,0.461502,-0.019395,-0.001222,-0.001222
1765917993.291984,-9.950381,-0.398733,-0.525466,-0.014966,-0.001680,-0.015730
1765917993.294981,-9.426111,0.167384,0.766380,-0.015577,-0.001680,-0.005345
1765917993.295481,-10.034670,-0.173362,-0.648015,-0.012065,-0.004581,-0.008858
1765917993.299981,-9.384265,0.554758,0.437590,-0.014966,0.003512,-0.003360
1765917993.302040,-10.801051,-0.090866,0.473458,-0.011912,0.003818,-0.009774
1765917993.303954,-8.982543,0.494978,-0.483022,-0.014355,0.006567,0.004887
1765917993.306998,-9.754900,-0.774749,0.014347,-0.018021,-0.005803,-0.010690
1765917993.308993,-9.128407,-0.642037,0.070540,-0.013744,-0.003360,-0.001222
1765917993.310025,-10.430414,0.698828,0.620516,-0.014661,0.004276,-0.021228
1765917993.313973,-8.980151,-0.124940,0.693448,-0.018173,0.005803,-0.001680
1765917993.314933,-8.980151,-0.124940,0.693448,-0.018173,-0.009163,-0.001680
1765917993.320031,-8.988521,-0.956480,-0.231946,-0.021991,-0.002138,0.007941
1765917993.320531,-10.741271,0.298900,0.313247,-0.014355,-0.008552,-0.010385
1765917993.324962,-8.953251,-0.934959,-0.108800,-0.016493,0.009163,-0.005192
1765917993.327021,-10.735292,1.252989,0.637255,-0.016035,-0.005651,-0.019090
1765917993.329962,-9.539692,-1.041368,0.121951,-0.018479,0.003512,-0.006414
1765917993.331957,-10.798659,0.917025,0.541607,-0.013592,-0.006414,-0.008399
1765917993.333986,-9.699903,-1.163319,-0.109995,-0.019090,0.004887,0.001833
1765917993.335008,-10.401721,1.189622,1.269130,-0.016188,-0.007178,-0.006109
1765917993.339018,-10.631275,0.036466,0.309660,-0.023060,0.004276,-0.014050
1765917993.341997,-9.374700,-0.276781,0.518293,-0.016493,-0.005651,-0.007483
1765917993.344014,-10.470468,0.228360,-0.734098,-0.024587,0.003207,-0.014050
1765917993.346988,-9.637732,-0.050215,0.966643,-0.024587,-0.009316,-0.014050
1765917993.348991,-10.445958,-0.593018,-0.431612,-0.025198,-0.007941,-0.005345
1765917993.352043,-9.873264,0.827355,0.964849,-0.019700,-0.007941,-0.005345
1765917993.353004,-11.030007,-0.367049,-1.305595,-0.025198,0.000458,-0.014050
1765917993.357011,-8.864179,-0.266619,0.830344,-0.017104,-0.004581,-0.004123
1765917993.360052,-11.315159,0.171569,-0.387972,-0.020006,-0.000764,-0.015424
1765917993.362017,-9.072213,0.251076,1.131635,-0.018021,0.002596,-0.007789
1765917993.364999,-10.465087,-0.070540,0.008369,-0.018479,0.002596,-0.010537
1765917993.367010,-9.343017,0.199665,1.079627,-0.014813,0.003512,-0.005192
1765917993.369048,-10.521279,-0.320421,-0.017934,-0.016341,0.003971,-0.011759
1765917993.373098,-9.534910,0.509923,1.478957,-0.017257,0.006872,-0.006261
1765917993.375144,-10.551768,-0.737685,-0.768173,-0.021533,0.002902,-0.013592
1765917993.375644,-9.252748,0.641439,1.276303,-0.014661,-0.009774,-0.002596
1765917993.379977,-11.478955,1.151961,0.194285,-0.027184,0.001527,-0.021380
1765917993.381967,-8.638210,-0.351506,0.552367,-0.022144,-0.003818,0.002291
1765917993.384988,-10.914633,0.692252,-0.040650,-0.021380,-0.003818,-0.016341
1765917993.386978,-9.585126,-0.783118,0.866810,-0.023213,-0.003512,-0.005651
1765917993.387976,-10.683882,0.750837,-0.153037,-0.027184,0.005498,-0.019853
1765917993.392375,-9.873863,-0.631277,0.468675,-0.023976,-0.000916,-0.006872
1765917993.394002,-10.012553,0.263032,-0.155428,-0.021838,-0.004429,-0.012828
1765917993.397018,-10.184121,-0.186514,0.683285,-0.023518,-0.004429,-0.009621
1765917993.398965,-10.184121,-0.186514,0.683285,-0.023518,-0.005803,-0.009621
1765917993.402027,-10.128527,-0.780727,0.113582,-0.022602,-0.007483,-0.007789
1765917993.403990,-9.670610,0.064562,0.626494,-0.020159,-0.000764,-0.009010
1765917993.407611,-10.434599,-0.196676,0.511717,-0.023824,0.000611,-0.012523
1765917993.412399,-9.650884,0.776542,0.743663,-0.015119,0.000611,-0.008705
1765917993.412899,-9.650884,0.776542,0.743663,-0.015119,-0.001985,-0.008705
1765917993.414013,-9.184600,0.229555,0.078312,-0.020159,-0.007330,-0.011759
1765917993.416991,-10.142276,-0.054998,-0.631277,-0.019700,0.001374,-0.005498
1765917993.419046,-9.316116,0.358680,0.547585,-0.015577,0.000153,-0.007636
1765917993.422059,-10.505738,-0.246294,-0.334170,-0.021991,0.000153,-0.012065
1765917993.425006,-9.428502,0.072932,1.422764,-0.018479,0.000764,-0.012523
1765917993.426837,-10.497369,-0.173362,-0.778336,-0.019548,-0.006567,-0.010690
1765917993.429007,-8.800812,0.322214,1.144189,-0.027184,-0.006567,-0.012981
1765917993.431974,-11.047344,0.740076,-0.559541,-0.024129,0.006261,-0.009774
1765917993.434021,-8.039214,-1.504065,0.017934,-0.022602,-0.006414,-0.004734
1765917993.435075,-10.602580,1.206958,0.175753,-0.019853,-0.001680,-0.013592
1765917993.438006,-9.175632,-1.347441,0.515304,-0.025809,0.001374,-0.017868
1765917993.442016,-10.158416,1.056910,1.126853,-0.018479,0.005651,-0.010690
1765917993.445016,-10.158416,1.056910,1.126853,-0.018479,0.000764,-0.010690
1765917993.446995,-9.805116,0.534433,0.484218,-0.020159,-0.000764,-0.013134
1765917993.450039,-10.063366,-1.203969,0.597202,-0.023671,-0.001222,-0.005956
1765917993.450539,-10.188903,0.890722,0.483620,-0.017104,0.002749,-0.004276
1765917993.454074,-9.964130,-0.909254,-0.331779,-0.030543,-0.002902,-0.016035
1765917993.457072,-9.964130,-0.909254,-0.331779,-0.030543,0.007941,-0.016035
1765917993.459053,-10.488999,-0.796270,-0.542802,-0.022602,-0.000153,-0.013744
1765917993.462070,-9.013629,0.237327,1.165710,-0.022755,-0.002596,-0.010079
1765917993.465017,-10.787301,-0.181133,-0.267814,-0.032681,0.003971,-0.021075
1765917993.467005,-8.939502,-0.103419,-0.150646,-0.022907,-0.001833,-0.000611
1765917993.469015,-10.535626,-0.853658,-0.014347,-0.027642,-0.006720,-0.013286
1765917993.470032,-9.556431,0.093257,0.141081,-0.026114,0.005345,-0.012828
1765917993.474004,-10.175752,-0.952893,0.741870,-0.026725,0.005345,-0.016646
1765917993.477011,-9.984456,1.165710,0.365854,-0.019090,-0.004429,-0.017104
1765917993.478056,-10.074127,0.431612,0.383788,-0.027184,-0.004429,-0.017562
1765917993.482087,-9.276062,0.316834,0.351506,-0.029169,0.009010,-0.009468
1765917993.485110,-10.125537,-0.910449,-0.057987,-0.027489,0.004887,-0.007789
1765917993.487029,-9.161285,0.098039,0.475849,-0.024282,0.002902,-0.009316
1765917993.490008,-11.151958,0.235533,0.447154,-0.028863,0.001374,-0.020617
1765917993.492017,-9.103896,0.004185,0.838713,-0.024282,0.007636,-0.011301
1765917993.495042,-10.937350,0.145863,-0.196078,-0.024129,-0.001374,-0.018631
1765917993.497054,-8.916785,0.270206,0.608560,-0.028711,0.002138,-0.011301
1765917993.499090,-11.116688,0.291726,-0.838713,-0.031918,0.005040,-0.013592
1765917993.502157,-8.200023,-2.068388,-0.527260,-0.028711,0.000000,-0.004887
1765917993.504102,-11.025824,0.927188,0.176949,-0.030391,-0.000153,-0.020617
1765917993.507082,-9.461978,-1.540531,-0.017934,-0.030085,0.005040,-0.020464
1765917993.509078,-10.130917,1.160928,0.938546,-0.020769,0.006109,-0.017562
1765917993.512054,-10.511715,-0.322812,0.106408,-0.035736,0.003054,-0.022907
1765917993.514033,-9.129601,0.202056,0.266021,-0.029780,0.001374,-0.010232
1765917993.517035,-10.658774,-0.050215,0.175753,-0.036499,0.002138,-0.013897
1765917993.518054,-9.444045,-0.083692,0.247489,-0.028100,0.002138,-0.007483
1765917993.522066,-10.424437,-0.502152,0.435198,-0.036957,0.009927,-0.019395
1765917993.524040,-9.835604,0.875179,0.622908,-0.021991,0.009927,-0.015730
1765917993.527034,-10.435197,0.025108,-0.053204,-0.029169,0.009774,-0.019700
1765917993.529052,-9.522357,0.358680,0.459708,-0.029322,-0.001680,-0.016799
1765917993.532130,-10.651003,-0.465686,0.249880,-0.041233,0.005040,-0.018631
1765917993.534063,-9.752509,0.125538,0.753228,-0.030085,-0.001680,-0.006872
1765917993.537043,-10.538018,-0.506934,0.187709,-0.037263,0.004123,-0.020159
1765917993.540079,-9.928263,0.373027,1.451458,-0.032223,0.001374,-0.017257
1765917993.542049,-10.667144,-0.681492,0.109397,-0.032681,0.003054,-0.021380
1765917993.544102,-9.747129,1.339072,0.774749,-0.025962,-0.000764,-0.022449
1765917993.547066,-10.750238,-0.465088,0.019727,-0.037263,0.004734,-0.026420
1765917993.549096,-9.460783,0.959469,0.513510,-0.033750,-0.006414,-0.008247
1765917993.553213,-10.477641,-0.916427,0.141081,-0.035430,-0.000153,-0.013744
1765917993.554131,-9.718434,0.417264,0.647417,-0.027642,0.005192,-0.015119
1765917993.560608,-10.646220,0.017934,-0.029890,-0.038026,0.014966,-0.023671
1765917993.561108,-9.428502,0.078910,0.546987,-0.023518,0.004123,-0.016341
1765917993.562261,-10.604972,0.189503,-0.101626,-0.034361,0.006720,-0.023518
1765917993.564097,-9.264705,-0.642635,0.503348,-0.034514,0.003971,-0.018937
1765917993.567047,-10.540410,0.062171,-0.430416,-0.039401,-0.002443,-0.017257
1765917993.569053,-9.207316,-0.740076,0.204448,-0.031001,-0.002443,-0.014050
1765917993.570086,-10.233141,0.422047,0.827355,-0.040928,0.003665,-0.021075
1765917993.574070,-9.882831,-0.981588,-0.158417,-0.029474,0.006414,-0.022755
1765917993.577118,-8.524628,-0.349713,0.186514,-0.030696,0.009316,-0.014050
1765917993.580146,-10.759206,0.737685,-0.088474,-0.034972,0.008247,-0.031918
1765917993.582128,-8.809181,-0.055595,0.197274,-0.033292,0.008247,-0.010537
1765917993.583160,-11.085007,0.245098,-0.279173,-0.033750,0.008858,-0.015119
1765917993.585135,-8.694404,-0.796867,0.035868,-0.036041,0.008247,-0.010079
1765917993.590528,-11.040768,-0.059780,0.149450,-0.037874,0.002596,-0.029322
1765917993.592080,-9.085364,0.203252,0.664754,-0.033139,0.002138,-0.017257
1765917993.595078,-10.911047,0.156026,-0.071138,-0.033598,-0.000764,-0.029169
1765917993.597161,-8.822930,0.542205,0.594811,-0.034361,0.003971,-0.020617
1765917993.599050,-10.819583,-0.748446,-0.337159,-0.041692,-0.002291,-0.019395
1765917993.602059,-8.995695,-0.066356,0.394548,-0.035888,-0.002291,-0.010079
1765917993.603107,-11.206358,0.166188,0.071736,-0.042455,0.003971,-0.027947
1765917993.607143,-8.923959,0.412482,0.923601,-0.033750,0.004734,-0.018173
1765917993.610105,-10.885939,-0.183525,0.100430,-0.034667,0.003360,-0.030391
1765917993.612126,-8.995097,0.454328,0.885940,-0.030391,0.006720,-0.020006
1765917993.614095,-10.820180,0.350311,-0.154830,-0.039401,0.006720,-0.028405
1765917993.618064,-8.956241,0.398135,0.903276,-0.035125,0.000458,-0.005345
1765917993.619103,-10.929579,-0.737685,-0.415471,-0.043219,0.001527,-0.020769
1765917993.623137,-8.862385,0.536824,0.587040,-0.034514,0.004123,-0.017562
1765917993.624085,-11.044354,-0.325801,0.343137,-0.040623,0.010079,-0.031001
1765917993.627116,-8.921568,-0.314443,-0.034672,-0.027947,-0.002443,-0.021075
1765917993.629087,-8.921568,-0.314443,0.304878,-0.027947,0.004123,-0.021075
1765917993.632095,-9.273672,-0.230153,0.190100,-0.036499,0.000153,-0.013592
1765917993.634076,-10.367048,0.161406,0.274988,-0.047342,0.000153,-0.016188
1765917993.637143,-9.524150,-1.012075,-0.130320,-0.035736,-0.003971,-0.021991
1765917993.639258,-9.921089,0.053802,0.733501,-0.038485,0.007178,-0.024435
1765917993.642097,-10.448348,0.153037,0.139287,-0.038943,0.011912,-0.031765
1765917993.644133,-9.530128,0.401722,0.135103,-0.040012,0.001527,-0.018173
1765917993.647109,-10.324006,-0.056193,-0.184122,-0.041997,0.001527,-0.027947
1765917993.649093,-9.019607,-0.280966,0.807030,-0.043371,0.012523,-0.009316
1765917993.652088,-10.731706,0.448948,0.119560,-0.036957,0.014661,-0.024435
1765917993.656601,-9.011238,-0.651004,0.581062,-0.042761,0.011301,-0.018479
1765917993.657101,-10.799855,0.316236,-0.052606,-0.040775,0.005651,-0.037568
1765917993.659150,-9.029171,-0.527857,0.444763,-0.038943,0.005651,-0.017868
1765917993.662165,-10.208033,0.163797,-0.609756,-0.037721,-0.008552,-0.026878
1765917993.665247,-9.474532,-0.172166,1.169895,-0.046273,0.008399,-0.017715
1765917993.668575,-10.674318,-0.065160,-0.052606,-0.039554,0.008399,-0.020159
1765917993.669161,-9.174437,-0.008369,1.463415,-0.043371,0.003971,-0.015272
1765917993.672135,-11.291245,-0.028694,-0.347920,-0.041539,-0.007483,-0.035888
1765917993.674153,-9.158297,-0.359876,0.856050,-0.043677,0.009468,-0.024282
1765917993.677094,-11.101745,-0.266021,-0.526064,-0.038332,0.008399,-0.032223
1765917993.678136,-8.849832,-0.551172,0.600191,-0.043677,0.010079,-0.018479
1765917993.680152,-11.403633,0.958871,0.416069,-0.045051,0.000764,-0.034208
1765917993.684120,-9.475728,-1.090387,0.781325,-0.045815,0.010079,-0.002596
1765917993.687153,-10.373026,0.321019,0.286944,-0.043219,-0.001680,-0.029932
1765917993.689182,-9.638330,-0.968436,0.482425,-0.046731,0.005803,-0.026267
1765917993.692125,-10.414873,0.882951,0.850072,-0.038790,-0.000916,-0.034972
1765917993.694181,-10.414873,0.882951,0.850072,-0.038790,0.000153,-0.034972
1765917993.697125,-9.485890,1.108321,0.130918,-0.044593,0.001069,-0.031460
1765917993.698119,-10.631275,-0.748446,-0.029890,-0.042608,0.014508,-0.021686
1765917993.700120,-9.323289,-0.101626,-0.019130,-0.041386,0.006109,-0.016493
1765917993.704136,-10.578670,-0.942133,0.263032,-0.046884,0.006109,-0.030085
1765917993.707127,-8.715924,0.439383,0.602582,-0.039554,0.009010,-0.023366
1765917993.709118,-10.379004,-0.473458,-0.135103,-0.044899,-0.006414,-0.029322
1765917993.712206,-8.793638,0.350311,0.488403,-0.043371,-0.002138,-0.024893
1765917993.716698,-10.581060,0.197274,0.241511,-0.049175,0.009774,-0.028253
1765917993.716794,-9.120037,0.255858,0.907460,-0.041844,0.009774,-0.011148
1765917993.719117,-10.960065,-0.573888,-0.041846,-0.051160,-0.002443,-0.027947
1765917993.722132,-9.476326,0.579866,0.806432,-0.045662,0.001833,-0.027642
1765917993.724172,-10.718554,-0.802248,-0.496174,-0.045204,0.006261,-0.034514
1765917993.727126,-9.316116,0.112984,0.234338,-0.041539,-0.005040,-0.026878
1765917993.729192,-10.594213,-0.374821,-0.392755,-0.046578,0.002596,-0.034208
1765917993.732137,-9.399808,0.492587,0.908058,-0.048411,0.014508,-0.024282
1765917993.734189,-10.449544,0.011956,-0.094452,-0.047495,0.020464,-0.025809
1765917993.737148,-10.021520,-0.086681,1.203969,-0.045968,0.004734,-0.024435
1765917993.739217,-10.194881,-0.638450,-0.551172,-0.045051,0.006567,-0.026267
1765917993.742145,-9.632950,0.170971,1.510043,-0.042608,0.007178,-0.023976
1765917993.743147,-9.856527,-0.143472,-1.360593,-0.042608,0.005040,-0.028711
1765917993.747135,-9.083571,-0.361071,1.913558,-0.049327,-0.001985,-0.025504
1765917993.748190,-11.236249,1.153754,0.513510,-0.051160,0.012675,-0.035583
1765917993.752167,-9.705881,-1.280488,0.136298,-0.050091,0.021228,-0.018326
1765917993.754183,-10.121950,0.664754,0.671927,-0.046578,0.006261,-0.032223
1765917993.757198,-10.584049,-0.257054,0.545791,-0.051771,0.005803,-0.034972
1765917993.758219,-9.741750,0.090866,-0.051411,-0.042302,0.000916,-0.029780
1765917993.762201,-10.603777,-0.494978,-0.289335,-0.048106,0.007941,-0.035888
1765917993.765199,-8.850429,0.455524,0.356887,-0.048564,0.017104,-0.026878
1765917993.767164,-10.868004,-0.254663,0.255858,-0.053298,0.009163,-0.028100
1765917993.769150,-8.969990,0.188905,0.257054,-0.053298,0.002443,-0.028100
1765917993.772182,-10.655188,-0.606169,-0.438187,-0.050855,0.012217,-0.032529
1765917993.774180,-8.827115,-0.361669,0.699426,-0.041233,0.012217,-0.029474
1765917993.777170,-10.566116,0.131516,0.093257,-0.050396,0.010690,-0.030238
1765917993.778160,-8.931132,0.388570,0.960067,-0.048717,0.001985,-0.032681
1765917993.782195,-8.931132,0.388570,0.960067,-0.048717,0.015119,-0.032681
1765917993.785224,-8.626254,-0.114778,0.614538,-0.048869,0.004581,-0.020006
1765917993.787162,-10.943925,-0.117767,-0.260641,-0.052534,0.004581,-0.030696
1765917993.789156,-9.012433,0.253467,1.095767,-0.055741,0.004123,-0.031460
1765917993.792217,-10.533237,-0.491392,-1.046150,-0.047647,0.012675,-0.028253
1765917993.794175,-8.834289,0.210426,0.484218,-0.048411,0.007636,-0.030085
1765917993.797236,-10.829147,-0.467480,0.517695,-0.056505,0.013286,-0.034208
1765917993.799184,-9.787182,0.668340,1.380918,-0.052687,0.013286,-0.027489
1765917993.802169,-10.370037,-0.433405,-0.407700,-0.058796,0.004734,-0.020769
1765917993.803200,-9.431491,0.102822,0.997130,-0.060476,-0.006109,-0.032529
1765917993.807291,-10.412481,-0.448350,-0.649809,-0.056505,0.000000,-0.032223
1765917993.809219,-10.412481,-0.448350,-0.649809,-0.056505,0.006567,-0.032223
1765917993.812217,-10.578072,0.572692,-1.355811,-0.053298,0.006872,-0.033445
1765917993.815198,-9.247966,-0.334768,0.927786,-0.059101,0.007483,-0.038179
1765917993.817227,-11.310974,0.903276,-0.426829,-0.052076,0.012828,-0.027184
1765917993.820184,-8.666904,-0.919416,0.860832,-0.055741,0.012828,-0.026573
1765917993.822204,-10.870994,0.159015,0.252272,-0.058796,0.018937,-0.036957
1765917993.825188,-9.085364,-0.202056,-0.014347,-0.054825,0.019395,-0.027642
1765917993.827202,-9.728000,-0.170971,0.563128,-0.043677,0.001985,-0.032834
1765917993.830194,-9.716043,-0.170971,-0.153037,-0.059407,0.013592,-0.033139
1765917993.830694,-10.190698,0.014347,0.794476,-0.056352,0.013592,-0.033445
1765917993.833278,-10.190698,0.014347,0.794476,-0.056352,0.018021,-0.033445
1765917993.837246,-9.741750,0.137494,0.279770,-0.052229,-0.001680,-0.030085
1765917993.840195,-9.956957,0.176949,0.496772,-0.058338,0.011454,-0.034667
1765917993.842255,-9.588712,-0.186514,-0.019727,-0.051160,0.009468,-0.032223
1765917993.844224,-9.606647,-0.178144,-0.234338,-0.051313,0.003818,-0.031307
1765917993.847293,-9.781204,0.098039,0.337159,-0.061697,0.007483,-0.041844
1765917993.849257,-10.107603,-0.033477,0.795074,-0.059101,0.008094,-0.031154
1765917993.852248,-9.577354,-0.225968,0.093257,-0.054978,0.008094,-0.022907
1765917993.854284,-9.964130,-0.251076,0.301291,-0.064141,0.003360,-0.037110
1765917993.857273,-10.074127,-0.210426,0.591822,-0.058796,0.023366,-0.031612
1765917993.859264,-10.090864,-0.304878,0.384385,-0.053145,0.011148,-0.034361
1765917993.862259,-9.878048,0.166188,0.337159,-0.062156,0.010385,-0.039554
1765917993.863294,-10.022716,0.423840,0.627092,-0.063530,0.019853,-0.043524
1765917993.867199,-10.022716,0.423840,0.627092,-0.063530,0.021380,-0.043524
1765917993.869263,-9.771639,-0.050215,0.588235,-0.065057,0.004123,-0.031612
1765917993.872294,-9.870873,-0.367647,0.632472,-0.062614,0.008247,-0.033750
1765917993.874250,-9.783595,-0.221186,-0.145863,-0.057879,0.009621,-0.032070
1765917993.878257,-9.872069,-0.245098,0.014347,-0.051924,0.002443,-0.037415
1765917993.879217,-9.906742,0.272597,0.196676,-0.059712,0.007330,-0.044135
1765917993.882291,-10.094451,0.249880,0.475849,-0.060476,0.023366,-0.039248
1765917993.884286,-9.633547,0.087877,-0.075323,-0.063530,0.016341,-0.027794
1765917993.887245,-10.185914,-0.119560,0.485414,-0.066432,0.009316,-0.034667
1765917993.889230,-10.162600,-0.474055,0.279770,-0.065363,0.009316,-0.030391
1765917993.890219,-9.973098,-0.363462,-0.050215,-0.056200,0.011759,-0.038026
1765917993.894201,-9.879243,-0.139885,0.174558,-0.060476,0.017715,-0.040775
1765917993.897259,-10.376015,-0.189503,1.068269,-0.062156,0.013592,-0.045509
1765917993.900215,-10.378406,0.263032,0.649211,-0.065821,0.011148,-0.041997
1765917993.902221,-9.773433,0.057389,0.355093,-0.065821,0.011148,-0.033445
1765917993.908726,-10.341342,-0.155428,0.308465,-0.066584,-0.000153,-0.036346
1765917993.909226,-10.112385,-0.040650,0.614538,-0.068111,0.012217,-0.037568
1765917993.909221,-9.948587,-0.155428,0.332377,-0.061239,0.017868,-0.042913
1765917993.912194,-9.948587,-0.155428,0.332377,-0.061239,0.007330,-0.042913
1765917993.914228,-9.995216,0.135103,0.175753,-0.069791,0.008705,-0.045204
1765917993.917201,-10.099234,-0.187111,0.178144,-0.065515,0.012675,-0.034361
1765917993.919211,-10.058583,-0.032281,0.221784,-0.064752,0.012065,-0.037110
1765917993.922391,-10.085484,-0.062171,0.526064,-0.068417,0.024129,-0.034972
1765917993.924287,-9.879841,-0.530846,0.303682,-0.065057,0.011912,-0.032529
1765917993.927268,-10.008368,-0.007174,-0.055595,-0.064752,0.002443,-0.044899
1765917993.929264,-9.872069,-0.196676,0.362865,-0.070250,0.012523,-0.043219
1765917993.932288,-10.054399,0.250478,0.551769,-0.063377,0.014661,-0.039706
1765917993.934276,-9.854733,-0.252272,0.601387,-0.067653,0.014661,-0.030696
1765917993.937267,-10.049019,-0.298900,0.257652,-0.074678,-0.000153,-0.043830
1765917993.939300,-9.866092,-0.339550,0.073529,-0.066432,0.005498,-0.039554
1765917993.942246,-9.758488,-0.164395,-0.067551,-0.057421,0.008552,-0.043371
1765917993.945335,-9.791367,-0.025108,0.374223,-0.067806,0.013134,-0.047342
1765917993.947281,-10.211619,0.449546,0.853658,-0.071777,0.015882,-0.048717
1765917993.949255,-9.942610,-0.010760,0.265423,-0.066737,0.016341,-0.034361
1765917993.952240,-9.723815,-0.199665,-0.151841,-0.069944,0.004581,-0.033598
1765917993.954293,-9.723815,-0.199665,-0.151841,-0.069944,0.012370,-0.033598
1765917993.957283,-9.992825,-0.234935,0.361071,-0.072998,0.017104,-0.040317
1765917993.959260,-9.923481,-0.308465,0.194883,-0.067959,0.017104,-0.044899
1765917993.962258,-9.916306,0.193687,0.246294,-0.071624,0.014966,-0.049175
1765917993.963290,-9.980869,0.137494,0.517695,-0.074067,0.017257,-0.046273
1765917993.965257,-10.198468,0.120158,0.737087,-0.072846,0.018479,-0.036499
1765917993.969270,-10.022716,-0.480033,0.453132,-0.067653,0.014355,-0.036957
1765917993.972285,-10.011955,-0.188905,0.319225,-0.070708,0.007789,-0.046731
1765917993.974286,-9.857722,-0.333572,0.179340,-0.071471,0.010385,-0.046273
1765917993.977242,-9.739358,0.001196,-0.274988,-0.063835,0.009163,-0.049022
1765917993.979239,-9.992825,0.136298,0.429220,-0.072998,0.009163,-0.052993
1765917993.982369,-10.213414,0.346724,0.596604,-0.074831,0.023366,-0.048564
1765917993.984347,-9.762672,-0.114778,0.008967,-0.073151,0.021686,-0.034667
1765917993.987266,-9.781204,-0.265423,0.101626,-0.071929,0.010537,-0.043219
1765917993.989309,-9.895385,-0.300693,0.457317,-0.073151,0.019548,-0.047800
1765917993.992274,-9.815877,-0.273195,0.364658,-0.072082,0.019548,-0.049633
1765917993.994257,-9.763269,0.000000,0.054998,-0.072082,0.013592,-0.049633
1765917993.997292,-9.863102,0.196078,0.178742,-0.078649,0.009316,-0.054214
1765917993.999257,-10.228358,0.250478,0.802248,-0.077885,0.018479,-0.043830
1765917994.002935,-9.781204,-0.273792,0.173362,-0.074678,0.006567,-0.036194
1765917994.004292,-9.729793,-0.380201,-0.172166,-0.077885,0.006567,-0.046273
1765917994.007278,-9.729793,-0.380201,-0.172166,-0.077885,0.011148,-0.046273
1765917994.008349,-9.879841,-0.121353,0.289335,-0.069639,0.015730,-0.050549
1765917994.012283,-9.658655,-0.028694,0.114778,-0.077885,0.016646,-0.053603
1765917994.014319,-9.849353,0.431612,0.187111,-0.088423,0.018784,-0.055436
1765917994.017298,-9.966521,-0.086083,0.335964,-0.082467,0.018784,-0.038943
1765917994.019284,-9.966521,-0.086083,0.335964,-0.082467,0.016646,-0.038943
1765917994.022322,-9.968913,-0.461502,0.498565,-0.083841,0.023824,-0.047495
1765917994.024291,-9.764465,-0.179340,0.319225,-0.084605,0.023824,-0.051313
1765917994.027574,-9.684361,-0.362267,-0.129723,-0.074067,0.006720,-0.049938
1765917994.029319,-9.858320,0.175753,0.057987,-0.076511,0.001527,-0.053603
1765917994.032342,-10.251074,0.010760,0.775347,-0.083230,0.019090,-0.049480
1765917994.034318,-10.062768,0.044237,0.459110,-0.075289,0.008247,-0.040623
1765917994.037318,-9.711261,-0.553563,-0.093257,-0.083536,0.008247,-0.044135
1765917994.038327,-9.778812,-0.175753,-0.153037,-0.086285,0.010690,-0.057269
1765917994.040453,-9.833811,-0.257054,0.225968,-0.080634,0.022602,-0.048411
1765917994.044738,-9.785987,-0.023912,0.180536,-0.076969,0.018784,-0.049633
1765917994.045372,-10.034670,-0.009565,0.429220,-0.086132,0.017562,-0.053451
1765917994.049380,-10.193686,-0.021521,0.486011,-0.083689,0.022144,-0.048869
1765917994.052336,-10.193686,-0.021521,0.486011,-0.083689,0.020617,-0.048869
1765917994.054345,-9.858320,-0.254663,0.162004,-0.081092,0.030696,-0.050549
1765917994.057326,-9.778215,-0.316236,0.273195,-0.086896,0.030696,-0.049938
1765917994.060353,-9.724413,-0.181731,0.132712,-0.077427,0.015882,-0.046884
1765917994.062334,-9.607842,-0.344333,-0.053204,-0.083536,0.010232,-0.051007
1765917994.065483,-9.903154,0.052009,0.267217,-0.083536,0.014966,-0.051007
1765917994.067302,-9.943806,-0.172764,0.107604,-0.084147,0.023213,-0.050702
1765917994.069353,-9.910329,-0.044237,0.184122,-0.076205,0.016035,-0.049327
1765917994.072334,-10.074127,-0.242707,0.506934,-0.081703,0.021838,-0.043982
1765917994.074336,-9.869678,-0.432209,0.225371,-0.076664,0.021838,-0.047037
1765917994.077498,-9.783595,-0.439981,-0.143472,-0.081551,0.009621,-0.051313
1765917994.079325,-9.827832,-0.169775,-0.038857,-0.081856,0.013286,-0.059865
1765917994.082349,-10.251074,0.356289,0.887135,-0.084299,0.030085,-0.060170
1765917994.084343,-10.035867,0.097441,0.653993,-0.087659,0.031307,-0.043371
1765917994.087309,-9.751911,-0.172764,-0.105213,-0.093157,0.011606,-0.041692
1765917994.089368,-9.811094,-0.554161,-0.303682,-0.091477,0.009927,-0.046731
1765917994.092360,-9.912122,-0.661167,0.209230,-0.083841,0.023213,-0.049480
1765917994.093374,-9.952174,-0.354495,0.498565,-0.076969,0.030543,-0.058643
1765917994.097325,-10.184718,0.166188,0.792683,-0.089186,0.023824,-0.067959
1765917994.099450,-10.075920,0.261836,0.563128,-0.092546,0.023824,-0.052840
1765917994.102370,-9.710664,-0.150048,-0.247489,-0.084147,0.014203,-0.037415
1765917994.103377,-9.753705,-0.454926,-0.115973,-0.087659,0.008247,-0.044440
1765917994.107410,-10.073528,-0.572692,0.390961,-0.090255,0.023060,-0.052534
1765917994.110311,-9.909731,-0.418460,0.200861,-0.077274,0.019242,-0.055436
1765917994.110811,-9.686153,-0.024510,-0.172764,-0.083689,0.015272,-0.063835
1765917994.114349,-9.879243,0.330583,0.162602,-0.093615,0.024435,-0.058948
1765917994.115309,-9.840983,-0.024510,0.162602,-0.087506,0.031001,-0.038943
1765917994.119306,-9.738162,-0.508130,-0.057389,-0.084147,0.016799,-0.037874
1765917994.122318,-9.960544,-0.522477,0.362267,-0.089034,0.022755,-0.051313
1765917994.124359,-9.943208,-0.546389,0.539216,-0.091019,0.034208,-0.053909
1765917994.127355,-9.891200,-0.347322,0.175155,-0.083383,0.019548,-0.056047
1765917994.128312,-9.901362,-0.112386,0.115375,-0.091172,0.012217,-0.062766
1765917994.132357,-9.941415,0.202654,0.173960,-0.087965,0.024587,-0.056352
1765917994.134376,-9.574366,-0.156624,-0.315041,-0.083230,0.026420,-0.040470
1765917994.137359,-9.678382,-0.381994,-0.013152,-0.085521,0.016341,-0.048106
1765917994.139371,-9.982663,-0.445959,0.271401,-0.091783,0.027947,-0.054367
1765917994.142351,-9.941415,-0.469273,0.276184,-0.079260,0.029016,-0.052534
1765917994.143340,-9.892395,-0.318030,0.184122,-0.079260,0.029322,-0.056505
1765917994.147320,-10.164991,-0.013152,0.688666,-0.086437,0.026878,-0.059559
1765917994.149359,-10.143471,-0.111789,0.579866,-0.090255,0.025198,-0.054214
1765917994.152347,-9.840386,-0.138690,0.040053,-0.084147,0.017562,-0.052229
1765917994.153372,-9.762672,-0.176351,-0.043042,-0.088575,0.014050,-0.051313
1765917994.157430,-9.631754,-0.401722,-0.170971,-0.086590,0.013897,-0.047037
1765917994.159336,-9.955164,-0.492587,0.133907,-0.079718,0.014355,-0.052993
1765917994.162377,-9.740554,-0.429818,0.019130,-0.085063,0.023671,-0.059407
1765917994.165375,-9.839788,0.169177,0.045433,-0.089644,0.025809,-0.069791
1765917994.167359,-9.862504,0.261836,0.282162,-0.093157,0.025351,-0.052840
1765917994.169412,-9.802128,-0.175155,0.009565,-0.090103,0.016952,-0.040164
1765917994.172814,-9.833811,-0.651602,-0.031683,-0.091172,0.015119,-0.045051
1765917994.174391,-9.741151,-0.768173,0.037064,-0.089644,0.021228,-0.054062
1765917994.177423,-9.936632,-0.387374,0.251076,-0.088728,0.021228,-0.063377
1765917994.178350,-9.936632,-0.387374,0.251076,-0.088728,0.018326,-0.063377
1765917994.182370,-10.025107,0.362865,0.230751,-0.092852,0.025198,-0.056505
1765917994.184397,-9.864896,-0.269608,0.160210,-0.086285,0.025198,-0.040775
1765917994.187342,-9.936033,-0.543400,0.321616,-0.086437,0.018021,-0.047953
1765917994.189380,-10.025704,-0.535031,0.277379,-0.094226,0.015577,-0.059407
1765917994.192363,-9.849951,-0.241511,0.078910,-0.089034,0.014355,-0.061850
1765917994.194360,-9.678980,-0.217599,-0.131516,-0.086132,0.012370,-0.057421
1765917994.197456,-9.924676,0.014945,0.320421,-0.086132,0.010079,-0.058338
1765917994.199421,-9.956957,-0.155428,0.212219,-0.096822,0.022907,-0.056200
1765917994.202394,-9.785987,-0.185318,-0.148852,-0.095295,0.014355,-0.054520
1765917994.204384,-9.912720,-0.210426,0.086681,-0.092088,0.019548,-0.053909
1765917994.207398,-10.068149,-0.542802,0.464491,-0.089186,0.022297,-0.047495
1765917994.209378,-10.002390,-0.592420,0.474653,-0.084758,0.022297,-0.057116
1765917994.212362,-9.516976,-0.405308,-0.142276,-0.091783,0.014966,-0.067501
1765917994.214371,-9.817072,0.247489,0.037064,-0.099266,0.013592,-0.072693
1765917994.215371,-9.863700,0.075921,0.108800,-0.093462,0.022907,-0.051313
1765917994.219354,-9.864896,-0.445361,0.020325,-0.088117,0.020006,-0.047495
1765917994.223405,-9.933045,-0.477044,-0.034075,-0.093310,0.020006,-0.063988
1765917994.224426,-9.878048,-0.339550,0.174558,-0.089492,0.030391,-0.059865
1765917994.227383,-9.852941,-0.242707,0.200861,-0.086437,0.027184,-0.061392
1765917994.228387,-10.135699,0.083094,0.711382,-0.092546,0.019548,-0.065668
1765917994.232387,-9.983260,0.024510,0.343137,-0.099571,0.029322,-0.056505
1765917994.233388,-9.725011,-0.322812,-0.188905,-0.096211,0.016799,-0.051618
1765917994.237378,-9.725011,-0.322812,-0.188905,-0.096211,0.015577,-0.051618
1765917994.239442,-10.082495,-0.298900,0.218795,-0.097891,0.025351,-0.054672
1765917994.242436,-9.852941,-0.410091,-0.169775,-0.096059,0.025351,-0.059865
1765917994.244461,-9.852941,-0.410091,-0.169775,-0.096059,0.032834,-0.059865
1765917994.247377,-9.907339,-0.026303,0.602582,-0.097280,0.035125,-0.064599
1765917994.248371,-10.083690,0.113582,0.598996,-0.100793,0.029169,-0.061697
1765917994.252428,-9.965326,-0.170971,0.172166,-0.107054,0.023060,-0.053145
1765917994.254370,-9.986848,-0.468077,0.162602,-0.099571,0.020311,-0.048411
1765917994.255411,-9.918698,-0.775944,0.274390,-0.098044,0.023213,-0.056658
1765917994.260401,-9.995216,-0.620516,0.332377,-0.098502,0.022755,-0.065515
1765917994.262404,-9.698708,-0.191296,-0.047824,-0.098502,0.022755,-0.072388
1765917994.265379,-9.567789,0.186514,-0.337159,-0.098502,0.022755,-0.069791
1765917994.265879,-9.989837,0.047824,0.490196,-0.103084,0.022755,-0.056505
1765917994.270394,-10.108200,-0.355093,0.804041,-0.097738,0.034514,-0.051160
1765917994.272417,-9.961740,-0.723338,0.314443,-0.102014,0.021686,-0.056352
1765917994.275447,-9.846365,-0.581659,-0.068149,-0.106596,0.017868,-0.069486
1765917994.277400,-9.811094,-0.381396,-0.064562,-0.092241,0.019242,-0.062919
1765917994.280413,-9.707077,-0.242109,-0.144668,-0.098349,0.022755,-0.069791
1765917994.282386,-10.076518,0.204448,0.566117,-0.102625,0.033445,-0.071013
1765917994.284426,-9.735173,-0.065758,0.098637,-0.103847,0.039706,-0.051924
1765917994.285412,-9.928263,-0.199665,0.111191,-0.101709,0.017104,-0.055589
1765917994.290426,-9.928263,-0.199665,0.111191,-0.101709,0.026878,-0.055589
1765917994.292434,-9.869678,-0.748446,0.049617,-0.094379,0.030238,-0.057574
1765917994.293446,-9.632950,-0.506934,-0.356289,-0.098349,0.021686,-0.072388
1765917994.297390,-10.198468,0.327594,0.637255,-0.105680,0.026878,-0.077885
1765917994.299506,-10.019128,0.140483,0.290531,-0.103694,0.038943,-0.053756
1765917994.302431,-10.019128,0.140483,0.290531,-0.103694,0.020617,-0.053756
1765917994.304424,-10.034073,-0.358082,0.269010,-0.109650,0.031918,-0.067195
1765917994.307469,-10.296508,-0.357484,0.946317,-0.101251,0.042761,-0.055436
1765917994.310421,-9.935436,-0.596604,0.251674,-0.104000,0.015882,-0.057574
1765917994.312411,-9.698708,-0.396939,-0.338355,-0.114995,0.015882,-0.078038
1765917994.314411,-9.831419,0.010760,-0.022119,-0.104611,0.027947,-0.072998
1765917994.317432,-9.858918,0.034672,0.007174,-0.106443,0.037415,-0.059712
1765917994.319414,-10.096842,-0.265423,0.352702,-0.119271,0.030543,-0.059865
1765917994.322438,-10.092658,-0.538020,0.249283,-0.116675,0.041386,-0.056810
1765917994.324431,-9.720228,-0.718556,-0.049020,-0.101862,0.029932,-0.058948
1765917994.327452,-9.832614,-0.463893,0.009565,-0.105527,0.026725,-0.072235
1765917994.329421,-10.089071,-0.111789,0.557150,-0.107665,0.031460,-0.072998
1765917994.332479,-9.852941,-0.075323,0.117169,-0.107970,0.038179,-0.064294
1765917994.334452,-9.550453,-0.197274,-0.380201,-0.110567,0.024282,-0.063835
1765917994.337429,-9.686751,-0.237327,-0.380799,-0.113926,0.025351,-0.065973
1765917994.339421,-9.918099,-0.428025,0.182927,-0.107054,0.034514,-0.060323
1765917994.340433,-9.973696,-0.419656,0.394548,-0.101862,0.041844,-0.060628
1765917994.344443,-9.868484,-0.346724,0.254065,-0.111483,0.031918,-0.067653
1765917994.345486,-10.099234,-0.059182,0.357484,-0.118661,0.026725,-0.076816
1765917994.349511,-10.009563,-0.074725,0.075323,-0.107970,0.028253,-0.063530
1765917994.352450,-9.710664,-0.459110,-0.149450,-0.111025,0.025962,-0.058490
1765917994.353462,-9.925871,-0.318627,0.217599,-0.117897,0.030849,-0.070708
1765917994.355548,-9.905546,-0.504543,-0.009565,-0.119730,0.032529,-0.067959
1765917994.359465,-9.840386,-0.356289,-0.300096,-0.110108,0.024435,-0.071166
1765917994.362454,-10.077712,-0.145265,0.538020,-0.112094,0.034208,-0.075595
1765917994.364446,-10.219989,0.039455,0.969632,-0.117897,0.045204,-0.071166
1765917994.367553,-9.780008,-0.337159,0.053802,-0.118508,0.010996,-0.065668
1765917994.370000,-9.722619,-0.338355,-0.362267,-0.120493,0.010996,-0.074678
1765917994.372460,-9.837996,-0.296509,0.072932,-0.112246,0.031765,-0.067959
1765917994.374439,-9.697512,-0.549976,0.095648,-0.110261,0.031307,-0.066279
1765917994.377471,-9.750119,-0.378407,0.014945,-0.110261,0.023671,-0.066279
1765917994.379430,-9.928861,0.113582,0.292324,-0.116828,0.035277,-0.082467
1765917994.382496,-9.811094,0.072932,0.157819,-0.117286,0.035277,-0.065363
1765917994.384623,-9.549257,-0.490196,-0.157819,-0.120799,0.021380,-0.063072
1765917994.387468,-9.843375,-0.494978,0.172166,-0.124922,0.026725,-0.077733
1765917994.390452,-9.791965,-0.322812,0.126734,-0.122631,0.033903,-0.076511
1765917994.392463,-9.393829,-0.419656,-0.651602,-0.118661,0.027794,-0.073915
1765917994.393475,-9.710664,-0.270206,-0.133907,-0.121257,0.027794,-0.081856
1765917994.397480,-10.100429,0.075323,0.751435,-0.119271,0.040012,-0.075747
1765917994.400511,-10.057388,-0.044835,0.613343,-0.124769,0.041539,-0.069639
1765917994.402523,-9.762074,-0.490196,-0.151841,-0.133169,0.026573,-0.072846
1765917994.404480,-9.684361,-0.706600,-0.263032,-0.121868,0.023060,-0.073457
1765917994.407534,-9.615613,-0.575084,-0.102822,-0.120188,0.034056,-0.077427
1765917994.409524,-9.808702,-0.204448,0.217599,-0.120340,0.036041,-0.083689
1765917994.412506,-9.671208,-0.160808,0.094452,-0.128587,0.032376,-0.083841
1765917994.414496,-9.615016,0.041846,0.003587,-0.126907,0.032376,-0.079107
1765917994.417471,-9.842180,-0.191894,0.289335,-0.134390,0.032376,-0.074220
1765917994.420908,-9.910329,-0.324605,0.363462,-0.130267,0.028558,-0.071471
1765917994.422492,-9.730392,-0.842300,-0.307269,-0.131489,0.026573,-0.070708
1765917994.424483,-9.655666,-0.674318,-0.425634,-0.127824,0.043066,-0.081398
1765917994.427519,-9.939621,-0.260641,0.304878,-0.124922,0.043066,-0.084605
1765917994.429477,-9.625775,-0.135701,0.049020,-0.127824,0.042302,-0.076511
1765917994.433486,-9.848158,-0.132114,0.068747,-0.134696,0.030696,-0.078649
1765917994.435481,-9.967718,-0.377810,0.182329,-0.135765,0.037874,-0.073304
1765917994.439209,-10.089668,-0.693448,0.192492,-0.126144,0.035125,-0.066584
1765917994.439491,-10.117167,-0.842898,0.261836,-0.132252,0.035125,-0.077580
1765917994.442536,-10.136894,-0.729316,0.212817,-0.127824,0.039095,-0.082772
1765917994.444496,-9.930654,-0.536824,-0.167384,-0.122631,0.033139,-0.080023
1765917994.447865,-10.086679,-0.158417,0.330583,-0.128282,0.033139,-0.083536
1765917994.449591,-10.245097,-0.169775,0.779531,-0.134390,0.043830,-0.075747
1765917994.452486,-9.637732,-0.648015,-0.294118,-0.130420,0.036499,-0.069180
1765917994.454483,-9.891200,-0.547585,-0.270206,-0.129809,0.022755,-0.080329
1765917994.457578,-10.233739,-0.560139,0.583453,-0.126449,0.032987,-0.074220
1765917994.459517,-10.082495,-0.601387,0.157221,-0.122478,0.036346,-0.073609
1765917994.462515,-10.082495,-0.601387,0.157221,-0.122478,0.028863,-0.073609
1765917994.463551,-10.108798,0.056193,0.479436,-0.130420,0.037415,-0.087506
1765917994.467491,-9.988043,-0.284553,0.309660,-0.125533,0.034972,-0.062766
1765917994.469502,-9.852343,-0.804639,-0.239120,-0.132100,0.017562,-0.070402
1765917994.472530,-10.020923,-0.681492,-0.192492,-0.131794,0.030085,-0.080481
1765917994.474539,-9.944403,-0.565519,-0.107604,-0.122937,0.032834,-0.074984
1765917994.475636,-10.206240,-0.484218,0.365256,-0.125991,0.028711,-0.075289
1765917994.479545,-10.335963,-0.349713,0.728120,-0.126602,0.038026,-0.081398
1765917994.480545,-10.063366,-0.368843,0.095648,-0.131336,0.020617,-0.075747
1765917994.484566,-9.771639,-0.604974,-0.435198,-0.130420,0.020617,-0.069791
1765917994.487545,-10.095646,-0.755619,-0.102822,-0.130420,0.019395,-0.069791
1765917994.489537,-10.041844,-0.781325,0.125538,-0.122784,0.036805,-0.074984
1765917994.492114,-9.941415,-0.497967,0.119560,-0.119577,0.040012,-0.077427
1765917994.494546,-9.982065,-0.370636,0.187709,-0.122784,0.022449,-0.076664
1765917994.497574,-10.064561,-0.445959,0.276184,-0.124158,0.022449,-0.075136
1765917994.499528,-10.124342,-0.491392,0.254663,-0.121257,0.024740,-0.074067
1765917994.502544,-9.710664,-0.648613,-0.394548,-0.120951,0.024740,-0.072998
1765917994.504623,-9.885818,-0.468675,-0.132712,-0.121104,0.022907,-0.078649
1765917994.507577,-9.996411,-0.557150,0.225371,-0.124006,0.026725,-0.075747
1765917994.509558,-9.860114,-0.546389,-0.013152,-0.121868,0.024435,-0.074373
1765917994.512544,-9.642514,-0.279770,-0.188905,-0.129198,0.022907,-0.080023
1765917994.516908,-10.014346,-0.148254,0.095648,-0.131489,0.022602,-0.078649
1765917994.516951,-10.074127,-0.581062,0.222382,-0.125533,0.020617,-0.067653
1765917994.520932,-9.772835,-0.644428,-0.335964,-0.125533,0.018631,-0.067653
1765917994.522520,-9.910927,-0.503348,-0.022716,-0.126449,0.030849,-0.081551
1765917994.524519,-9.800333,-0.535629,0.176351,-0.119882,0.031307,-0.074220
1765917994.527518,-9.735771,-0.466284,0.054998,-0.116064,0.018479,-0.075289
1765917994.529543,-9.452414,-0.191296,-0.601387,-0.129656,0.016341,-0.088423
1765917994.532579,-9.820060,0.139885,0.447154,-0.130267,0.030085,-0.081245
1765917994.534561,-9.433882,-0.924199,-0.002391,-0.119424,0.031307,-0.049327
1765917994.537554,-9.540888,-0.845289,-0.393352,-0.120340,0.006720,-0.074678
1765917994.539572,-10.371830,-0.560736,0.747250,-0.134849,0.030543,-0.087048
1765917994.542549,-10.055594,-0.652798,0.540411,-0.112094,0.030543,-0.073915
1765917994.544541,-9.534910,-0.267217,-0.557747,-0.115454,0.007178,-0.082161
1765917994.547549,-9.776422,0.063367,0.017934,-0.133474,0.014355,-0.087048
1765917994.548567,-9.786584,-0.205643,-0.043042,-0.124769,0.026114,-0.087048
1765917994.552565,-9.721423,-0.874581,-0.309660,-0.122173,0.020159,-0.063377
1765917994.554523,-10.058583,-0.551172,0.346126,-0.127671,0.020159,-0.086132
1765917994.557535,-10.014346,-0.269010,0.334768,-0.127365,0.036346,-0.078954
1765917994.559532,-9.597081,-0.467480,-0.409493,-0.123395,0.016341,-0.077580
1765917994.562548,-9.597081,-0.467480,-0.409493,-0.123395,0.014661,-0.077580
1765917994.564570,-9.781204,-0.261836,0.023912,-0.129351,0.032834,-0.076511
1765917994.567610,-9.647895,-0.383788,-0.263630,-0.130114,0.030391,-0.071624
1765917994.569572,-9.968315,-0.602582,0.271401,-0.137750,0.027184,-0.077733
1765917994.572642,-10.040649,-0.535629,0.390961,-0.130878,0.040317,-0.075136
1765917994.573556,-9.635341,-0.680296,-0.346126,-0.131489,0.027184,-0.078191
1765917994.578213,-9.824244,-0.460306,-0.164993,-0.138208,0.018631,-0.091630
1765917994.579558,-9.692730,-0.276184,-0.160808,-0.133627,0.035888,-0.082467
1765917994.582579,-9.554638,-0.326399,-0.437590,-0.131794,0.037568,-0.076664
1765917994.584652,-9.942013,-0.520086,0.292922,-0.139430,0.042761,-0.078496
1765917994.587586,-10.011356,-0.674318,0.269010,-0.128893,0.042761,-0.073304
1765917994.590564,-9.901959,-0.847680,-0.088474,-0.129198,0.030391,-0.076664
1765917994.592547,-9.756096,-0.588833,-0.231946,-0.134696,0.038485,-0.092088
1765917994.595566,-9.930654,-0.257054,0.141679,-0.130725,0.038485,-0.086590
1765917994.597579,-9.854733,-0.301889,-0.087279,-0.133779,0.033139,-0.081551
1765917994.600558,-10.185316,-0.271401,0.399330,-0.138514,0.033139,-0.082314
1765917994.602579,-10.022118,-0.271401,0.235533,-0.138514,0.045815,-0.082314
1765917994.604568,-9.843375,-0.631277,-0.156624,-0.129962,0.034056,-0.079718
1765917994.607574,-9.873264,-0.633070,-0.068149,-0.135001,0.025809,-0.084758
1765917994.610616,-10.007172,-0.313247,0.070540,-0.136070,0.039554,-0.090408
1765917994.612614,-9.775824,-0.338355,-0.142276,-0.135765,0.039554,-0.082009
1765917994.614590,-9.775824,-0.338355,-0.142276,-0.135765,0.035736,-0.082009
1765917994.616557,-10.069344,-0.280966,0.520086,-0.144622,0.034819,-0.079260
1765917994.618593,-9.833811,-0.532042,-0.020325,-0.142484,0.034819,-0.072540
1765917994.622596,-9.669415,-0.860832,-0.560736,-0.149967,0.024282,-0.076664
1765917994.623603,-9.770443,-0.559541,-0.162004,-0.151342,0.033445,-0.089797
1765917994.627642,-9.919893,-0.242707,0.370636,-0.136987,0.039706,-0.087048
1765917994.630583,-9.835006,-0.328790,0.166188,-0.147219,0.026267,-0.083536
1765917994.631083,-10.168577,-0.246294,0.153037,-0.150273,0.026267,-0.085827
1765917994.635583,-10.081299,-0.531444,0.092061,-0.147066,0.040317,-0.085827
1765917994.637660,-9.774031,-0.828551,-0.318030,-0.142332,0.029169,-0.077580
1765917994.638638,-10.058583,-0.633668,0.124940,-0.146913,0.037263,-0.089034
1765917994.642550,-10.099234,-0.503945,0.448948,-0.141568,0.047189,-0.089339
1765917994.645586,-9.868484,-0.362267,0.023912,-0.140652,0.041386,-0.084452
1765917994.647602,-9.725608,-0.324008,-0.202056,-0.150578,0.027031,-0.090866
1765917994.649562,-10.200860,-0.132712,0.447752,-0.154702,0.035736,-0.087812
1765917994.652582,-9.532519,-0.846485,-0.572692,-0.145080,0.035736,-0.073304
1765917994.653641,-9.803323,-0.698230,-0.203252,-0.151036,0.026420,-0.093921
1765917994.657687,-10.076518,-0.486609,0.652798,-0.149357,0.049022,-0.099266
1765917994.663926,-9.821257,-0.393352,0.240316,-0.149357,0.042302,-0.099266
1765917994.664426,-9.347201,-0.416069,-0.851865,-0.151647,0.017104,-0.096822
1765917994.665617,-9.814680,-0.027499,-0.175155,-0.157298,0.026878,-0.100945
1765917994.667623,-9.814680,-0.027499,-0.175155,-0.157298,0.043677,-0.100945
1765917994.670631,-9.747727,-0.674916,-0.142276,-0.147677,0.036957,-0.087812
1765917994.672577,-10.231946,-0.591822,0.400526,-0.161574,0.049022,-0.100182
1765917994.675664,-10.153036,-0.478240,0.370038,-0.153785,0.053451,-0.090408
1765917994.676164,-9.941415,-0.655189,-0.197872,-0.146760,0.037110,-0.087965
1765917994.680601,-9.922883,-0.477044,0.019727,-0.157145,0.032529,-0.101862
1765917994.682667,-10.153036,-0.107006,0.361071,-0.154396,0.052229,-0.100182
1765917994.684614,-9.844571,-0.544596,0.013152,-0.153022,0.046426,-0.080176
1765917994.687597,-9.977283,-0.616930,0.195481,-0.157909,0.031154,-0.096517
1765917994.690598,-10.009563,-0.538618,-0.120756,-0.164323,0.034514,-0.096669
1765917994.692615,-9.777617,-0.516499,-0.439383,-0.159741,0.038026,-0.093462
1765917994.694619,-9.673599,-0.500956,-0.353300,-0.156229,0.033598,-0.090866
1765917994.697604,-10.120157,-0.334768,0.478240,-0.167072,0.038790,-0.097891
1765917994.699613,-10.111190,-0.383788,0.138092,-0.169210,0.040317,-0.093615
1765917994.702625,-9.754303,-0.625299,-0.504543,-0.170584,0.031612,-0.091324
1765917994.704640,-9.917501,-0.499761,-0.326399,-0.163559,0.028711,-0.094073
1765917994.707594,-10.031085,-0.713175,0.112386,-0.165239,0.041997,-0.085674
1765917994.709621,-10.226564,-0.603778,0.376016,-0.160047,0.039248,-0.091324
1765917994.712619,-9.849951,-0.783118,-0.163797,-0.162796,0.035583,-0.089186
1765917994.714681,-9.726804,-0.766380,-0.511119,-0.162337,0.020922,-0.095753
1765917994.715623,-9.756694,-0.705404,-0.614538,-0.162185,0.027947,-0.093768
1765917994.719582,-9.993423,-0.786705,-0.156624,-0.161421,0.045357,-0.089186
1765917994.722673,-10.105211,-0.683883,0.135103,-0.168141,0.045357,-0.094226
1765917994.724695,-10.011955,-0.945720,0.261836,-0.168141,0.041386,-0.094226
1765917994.725659,-9.605451,-0.933764,-0.508130,-0.155618,0.031918,-0.090408
1765917994.729668,-9.763269,-0.728120,-0.372429,-0.160199,0.019700,-0.100335
1765917994.732661,-10.050214,-0.520086,0.031683,-0.160199,0.039248,-0.101098
1765917994.735599,-10.013150,-0.545194,-0.024510,-0.158214,0.036957,-0.092393
1765917994.737622,-10.259443,-0.646820,0.339550,-0.161116,0.031001,-0.090408
1765917994.739613,-10.104015,-1.012673,-0.151841,-0.162490,0.033598,-0.088270
1765917994.742603,-9.983858,-0.980392,-0.258847,-0.150731,0.023824,-0.089034
1765917994.745638,-9.796746,-1.033596,-0.379603,-0.154091,0.030238,-0.096975
1765917994.747637,-9.978478,-0.308465,0.145863,-0.156534,0.040775,-0.102931
1765917994.749668,-10.022118,-0.301291,0.304280,-0.159436,0.041233,-0.088881
1765917994.753027,-9.824244,-0.754424,-0.245098,-0.162337,0.027489,-0.077580
1765917994.754629,-9.849353,-1.166906,-0.500956,-0.162948,0.018021,-0.084910
1765917994.757702,-10.118362,-1.067671,0.273792,-0.155465,0.040164,-0.092393
1765917994.760621,-9.842180,-0.921210,0.235533,-0.144317,0.040164,-0.091019
1765917994.762652,-9.448229,-0.463893,-0.206839,-0.156992,0.029780,-0.101251
1765917994.765681,-9.784193,-0.141081,0.032281,-0.162643,0.026420,-0.092088
1765917994.767666,-9.856527,-0.722142,-0.019727,-0.155312,0.027031,-0.073457
1765917994.770741,-9.549855,-1.092778,-0.616332,-0.154243,0.034972,-0.083078
1765917994.772625,-9.925871,-0.848876,-0.065160,-0.161879,0.034972,-0.093462
