time,acc_x_g,acc_y_g,acc_z_g,gyro_x_rad_s,gyro_y_rad_s,gyro_z_rad_s
0.0,-7.268053,-3.246054,-5.64383,-0.006872,-0.007178,-0.002749
0.0025,-7.20456965079123,-3.307437967550048,-5.928785882897998,-0.009819746463298378,-0.00742248533841754,6.0514661582459914e-05
0.005,-7.697273,-3.687828,-5.82317,-0.027336,0.0031267326732673274,-0.0281
0.0075,-7.961814543603433,-3.33596876049571,-6.392084975214489,-0.10471709212583412,-0.03178653666348903,-0.07345700377502383
0.01,-8.674559809958506,-3.080854022174274,-5.859870247103735,-0.15522965726141078,-0.09274244673858922,-0.09785632849792532
0.0125,-8.860180465810135,-3.378232791434691,-5.803538286795147,-0.20877050364025698,-0.16940355460385442,-0.07240913019271948
0.015,-9.200286101526718,-2.2811024888167934,-5.8626768222900765,-0.2558378691603053,-0.25324913183206105,-0.043460191755725235
0.0175,-8.999754320199857,-2.5233914222412577,-5.796479494047108,-0.32006988862241254,-0.3459966988722341,0.01903856331192017
0.02,-8.909552067857142,-3.2082635968894007,-6.258759976198157,-0.34735463,-0.44014330631336407,0.09121111304147465
0.0225,-8.959775021584582,-2.642322420556745,-6.349185681284799,-0.41540092736616696,-0.533864724910778,0.14581751643112065
0.025,-9.042572667158666,-2.937130616826571,-6.514102031881925,-0.4909628662730628,-0.6143952550553505,0.2039468218450185
0.0275,-9.295932932248395,-2.9522364255246254,-5.5192806821413285,-0.5600706372591007,-0.6982687817558886,0.23443107417558887
0.03,-9.579229247130598,-2.5668973632411816,-5.363144038856054,-0.5896296028979982,-0.7576919749857006,0.26670238062917057
0.0325,-8.585154140462633,-3.303291156975089,-5.940810237402135,-0.642602154911032,-0.8256629509252669,0.30201615644128116
0.035,-8.793585291939877,-3.038091909205435,-5.308537318682891,-0.7194537667287043,-0.8732771213743737,0.32263359089477445
0.0375,-8.454986975731618,-3.211027971877235,-5.171475304925054,-0.7890248441113492,-0.8802257172019986,0.3355674151320486
0.04,-6.84481,-2.315877,-6.205762,-0.787405,-0.9048528647328244,0.324828
0.0425,-9.181755233746417,-2.0536304069780744,-4.971069247359389,-0.8396135408579602,-0.9162000616968542,0.31185711759771195
0.045,-8.5636045997094,-1.2827663631753348,-4.804810406237264,-0.8648966052237087,-0.9037142642615399,0.2982996139665101
0.0475,-8.840923996873217,-2.3864581830695912,-4.98138418806482,-0.9299199469971402,-0.9252381534795043,0.2862806094947569
0.05,-7.874577279525227,-1.974229563204741,-5.1621827626112635,-0.9886736272997034,-0.9499828421364986,0.2569191501483678
0.0525,-8.889762452391148,-1.755141,-5.11650909147751,-0.9883483150892219,-0.90228606538187,0.2541730290364025
0.055,-7.990905075447386,-1.6017566269720827,-5.430430068117394,-1.0557197071152469,-0.9188317644094488,0.22777206370794562
0.0575,-10.23173202306923,-1.9654483185724487,-3.4706268833690275,-1.051976055503212,-0.926480767280514,0.23695565521770157
0.06,-8.038991415100085,-1.4219847621735027,-4.50312175149667,-1.102480997368923,-0.9486917497807434,0.22387213544327939
0.0625,-9.83953825452812,-1.0764413927550047,-3.84047767778837,-1.0970518064823642,-0.9676878369876072,0.1986934480457579
0.065,-8.897008648702926,-0.7299509916318033,-5.431123041506283,-1.1444558443514645,-0.9530121427615064,0.16804003012552302
0.0675,-8.252698498931291,-0.6612194708397032,-5.861173916030522,-1.1517532519083973,-0.967916,0.14516345068702258
0.07,-6.482407130322567,-1.5263303889606066,-5.6261036027240054,-1.1879229069534045,-0.945619,0.13901148731182827
0.0725,-9.712078107137385,-0.9094910764885485,-3.2025988651908497,-1.15103847259542,-0.9456703025190838,0.11172941496183192
0.075,-10.208789894170396,-1.294503081742473,-3.0587312830237066,-1.100564495323511,-0.9548431738629082,0.09232096181934663
0.0775,-10.688077795271688,-1.12824541155386,-2.021883981391802,-1.0927901673593898,-0.932638,0.08447009860819829
0.08,-7.870625887833819,-0.017074243560824764,-4.571856277744816,-1.0134768353709198,-0.9433205134718102,0.080176
0.0825,-9.612902586653966,0.26719256091516236,-2.9807486175786395,-1.0217203659866538,-0.9834227501239275,0.03890704960915139
0.085,-10.434187750774433,-0.455151498451134,-2.2527514105951973,-1.0574439909130875,-0.9641470487149137,0.04253968300980721
0.08750000000000001,-8.742228,0.463893,-3.853419,-0.952033,-0.9577173201143954,0.012065
0.09,-9.267652316145691,-0.29319246974203134,-2.3354492618512777,-0.8681969310470412,-0.9534893485280731,-0.004969970166919627
0.0925,-11.314010272919347,-0.10545381924339658,-1.0178410915346128,-0.8483849207994291,-0.9330270355460387,-0.027074095674518208
0.095,-8.977668232927703,-0.5705607686757325,-3.0793014631066526,-0.776478689677881,-0.9605290618468146,-0.024303934574087378
0.0975,-9.533286727366415,0.163566291221375,-2.356666924694644,-0.7290815604580151,-0.9588684438549616,-0.03624239679389309
0.1,-9.835985765300299,0.23762894509056492,-0.5286815515729173,-0.6513067347950433,-0.9302280154432794,-0.04703332449952335
0.10250000000000001,-8.298920908151326,0.4599589907494519,-2.165714073604544,-0.5730625558029981,-0.9155054019985724,-0.06090256867951433
0.105,-8.490231092137416,0.2420050072137421,-0.9626027725572448,-0.5530011477099238,-0.9009713415267177,-0.07292754847328241
0.1075,-9.259084367442751,0.37577949240458125,0.15209910916030966,-0.47384723908396936,-0.8321256730916032,-0.09462054809160304
0.11,-8.23966605526825,-0.13949653533861064,0.4362360794371173,-0.44379041213720316,-0.735773437291117,-0.09532897347405453
0.1125,-8.051170399999995,-0.36214795267175665,-0.12254589312977343,-0.3595908198473281,-0.614072,-0.10329796641221375
0.115,-7.560196989291342,-0.35987540091624715,-0.5118393001574711,-0.2820069587115246,-0.47678,-0.08714407427344319
0.11750000000000001,-7.704363346870209,-0.026956317557262577,0.05488914931295297,-0.23008850839694625,-0.392939,-0.08472632366412162
0.12,-7.279522574054067,0.23059748000000163,0.18472692432433846,-0.18028825189189185,-0.254731,-0.09723346378378381
0.1225,-8.211667274618316,0.43469158099237143,1.028961290763353,-0.15060787973282438,-0.12513829488549652,-0.10387581122137407
0.125,-8.343634601784265,-0.026670733982157302,0.6606789472830494,-0.13219085320356855,-0.027565531224655312,-0.0604991800486618
0.1275,-8.979600658778626,0.4841639523664128,0.7991442596946583,-0.08275231557251903,-0.0017779483969466111,-0.016812810839694506
0.13,-9.519166327485106,0.5339846912991715,0.8470609970441006,-0.027951332061978425,0.007034502550655271,-0.001071056829558948
0.1325,-9.737981221215742,0.6160629203337324,0.3124493760190783,0.0019547263885577107,0.004313102693682716,-0.007123165673420693
0.135,-10.11084227008343,0.019395965578069396,0.2589120688438612,-0.018954490679380445,0.003375843718712496,-0.0062786624076282375
0.1375,-10.036454224791425,-0.2548449642431497,0.3875404524433974,-0.013797961620977312,-0.014235754707985479,0.0008980753277711222
0.14,-9.937008462693676,-0.032151996662695116,0.3687169698688882,-0.003016204672228793,-0.011700187651966343,0.000916
0.14250000000000002,-9.81183498329356,-0.017523070453458574,0.3032114331265022,-0.008448418615751635,-0.009842195417660954,0.002216977947494081
0.145,-9.97459413496689,0.04848841298013278,0.38033837112583446,-0.0065882578807947125,-0.00168,-0.0011282676821189304
0.1475,-9.860361108782815,-0.08052477155131353,0.1938342105489238,-0.011247999284009689,-0.008705,-0.0023579494033413124
0.15,-9.999500917854,-0.0538748819700957,0.41993582796833545,-0.007855321020228666,-0.008624023218997334,7.744450307822586e-05
0.1525,-9.859502303313471,-0.012773139594755513,0.27593832486293385,-0.0060279445053635,-0.006086981168057122,0.0004923493206197829
0.155,-10.023911,-0.017934,0.399928,-0.010232,-0.008000321868686888,-0.001374
0.1575,-9.929408101644816,-0.03748406879618587,0.35229261640047815,-0.008600118617401648,-0.009488268653158523,-0.0021829457926102673
0.16,-9.996346499198246,-0.06067602908958086,0.4226423089909597,-0.004542133777737191,-0.007635753991416308,0.0009920055812254578
0.1625,-9.927726048186525,-0.05001337098445574,0.32464317150258837,-0.0075893072538860155,-0.00514251036269441,-0.0013405341968912101
0.165,-9.897585480073937,-0.01254053541589627,0.2695061299815157,-0.008264594417745005,-0.006455031275415937,-0.0009794681330868716
0.1675,-9.982990711466034,-0.031086,0.3773753839809324,-0.009246349702026138,-0.007556778974970325,-0.0012468957330154413
0.17,-9.947528788830546,-0.03465156806682574,0.3777254163245779,-0.007683024248210108,-0.006408763675417652,0.0017807052028638683
0.17250000000000001,-10.05133502769967,0.42888254984506335,0.8918348113468628,-0.007631263933254282,0.01075089134684051,-0.0033725688676988818
0.17500000000000002,-9.952698749225256,-0.04980692896307439,0.4539349535160564,-0.009944428367103707,0.006714456734207275,0.005658341835518259
0.1775,-10.019373899642426,-0.17274040920142142,0.3787498879618633,-0.009199286293206021,0.007597901358760443,0.003953211299165816
0.18,-10.064412711895114,-0.0025412351370681574,0.4105459340166925,-0.0076737882240763165,0.0038563319189512087,-2.0634088196175467e-07
0.1825,-9.999237549082238,0.10783114974970123,0.3519405490822378,-0.008814232514898662,-0.004996232514898662,-0.001589164243146654
0.185,-9.872581209662838,-0.08670861907373131,0.26624432846239315,-0.0073505404520192675,-0.011091419029270109,-0.0038714927454612824
0.1875,-9.948664548440066,0.0560914105090312,0.40904862889983584,-0.00806791461412151,-0.006352665024630542,-0.001942729064039409
0.19,-9.93647891206365,0.03276121610641465,0.34823146195922416,-0.009090828433615116,-0.006326514699154651,0.0013464220338140268
0.1925,-9.905705482026004,-0.03362373595277988,0.29353221280370106,-0.008390136169737576,-0.007258676809444046,0.002352969571667861
0.195,-9.939931840346446,-0.10340471909058124,0.3453638686298572,-0.007861548230482376,-0.007483,0.0011212240683267137
0.1975,-10.017185016561086,-0.10653814371040708,0.4517382317647062,-0.007789,-0.007327905429864253,0.000611
0.2,-10.020679883954362,-0.0417723453123749,0.46859619216468473,-0.008196792372137562,-0.006718774355700945,-0.0008682075480731036
0.2025,-9.840983,0.086681,0.266619,-0.010079,-0.005796893107903772,-0.002291
0.20500000000000002,-9.840983,0.086681,0.266619,-0.010079,-0.004256098958075592,-0.002291
0.20750000000000002,-9.874987451037107,0.017446818487154292,0.33095155130352116,-0.00992270128449096,-0.005308442559467193,0.0005264765176023162
0.21,-9.93549275093556,-0.06543762796658699,0.40267564832935554,-0.0075610730501193485,-0.005607692109785212,0.003207
0.2125,-9.926915825666244,-0.0904651488261421,0.35199882214467026,-0.006746355948604056,-0.0033364969225888365,0.0006315951776649838
0.215,-9.882675753309073,-0.06042884589271054,0.2856289160652659,-0.00739886303087217,-0.0033752739382556605,-0.0005935399882615372
0.2175,-9.883506855773204,0.02333500156642905,0.3306541224729718,-0.008794337163449985,-0.0037366968046768645,0.0012262687306799067
0.22,-9.884321130442292,0.053498090040844895,0.32727749687011315,-0.00984972944334228,-0.003970795196639049,0.0012218032022406342
0.2225,-9.873422379358033,-0.047536670364101,0.29772225237623773,-0.007005918038965191,-0.004871527582242092,0.000985263791121046
0.225,-9.919468797652508,-0.1040939662567871,0.37530130346534674,-0.010202551038007034,-0.0023145560843181034,-0.00029322195784094824
0.2275,-9.919148558781554,-0.11206314996462195,0.3648437750530671,-0.010327313394495413,-0.005335421953588785,-0.001351578449361399
0.23,-9.89610789017174,-0.0612860393556787,0.32419782967191724,-0.010916514447471284,-0.004292209679024015,-0.0022887935710055696
0.2325,-9.873855503203737,0.025342093299548916,0.2745717062728639,-0.01024628585636233,-0.002279785607728252,-0.002596
0.23500000000000001,-9.892070271258088,0.03272479956865529,0.31695838066618826,-0.007960356252096797,-0.0014071899065420295,0.001002638293793487
0.23750000000000002,-9.953037785933907,-0.008398296235322872,0.37151569467376866,-0.009095938663600056,-0.0033946701004721113,0.0021275362546907227
0.24,-9.95449781482386,-0.05537033154344743,0.3886705048266793,-0.009836866686707373,-0.003514320792860507,0.001870509959605456
0.2425,-9.90171683859789,-0.06669414312909674,0.3457468750869195,-0.010049113574617649,-0.0020462569734967222,-0.0003675100864443746
0.245,-9.910392482251444,-0.008625850357625774,0.3132783476318053,-0.009527273255499572,-0.0002582157797714232,-0.0026162006832985097
0.2475,-9.946381983525047,0.01976259079777365,0.35000877068645636,-0.00924269922077922,0.0003718939517625248,-0.0018196905380333977
0.25,-9.993781255329191,0.01472125289074176,0.39666313466530323,-0.010208113663179422,-0.0013017871470148666,-0.0006964091087862817
0.2525,-10.042216269600582,-0.0010446975453885072,0.4149086090631808,-0.01090829757443718,-0.002443,-0.0015611622222222224
0.255,-9.97304401805272,-0.010569166297791604,0.3390203510567559,-0.00901,-0.0008203262075516429,-0.0026389185704108332
0.2575,-9.870604584784314,-0.04142020728291319,0.2724799175798319,-0.009834508235294121,0.00016658090756302185,-0.003290535843137253
0.26,-9.842086865276537,-0.015937413019533712,0.27403556889621095,-0.010912211381501532,-0.000611,-0.0026793034408096003
0.2625,-9.866092,0.018532,0.286346,-0.011148,-0.0013013615957394402,-0.002443
0.265,-9.866092,0.018532,0.286346,-0.011148,-0.0024859799773164423,-0.002443
0.2675,-9.966862113825053,-0.017292502194453226,0.3650314815787867,-0.01161015570252972,-0.00037530252971654146,0.00014934828405973336
0.27,-9.901316424860173,-0.03354798763741533,0.29418225294117567,-0.0111131563548698,-0.0010790405689489197,-0.0018420405689489195
0.2725,-9.881714530569543,-0.004124478865802812,0.24808985917379614,-0.01023273152774383,-0.0019818495331214757,-0.0028217152969933906
0.275,-9.91785670055827,0.030593017678530364,0.2836949574552229,-0.009607363084438224,-0.0005217702954175241,-0.001360363084438225
0.2775,-9.975423260786068,0.02173953654663793,0.3635701463434541,-0.01058448123636937,0.0009788794069192886,-0.00031063552522161584
0.28,-10.017294920820413,-0.037041462966671504,0.43233207191307593,-0.013415409175924825,0.0023557045879624124,-0.0004478927994140035
0.28250000000000003,-9.979288109939212,-0.06813630789926585,0.3791079201989407,-0.013824646789295006,0.0014587023162548076,-0.0011437844035683317
0.28500000000000003,-9.917034495755582,-0.032928250415980014,0.27849270219506383,-0.012542580719153918,-0.0010347417532315252,-0.002335177325499443
0.28750000000000003,-9.889447035691658,0.015459928616684455,0.24161830960929226,-0.01085361098204855,-0.0019112730728616633,-0.001999143400211162
0.29,-9.869451900159921,0.0028868783620067152,0.2310602994523867,-0.011748758042161338,-0.001759135144172521,-0.0011639115628785935
0.2925,-9.954744713121935,-0.03823880818954158,0.3061811512552347,-0.012610092521239688,0.00047784514538709995,-0.0019938416465238823
0.295,-9.978748282785688,-0.055490687706114525,0.3703127971951653,-0.011556121191815252,0.0005738318200311111,-0.0005565509824099646
0.2975,-9.962478189794787,-0.05730139112590132,0.3400595996450365,-0.01044848692179701,0.0021658129118136303,-0.0017879839378812932
0.3,-9.934811437355917,-0.029680527593507658,0.26824110976240906,-0.010775652199482464,0.0008139496589038187,-0.002433142366502011
0.3025,-9.960823977243976,0.02236526085012258,0.3058898002558737,-0.013137525708136553,-0.0016850892640640851,-0.0031675423686255764
0.305,-9.979561936959406,0.014870327714473625,0.32237852777903986,-0.010935309238954988,-0.0024511321121540005,-0.0029763450947569805
0.3075,-10.008900112086163,-0.05172069087333175,0.3157989669491923,-0.011686314764692115,0.000119242790915478,-0.001487342617653943
0.31,-9.943833242026068,-0.06443977944899709,0.2884032515226723,-0.009187016314680404,-0.0007555935034730345,-0.0027369918426597977
0.3125,-9.945027367785785,-0.06092448139684772,0.289231012187262,-0.010370841155446182,-0.000764,-0.002562803831956407
0.315,-9.975449482960059,-0.032396216897819095,0.2991264297378094,-0.011005859985297722,0.00030368122518990707,-0.0027277460622396475
0.3175,-10.059564498435005,0.026564516499521004,0.3646467127307571,-0.01203826759501757,-0.0008640244522516839,-0.0035026534525710645
0.32,-10.110995793343616,0.05738618459615229,0.42422989676759476,-0.012627081191655162,-0.00336,-0.004173488903320076
0.3225,-10.077537894333844,0.04174382675933533,0.37349446077511983,-0.011747477464954654,-0.002548101990811625,-0.003931747353045106
0.325,-9.992825,-0.004782,0.221186,-0.012981,0.0009136502698897106,-0.002138
0.3275,-10.024075959429794,-0.05016982406272299,0.3175414653599435,-0.015072031218816832,-3.4299009265864014e-05,-0.003088299009265864
0.33,-10.075115044532746,-0.07862156496934021,0.42231244303164167,-0.016263555805739516,-0.0029297702869757543,-0.003665
0.3325,-10.115537170223835,-0.04877088137137417,0.4245704907629251,-0.015021720658890276,-0.005658817178436323,-0.004831279341109724
0.335,-10.033726168583891,-0.007727732074047649,0.3192786745808265,-0.014280471967928319,-0.00503588080179222,-0.005342645621978529
0.3375,-9.841902458172754,-0.010920989166906581,0.16813948888888938,-0.011787015722366042,-0.0062199446649410465,-0.0008188666283194278
0.34,-9.893282782697728,-0.03826378199597381,0.2252286266666672,-0.01362913586425081,-0.006833649628990515,-0.0002815606442335294
0.3425,-9.969362481675793,-0.0642297777671985,0.30193099243989696,-0.014353656053320596,-0.00733,0.00018927448702690038
0.34500000000000003,-10.054171902457695,-0.11990442334928178,0.38726465420469086,-0.011892700291749318,-0.004242662051581261,-0.001579637656669422
0.34750000000000003,-10.010280755336678,-0.07454974851674584,0.34959166432955957,-0.010864804574629466,-0.0024670945687944703,-0.0043831008565760644
0.35000000000000003,-9.985260856939501,0.02253758443653857,0.35469403354685747,-0.01125418211150656,-0.0022503609964413117,-0.005890029276393823
0.3525,-10.026468012297947,0.1519450150005873,0.38600965488328465,-0.012561785266862168,-0.003054,-0.0038876386721407776
0.355,-10.009923266519648,0.05415131173724409,0.35917164428856324,-0.0127493604457478,-0.003054,-0.0020094268809384298
0.3575,-9.945828431845896,-0.12375882319491127,0.2877640754776766,-0.01447542976476237,-0.0062622300576092235,-0.0014749499039846286
0.36,-9.916487307083534,-0.1102168140158426,0.26519426992798856,-0.013418296015362463,-0.005397645669707158,-0.0029159238838214036
0.3625,-9.90609516051278,-0.08541920740682138,0.28581521031890456,-0.013055438126137532,-0.005485655709424702,-0.003809265980849883
0.365,-9.896840045316186,-0.02560737474812469,0.3017816429867811,-0.013279179564130045,-0.00661002203644158,-0.004413835126831009
0.3675,-9.919538211989213,0.06756486150380688,0.31744764881662424,-0.016461104451142117,-0.00733,-0.00458678040926396
0.37,-9.913328778696885,0.08439883702549592,0.33144741745042505,-0.0197,-0.00618755215297451,-0.004429
0.3725,-9.827570086563906,-0.02393020941642167,0.21866395047801845,-0.02091654739039165,-0.00582844677502549,-0.0009674142481856923
0.375,-9.792812289216265,-0.11157202404242782,0.151374209310548,-0.020454238538597524,-0.005651,6.23601649970538e-05
0.3775,-9.81229,-0.134505,0.15483,-0.01909,-0.004631204126255832,-0.001222
0.38,-9.916785023626893,-0.07709009908211335,0.30037696591416596,-0.01644975974199949,-0.0034390068171669557,-0.0027620601141156113
0.3825,-9.984725062654613,0.03232626205296444,0.41335344323545864,-0.013592,-0.002821584581166491,-0.004429
0.385,-9.91157603951087,0.08709351506393868,0.32872708100383596,-0.013905486943734018,-0.0028135923177749407,-0.003749321975703319
0.3875,-9.86366863529818,0.09210941720009189,0.27811297837900123,-0.014706414828459595,-0.003818,-0.002363789891779874
0.39,-9.884026,0.061573,0.356887,-0.015272,-0.004015650726649121,-0.002138
0.3925,-9.895735842992279,0.0244190788030876,0.35732060832046336,-0.015050238243243237,-0.0043919994015444,-0.0025812816795366938
0.395,-9.906851184723088,-0.0655620044977219,0.30658518922080946,-0.014739846454087756,-0.005275895564612821,-0.00427827269239991
0.3975,-9.855614254910122,-0.019117193169346937,0.23701696015137158,-0.015959508609271537,-0.006108407663197727,-0.004963231296121103
0.4,-9.909644730996055,0.08409310954260693,0.33968689895519194,-0.020769409751567304,-0.008014873647550547,-0.004609275272811685
0.4025,-9.961963544933921,0.09352596215739975,0.38181661715680476,-0.02129760459340398,-0.0072493507179426046,-0.003642295885224422
0.405,-9.948414062715207,0.0591663438061599,0.3658642490734191,-0.021682069353464024,-0.004555317486910935,-0.0022328966760014383
0.40750000000000003,-9.866630670899387,-0.046138261649009464,0.2656246200047786,-0.02168524779733928,-0.002291,-0.0022153891818688922
0.41000000000000003,-9.916428010609813,-0.07880656894085182,0.2739208284731795,-0.022419105052728133,-0.0008138357909215498,-0.002906960733608432
0.41250000000000003,-9.950949919519019,-0.07145648620751227,0.33433953406750483,-0.020944807714744905,-0.000764,-0.0047823942853741554
0.41500000000000004,-9.970126661469987,-0.011616955731983979,0.40309544095272587,-0.019783960630338018,-0.0006156505521472338,-0.006918332202574317
0.4175,-9.886433818664452,0.06834805292847823,0.2273166621587006,-0.020158548091566843,-0.0036311587830625087,-0.005668398450954827
0.42,-9.81951947166884,0.0694636651595303,0.14776306287984867,-0.01930411598149686,-0.0034414922666350387,-0.0031990025928122557
0.4225,-9.790769,0.069943,0.113582,-0.018937,-0.003952175593220334,-0.002138
0.425,-9.854723161799324,-0.019074396480595668,0.2265099218739062,-0.016949636662393682,-0.0045077509148117945,-0.0018435579536184628
0.4275,-9.938542138825605,-0.12694271006898758,0.34444409168618645,-0.01473935376865073,-0.0036891460837477985,-0.0022668539162522014
0.43,-9.908764677324415,-0.09843192257525113,0.2952341724080271,-0.015327275117056852,-0.0021610477591973293,-0.005275886889632092
0.4325,-9.839486275825616,0.013080415049504752,0.2300948360332163,-0.015508055723411053,-0.001524837183008623,-0.008313288527626955
0.435,-9.818267,0.082496,0.212817,-0.014966,-0.003614390156673338,-0.00901
0.4375,-9.898443541009971,0.10371934705693149,0.2835608327436475,-0.018731193953039564,-0.0037684030234802187,-0.006073188163396591
0.44,-9.93141344888941,-0.015570056348070916,0.31395684552363073,-0.021528564533833703,-0.001811453343497124,-0.0016825351448340568
0.4425,-9.8667219540706,-0.10819570434619462,0.24191474317579442,-0.0208712831077753,0.001381495623314184,-0.0020582123677729573
0.445,-9.870833972950916,-0.15308211341028322,0.2331327152244377,-0.020179886780925728,0.00336,-0.003569276987291603
0.4475,-9.9865826119601,-0.07865410611304804,0.3038364634628175,-0.019853,0.0021912086805611804,-0.00504
0.45,-10.057952192612445,0.043013728664647574,0.390718066814263,-0.021150879072477292,0.002358350151479858,-0.005256234490794689
0.4525,-10.01012845962735,0.10436890919961113,0.3786788838334406,-0.022012426578094615,0.0032337919896305825,-0.0046136398671419235
0.455,-9.907178396185039,0.056799385425139,0.23455788291116555,-0.021529099764538,0.003708398982043069,-0.0031441253323819633
0.4575,-9.855004607734244,-0.050881658062465945,0.19022991180163742,-0.021011331002145743,0.0045154755209409455,-0.0028207261098307265
0.46,-9.964138414285062,-0.12242280513383687,0.415973154518421,-0.01917217098146875,0.005109829018531252,-0.005333523440860262
0.4625,-10.051423001133948,-0.07529005854004209,0.49410507321048963,-0.022030949539333832,0.006203214741318222,-0.006692798369950401
0.465,-10.075724562312551,0.02148311773513112,0.5364935371224222,-0.022135241950172795,0.004553975310525625,-0.007278520934557152
0.4675,-9.92518748916178,0.08636729871275725,0.2822312078346528,-0.024541603555931588,-0.005498,-0.00314414740798938
0.47000000000000003,-9.9437503324373,0.05378901131322861,0.2750336939602344,-0.02425137100138998,-0.005498,-0.004692265597389273
0.47250000000000003,-9.987401523636365,0.0010758223999991628,0.2946400030545459,-0.022664856872727242,-0.0053512980363636335,-0.0034412303999999594
0.47500000000000003,-10.033013170384585,-0.08916020548493014,0.3505451465099555,-0.020455963140641218,-0.005430259022947158,-0.002040751035420189
0.47750000000000004,-10.028537534954696,-0.21095398494992976,0.3585855402956556,-0.021005900848831815,-0.0029450426323316637,-0.0062496412970913
0.48,-9.952135281726123,-0.06625002379746942,0.351506,-0.021228,-0.00470117960874567,-0.006567
0.4825,-9.879824922633162,0.06945846823571057,0.25305958599421907,-0.023041890971509472,-0.005515144519554061,-0.004883958926443707
0.485,-9.912733249230225,0.0568870606972218,0.2904039339869048,-0.022097411792603085,-0.005609777993275526,-0.003183648996637772
0.4875,-9.900460011440915,-0.011144170397631326,0.22543460208016708,-0.021757971069685574,-0.0052168061124890025,-0.0025154445635650843
0.49,-9.859658551458082,-0.13313292714869035,0.11071036672591904,-0.021838,-0.003874777477780455,-0.0030256112611097724
0.4925,-9.841855866416275,-0.17178273702660418,0.08848391312676053,-0.021185971417840378,-0.0034092915242566486,-0.005251691981220649
0.495,-9.883300724994966,0.02876589609264768,0.18411291325276893,-0.02191352743202416,-0.004115288257804632,-0.007612763303121851
0.4975,-9.88471318865296,0.07695760683172469,0.27035647673161073,-0.02274439255919909,-0.005535456917450991,-0.005846846802949465
0.5,-9.888780427668369,0.0701237230731826,0.28318108606856307,-0.02301052176027231,-0.006616478239727693,-0.0037726425966447853
0.5025000000000001,-9.904632866201405,-0.026503148440284743,0.18743265555971686,-0.02276195894145201,-0.007744684337236612,-0.002192711269320882
0.505,-9.885180162387321,-0.12894455544491693,0.10855551897951284,-0.022028209060688052,-0.008983923859296479,-0.003305597881716274
0.5075000000000001,-9.814696702831839,-0.11753152938838665,0.07757016104847692,-0.01970619624655897,-0.006601841129862248,-0.00420864402154409
0.51,-9.895677604015445,0.03380065837837898,0.21123103830115886,-0.022019257915057933,-0.005384097297297313,-0.006516365405405402
0.5125,-10.044309975228487,0.0794667487551221,0.37334973331231985,-0.022444564008824504,-0.007104938039710056,-0.005452397415694947
0.515,-10.151405157473016,0.051143102704761884,0.4733864508444444,-0.021002720939682543,-0.007025,-0.005341552076190486
0.5175,-10.160500119951097,0.033832074023720626,0.4504600773884352,-0.021500444802543102,-0.006570078351876801,-0.006362531165179152
0.52,-10.068813069774503,-0.001729415780307806,0.28452991102478026,-0.023174485572672505,-0.0022648463585621306,-0.007109170171913412
0.5225,-10.065394315589106,0.005807414674799118,0.27840441467479915,-0.022995029757835624,-0.0053231250268735535,-0.007608683046077657
0.525,-10.059016462020415,-0.005511586718292036,0.32013252446321805,-0.023753536055379585,-0.005058117306112815,-0.005720470444679056
0.5275,-10.041209317651763,-0.05795309430376632,0.38818472336559173,-0.023513520617451843,-0.002291,-0.003795424918819474
0.53,-10.014885043831988,-0.06407750687206551,0.4479549296714415,-0.021774588523287994,-0.003445352047177792,-0.00564723603803109
0.5325,-9.92706933007532,-0.0005985229937371141,0.3786419984650776,-0.02323230346150794,-0.004955606203123757,-0.007695242426068333
0.535,-9.830615590376228,0.04603692068535885,0.22245234899113203,-0.02599103654924518,-0.00701071477594063,-0.00766489694704048
0.5375,-9.835741797592258,0.06805903413329134,0.23669073346447306,-0.0260022231332127,-0.010406403399165924,-0.005848980045636968
0.54,-9.905656793030305,0.023168800757573944,0.38961267356060936,-0.026581076969697033,-0.010786001060606017,-0.005003940681818198
0.5425,-9.879672302457243,-0.037546840321715395,0.31697441591199094,-0.026223264746232787,-0.009399756583156152,-0.00432283305167792
0.545,-9.84924983329204,-0.09607593501340575,0.23439651129518216,-0.025705132295460842,-0.008067346754183208,-0.0035822283886474873
0.5475,-9.858557109288515,-0.017086899921568997,0.19278697426170366,-0.02642,-0.011363503526210472,-0.007474479686274498
0.55,-9.973356349359843,0.04406428667992128,0.3555830721749523,-0.026233945033797206,-0.012455890067594415,-0.008299835101391623
0.5525,-10.07527389405228,0.07909458668385892,0.4339393889063419,-0.02612044284609072,-0.010858496377915852,-0.006464321294103868
0.555,-9.963861214066135,0.04683424424149582,0.3090818630716688,-0.027070321063904893,-0.007277020072966893,-0.004276
0.5575,-9.798379281905998,-0.037312851743922015,0.1967832841426257,-0.026232646667747165,-0.007117296106969204,-0.004486942774716369
0.56,-9.782377416099626,-0.06356499601982599,0.18695709605126487,-0.025443958902188358,-0.007941,-0.006360420036271405
0.5625,-9.832705319604809,-0.006470618021664088,0.23914039876205215,-0.02588736959885728,-0.008618679561956909,-0.008156240328532318
0.5650000000000001,-9.958804041337938,0.050609435952864074,0.3648665458778746,-0.02950889473157966,-0.0057591537721699134,-0.007679444670872505
0.5675,-10.005991456082779,0.035762245469327304,0.39737107934466614,-0.030595053899975362,-0.0048711242473515656,-0.005975037452574521
0.5700000000000001,-9.990562432858665,-0.025361702570022553,0.35927202954029946,-0.029823585016035853,-0.005155162788111918,-0.0036883408338679747
0.5725,-9.875871696882307,-0.03189489565081853,0.26069603160093513,-0.029673955526110685,-0.003207,-0.006609401063133288
0.5750000000000001,-9.834067611818181,-0.014812547272724338,0.24135615090909188,-0.030199886818181785,-0.0022857795454544793,-0.007505440454545435
0.5775,-9.894889283526624,-0.0028883905925109893,0.30810647892558113,-0.03245281097803763,-0.004047810978037631,-0.0059458591151840615
0.58,-9.958678811936116,-0.0750839330638838,0.3803433132170788,-0.03467652227509782,-0.006939354589309007,-0.005010499266623189
0.5825,-9.966495145052432,0.01856643260248464,0.4673691859675901,-0.032681,-0.005817829418493782,-0.005956
0.585,-9.925343606962802,0.06840807498979687,0.4079697054653909,-0.032848062263380946,-0.004135653096845103,-0.005538890296656732
0.5875,-9.8511156182704,0.08868353893625569,0.2918505797482711,-0.03271795161997563,-0.002816225399918802,-0.005147231993503854
0.59,-9.62206370616322,-0.014134808509945931,-0.08888425801379957,-0.031157220959805138,-0.003206195199350381,-0.00488753594803086
0.5925,-9.640700350647638,-0.22010021204671473,0.011448915224730905,-0.029851339497463738,-0.006414,-0.0054447349581220154
0.595,-9.843375,-0.225968,0.308465,-0.030543,-0.004370604248947179,-0.007636
0.5975,-9.900623778183986,0.030182789540335875,0.32461193387706455,-0.030918081800512736,-0.0023072809586835736,-0.008198315759852151
0.6,-9.916182587178575,0.11745158440573698,0.310910668444129,-0.03216977167910888,-0.00041620753643798185,-0.007391321696883544
0.6025,-9.943981443642452,-0.09222067715146642,0.4080814612253091,-0.029393587802381778,0.0010622549715433426,-0.004697195490936926
0.605,-9.925993819189824,-0.13089396942560594,0.36910827491128245,-0.03138502464584628,0.00021974328757951717,-0.005310022442010613
0.6075,-9.911524,-0.162004,0.337757,-0.032987,-0.001205124234620948,-0.005803
0.61,-9.933613433690105,-0.08683440664800084,0.33544895116487927,-0.0325656501051297,-0.002484946674414912,-0.006729528564636268
0.6125,-9.937907461809163,-0.05233946587151878,0.33103549645725056,-0.0318269659896079,-0.002612201299007946,-0.006871033160132206
0.615,-9.898976377780984,-0.10829633606862302,0.32492806549302544,-0.03064146655122655,0.0006489893570626872,-0.005476833949013943
0.6175,-9.919315147260324,-0.037859679454218385,0.3399685380107731,-0.03088585331418313,0.0012261018312387643,-0.006904993938958727
0.62,-9.987500486228834,0.00919790173128647,0.40487777932584257,-0.030699739066307963,0.0004624101788257649,-0.0072320588510840335
0.6225,-10.075618548268839,0.0249961914460241,0.4782372587372718,-0.0307083728716905,-0.0006428346232179772,-0.006408313564154751
0.625,-9.983803490562288,-0.075807213590304,0.4035108803894297,-0.030519119213192926,-0.001833,-0.0068438281343135305
0.6275000000000001,-9.848901217791044,-0.05738383353610238,0.28045179228398354,-0.030284605176280805,-0.00265059104800326,-0.00860659104800326
0.63,-9.85622396750087,0.009122577103096566,0.27621133746028087,-0.03167917501565581,-0.003512,-0.009176085677838338
0.6325000000000001,-9.93576544619533,0.04584910345237095,0.3309963407591688,-0.03177092354706684,-0.0052740335831795975,-0.0079769832084102
0.635,-9.960422645447824,0.04039553753607638,0.367729250351819,-0.03256273147763865,-0.005715520310077506,-0.007317495937984499
0.6375000000000001,-9.932915575508893,0.008251969963133363,0.3053530125981683,-0.03210090799807655,-0.004497395512101316,-0.008159859689052756
0.64,-9.90176479359343,-0.02798500312114985,0.2118439937577003,-0.030891050595482552,-0.00493681453798768,-0.008406763942505129
0.6425,-9.929685580964724,-0.004382150663828795,0.23836709792796867,-0.03235513708730667,-0.003994130054624662,-0.007954061486899347
0.645,-9.978540688946408,0.03417479707316918,0.3291334061257692,-0.034992041327360175,-6.277109673141323e-05,-0.007919635115314383
0.6475,-9.955983950690198,-0.046775923183107734,0.34976972059250133,-0.03247407540497953,-0.0018510076205483876,-0.006975673255594047
0.65,-9.936744941921859,-0.058968480863546266,0.253134057632289,-0.03518828008917056,-0.0007479215769095239,-0.008594669459110651
0.6525,-9.953677083773584,-0.055716575597484976,0.3135681773165604,-0.039095,-0.0033837423060795895,-0.00901
0.655,-10.040862001710346,-0.013844367641379127,0.42657089740689774,-0.034956177075861954,-0.0066259762482758465,-0.00763039235862065
0.6575,-10.046593341433605,-0.02631065250880802,0.37289457988093855,-0.032272993427287115,-0.007127098777791271,-0.008043098777791271
0.66,-9.991982841480622,0.009161655611337423,0.24490292621399362,-0.03164374785425104,-0.006182546517061844,-0.007821388613071122
0.6625,-9.970493684496603,0.08508497195799834,0.24584237066090017,-0.033297772513897456,-0.006202405867819619,-0.007737065657813457
0.665,-10.00946442541631,0.1551481205770893,0.34274227812201874,-0.03595469224110535,-0.005547980804499225,-0.007493464594693689
0.6675,-10.020580344163122,0.07972310220759576,0.3445546782660347,-0.0395346417532311,-0.002786232678815118,-0.005482711037970629
0.67,-9.998630737826335,-0.09514429145486034,0.2907748615296106,-0.041011302357676825,-0.002776064128809635,-0.005832447222541746
0.6725,-9.879314409208988,-0.16848878810619472,0.0470739262137498,-0.04109328412253235,-0.0012297280980258667,-0.009163
0.675,-9.86500558269278,-0.13772997500611842,0.14703107116278905,-0.037827754271725786,-0.0006518039412484318,-0.009425812264381899
0.6775,-9.986144531531702,-0.08157898483020672,0.28982046811683565,-0.037309575749228205,-0.0013157408786511418,-0.012099430890524801
0.68,-10.08776660362656,-0.05072601834844344,0.48566195355059927,-0.038409987189414393,-0.0017599915412888196,-0.015020102239647157
0.6825,-9.992393075908412,0.01768175054843007,0.3304731500039346,-0.03766000937918011,-0.002309675644031781,-0.013251092888504217
0.685,-9.90996506665872,0.08711452429610245,0.18777950475622868,-0.03836746757897261,-0.00557564077720829,-0.010789001888186898
0.6875,-9.902669460555733,0.04849625934206323,0.1995810849568828,-0.03959345448738422,-0.006414,-0.007525636218460556
0.6900000000000001,-9.943017402453822,-0.062393506061577175,0.24944962954618288,-0.0393075243968074,-0.005812109664766211,-0.005059565892816479
0.6925,-9.978897490174983,-0.09969508554763434,0.321564967051199,-0.040988830732339596,-0.0033210587038237146,-0.007704856662346084
0.6950000000000001,-9.92585025191304,-0.044848658966182856,0.2591469310338106,-0.040317,-0.0007443997198067296,-0.009468
0.6975,-9.869149753033344,0.009430394153447978,0.2023350121333768,-0.0389301089284558,-0.003218306455163502,-0.010417126694723219
0.7000000000000001,-9.947841573592054,0.0561394111216281,0.29193925877898996,-0.037634116564126845,-0.005181648651206719,-0.00926665338381433
0.7025,-10.074184891998724,0.005265649885056997,0.3924118203192853,-0.04001892206896553,-0.0027034665070242566,-0.007611678409961692
0.705,-10.07870053179457,-0.046218288805598556,0.3794767531443513,-0.042156343778911164,0.0008725655794092164,-0.008180276887676441
0.7075,-9.965240899981001,-0.10745552449299534,0.29113077406791726,-0.041997,-0.000525038855378821,-0.007941
0.71,-9.984280210505954,-0.09029125671489166,0.30604159142514553,-0.04020736166893137,-0.006909934873311398,-0.010426572625689348
0.7125,-10.110328318089005,-0.044457152942093014,0.46703359404567296,-0.03932097161561842,-0.007137200748187947,-0.011759
0.715,-10.090414371525595,0.07081195862204415,0.44819044239173866,-0.039401,-0.003588187293307121,-0.011050378769685065
0.7175,-9.927213351103678,0.10283162767319665,0.265095357293357,-0.0403308539918777,-0.004256126770186344,-0.009507746459627313
0.72,-9.853840365282286,0.06791077789193263,0.18599970695904933,-0.04296802603343827,-0.005754013016719137,-0.007896481812454587
0.7225,-9.924222988551858,-0.05355846063087601,0.25550823454197946,-0.04272710135415002,-0.007547741198024548,-0.006577450368010183
0.725,-9.94140303686302,-0.15545415645161215,0.2786433161757834,-0.039871590696587196,-0.00656301002805053,-0.007054212646096282
0.7275,-9.864475544187014,-0.15698874207028973,0.21940591304459106,-0.040438563695460755,-0.0024482333327995594,-0.010090484819470065
0.73,-9.791633753676154,0.1141667886342937,0.24648914904568153,-0.041238675015546525,-0.0016176861038028883,-0.015594059268117612
0.7325,-9.868764218501132,0.1606731058620285,0.34015556559514026,-0.04029323183843678,-0.00168,-0.012816534068866866
0.735,-9.915209757476221,0.10123697259036259,0.3740214632339889,-0.04112093490488267,-0.00168,-0.008800279159797114
0.7375,-9.911288500120657,-0.10739460678089119,0.31588312427606086,-0.04378490282335904,-0.003150545704633349,-0.005383533252895876
0.74,-9.941377115929726,-0.14732759501473944,0.33683545111661317,-0.041427076259875024,-0.006323097582832229,-0.010727995208112242
0.7425,-9.969538465088721,-0.03166392527475819,0.3565379590307187,-0.04205830947549447,-0.0039190486453529105,-0.012713420276713855
0.745,-9.918753273846153,0.028222673076923013,0.2855075653846155,-0.04523047384615384,-0.00336,-0.012972520769230772
0.7475,-9.837946517404905,0.07776857809027621,0.26291754436731113,-0.047647,-0.0035746753731840087,-0.011606
0.75,-9.96374111365514,0.09619345804319603,0.43003636315354654,-0.04829296907824856,-0.004469621621621622,-0.010702150596010858
0.7525000000000001,-9.97955824520543,-0.055851428452489645,0.2949197871420824,-0.048697294805429836,-0.01008667771945699,-0.011221764756561073
0.755,-9.996198181572247,-0.09707327590950234,0.33576395745158377,-0.04744153410558069,-0.009023867656108596,-0.010642280222021116
0.7575000000000001,-9.973779968830469,-0.14490495963259298,0.303117456894447,-0.04575570763164141,-0.006295876921371346,-0.010314366312455456
0.76,-9.939023,-0.17934,0.243902,-0.04444,-0.004435376058394168,-0.010232
0.7625000000000001,-9.929888046641745,-0.06251175973380105,0.27274845922031055,-0.0447472194552849,-0.0037212680688493366,-0.0126270249681634
0.765,-9.920102686993387,0.06263462068602951,0.30364877879308233,-0.04507631285544099,-0.0028003234490407867,-0.015192575087704899
0.7675000000000001,-9.91877803516001,0.15438563642731573,0.29411887694953204,-0.05060675116701164,-0.0023707350230854924,-0.011536563668205619
0.77,-9.904759257181839,-0.05836644966361062,0.2606033427522922,-0.05149687409080217,-0.002081119426017404,-0.007954271267936922
0.7725,-9.843904912742493,-0.19154287770103826,0.17801680702889794,-0.05222083063994204,-0.0037120118972872418,-0.009272782422925131
0.775,-9.879899541726875,-0.12700681437877365,0.25841951102688804,-0.05074154591969675,-0.0028793213786568062,-0.01520172862726524
0.7775,-9.911566910340827,-0.021792491805656792,0.3666375780130525,-0.04783792275562004,0.000458,-0.015794507904278502
0.78,-9.876119255042047,0.07718034175530228,0.3793249311192702,-0.046731,-0.0005701341418927204,-0.013897
0.7825,-9.830504051822222,0.11116480933333417,0.34341860826666715,-0.049541715288888837,-0.0021236696888888807,-0.012861447822222241
0.785,-9.789613945475043,-0.013677513136819877,0.20439307316030172,-0.05081722189078092,-0.004027038778626001,-0.01032842964650612
0.7875,-9.906749693094667,-0.06330298540970623,0.2365194113603794,-0.05140304876690529,-0.0065195458074781085,-0.010659702163882229
0.79,-10.073217074110662,-0.07988198219900483,0.4120643090999763,-0.052808782873426684,-0.004391430296841486,-0.01177385709332696
0.7925,-10.04569639668867,-0.12844336645851942,0.32225501075468443,-0.05056663778768957,-0.0015191240535236301,-0.011561962583407658
0.795,-10.003944176942015,-0.09451976586381153,0.160838537101395,-0.0495189971810883,-0.0028523714445435836,-0.013371637012191524
0.7975,-10.081758225693846,0.06538540749641973,0.4866958047496385,-0.047116648755364844,0.002749,-0.016710482060085796
0.8,-10.077166456610366,0.050894250087361266,0.505475545719278,-0.048461549330227165,0.00023463750728009445,-0.016799
0.8025,-10.081332093799002,0.04092380701354224,0.5163384243763364,-0.050594426001425497,-0.001833,-0.016157971603706356
0.805,-10.120754,0.069345,0.523673,-0.053756,-0.00284505864474462,-0.01405
0.8075,-10.031245028714892,-0.035082447067314906,0.3243881734159743,-0.053180618816883726,-0.0030358878644280588,-0.013331008947120667
0.81,-9.901601512999527,-0.10252163342465455,0.1426881629097805,-0.05266919360415683,-0.0017826514029286604,-0.013804688384506453
0.8125,-9.874219854946631,0.008535902102915396,0.3329209964154851,-0.05389096933248367,0.0008547689979289468,-0.015844662975943922
0.8150000000000001,-9.78827282647548,0.07638591940795633,0.20149478240516117,-0.056694707752081505,0.0015797718131358484,-0.014385511757631694
0.8175,-9.789716568922717,0.048303876658277525,0.12918958757596213,-0.05566997392670799,-0.0011795933288318754,-0.0110944254349027
0.8200000000000001,-9.909375160432244,-0.12163666676272916,0.303781055848729,-0.054825,0.001007626618640494,-0.011250419738856507
0.8225,-10.038506499786658,-0.13821949081993315,0.4379452635567589,-0.05212591590511064,0.002478535901926449,-0.012680637325266681
0.8250000000000001,-9.96754189732824,-0.1889794285305361,0.3622751450381643,-0.05555270095419861,0.007858626192748271,-0.0157542508110688
0.8275,-9.9023929765606,-0.1336372745274696,0.2724378621856747,-0.057029833588368495,0.001465368504349862,-0.01615869533071148
0.8300000000000001,-9.904685134545458,-0.012108167272720752,0.261049694545458,-0.056759661818181734,-0.002902,-0.0168307963636364
0.8325,-9.988385199642464,0.07967331875531723,0.308546756424645,-0.05530586205439511,-0.0013490547583767496,-0.01563838680751396
0.835,-9.990482251400984,0.025741397764925955,0.29805999400984673,-0.0563774434740213,-0.0011961865016012641,-0.012270273084460638
0.8375,-10.000628257578912,-0.03617611252167971,0.3175829250780452,-0.05695778196323273,-0.0007268231009365065,-0.010245637738466916
0.84,-10.02761375084148,-0.11178617860233979,0.41354418196826465,-0.056093395890367034,0.000611,-0.013858715415932019
0.8425,-10.011658465760037,-0.1358576450239007,0.35394410860898495,-0.056728454273422546,-0.000766716223709465,-0.015711533317399648
0.845,-9.997643895317518,-0.07018538304816901,0.27960688854541016,-0.05505967184759168,-0.002955559223580266,-0.01776680001437814
0.8475,-9.976820245302651,0.10218286274737548,0.28364487883141504,-0.054035069514757374,0.0017065171425712897,-0.01658720948874434
0.85,-9.910254499162791,0.08586846716279176,0.20461801719069853,-0.05715890615813949,0.0015616818976744227,-0.013320153562790732
0.8525,-9.87955460489187,0.04706667342023991,0.19123048389722017,-0.06045789792781255,0.0011638204144374903,-0.012459751587672385
0.855,-9.867646839000635,-0.026720691388710763,0.2421185023512995,-0.061185229889663934,0.001876250059606827,-0.012902067632213072
0.8575,-9.790313519424865,-0.1534960582261469,0.18422303841212545,-0.060476,0.0016563955770883363,-0.01237
0.86,-9.801376668608398,-0.1110876212255867,0.15986242942382697,-0.060945049848632804,-0.0004877848779296823,-0.014447158076171843
0.8625,-9.856808445019444,-0.00012770354789908706,0.23223368064132008,-0.06033128022858954,-0.0013445641241368498,-0.017461058877688715
0.865,-10.037320721905223,0.0468213141093561,0.4548145564033998,-0.06133039881409475,0.0012493488699878192,-0.018567950055893068
0.8675,-10.015168742177547,0.00386836134335284,0.3836033007909798,-0.06270920826491314,0.003055291406294066,-0.01506498671864718
0.87,-9.972771598339127,-0.03970738388914975,0.287030879500235,-0.06391243568060122,0.004634804432127757,-0.011379456325035234
0.8725,-9.967314109909909,-0.11082202594594658,0.3400175785585568,-0.0622321358558558,-0.001936277657657585,-0.013897
0.875,-9.890888737565287,-0.1313596391321816,0.22423944773001206,-0.05921640891924468,-0.00044741237444756936,-0.014339578465247088
0.8775000000000001,-9.860965693653965,-0.13485460563664797,0.15039402230132187,-0.057503522351809694,-0.002260687714320063,-0.016785675421426196
0.88,-9.953832163075463,-0.07480298881189654,0.4295584944059483,-0.0627897011517165,-0.0008932988482834934,-0.021697442278120548
0.8825000000000001,-9.94023599375539,0.06101290466130161,0.32641436154365866,-0.06528375658155526,0.0007139963297188162,-0.019365006253934794
0.885,-9.894315930828729,0.05405590002209989,0.20209011120441986,-0.06348230996685084,-0.002238885966850804,-0.016294241060773488
0.8875000000000001,-9.92994131129884,0.043944853431887115,0.2544523533262962,-0.061831917423442385,-0.0005556361140444129,-0.015283892925026297
0.89,-10.025730752641115,-0.10627688209059344,0.32351774427874574,-0.06104740454355402,-0.001840308850174214,-0.014285117937282248
0.8925000000000001,-10.092980280492684,-0.07406764172440164,0.44713904092378537,-0.06303248819091614,0.0007473172286374107,-0.019095255304080013
0.895,-9.996097992948421,-0.012448976857937624,0.37215719485521354,-0.06455005776751349,0.0006523138958962509,-0.017388299998815644
0.8975,-9.931416815149074,0.08856468408702473,0.2801760437324753,-0.06637654529572923,-0.00019120879935533843,-0.018760870697824283
0.9,-10.027368829924244,0.02536214431817846,0.43664123484849005,-0.0660614545454545,0.0011013753787879293,-0.014274932575757418
0.9025,-9.998023016527984,-0.08826531855421552,0.34079744044631866,-0.06299675351890324,-0.0006389154727283282,-0.014734564247136319
0.905,-9.970353196145986,-0.15999634113868624,0.20900097786861135,-0.06456484423357675,-0.001833,-0.018024858423357746
0.9075,-9.919727869040084,-0.14424422387201127,0.2347364294559313,-0.06357330659119789,0.002880586632782668,-0.018263805685572367
0.91,-9.877300040888782,-0.11226829241892787,0.22545329867403202,-0.0622604068652414,0.005160339990391508,-0.01813635081431659
0.9125,-9.864194361314128,-0.04688429891679633,0.3142752865849293,-0.06190324916081415,0.0006524985835019615,-0.020130495750505885
0.915,-9.966416479557196,0.03369915985239967,0.436643269520297,-0.06647836560885616,0.0009383263468634728,-0.020987979040590417
0.9175,-9.971916458678301,0.07466340011633538,0.39362539720795087,-0.06681432456293426,0.001981785684278547,-0.018781894651801617
0.92,-9.784412007050086,-0.0137314371057555,-0.004971942782943772,-0.06367518901669754,-0.000982719406308156,-0.016537167643784823
0.9225,-9.863636405285018,-0.03276325328598082,0.13496406277974982,-0.0640799109757419,0.004248866263769306,-0.016279192569674354
0.925,-9.963432279546542,-0.08260980081145805,0.3209632202625331,-0.06479665594272078,0.008094,-0.01645587892601434
0.9275,-10.041126861235401,-0.08811569655869986,0.5274393692089105,-0.06879890551715835,0.004031909562913916,-0.018448197057194457
0.93,-9.998859968443107,-0.010374612816374154,0.4568678686285357,-0.0673526155617098,0.0015250490596026003,-0.01921963587236606
0.9325,-9.9752084045159,0.008627165972947465,0.39324219690318024,-0.06715480310156621,-0.0025072854935927853,-0.019226572532036072
0.935,-9.941739943803986,-0.07467353789036724,0.19465909676079313,-0.06962507795681068,-0.002887375631229244,-0.017326121843853782
0.9375,-9.976099469421102,-0.11721700676937441,0.2297732570028011,-0.06825883216619981,-0.0024945175070028008,-0.01621302964519141
0.9400000000000001,-10.004864860577282,-0.15328735200300087,0.3594870963988494,-0.06576620481819322,-0.0011604050631012909,-0.016756197345995313
0.9425,-9.995349747557123,-0.14807724889280832,0.3706801925695503,-0.06451436993505973,-0.0018491114920227737,-0.018897407661348516
0.9450000000000001,-9.973889464587625,-0.09888186368322373,0.2858497598640974,-0.0662086094283039,-0.0020743445267103096,-0.020437202492970975
0.9475,-9.939109345197775,0.08115392210135963,0.22437467603213868,-0.06773407878862794,-0.00168,-0.02090305289864029
0.9500000000000001,-9.998189765667492,0.06081426959208845,0.2873297403584689,-0.06983706341161934,-0.00168,-0.018305105407910933
0.9525,-10.10387234119543,-0.002471078383644368,0.4465168803944687,-0.07058376468069755,-0.0010402353193024619,-0.01771636721106434
0.9550000000000001,-10.039186616866113,-0.07736583725262192,0.3590247439347929,-0.07047123433760183,-0.0010849341187427611,-0.01713911716880091
0.9575,-9.810199436950843,-0.08792120305865549,0.07970819344573685,-0.0705495573023035,-0.0003696825647114528,-0.018247031707432932
0.96,-9.881726008293246,0.024251925706277523,0.2538989339995238,-0.06956842693439187,0.0010949403408825643,-0.018230486593509294
0.9625,-9.939834357857706,0.029546226760477856,0.3640123431794754,-0.06963225537696367,0.001069,-0.017686861066294655
0.965,-9.984006298904845,0.03688148482428439,0.41046899151430233,-0.07275849165674246,-2.99923876236779e-06,-0.01836632853239927
0.9675,-10.000063366873134,0.0072299137053912985,0.3297557651186904,-0.07594909621757584,-0.0006923448954566758,-0.017758938468794182
0.97,-9.909263916878475,-0.14599072358540405,0.09588787564146356,-0.07188516142063311,-0.0031501351727469336,-0.016872913051461668
0.9725,-9.894786,-0.164993,0.069345,-0.071166,-0.0020475516930182746,-0.017104
0.975,-9.964096026347303,-0.10805976407185786,0.24955090287180243,-0.07211465262128801,0.0018289562263227935,-0.018178946401075372
0.9775,-10.039700955034421,-0.0019832238876133675,0.4588429883852901,-0.073457,0.004865401144008491,-0.0197
0.98,-9.998302538378017,0.04502868660659283,0.37464234145407793,-0.073457,0.003699860238428396,-0.0197
0.9825,-9.852941,0.013749,0.132712,-0.076816,0.003749762449451116,-0.019548
0.985,-9.852941,0.013749,0.132712,-0.076816,-0.0005057236279606943,-0.019548
0.9875,-9.966125996867714,0.023314048250583475,0.22836159360213598,-0.07674844331889369,-0.0017137630789736446,-0.018801320893035628
0.99,-10.103888133359693,0.0034275249959300758,0.343143362418886,-0.07639278677055471,-0.0010855121804860984,-0.01712227459006862
0.9925,-9.881698436431789,-0.06813915619351996,0.0957062143929507,-0.07501870588212504,0.0032160113012736904,-0.019114694580851355
0.995,-9.874108714461716,-0.05205022529710885,0.19224081539057564,-0.07525128266937865,0.0043017081815099984,-0.018261574487868665
0.9975,-9.885043031890502,-0.03212581456246996,0.30941228323350944,-0.07611626660739362,0.005124661651848377,-0.018034030781469406
1.0,-10.056891041617682,-0.05541254279332236,0.4785146317893252,-0.07980097883846696,0.0013160706560075238,-0.01963164824829532
1.0025,-10.203768465207165,-0.09655237410780586,0.4196796882771723,-0.07999846233130777,-0.0027044591681793205,-0.02052744731118298
1.0050000000000001,-9.961404317317522,-0.10378943510848483,0.06423812386584624,-0.07943349641025656,0.0007074189349116442,-0.02045896844181443
1.0075,-9.944650096477167,-0.09720803004659806,0.288745222292644,-0.07789636372786575,0.00380999653308488,-0.021145318136067123
1.01,-9.956988053416513,-0.09949291311559635,0.4282044740990829,-0.0777132185590214,0.004867218559021408,-0.019949375647706415
1.0125,-9.9741387589871,-0.09861104132055447,0.4945664708791871,-0.07832980631877881,0.0036027811619928282,-0.019071868843923718
1.0150000000000001,-10.042015296058164,0.028899918707606914,0.40980794820677924,-0.08109919825525064,-0.002291,-0.02312041208400664
1.0175,-10.05341825633693,0.08282780195731157,0.27972823805891023,-0.08288021251643267,-0.0011705798036191896,-0.02144933871946749
1.02,-9.961311274999998,-0.04735537567380431,0.15571862518261897,-0.0820087942254408,-0.0010385750692695449,-0.01820354809823679
1.0225,-9.888278779123583,-0.1358769797993146,0.11842069018162929,-0.08050717516575642,-0.0031068149472882668,-0.01979292170201955
1.025,-10.049547546299795,-0.10720124136367146,0.35831302304028445,-0.07962748443570936,0.0005688178849496542,-0.020547257510015838
1.0275,-10.043445061287542,-0.09634479179780792,0.41262871296135367,-0.08331634842155504,0.0011645662756315622,-0.021913145941821772
1.03,-10.020324,-0.099235,0.375418,-0.084147,-0.0002562440822602443,-0.022144
1.0325,-9.922362146273372,-0.013958412912339957,0.280979962442876,-0.08243637528874119,-0.002375787253842935,-0.023314086165351047
1.035,-9.942533885889413,0.01404891773446415,0.3185139374573889,-0.0815792455510604,-0.0037510633909525627,-0.023126700840995558
1.0375,-10.042306204292258,-0.08552823559199796,0.3861627990836708,-0.08164684152399322,-0.003085736050156703,-0.020969578104653913
1.04,-9.99933561990548,-0.13760007103969701,0.26344925374290923,-0.08195620963137999,-0.001091841427221121,-0.021926312580340338
1.0425,-9.974934311762002,-0.11181633404281102,0.2252755645858014,-0.08279916069174023,0.0006787242084895358,-0.023776621090821157
1.045,-10.026482429657756,-0.03942160210424683,0.36551642269197815,-0.08299317705163864,0.001162497027451915,-0.021259480735276406
1.0475,-10.067734256948986,-0.001024988980321535,0.47340017498982495,-0.08346715793967062,0.0020969819159830246,-0.02038106393189811
1.05,-10.095389499096504,0.007342660698148339,0.5490696344558461,-0.08434038583162239,0.0032660749075974368,-0.02074139412731003
1.0525,-9.887878466951939,-0.12127664030205278,0.19899118074726785,-0.08886555895539999,0.000764,-0.020144956013529457
1.055,-9.844835628884594,-0.15486945459198537,0.10965493399322919,-0.08706574324480935,0.0013552512409463597,-0.020639759787542226
1.0575,-9.960236846639758,-0.15271020292567186,0.41598947315127904,-0.08469808499643783,0.0024168980669674878,-0.021075
1.06,-10.03457812173913,-0.1432006119495076,0.41255046187002437,-0.08495730042075746,-0.0011274276951849052,-0.024692547975689795
1.0625,-9.834207339208112,-0.12538188749396428,0.0441756525832931,-0.0857431214389184,-0.002314931675519073,-0.023374253017865766
1.065,-9.808479633404154,-0.06144204193143546,-0.019007886653789094,-0.085066559546113,-0.002507963833896664,-0.02221479428295512
1.0675000000000001,-9.914242333758784,-0.03880847299298077,0.17302543022337546,-0.08649462538608821,-0.0021096356987874505,-0.02203314308870456
1.07,-10.102590559171563,-0.07700725356414437,0.5356472537001615,-0.08801458571870166,0.0005424391344669174,-0.022147195029366285
1.0725,-10.16649366174535,-0.21678449304721223,0.637589180715303,-0.08388315433476386,0.004668000286122998,-0.021554967210300435
1.075,-9.974557113264389,-0.19719154387450671,0.2726465775248193,-0.0833806511973346,0.001480112764628351,-0.0257508491983063
1.0775000000000001,-9.772764289631663,0.002521750969128169,0.025372551622365347,-0.08238414614852795,0.0005989278340683708,-0.025411035174633466
1.08,-9.840760487166529,0.04137681027059355,0.08029311018238325,-0.08477028464417696,-0.0004510231016808024,-0.02579289233043272
1.0825,-10.008818717752954,0.12072952224704836,0.3256066401532106,-0.08668102893073733,0.0020740336035748866,-0.025036180427705064
1.085,-10.011987687556474,-0.029171460698143276,0.4611487843942551,-0.0899072319507186,0.008672025462012196,-0.01802459400410701
1.0875000000000001,-9.818779999381846,-0.14297751479304735,0.1894342265923134,-0.08988847405611779,0.0029332587115928855,-0.019486118695836753
1.09,-9.734284656483139,-0.1751392274572531,0.04399491678745303,-0.0894582078745098,-0.001268295742745102,-0.02163298553098044
1.0925,-9.822247928453903,-0.1329372508463361,0.12103548001891412,-0.0885662542222222,-0.0012279729834515265,-0.022790254940898338
1.095,-9.92867933908541,-0.15205489202032438,0.20712595994193114,-0.0868592725284297,-2.7478199854844964e-05,-0.023104817585289112
1.0975,-9.969529467315208,-0.0374154671817082,0.29160621373388407,-0.08901963668097253,0.0033921822412967,-0.028324133257033222
1.1,-9.976151982328666,0.03766698346526141,0.4063163131452574,-0.08756154526757318,0.007582424545024156,-0.02650661186658539
1.1025,-9.973142223614458,0.04119331338934632,0.41633147430247225,-0.08829440596068489,0.005155369311984674,-0.02302389105897267
1.105,-9.980935168370433,-0.03216548229972524,0.3222133626949184,-0.09016985249851209,-0.0024487071920008966,-0.019840833415069644
1.1075,-9.995349730727725,-0.14479458137858997,0.27090219209350624,-0.08855917683131864,-0.0038358740084862195,-0.02030206299575689
1.11,-9.883058237644915,-0.14551486312499373,0.059254086385843924,-0.08946185652173945,-0.001374,-0.022577466865942142
1.1125,-9.861159753810597,-0.08164424239658544,0.1697910647030964,-0.08923709183359013,0.0011205951878630316,-0.02337864879696576
1.115,-9.877261874077274,-0.005857462778978077,0.28679933157187415,-0.0892347414350852,0.0037885901703863596,-0.023824
1.1175,-9.972933069277824,0.022658304962263766,0.3456380641582564,-0.09185502984984499,0.0019779630126322226,-0.02280332100421074
1.12,-10.073075505010175,-0.07616834824656775,0.40758774325793007,-0.09345671480071804,-0.0006792820442847122,-0.021661004356672668
1.1225,-10.079623236065574,-0.16604441678688503,0.37225572963934256,-0.09064593967213108,0.000916,-0.022913520262295126
1.125,-10.01993530382072,-0.13985510066127846,0.27873975116336025,-0.0897241010286554,0.0020933605192260596,-0.02626468809698751
1.1275,-9.926752933368281,-0.046534698940515665,0.26558016556270175,-0.09210823210547214,0.002109964285600894,-0.030193910901437495
1.1300000000000001,-9.92434561261364,0.09747682727273596,0.2535242221590817,-0.09486695500000031,0.000382482045454598,-0.026868545227272098
1.1325,-10.034929016334694,0.12483956130658333,0.3410040163346923,-0.09647788179182205,-0.0006669161299483927,-0.024977452850464456
1.135,-9.951840273549914,0.009479447917627865,0.2579152735499139,-0.09837349672761703,0.004355377582105468,-0.022324212436238822
1.1375,-9.886357912642934,-0.10078738744627175,0.21502905180439555,-0.09610483545535652,0.004108270602546515,-0.022243168421052593
1.1400000000000001,-9.874371058950523,-0.18295796660258623,0.21478699150646138,-0.09362239403088579,0.0012279370973842228,-0.023537354358651102
1.1425,-9.935102907769737,-0.19192575139146933,0.22269688248190225,-0.09734283524761585,0.0018274054785705762,-0.024001144653567893
1.145,-9.918831607765929,-0.04690022139350297,0.15464449689065085,-0.0982435714059013,0.003863533816017916,-0.026738323372179497
1.1475,-9.815609445431022,0.049925246740450575,0.1336163589150413,-0.09724644210756041,0.009230238946219764,-0.02587638313951674
1.1500000000000001,-9.863815615848015,0.06883350611676606,0.3428193399444154,-0.10055441538461588,0.01203021065801688,-0.023994493234475913
1.1525,-9.948874584503896,-0.14125478540537534,0.3537943763531003,-0.10438843990868113,0.000764,-0.023310248225721565
1.155,-10.015290945171223,-0.19079130061230515,0.37727823117016945,-0.10391948711116314,0.000764,-0.026028824063689077
1.1575,-10.047226,-0.21461,0.38857,-0.103694,0.0037222748189150116,-0.027336
1.16,-9.97591136497459,-0.17639763192064867,0.31092789451705694,-0.10021207944451369,0.005895039722256842,-0.027522473294482312
1.1625,-10.031375533873083,-0.007326585474462134,0.4917235802357405,-0.10097357068698655,0.0042492320038098625,-0.02991780802476485
1.165,-10.105262126467437,-0.032328113008691865,0.43798827376592375,-0.10116458405524467,0.00100824701035833,-0.029822925567329444
1.1675,-10.158761670548442,-0.011901891683262618,0.4098800017069702,-0.10159722134977081,-0.000458,-0.030265072900268683
1.17,-10.161245068274724,-0.024118191975450128,0.34278589063960874,-0.10356003621430244,0.0025041817701201207,-0.025953640377626087
1.1725,-10.022348992929771,-0.0931860134848691,0.19771379338676318,-0.10250095322167717,0.0021568313267136844,-0.025134893128364644
1.175,-9.90238951629142,-0.16731738665281312,0.07502430072739717,-0.10149299221798867,0.0017168523957972618,-0.026400951206558197
1.1775,-9.961089825944999,-0.09944585672723755,0.23639705595374563,-0.0980929853969488,0.002320926316198608,-0.030736013674084153
1.18,-10.001291522650858,-0.054980467210184764,0.33202777813040285,-0.0970811925993587,0.00558861967155759,-0.031125243128947617
1.1825,-10.04360571809547,0.00022411807130426342,0.44936541722780526,-0.09642770822477348,0.00850735411238674,-0.03094536230090619
1.185,-9.978484975899422,-0.025127442011434895,0.5518356343679963,-0.09910187003428582,-0.006268778404572357,-0.025990378294856988
1.1875,-9.788371548668282,-0.16176681694915254,0.034897694430992734,-0.102167,-0.009734840193704599,-0.025351
1.19,-9.868307061462469,-0.20477028126553581,0.06677051181275154,-0.102167,-0.014516482163034604,-0.025351
1.1925000000000001,-9.942552844204265,-0.13569951990953105,0.12473722836329285,-0.10467007603380561,-0.010254076671824559,-0.029195176874181834
1.195,-9.994675966280568,-0.08624169988416999,0.1789485476254837,-0.10605404482625479,-0.005814539794079704,-0.030274989935649813
1.1975,-9.98542081962753,-0.08629792628340073,0.1948122390931169,-0.10629158597570852,-0.0022766331012145638,-0.027308928129554683
1.2,-9.933209002359591,-0.041292737077548644,0.0949126245790835,-0.11101940204006394,-0.000153,-0.031335534029740764
1.2025000000000001,-9.966521,0.0,0.087279,-0.109956,0.0016523748134123926,-0.029474
1.205,-10.006046509558047,-0.08358241843253497,0.26854171079789374,-0.10944137453859748,0.0065191519717150165,-0.02863804947554501
1.2075,-10.035082906823375,-0.18895102547828915,0.5038244032778321,-0.10803928728697354,0.010718344394384597,-0.028878425426052907
1.21,-9.944419184734258,-0.1158838426837377,0.3709057562830083,-0.10640922074294208,0.008775351866499127,-0.03041025440621786
1.2125000000000001,-9.824280627767262,-0.05154710066225323,0.1329711661778531,-0.105374,0.0027606706717121176,-0.02990403008514661
1.215,-9.770443,-0.071736,0.020923,-0.105374,-0.0005994690625251304,-0.029474
1.2175,-9.871385159046264,-0.1446387448736348,0.16792991090129925,-0.10793229669051045,0.006498705407725851,-0.02865585430615158
1.22,-9.94949254165084,-0.17972419873310694,0.2707483660544733,-0.10691135430036734,0.009774,-0.029496494917180663
1.2225,-9.933949412348396,-0.2150144976906506,0.2921187117539242,-0.10690011827555974,0.008207488692326171,-0.03065472524344566
1.225,-9.984810628331944,-0.1712694074721507,0.37709346557299284,-0.10902325014968275,0.005998569704226998,-0.03276145956172928
1.2275,-10.08858280849741,-0.02348661595854807,0.4668136814130946,-0.10897219870623329,0.005639800816454706,-0.0323837333082116
1.23,-10.081969956992056,-0.0029783545158492616,0.4469008816392672,-0.10814997330291826,0.004745007645717004,-0.03015254738299378
1.2325,-10.065549783639819,-0.08126668856735592,0.40978250658113496,-0.10937122119743406,0.002321205621287679,-0.031010140228082617
1.235,-10.084652215942471,-0.10279020052678677,0.421564532995071,-0.10858841115940847,0.003033704464732952,-0.03170591711400168
1.2375,-10.055743783511856,-0.17542797963653908,0.38286123533517546,-0.10643968812131425,0.0014057155373689808,-0.03034120965218446
1.24,-10.116027281975482,-0.14333486583537697,0.3279493085534144,-0.10806935836077057,-0.0027678766094571,-0.034984116203152345
1.2425,-10.060326268495242,-0.05353580746666815,0.3245933839746069,-0.1116316879999999,0.001008119098412569,-0.03662498621587303
1.245,-9.832115544116451,0.07160072188756086,0.0935325523895418,-0.11341837070281112,0.0037381629718874643,-0.03617934825301206
1.2475,-9.865491442367537,0.097472970540493,0.24042518405812868,-0.11459208630870107,0.005032405862130103,-0.03664940404749248
1.25,-9.961928656763686,0.027608173880259393,0.4105039686321822,-0.11562239164530237,0.004100931382898507,-0.032910079475192276
1.2525,-10.041262874024545,-0.16935699703247234,0.3553125517438529,-0.11925358999444474,-0.001374,-0.029979019556588004
1.2550000000000001,-9.986496609015704,-0.2054457833685184,0.28218495364678214,-0.11844495631331747,-0.001374,-0.03216291300843402
1.2575,-9.919915496992768,-0.22858313612529968,0.21437013821204737,-0.11730728399036136,-0.001065809040963798,-0.034235834134939795
1.26,-9.954075941568536,-0.04793287227651821,0.2430265152038146,-0.115148,0.0008490785029797419,-0.035125
1.2625,-10.029663045528551,0.012035399636895375,0.3107801263367485,-0.11656112580966323,0.001887379443631021,-0.03627273106881403
1.2650000000000001,-10.054076054503373,0.08132208196721996,0.3212456555785869,-0.11928444244937346,0.002112331928640232,-0.036807608505303714
1.2675,-10.00328486409836,0.04346309196720746,0.3005867619672147,-0.12139781524590161,0.0031205890163935376,-0.03365948131147527
1.27,-9.9429941972045,-0.1422294266913249,0.33387112754199405,-0.11984750700878408,0.0059655153552165335,-0.030362048901217447
1.2725,-9.875410712873272,-0.2876420691614866,0.31080550492198583,-0.11724636057084867,0.007279310013954131,-0.030824779487504738
1.2750000000000001,-9.848374265469996,-0.29479840416085284,0.18158909736140372,-0.11683999247748317,0.003622662260560506,-0.03214497697577072
1.2775,-9.94422419401274,-0.153189686496809,0.2346445214012727,-0.1185455267515923,0.002082081910828021,-0.03840831197452241
1.28,-9.950029918901727,0.00027481708729041807,0.23936570893948164,-0.11693880655302596,0.0030849512916142686,-0.03936525045646946
1.2825,-9.685071339770674,-0.05255325991705199,0.04634212441083284,-0.11960554984142473,0.012014936647962974,-0.03636296459624303
1.285,-9.671817687035864,-0.14175939006261404,-0.04082517901601738,-0.12103810060990482,0.006806591353988945,-0.03167562437342456
1.2875,-9.79372054271972,-0.26304891042755785,0.09259235074822365,-0.12264609182897869,0.00692994996437056,-0.03309238380047512
1.29,-9.91550415198662,-0.33722898844989624,0.23847020174605918,-0.12267914211247408,0.007754993993946176,-0.03429694718496097
1.2925,-10.015474824312818,-0.3013827062147164,0.36383456198056463,-0.12105381157797312,0.010000829074502504,-0.03532402946321144
1.295,-10.05208679109052,-0.10744688815871609,0.37449819188405653,-0.12336963693989085,0.013806208367783315,-0.039377645393205
1.2975,-10.055800427205451,0.05537230848585836,0.570448060797097,-0.12196752296965382,0.013166159400998282,-0.03781947820299485
1.3,-10.074532241059604,0.0042024649006580095,0.7434865673289156,-0.12352887108167773,0.007881245474613446,-0.03157853245033094
1.3025,-10.069016212132103,-0.24348273409001248,0.4683982672625536,-0.124158,-0.003043668675021644,-0.026725
1.305,-9.975668747734087,-0.4229455111797746,0.05592665693353263,-0.122725199363296,-0.009418554691011194,-0.030712526601123294
1.3075,-9.845763167900712,-0.31436374777304077,-0.011712585900701476,-0.1202387558439716,0.004373709092198779,-0.040695263134751795
1.31,-9.916152240392437,-0.10652879575413268,0.1698187256075689,-0.11957626899763592,0.009011117016548562,-0.041168113895981094
1.3125,-9.9295138897249,0.02023397037385375,0.32340262395172037,-0.12448230496120385,0.013042858844737049,-0.041183042714946314
1.315,-9.86701084965104,0.05627395449334471,0.2913190888164128,-0.12991651274253516,0.01226662395011413,-0.03956580386137436
1.3175000000000001,-9.807601162580234,-0.021935721242341444,0.003800267831478646,-0.12579446193198993,0.007703349730031064,-0.03387080795731432
1.32,-9.828167108398997,-0.1822805170734094,0.02173829027902055,-0.12256767694407855,0.008483898110405992,-0.02897944470841814
1.3225,-9.848916328913667,-0.359722243187669,0.5551339368828397,-0.12397579371648768,0.017176708623431958,-0.03101873148807086
1.325,-9.85045863058129,-0.32374724007542904,0.46673873076986305,-0.12515702141510207,0.007592773846027882,-0.037057263769779344
1.3275000000000001,-9.91885793428208,-0.1256991331109876,0.29561013647656964,-0.12628176456211818,0.0030941184979631324,-0.03942909804480662
1.33,-9.90632956986717,0.007231391896074642,0.10054427708655049,-0.12742391100861192,0.001229118353525063,-0.03819314589402991
1.3325,-9.778515836733348,0.020345528199575334,-0.08707350723464337,-0.12840856387855965,0.0041569921393270065,-0.03298497435631911
1.335,-9.721057659570402,-0.15506609832935223,0.04419384055369385,-0.128282,0.014203,-0.030633743971360386
1.3375000000000001,-10.012479772713734,-0.3853120564432505,0.38514941242776213,-0.12876910265117664,0.009774,-0.035402919011022056
1.34,-10.055053769973192,-0.3404978485576393,0.37058491980697006,-0.12895963924932977,0.009774,-0.04122271884182324
1.3425,-10.087761562622951,-0.16115874323770185,0.44669125221311634,-0.12688540352459013,0.012212327663934474,-0.043342334467213105
1.345,-10.011557572424643,0.044529464830215165,0.46959315642559507,-0.12574654829024182,0.015314678903848439,-0.04054230884784946
1.3475,-9.900030025426869,0.0537406857324923,0.33299414447342235,-0.128847670227152,0.010869649005841331,-0.03715857772847958
1.35,-9.922960240108562,0.03155039487875312,0.2679025009027058,-0.13102042314000834,0.0021774000235999045,-0.036402568599917376
1.3525,-9.968049842594922,-0.21176243874892509,0.004677484771053064,-0.13230297351268963,0.0015400606056590355,-0.03274859468822475
1.355,-10.01828970434241,-0.21631955280934076,0.05636111645135741,-0.129045,0.008077619486381202,-0.031612
1.3575,-10.118231822949014,-0.10330452436316091,0.4035035592277716,-0.1277269695654773,0.01140187871615558,-0.03635863624170686
1.36,-10.081165036527382,-0.04372928954124081,0.48674966121130214,-0.1283728478988563,0.012828,-0.03824074458278126
1.3625,-9.969957079980965,-0.07588067712563536,0.2947530128489849,-0.13267997071700516,0.008985593115482107,-0.035685837753807105
1.365,-10.035571579752608,-0.10960063287897161,0.3604989461945179,-0.13324087330584528,0.005398556973077842,-0.03498365944215378
1.3675,-10.06422826577063,-0.2051236309086648,0.3423052854968727,-0.130572,0.005231610170907211,-0.03328738736679303
1.37,-9.998081517360703,-0.3481615842228773,0.17141912530791234,-0.13254571296187712,0.004520963841642474,-0.03385109941349
1.3725,-9.964748093313302,-0.37147147323702057,0.08727748938865568,-0.13767282343233556,0.009468,-0.039452383136484484
1.375,-9.906633606179387,-0.13488213603873644,0.13945557482130505,-0.13149124394742912,0.01154702236569057,-0.037813177311505644
1.3775,-9.912175922232159,-0.08607536557324381,0.18243258117688974,-0.13474996158826677,0.007581600550885461,-0.03755792675371131
1.3800000000000001,-10.002798508065075,-0.08532200081573739,0.2914964877591731,-0.1393509715853364,0.005543285379946831,-0.03808434578295704
1.3825,-10.037981188512076,-0.21680487852073693,0.2605302286914728,-0.13681231334329982,0.00854731185144388,-0.03649508852938854
1.385,-9.891858520294722,-0.33083183053992044,0.11780440455610602,-0.13013173246044207,0.009163,-0.03584360249788624
1.3875,-9.870236786506574,-0.2271557190557913,0.2612937220125746,-0.1304447955239728,0.009699270652617803,-0.04062920491709541
1.3900000000000001,-9.906154326662172,-0.15741802855220144,0.2711101068462203,-0.13722968967901295,0.008649855829404914,-0.03791803756677811
1.3925,-9.954626266641256,-0.07922397324914818,0.18038598274584366,-0.13399646115909214,0.0060533226064684535,-0.03533567865149796
1.395,-9.997607,-0.005978,0.136896,-0.130878,0.006377435534883764,-0.034361
1.3975,-9.966054532779147,-0.18753566661685905,0.2375025587665871,-0.13180297257569734,0.00852298094889933,-0.036277138230946464
1.4000000000000001,-9.964672950743479,-0.3441401292265265,0.32394371943020606,-0.133846063851056,0.0038428459327746016,-0.04128060972135491
1.4025,-9.992914590222084,-0.137772977711284,0.2525793295619983,-0.135001,0.0035833561381865813,-0.044746
1.405,-9.924466012338982,-0.008408539977400613,0.20346384149152413,-0.13384585188700562,0.009468,-0.042765553129943436
1.4075,-9.826932655622318,-0.045498145751066844,0.27760283622316195,-0.130725,0.008417319141630982,-0.037415
1.41,-9.915667901207524,-0.3002641297725283,0.3466237783394182,-0.14239081191051162,0.0028811519498270002,-0.03502588295048216
1.4125,-9.889905516042456,-0.3429811636693624,0.14407615596985418,-0.1407305179013363,-0.000874438178518525,-0.03635664663696866
1.415,-9.846681327046667,-0.3286946733774327,-0.07255607348980808,-0.13811979856456727,-0.0028259844893519857,-0.03900775874943372
1.4175,-9.788814809814214,-0.1530188305632562,-0.21871082644647766,-0.13713284552049543,0.002270536561486264,-0.04458222057210265
1.42,-9.828250564726234,-0.08061781699400579,0.02129072822568867,-0.13823471099184112,0.0055761329755233515,-0.04104058375307196
1.4225,-9.950759107187816,-0.028428994280268204,0.4481326816397042,-0.1379522527740703,0.013082902840801746,-0.03524809163012334
1.425,-9.764746538489778,-0.3025087626239187,0.021684188397983223,-0.13960915305348184,0.010962537461754915,-0.03329830948476325
1.4275,-9.743855706203611,-0.4343258485224741,-0.06510843245178755,-0.139888,0.009786149802535532,-0.03652387617364578
1.43,-9.871226525853896,-0.36286284457704754,0.28281556878083713,-0.13899366703990187,0.012296336820134925,-0.041488395589932225
1.4325,-10.00056923380829,-0.05730319595738148,0.5233057418130214,-0.13866318654674567,0.014556849088757375,-0.0472595402603551
1.435,-10.032551444953672,0.15331974204761092,0.48516697942065684,-0.14186136082561288,0.015437262127360239,-0.043921872161369446
1.4375,-9.630749333817654,-0.3569035081729023,-0.21277624700326916,-0.13787847947693424,0.004957989102796949,-0.029626660733745005
1.44,-9.86071935548613,-0.42672922382854916,0.09157296873712875,-0.13438830460830617,-0.0007616317714007736,-0.034474055294829775
1.4425000000000001,-10.040151842460777,-0.46437089724412556,0.3791763106440909,-0.13537120089312227,0.0021992549988294565,-0.03849215546881114
1.445,-10.058854070514535,-0.36005683633579677,0.47498237941833654,-0.13942095586482992,0.011329344137525137,-0.04229013419521972
1.4475,-9.830923509949553,-0.0545771583531318,0.23425525542066666,-0.1417187592839707,0.011075567244914545,-0.04585171453213996
1.45,-9.736431999999997,0.13119058265895828,0.127686714450867,-0.14398052986512522,0.005504661271676403,-0.04365985240847804
1.4525000000000001,-9.824723134783554,-0.05628551305510246,0.14389371189449324,-0.14422917111559347,0.000927616403413326,-0.03481914908300975
1.455,-9.917103159210406,-0.4304449219258619,0.20865637143958066,-0.14278535611940285,6.148150216673978e-05,-0.031616643880597164
1.4575,-10.034978688366891,-0.5378231712048575,0.3303125589581342,-0.14064360862256314,0.008465632738894297,-0.03780528956855231
1.46,-10.036756248847038,-0.37930086987598205,0.3662680329536071,-0.1414895322002756,0.012144212466697484,-0.04519937774919603
1.4625000000000001,-9.939597453073869,0.10139399319533993,0.19729865806891123,-0.145844,0.005064938311849302,-0.045509
1.465,-9.901138835800692,0.10722107611056042,0.1405815877268202,-0.145844,0.005461988346554301,-0.045509
1.4675,-9.84394983556783,-0.05900631653382084,0.08299599851629644,-0.1463738567311183,0.0086965922089812,-0.04047666184831495
1.47,-9.830150153604487,-0.35282563071528505,0.08465592280504769,-0.14600287340813467,0.012025676774193571,-0.03555666653576432
1.4725,-9.92332750703724,-0.41295057043382766,0.19182259306196098,-0.1427422320667665,0.01502696045350734,-0.04202146675379867
1.475,-9.986792864485983,-0.224427115097039,0.30288504902948166,-0.14000125837526953,0.02121167850467295,-0.04683098224299057
1.4775,-10.019983877483336,0.01689493025849597,0.3966514669907333,-0.14194497008941642,0.020580805104860957,-0.042842029910583564
1.48,-10.001831316972055,-0.04297768274495649,0.4253911526848243,-0.14837520444287225,0.015256060742837006,-0.03797850613371067
1.4825,-9.99711483889282,-0.28519836096555906,0.4776104595300927,-0.15173178878661092,0.011131422426778184,-0.03741965431606045
1.485,-9.986191700633041,-0.3723728202671833,0.3476170695631069,-0.1499707808111685,0.011269438897580785,-0.03989056110241921
1.4875,-9.929680396668783,-0.32692316879758604,0.12101133553299431,-0.14931993283629444,0.006355448048857765,-0.044398258692893496
1.49,-10.054759775543358,-0.054175752676181826,0.1844151810581769,-0.15054159207903403,0.007901683837541106,-0.04605775359824371
1.4925,-10.04668077315358,-0.03939389203619254,0.24129307095888664,-0.14918422451205443,0.012931715987125674,-0.039758749020465334
1.495,-10.00163661925804,-0.17978438283636117,0.29213764736323455,-0.1477679246677623,0.01713755253345878,-0.0357361632683729
1.4975,-9.95905593421725,-0.3436405322875398,0.3481291203386587,-0.14774379984345049,0.01694318902875388,-0.04032921645686918
1.5,-9.95717575953326,-0.2596419351617948,0.3167533932395044,-0.15120682112354145,0.011933591362925537,-0.046921808973896306
1.5025,-10.000788860402684,-0.05867831473700974,0.19394545821133338,-0.15320730612142977,0.009597899278913701,-0.04606429910410499
1.5050000000000001,-10.014530855317087,0.028510011695978634,0.13393260602226975,-0.1499539928868807,0.009890452315636709,-0.041935051928352306
1.5075,-9.968001035597869,-0.042801870466356466,0.15365749318702646,-0.14840321040503465,0.012280501694368302,-0.03922139409391635
1.51,-9.92147121587865,-0.11411375262869156,0.1733823803517832,-0.14685242792318864,0.014670551073099895,-0.03650773625948039
1.5125,-9.871542035055116,-0.2928935579055153,0.08829896645669263,-0.15042611447244095,0.01175911447244096,-0.047516015716535395
1.5150000000000001,-9.948509388765942,-0.05196649359572503,0.1682114386483587,-0.1504246583884145,0.012306630414655467,-0.04758956878821611
1.5175,-9.959409552443322,0.042799670730475234,0.2513264703274548,-0.1536438738539044,0.01445610871536526,-0.04195424357682603
1.52,-9.864327901682122,-0.13757682983051067,0.18539421946913887,-0.15682578537895747,0.014966,-0.03695688225135911
1.5225,-9.763501254775532,-0.450984245415208,0.04116908801116942,-0.15725690161432895,0.014199662414515085,-0.03567597110025575
1.5250000000000001,-9.672625197168518,-0.598649909974906,-0.16596915272227367,-0.15416838927271234,0.010151077906318246,-0.04383948664347581
1.5275,-9.726207,-0.352702,-0.19847,-0.150578,0.01029133948307253,-0.049786
1.53,-9.915012460286954,-0.15270017292429108,0.22519781213578807,-0.1516829942283915,0.016679925818266793,-0.0459504441479061
1.5325,-10.00042318414634,-0.3054926005253259,0.36383285894934475,-0.15709180028142586,0.013207732514071374,-0.03866705343339582
1.5350000000000001,-9.968081434552843,-0.5318840279674926,0.23348712406503325,-0.16009604593495952,0.005821304796747546,-0.043424663739837666
1.5375,-10.025107,-0.396939,0.23374,-0.152411,0.005607092998805203,-0.047647
1.54,-10.025107,-0.396939,0.23374,-0.152411,0.004076823483870946,-0.047647
1.5425,-9.96588874345922,-0.2573530779942894,0.15998152482386643,-0.15477474185972703,0.005791403694065344,-0.047714661834338305
1.545,-9.875210337234668,-0.12248628622961999,-0.0030613108009790585,-0.15818922644775416,0.008858,-0.0453246518775656
1.5475,-9.875626462561554,-0.26833003163365793,-0.06194096561391921,-0.15809549007939686,0.00892400327853076,-0.04222219738872408
1.55,-9.993112027569987,-0.29733410797458976,0.16506320715126777,-0.15800784469536586,0.011968612938132365,-0.045316696447894746
1.5525,-10.147714923481399,-0.11194644572459789,0.47538212966685134,-0.16014402674625208,0.018177681671293713,-0.0480654752581899
1.555,-10.152475163080261,-0.062137925715159505,0.4786784544549416,-0.16175011649296425,0.019077670709757605,-0.04521519789083064
1.5575,-10.017554857741704,-0.3177105218429275,0.18552634511339416,-0.16267206570541898,0.011041443160658799,-0.04096789455239921
1.56,-9.931933193934187,-0.4057970995517406,0.15870947336194188,-0.16172694105865512,0.012050248221268618,-0.04268402947067244
1.5625,-9.793017522075486,-0.33316523310150814,0.08410291716808627,-0.16007102985074628,0.01393149730405564,-0.04631594287723685
1.565,-9.86251967946428,-0.11700676624035582,0.195416463445939,-0.16097928580115828,0.011836719565637104,-0.048955805786679595
1.5675000000000001,-10.057182376502762,-0.03877137904534449,0.45156342058048377,-0.16033862823698716,0.01192158117534189,-0.042027709234827994
1.57,-10.001796210494092,-0.3415683735498311,0.376339523653763,-0.16051728278472158,0.012468106950122598,-0.03672492661604969
1.5725,-9.860722393476236,-0.553616157828518,0.06505597140726933,-0.16292831911463188,0.00874170047530287,-0.04301281744641195
1.575,-9.958736396267307,-0.403746130282969,0.12940318974111575,-0.16187053914509333,0.00774041519566508,-0.04900243802528588
1.5775000000000001,-10.07796972511035,-0.13779402947657443,0.3044788626874894,-0.16120224715533205,0.012981,-0.05020206781264869
1.58,-10.158251966770047,-0.00343589939772046,0.42390831164647075,-0.16043919237893622,0.012981,-0.04698169918179403
1.5825,-10.015201337579434,-0.10956316155799317,0.2596119468706113,-0.16405833010801868,0.01374252888433335,-0.04504909277931088
1.585,-9.680948725696098,-0.3552950818121697,-0.1704546722272494,-0.1713340348769437,0.0090454128076407,-0.04497383648830654
1.5875000000000001,-9.727923417272748,-0.3163973748803739,-0.13267309550236306,-0.1713057885167461,0.008100476315790113,-0.047722468708134014
1.59,-10.052481836362785,-0.2294270739458218,0.35013516476326145,-0.16692298022143692,0.016493,-0.04627212789163701
1.5925,-10.129124,-0.27977,0.517695,-0.166155,0.016984483532994935,-0.042913
1.595,-10.009544411493518,-0.3157275964620122,0.29317002130204717,-0.16652883702532426,0.018249002935145132,-0.04419467698579365
1.5975000000000001,-9.83389826144882,-0.3264338063270116,0.10699926441970482,-0.16589094797962092,0.018226519461869012,-0.04632444161757679
1.6,-10.019857949157016,-0.18993039904339865,0.5268658694966033,-0.16367248410857343,0.015018499748893728,-0.04591045531507831
1.6025,-10.176819431912172,-0.17650037654924042,0.5657132422808422,-0.16547395950188437,0.011603615185974098,-0.044958265803703074
1.605,-10.029530657223003,-0.30785471238896633,0.22318190797569348,-0.16830347822346892,0.011249225395044408,-0.04387201993454885
1.6075,-9.777334656187815,-0.3814922473032446,-0.26506137274297553,-0.16695051705631933,0.012223995601508256,-0.04458381003770816
1.61,-9.854966698940416,-0.37029164718542035,0.09470918168878362,-0.16556121360927178,0.01405,-0.04979520129139093
1.6125,-10.080104,-0.247489,0.604974,-0.168446,0.015974229938320483,-0.052229
1.615,-9.955702602664118,-0.2026856485041258,0.3795264661915606,-0.16996806854956353,0.013608221179002804,-0.04851512084658619
1.6175,-9.763666710007747,-0.2995947298276965,-0.10164426932331866,-0.17329382351636563,0.0017169655207774019,-0.04452043537590179
1.62,-9.858217344937701,-0.4109633410004221,-0.04409105659333207,-0.1705256278876765,0.003244849467596798,-0.04270622947832819
1.6225,-9.953786133758632,-0.4377941420138052,0.08870129894787383,-0.16854333964294213,0.007637850254701411,-0.046044353173054206
1.625,-10.022471451551988,-0.32004690652661394,0.23599747303198396,-0.16926903210197097,0.01523764192139738,-0.05335665289743892
1.6275,-9.992257901771463,-0.21182517272624996,0.20182325968361248,-0.16880653007949903,0.018554964734602147,-0.05355205044246377
1.6300000000000001,-9.97306666097333,-0.20914271757603745,0.18020623124942142,-0.1645955817220402,0.012599230332240804,-0.04800732430510032
1.6325,-10.020767833671579,-0.1393003479063671,0.2844432203279493,-0.16657508308460084,0.014165891250000074,-0.04906977588640689
1.635,-9.961616331472868,-0.11659237968992277,0.2173558458914713,-0.16896868775193802,0.016306075193798453,-0.050244
1.6375,-9.819464,-0.155428,0.001196,-0.170279,0.013996181855801457,-0.050244
1.6400000000000001,-9.786586224414085,-0.34721324192670283,0.10165493624732053,-0.1710955592235803,0.01485353524083464,-0.04441121587347137
1.6425,-9.805722584990102,-0.37992886526126257,0.21925216972344141,-0.17482918990701313,0.01810299641250231,-0.0473082903017579
1.645,-10.069821463252634,-0.15668233863535858,0.6739655369625912,-0.1798101614477868,0.014344832692589758,-0.053084233514306724
1.6475,-10.154501287717983,-0.0004542475438357556,0.5316184288063904,-0.17507223684605144,0.012421537237876507,-0.046731
1.6500000000000001,-10.074147446740835,-0.1888320862377655,0.17154054988509387,-0.18020415977748244,0.005352620909420351,-0.046731
1.6525,-9.972481315336783,-0.29583829869053335,-0.0896672595572358,-0.18113481922750815,0.0028410099670278426,-0.04811328799811596
1.655,-9.887666482134906,-0.3525901403789175,-0.15295134684850528,-0.17877148770807222,0.006413494938444611,-0.049938
1.6575,-9.891256804855049,-0.45363458356001596,0.033099051205628026,-0.17750381894337583,0.014196414077485781,-0.05003988809536704
1.6600000000000001,-10.202185940214626,-0.09716379704945868,0.518854390650058,-0.17493465507832776,0.013897,-0.0535660749081039
1.6625,-9.999961257123076,-0.18303743904052486,0.2586770326746951,-0.17795499689398014,0.01296970598908274,-0.05086398757592059
1.665,-9.730557331729136,-0.29509774774978254,-0.15757564203023466,-0.17895607165785923,0.011173466717463412,-0.05129526821187178
1.6675,-9.779391795065179,-0.21760669612062192,0.015220771132398031,-0.18230219413852677,0.012396548201664805,-0.053427203907648824
1.67,-9.929459,-0.222382,0.351506,-0.18387,0.015676381832276213,-0.052382
1.6725,-9.869774925554346,-0.25366788014886277,0.20735037121413033,-0.18553022814079714,0.015234315431849813,-0.05133690973484253
1.675,-9.75231012621031,-0.28324093260895694,-0.044298510829412156,-0.18696858517445364,0.014770807485210752,-0.05009345662199688
1.6775,-9.722126769072165,-0.2514231868041237,-0.023284418144330604,-0.1836777068041237,0.017104,-0.05141163876288659
1.68,-9.778955644500853,-0.25467055111433445,0.17805216908873767,-0.18102353784800296,0.017104,-0.05290494831269747
1.6825,-9.944139254463003,-0.07194136341766395,0.1937122821766049,-0.18306372440095486,0.01258390008591867,-0.05828705836754167
1.685,-9.870085138568017,-0.138888811780431,0.05158894180429291,-0.18755395706921252,0.008284488229116854,-0.05608980364677799
1.6875,-9.848597677715944,-0.21297323300266152,0.015888209129768526,-0.18835877199774176,0.008150669489474958,-0.05421221727558674
1.69,-9.945481570644693,-0.2974545248710583,0.2293281665615934,-0.18321689623209192,0.011889132808022862,-0.05421714938395408
1.6925000000000001,-10.040862924646829,-0.29171772489937203,0.3944236239507456,-0.18070547024228575,0.014258110119169845,-0.05783822023833969
1.695,-9.940537229892367,-0.21197183635938135,0.11793266760878474,-0.18529539857744515,0.012954311417875314,-0.05990554189985957
1.6975,-9.79493061966758,-0.17913265924802313,-0.11322925715023377,-0.18920510994352108,0.010321547768274986,-0.05945370331450702
1.7,-9.81611637202268,-0.16233335349716432,0.029282736483926042,-0.19069517693761817,0.012285618903591713,-0.06017
1.7025000000000001,-9.985146297070429,-0.17594803730719022,0.31322711366733563,-0.18888617477460248,0.011059036259715603,-0.05974562038502908
1.705,-9.926293132900538,-0.2596300943837386,0.10474875749103947,-0.18954983930229868,0.013744,-0.057044914529282696
1.7075,-9.846217484283383,-0.31410174085537057,0.0359461326412027,-0.18881554400261183,0.015043245236696067,-0.057046597257590585
1.71,-9.911651839771427,-0.34337679801904636,0.21754224411428297,-0.18837438674285714,0.01679702712380953,-0.05643430537142855
1.7125000000000001,-10.02557942095416,-0.40297970626752927,0.37419118765200315,-0.18837782563143138,0.016089823947614466,-0.05799895042095438
1.715,-9.92689864146573,-0.23330821862953133,0.141999220740184,-0.19065411358006604,0.01424266522535726,-0.060202534877244335
1.7175,-9.756144299831433,-0.21207878245044542,-0.0965274853753712,-0.19212842528172314,0.01405,-0.05742808039644136
1.72,-9.727186190830745,-0.2893075051533577,-0.06191752130634806,-0.1936509994734881,0.015578720134111455,-0.05505645428039241
1.7225000000000001,-9.920206365724738,-0.40417029319038017,0.281302611468534,-0.194425204577873,0.017581687843697815,-0.055723795422127034
1.725,-10.08462562026262,-0.4570003448982028,0.5642353584628341,-0.19455698038790525,0.015092205830622625,-0.05882279416937738
1.7275,-10.04810720400526,-0.3346689469170955,0.19398391254455902,-0.19952735045818876,0.008837204153606887,-0.06365187419069267
1.73,-9.896253102567293,-0.3447928045651393,-0.06810551985644028,-0.19885685892570884,0.00864527673645173,-0.06336461027874148
1.7325,-9.800040263051375,-0.37483905724946165,-0.11621135952530137,-0.19187997939832002,0.006615023000586034,-0.05935897699941397
1.735,-9.87412474867748,-0.41402392654424847,0.005323801810905304,-0.19078510955655398,0.007240809224457926,-0.05873319077554207
1.7375,-9.955065915749973,-0.4434277816113515,0.1257353108478969,-0.19029182748915216,0.008650514014307617,-0.0584644964934913
1.74,-10.015508084228173,-0.4024610398975555,0.18752729668917362,-0.19264906625378347,0.014906733401629785,-0.06009514263096624
1.7425,-9.91567394803984,-0.36139318451785307,0.1269123257566232,-0.1913900528491622,0.019417410444498368,-0.06005194909885848
1.745,-9.79648125483157,-0.4079213076110064,0.04722590600167249,-0.186919222006904,0.017980890289250855,-0.056708852336626446
1.7475,-9.94196242917449,-0.4312820960600346,0.25775013204503416,-0.18855647726078803,0.012918849849906188,-0.05708704300187627
1.75,-10.104476374479363,-0.3590921334090622,0.4152744018679793,-0.1909957879591064,0.015334636375110438,-0.05916727249779124
1.7525,-9.934093011482725,-0.45234550373944715,0.17383559393534662,-0.19157450176461227,0.01651726940595649,-0.0552330355438765
1.7550000000000001,-9.761910752869444,-0.5610781438259322,-0.10029888601816143,-0.19027465790551557,0.011288658426809248,-0.05298265790551556
1.7575,-9.786748988469187,-0.6197491492326034,-0.0989088991491004,-0.1902404597630218,0.010197491848906589,-0.05557348919284302
1.76,-9.911955328136179,-0.5291758055902299,0.18570309986925046,-0.18819031178981127,0.01171529558159616,-0.05937805596644877
1.7625,-10.03700102226868,-0.4237224609059236,0.39258478770422045,-0.18687976388695315,0.012828,-0.05880348593108798
1.7650000000000001,-10.066953,-0.414873,0.36944,-0.186619,0.011109612099149516,-0.054978
1.7675,-10.04714411590784,-0.3980359662656277,0.22335253450970313,-0.18630296908390342,0.007993926750019646,-0.05807742247070868
1.77,-9.985126659576448,-0.38647189059343756,0.054330068503608095,-0.1855860948196416,0.011196699362345911,-0.06148983594135441
1.7725,-9.943328930360439,-0.3624266231248535,0.17797976244498612,-0.1835490135815128,0.018130479214449078,-0.058287555359255505
1.7750000000000001,-10.025038950587662,-0.3079416473834011,0.33582255481877005,-0.1843251662501553,0.018732237807744637,-0.056718555239391455
1.7775,-10.105264501946456,-0.34215670103936996,0.34768440801259004,-0.19096053714645672,0.015418734192125775,-0.05716714364724404
1.78,-9.998645744896182,-0.36110187968131424,0.06113811655238641,-0.1920988104297441,0.009935578155480415,-0.05691800944471274
1.7825,-9.810621538120264,-0.3098566877188477,-0.04625504641625178,-0.19356439674995968,0.01176961166532316,-0.05829119560212801
1.7850000000000001,-9.735899104500275,-0.2602050018447945,0.08956598855165333,-0.19344639972305963,0.01628624735678391,-0.055278683309882316
1.7875,-9.742505667328235,-0.43578046426709516,0.09136240011773153,-0.19251332094861662,0.013147085493229935,-0.05164664189723324
1.79,-9.902567532625898,-0.47458266086160317,0.047519781049420916,-0.1940748383190516,0.006999697457447988,-0.054172757478577374
1.7925,-10.064648161756175,-0.4235741215868293,0.16363822020854502,-0.19136856077459827,0.009210977348490723,-0.05582139019364957
1.795,-9.981485554194983,-0.39199798784296186,0.19123089462726459,-0.1864688665372738,0.01573,-0.053092142390824985
1.7975,-9.833954018625818,-0.4361411606594097,0.11576633999138577,-0.18723,0.011765282012671284,-0.052534
1.8,-9.73676738101576,-0.3705164080560367,-0.07657423033275808,-0.19054794928196167,0.009181279159369563,-0.05527997947460611
1.8025,-9.735828289704294,-0.2351393737200869,-0.3476600223221334,-0.19451017635323506,0.01016877134155185,-0.05563653180887925
1.805,-9.856478979542839,-0.33749446131988586,-0.14784158910328968,-0.19198308849138437,0.012602619552221105,-0.04991953596999177
1.8075,-10.087276,-0.540411,0.538618,-0.194255,0.024479489802549548,-0.0562
1.81,-10.087276,-0.540411,0.538618,-0.194255,0.021820900430477262,-0.0562
1.8125,-9.645576366860013,-0.20867561155295103,-0.2069199102433774,-0.19557291592417628,0.013439,-0.05724974777252885
1.815,-9.730664456183698,-0.24428505938886486,-0.06748055843329842,-0.19490262486156792,0.013439,-0.055238874584703744
1.8175000000000001,-9.914651430538493,-0.31921382502633977,0.25341814928074047,-0.19499306390063678,0.015105416709378351,-0.054214
1.82,-10.169403030433076,-0.4078335046751973,0.643087174507876,-0.19639447178149613,0.01783517887795278,-0.055142236082677244
1.8225,-10.230527036139797,-0.4162098987979199,0.6335877736316341,-0.1974176424041601,0.015087853704196396,-0.056739959066392544
1.825,-9.930335540307176,-0.41052445860442627,0.037753387737342825,-0.19305988279114775,0.014700455024791396,-0.05586878756802517
1.8275000000000001,-9.754239416868764,-0.44564955076777324,-0.16786938497387105,-0.19312732651575137,0.013615069393699454,-0.056265030520816925
1.83,-9.831950927332471,-0.40640635359123034,0.16740326963934862,-0.19686558952505662,0.01237,-0.05958226285918364
1.8325,-10.047866368435951,-0.20132976289690896,0.48038673763308903,-0.19829590582370057,0.013997832089329268,-0.06122167201698511
1.835,-10.023558322055605,-0.23548698791671152,0.257194530692029,-0.2004809774990973,0.013929402358888074,-0.0578445555421832
1.8375000000000001,-9.81925250678892,-0.424438,-0.1952329355534274,-0.20177025220398953,0.011268747796010474,-0.05880079274453044
1.84,-9.66501821108445,-0.39781937848805776,-0.26500302896212763,-0.19933287422248108,0.01622063471170674,-0.06070612278625503
1.8425,-9.713825765100017,-0.2948916053862404,0.03188270612457411,-0.19895157806472596,0.02048977486420556,-0.060067069006342504
1.845,-9.85521481865798,-0.276840790170948,0.16614558981276656,-0.1983323770112804,0.019959377011280394,-0.058905037613676076
1.8475000000000001,-10.019793372293497,-0.3467025737220565,0.3595044498574762,-0.1973827500907029,0.019395,-0.05672793791707169
1.85,-9.968986278731945,-0.31963222914596845,0.3557574590016429,-0.1981726635911996,0.01999604225218838,-0.05559677019162501
1.8525,-9.815176782026713,-0.3973922715227082,0.10904857645591828,-0.20287559161531618,0.018334339796972365,-0.05602033785218167
1.855,-9.79863675983651,-0.36892433569482486,-0.18074990668482904,-0.206167,0.014379533160763002,-0.05681
1.8575,-9.935607216522458,-0.42797654738414304,0.23245746111650792,-0.20527128465094233,0.017795106307929298,-0.058611629337442184
1.86,-10.071569754106916,-0.3659388042242479,0.3268137657366399,-0.2040377754889178,0.019978137887874923,-0.059750683389830556
1.8625,-10.083920572322349,-0.3629972149900764,0.32048811825327317,-0.2044303729098849,0.021770902818578828,-0.059690474045256035
1.865,-9.918592706102345,-0.44823249856049685,0.10144503052606582,-0.2041593848971784,0.02292518719273075,-0.05862581280726925
1.8675,-9.744644498503158,-0.47694422605049835,-0.14212760311091063,-0.19923967040577106,0.020512471307484355,-0.0598981133453561
1.87,-9.732721567192389,-0.39922760743164,-0.08985492325194294,-0.1968509172460939,0.01845018993652383,-0.0621734021191406
1.8725,-9.794976369142857,-0.4411494031648376,0.002040637274723388,-0.1979825451428571,0.023518,-0.06138236342857141
1.875,-9.72778549197356,-0.4309282790368272,-0.15841313078375827,-0.20051275401322,0.02268151699716714,-0.06355740321057601
1.8775,-9.864003147150063,-0.26327598849087697,0.08859481808306871,-0.20470716131818395,0.029139999217387153,-0.06557014201122068
1.8800000000000001,-9.888236420225356,-0.281598261032484,0.15420114005563457,-0.2053112629032106,0.031631547489510276,-0.0619465212106924
1.8825,-9.894557133524746,-0.32240485454003204,0.1999573738784846,-0.2058781702721948,0.03312320990008018,-0.058447999283335196
1.885,-9.804730954176286,-0.4971819070234619,0.19079735792517588,-0.206799953917565,0.025682069260621422,-0.05948210609511735
1.8875,-9.933771703394624,-0.45936862272512907,0.37440616501650253,-0.20792309580386611,0.022893660160301782,-0.06179725742574267
1.8900000000000001,-9.98491674328967,-0.5093083952335739,0.21294489494839622,-0.20614067355048082,0.018232710685058003,-0.057662239642981304
1.8925,-9.94567582320581,-0.485542395854717,-0.05095149175787132,-0.20424045532203391,0.014950582450363343,-0.06042509565133191
1.895,-9.913208861148478,-0.3714623591123313,0.0652861135666937,-0.20321006628231522,0.023274087989018644,-0.06204413256463044
1.8975,-10.031240282576595,-0.2914674462147179,0.24093814127623478,-0.2015763949819059,0.025351,-0.06012332488299157
1.9000000000000001,-10.116757598098484,-0.32478342313507425,0.3321176295465644,-0.2040482826669923,0.026086688810336555,-0.05869315438810318
1.9025,-10.010500716076482,-0.5595357226114132,0.23235082256819817,-0.20972202687254982,0.02714097312745018,-0.05800371108408679
1.905,-9.878929137131465,-0.6050343982502624,0.003672731314645128,-0.20962952281927993,0.026226033118329987,-0.06047381961768504
1.9075,-9.929734835848935,-0.5396799823484607,0.06420549708663544,-0.20874968388448112,0.023602255328467187,-0.06292168995239605
1.9100000000000001,-10.055293535162054,-0.5286794996395222,0.2897108234213403,-0.20765863909565205,0.022406807538340116,-0.063988
1.9125,-10.043467224234508,-0.4740172431521483,0.2410419234986975,-0.2055481971279373,0.025950505720389438,-0.06380942110135289
1.915,-9.717687881789761,-0.32395477700756825,-0.02640937850380387,-0.20488478178030306,0.028881518759469677,-0.06069979595643931
1.9175,-9.872617391916,-0.4552706046700693,0.045004923460167656,-0.20834255737212215,0.012529204951353448,-0.058502014457181374
1.92,-9.932699150266831,-0.596265743697135,0.03957012607263285,-0.2068769145862634,0.010678212253154854,-0.06058431811193521
1.9225,-10.006756882231977,-0.701845429444436,0.050810381968817306,-0.2052478153118907,0.01022369008771978,-0.06276918468810928
1.925,-10.106109269419923,-0.5131588134615362,0.16010430469735168,-0.2051866224148803,0.023097605138714,-0.06510350226986131
1.9275,-9.976017984237473,-0.38695762829467656,0.15878352437928114,-0.21121715264030763,0.03500194663141452,-0.06528054585746908
1.93,-9.905802427202264,-0.32758860920919747,0.21458674684309872,-0.21326108971014485,0.027992005781348635,-0.06296312114681789
1.9325,-10.10626310763881,-0.3874820995898694,0.2837013941287991,-0.21556707356757385,0.022040377512891448,-0.06358851898788827
1.935,-10.070530774278884,-0.33401615373448645,0.24497228592167075,-0.2123799671155683,0.025504,-0.06141122820439333
1.9375,-9.8681469213553,-0.5649067118433323,-0.05764398290332608,-0.21152321433012122,0.023166836338203295,-0.05998459309916071
1.94,-9.957599986911188,-0.5656719883011656,0.14179588055982326,-0.20959036747104245,0.023211306911196657,-0.06426844434362931
1.9425000000000001,-10.049628084440752,-0.4328426921728757,0.3198113362479251,-0.2058085775065303,0.025092292913797224,-0.06478267826644504
1.945,-10.021083049745203,-0.35243433594758516,0.2748167140208605,-0.20444223706867282,0.022958100480465676,-0.06456966843969907
1.9475,-9.878297240812394,-0.3145776189740706,-0.006808249466164429,-0.20883425792405877,0.01636238377137351,-0.0638095109737497
1.95,-9.809408331389609,-0.288094338161297,-0.20107402892075987,-0.2107871515165765,0.014223194921232035,-0.06289806162708683
1.9525000000000001,-9.798186473852484,-0.5405653897967588,-0.2285042991367739,-0.21515990500114154,0.019900158255309656,-0.05861293674354881
1.955,-9.928450311258281,-0.5739662509492284,0.07973809342164229,-0.2095526534216334,0.024409905077262824,-0.059710441501103786
1.9575,-9.976580155154977,-0.5933991394846239,0.14605899475385944,-0.21219164099671814,0.028389868707912998,-0.06254078546007052
1.96,-9.967468320000002,-0.5606738295408185,0.06086503352041327,-0.21303244586734704,0.029592325561224566,-0.06496743984693877
1.9625000000000001,-9.80803931940742,-0.4748443317553584,-0.16233722800629347,-0.20801070148142004,0.027840389174873918,-0.06610632228751147
1.965,-9.748809276258967,-0.3969717143414331,0.04684627062392441,-0.20613283916813538,0.026686716634942733,-0.06713558041593232
1.9675,-9.929248554253256,-0.2985976492686394,0.44989430322366863,-0.20880113567810657,0.022297,-0.06538818726627216
1.97,-9.970797607414974,-0.38510156298548814,0.25179713042832985,-0.21424820747069057,0.017310691208357695,-0.06444181774114911
1.9725000000000001,-9.837879851551653,-0.44502893365216795,-0.4127938945588104,-0.21906981844656717,0.01547974612947293,-0.06954910073458724
1.975,-9.853873233192903,-0.4312667236337739,-0.02820299679580901,-0.2156490204592653,0.023081657698926276,-0.06821885953836108
1.9775,-9.958325891017768,-0.39868675360783584,0.36044345416902435,-0.21410875486302508,0.022471447982732713,-0.06762322179976757
1.98,-10.090977224860557,-0.363528211583141,0.3814744180415238,-0.22084295281191013,0.015424,-0.07429188772488976
1.9825000000000002,-9.99052503938786,-0.20387429615593694,-0.04320803035163412,-0.22147967027145185,0.013258140426307009,-0.075774810552013
1.985,-9.863238585879763,-0.07753934498315018,-0.33378672415393495,-0.21892310315228455,0.014616457180030214,-0.07229776076808497
1.9875,-9.707186920727453,-0.12921075824614542,-0.40495718460387764,-0.21738378734429514,0.02500390597907327,-0.06511249840558049
1.99,-9.696316,-0.39933,-0.060378,-0.224188,0.027408666376496176,-0.065668
1.9925,-9.828180070387932,-0.3486130498507956,0.03573053569341454,-0.22509493241400969,0.02960380417150934,-0.06877736136327926
1.995,-9.949328250003452,-0.28803365268889264,0.11399788781173559,-0.22788145973930118,0.02789096762717703,-0.07188706126196777
1.9975,-9.85342289136045,-0.3036836208103102,0.0806326073556208,-0.23127457375755137,0.022997644156262514,-0.07086118242770846
2.0,-9.863809703117836,-0.41174995667125175,0.13904455708390648,-0.23398515520403484,0.020617,-0.0710637757909216
2.0025,-9.901288287927535,-0.42780854202898627,0.014910092311596942,-0.23337297652898553,0.016559822731884156,-0.07080846981159421
2.005,-9.911480991224813,-0.4425296916616331,-0.11500636577289157,-0.23142760379872102,0.01664652560878436,-0.06953207144684467
2.0075,-9.78764350517652,-0.6157467944530495,-0.14919569004907807,-0.2308860831597276,0.02472645162577142,-0.06774533943327521
2.0100000000000002,-9.669265995952104,-0.6589314447522565,-0.12209328325898655,-0.2309464083963368,0.0275369138201454,-0.07103113271660086
2.0125,-9.730108604288876,-0.4279251677073407,-0.09091578032165604,-0.22922931743929365,0.026573,-0.07615245070955551
2.015,-9.806831227646274,-0.35466992261282076,0.018338954112641435,-0.2316315100206791,0.026464663865709746,-0.07658744466609878
2.0175,-9.885835695439441,-0.3094041414765075,0.07013386063918303,-0.23802454674336865,0.026393529875359548,-0.0730832986033876
2.02,-10.008945335600572,-0.3780283291801747,0.15524455743565432,-0.24279929562440422,0.026172369575786454,-0.07181466520019067
2.0225,-10.040902218684808,-0.6035206179289492,0.17806394526833155,-0.2415717231216932,0.02469751694633411,-0.07203524616024187
2.025,-9.99115232033258,-0.6149706768455526,0.03671291510456537,-0.23662936093474443,0.02308330697908799,-0.0713291944192492
2.0275,-9.965742892077868,-0.6710920563557943,0.13339960805407008,-0.23741853934022986,0.022137843404740384,-0.077479046369634
2.0300000000000002,-9.94391644243366,-0.46062811663243103,0.24452777754507649,-0.2334240162575161,0.020918936724441686,-0.07967100984789492
2.0325,-9.664923657226046,-0.27364407720099987,-0.29046096584535935,-0.23868026662492184,0.015100034317470482,-0.07593378076393204
2.035,-9.643825743437695,-0.2481305882091407,-0.6020159089636996,-0.24005910795241084,0.017983290021916256,-0.07167250447088265
2.0375,-9.801522461080518,-0.5315231897457048,-0.28562876867454334,-0.23840392206726818,0.018987581319582822,-0.06835455008789394
2.04,-10.046030393090254,-0.8095833808843146,0.217678385870393,-0.23602675780012108,0.023434142488189195,-0.06799016049909157
2.0425,-10.236900613733907,-0.8297059150214601,0.4908923387124487,-0.23552620686695278,0.029379905922746818,-0.074409755193133
2.045,-10.069366888032222,-0.6842578359939677,0.06478079728235647,-0.23968436688475062,0.0248509179265225,-0.07857481900352283
2.0475,-9.818267,-0.552367,-0.335964,-0.244652,0.021429092592710648,-0.079871
2.05,-9.86537794251674,-0.5705502981384911,-0.12396562278486684,-0.24037638272524314,0.019406609977661866,-0.07633436976917443
2.0525,-9.959594315055673,-0.7176175105244667,0.3533130766951881,-0.23285990923350017,0.024694888016783118,-0.06989598874939491
2.055,-9.842207373284845,-0.7953721938300615,0.16620326660602897,-0.233140247469332,0.023587377355745853,-0.07168277104043645
2.0575,-9.655714117444173,-0.6980545947993353,-0.3320175423889386,-0.23482378516411054,0.010996,-0.07533789258205527
2.06,-9.742203809546746,-0.6779614475212412,-0.3160326670113287,-0.2369771886685551,0.01271447029745056,-0.07534715793201117
2.0625,-10.047702156425016,-0.5933545990199129,0.1353027328873678,-0.23383067128189172,0.018306489421281893,-0.07191537305538269
2.065,-10.34215745856103,-0.6220749595014234,0.7111849460446789,-0.23454378464766132,0.025953145595458124,-0.07305627605578174
2.0675,-10.16621562078121,-0.5596868715528701,0.4327484712480315,-0.2359061713940933,0.024535471718006636,-0.07255916760876487
2.07,-9.970422091832202,-0.6734021590964389,0.00993332412098541,-0.23471463565913753,0.008705,-0.06907628897334778
2.0725000000000002,-10.137576402759965,-0.6734843780952467,0.018835194849404005,-0.22609372658892118,0.012514519455783224,-0.06824442581146788
2.075,-10.187832982636868,-0.767398506349213,0.40515155118240515,-0.2247970181729834,0.022370182766440608,-0.07291325545837415
2.0775,-10.204035744475526,-0.6294266846732494,0.45381576022184733,-0.2254133924186159,0.026418341215336552,-0.07328609601157461
2.08,-10.179345700310419,-0.49053805467615624,0.4055369485960974,-0.2248364826420818,0.024145951756330532,-0.0724184518380207
2.0825,-9.92319874664163,-0.42638851657062476,-0.07981261774074416,-0.2317181062167713,0.01397790331318582,-0.0706264573745672
2.085,-9.84889451364122,-0.5709506027956085,-0.2556412330942995,-0.23218759949064022,0.010219495820667855,-0.06677390509711878
2.0875,-9.865003984909906,-0.6487365695945945,-0.203206571171182,-0.2307202292792794,0.012898548873873525,-0.06591468682432425
2.09,-9.937445681874783,-0.7294810761804674,0.06267295355018267,-0.22875273997901352,0.021150453585169385,-0.06781513744665964
2.0925000000000002,-9.8116819752876,-0.7959074111912794,0.03241468658610146,-0.2303214736090888,0.024907887715817558,-0.069380217134171
2.095,-9.663857095032993,-0.6360400630577379,-0.17810899222937934,-0.23109629923922784,0.024660325343324255,-0.0715742887285168
2.0975,-9.733575106546839,-0.48078582690633126,-0.23659637239355352,-0.23061470175969695,0.017495454266793015,-0.0716875099905389
2.1,-9.961974022521144,-0.43262998914415457,0.1258332737293415,-0.22868563618616855,0.022829961814070085,-0.06656099547672889
2.1025,-10.166157215064814,-0.5658876479259277,0.5173195912037054,-0.23423810285185193,0.029408593166666722,-0.06477214096296295
2.105,-9.937627201301293,-0.8178100074872499,0.10570332137898897,-0.23705727058023793,0.02603665138140342,-0.06512645883952412
2.1075,-9.934532538712809,-0.7490721418276687,0.03276945089960337,-0.23397827311129557,0.017678947986251213,-0.07054012732013734
2.11,-10.018163420557922,-0.5767600498534372,0.142385082354616,-0.2322189739007091,0.015823638562647246,-0.07357944032151317
2.1125,-9.99978178680739,-0.46818145804749595,0.0813211939314,-0.22869275290237462,0.019510660290237226,-0.07034208337730863
2.115,-9.982115205315422,-0.43209625806667956,0.05914364804509285,-0.22965292053969785,0.022871561417606427,-0.07149403302470626
2.1175,-9.957675956238333,-0.46459424888251444,0.014532417506576176,-0.2280796024503467,0.0223360580808803,-0.06926801548695824
2.12,-9.903584684300661,-0.5650498692229662,-0.0904588864700368,-0.22581302905804007,0.01819399843958122,-0.06554581727878217
2.1225,-9.799592517308497,-0.6456849463655406,-0.2670847634644937,-0.2284470522747382,0.016478090402794195,-0.06733207133876619
2.125,-9.783329701702877,-0.60008483123899,-0.13124557991779215,-0.2318738438050499,0.024330303581914268,-0.0732527544333529
2.1275,-9.859409453505085,-0.4996557556810003,0.1557981705021328,-0.23136868718083362,0.023213,-0.07327208340662945
2.13,-9.982146827843032,-0.4097172928111982,0.2696927493024943,-0.23154401108122977,0.022426060655815164,-0.07274490209640648
2.1325,-10.228784752564003,-0.40966573147270935,0.49146904760991195,-0.23328991202317736,0.020465024780299025,-0.07019430700144885
2.1350000000000002,-9.953967,-0.510521,-0.188905,-0.231518,0.017835178148146127,-0.067195
2.1375,-9.965148541098172,-0.5956903810316209,-0.06131485324458208,-0.22950194509151398,0.02022824958402702,-0.06904327953410998
2.14,-9.97492778432,-0.6435984905599962,0.06500577088000392,-0.2262342710399997,0.024282,-0.07093265632000006
2.1425,-9.965958808735019,-0.5504820513448705,0.0820617730492663,-0.2292470977896142,0.023912477549933402,-0.07464270796271655
2.145,-9.957047045374287,-0.4307060778580033,0.018036273458228703,-0.23780309795288251,0.022802195905765044,-0.07762736028624262
2.1475,-9.977938349382391,-0.31469939153744736,-0.0760573277792387,-0.23687977571616292,0.021357401103810705,-0.07217393960578194
2.15,-9.979012370477976,-0.5234538403701917,-0.014362667150892693,-0.2373957855435801,0.02435049997656989,-0.06909835663074025
2.1525,-9.968023067523802,-0.5825909455850204,0.07047751651899628,-0.23748636409473609,0.027017796632307377,-0.0722437014430717
2.1550000000000002,-9.903422412081838,-0.5711129568307771,0.06108671626527486,-0.23596907630147096,0.03139974513026992,-0.07426127897098722
2.1575,-9.73336093723891,-0.5992471964756533,-0.18823093860190082,-0.2339994912218462,0.02656998585599218,-0.07542275438907689
2.16,-9.980575662135665,-0.4432536488291877,0.14346565237519565,-0.23442051971345426,0.02270030098052371,-0.07452106623684784
2.1625,-10.025908470687968,-0.48938396824258945,0.20178255533094727,-0.2370452649494622,0.022512152918161162,-0.07271523971307464
2.165,-9.931545839132571,-0.6388836610547068,0.08804436112369454,-0.23937368686052235,0.024590986357811737,-0.07171493194677177
2.1675,-9.78968128073045,-0.6238343008147341,-0.23286229618230203,-0.2390665612611206,0.023913813135632914,-0.07260467373809892
2.17,-9.917709132598079,-0.6016970265516818,-0.11626097540142993,-0.24421381699501993,0.02120002426818913,-0.07523378058059033
2.1725,-10.067061875053959,-0.5186712240381048,-0.06967113004128091,-0.2430218486888892,0.018784,-0.07440183552698416
2.1750000000000003,-10.129247540951663,-0.4652208777938318,0.08371165364094921,-0.24162269971160896,0.022025733309301878,-0.07386990447007934
2.1775,-10.030631639794176,-0.5652830462778634,0.2064860238422191,-0.24621414188679228,0.028190331012006905,-0.07418886463121785
2.18,-9.99960659648249,-0.5400772290043363,0.2548435495040881,-0.24475161616974464,0.028724171951277053,-0.07390797953948908
2.1825,-9.631626776908291,-0.7449313223420074,-0.3056614735918781,-0.24517102896402726,0.02902553282488902,-0.07253141008534107
2.185,-9.812877919220787,-0.620927212721966,-0.25148805519744455,-0.2457521485661277,0.024129,-0.07671581381394106
2.1875,-9.994021,-0.468675,0.034672,-0.244346,0.023892075456121525,-0.074373
2.19,-10.003536875351143,-0.5534897938766706,0.10004152009919487,-0.24630149698568354,0.022302692016683664,-0.0753242760951414
2.1925,-9.972216198768571,-0.7187309794885409,0.08571886097375173,-0.24939870657814503,0.020111513433657902,-0.0764534410819318
2.195,-9.861855302283868,-0.7298288471466502,-0.22286075014456572,-0.24805949546768968,0.020347693136618456,-0.0749569487282385
2.1975000000000002,-9.78019627358468,-0.700166927769946,-0.3876045241149765,-0.24304391378913745,0.017104,-0.07779615258785963
2.2,-9.955625329276954,-0.5622254378308231,0.013876676772235197,-0.24502471578449944,0.019988082750473368,-0.07811940477315654
2.2025,-10.041326867498768,-0.617918711498769,0.14129152686977314,-0.24753324399999996,0.0248264980245699,-0.07633842833415243
2.205,-10.014743567975405,-0.6107500796121126,0.039921143169345266,-0.24965700104068145,0.02306,-0.07685051252601693
2.2075,-9.880303083307316,-0.7059832570013503,-0.14932740544334397,-0.25076,0.021141068425561866,-0.076511
2.21,-9.83552167181847,-0.7427741760306825,-0.14925163188239868,-0.24911235293064884,0.01927893348673699,-0.07688091140939594
2.2125,-10.052621414783045,-0.6453632067715682,0.29934732122083557,-0.24248427248450208,0.020756777300904805,-0.07739827248450207
2.215,-9.829922559962538,-0.6169324592000043,-0.28307885707912944,-0.2439854142088991,0.015832790606089615,-0.08059421557658049
2.2175000000000002,-9.901348575107559,-0.46390248021872205,-0.25200238680275866,-0.2437533419613561,0.014203,-0.08056991285453872
2.22,-9.982065,-0.344333,-0.164993,-0.243124,0.01752262334837423,-0.079871
2.2225,-9.92089117245577,-0.5402801602741268,-0.13536204595378135,-0.24422286401274915,0.02373215903745021,-0.07663556699920279
2.225,-9.832327031074765,-0.7790652687850397,-0.12550496401869596,-0.24692668948598145,0.02345529490654201,-0.07525331303738361
2.2275,-9.777303807146973,-0.57762306167147,-0.2333280476849185,-0.24640092853025933,0.023542238001921206,-0.08470971396733906
2.23,-9.708808299596543,-0.5956879561959653,-0.2438660602113352,-0.24322800403458217,0.021811609145052847,-0.08201776453410184
2.2325,-9.863378484728424,-0.508867928587865,0.06920554706707402,-0.2437105675910542,0.023283839539935965,-0.08256075312460052
2.235,-10.093390100683461,-0.40875356442445365,0.5320035816906477,-0.24584396823741025,0.022520682050360428,-0.0845799269784174
2.2375000000000003,-9.892310837391769,-0.5475742754793452,0.2540991016098359,-0.24438567269638387,0.014508,-0.08250342007928148
2.24,-9.715049336397794,-0.6145210364640765,-0.3316221364862294,-0.2458417626961329,0.014560145104972392,-0.08394490338121624
2.2425,-9.85589593781747,-0.5446854286409114,-0.36826094654145275,-0.24809444143450832,0.014661,-0.08905619376943211
2.245,-10.045432,-0.547585,-0.04065,-0.248928,0.01916941915493035,-0.089797
2.2475,-10.028181545050504,-0.4268318153535301,-0.03867868432900424,-0.2508795283116884,0.02626466730158721,-0.089797
2.25,-10.049416084734212,-0.29835148864152655,0.08834457337573831,-0.25606905656519763,0.024744860972285326,-0.08875772762380736
2.2525,-9.884712823994787,-0.5410598307590173,-0.1675699919748794,-0.24905281471351542,0.024893,-0.07574109750785085
2.255,-9.86688510595011,-0.723053656126081,-0.05688828139598742,-0.24876825714522724,0.024893,-0.07887185206375527
2.2575,-9.900348195058426,-0.7957662496160294,0.03027422871452022,-0.2502924000667777,0.024459903305509238,-0.08450284367278744
2.2600000000000002,-10.035014698044426,-0.6702080724421045,0.18263300793579296,-0.2529616813226264,0.02604436294756803,-0.09002889634388274
2.2625,-9.94544440614706,-0.5885214941822309,0.042950345334747064,-0.25475954599341405,0.02222955148188687,-0.0855518140504934
2.265,-9.900030622412155,-0.5228823244773624,0.031392191746756254,-0.254884,0.018329174586894422,-0.085216
2.2675,-9.787531130322469,-0.4769270324275656,-0.14520029636930298,-0.25707191602553625,0.016848100707153403,-0.08628052763791134
2.27,-9.664990921475543,-0.5540438679069788,-0.4144752893664789,-0.260114149414595,0.017567358075380915,-0.08654809016840413
2.2725,-9.69309782593922,-0.7803827661545804,-0.392035353778415,-0.25803778235941616,0.02134393219430475,-0.08494185727686046
2.275,-9.730422623471812,-0.8413255852435599,-0.2716219272922866,-0.2560514841212989,0.02939784789875803,-0.08886347614613152
2.2775,-9.967297638517426,-0.6509182413717929,0.20222679595306392,-0.25673723981101326,0.03430099697947215,-0.0931899939589443
2.2800000000000002,-9.96597486824586,-0.47761011502545087,0.2526750810753986,-0.25748,0.032621975676891554,-0.09147241914959085
2.2825,-9.76458903346404,-0.5067610067974021,-0.10710868235295859,-0.2607912920261443,0.027010405228757722,-0.0875842854901959
2.285,-9.69815194240582,-0.6860926525828466,-0.24016878630957067,-0.26630040036314123,0.022895364630049965,-0.08676296851566068
2.2875,-9.788329730985915,-0.9229076877934258,-0.12231453990610103,-0.25811873802816904,0.023345573239436767,-0.08200706525821613
2.29,-9.78682067524016,-0.882536817539424,-0.0589291494643063,-0.2589859243914771,0.027490269635247443,-0.08672988589623216
2.2925,-9.750350843299406,-0.8060947996286956,-0.10386474420649658,-0.2595815491898054,0.02610354178649953,-0.09033100556306488
2.295,-9.657646397753744,-0.6910470466467232,-0.4380596607410606,-0.2612978676363635,0.02239911671346352,-0.08908333609206014
2.2975,-9.688820710586418,-0.6885202392600053,-0.45390886856567353,-0.26042427330210505,0.02253617835280172,-0.08520390995315757
2.3000000000000003,-9.737305354719432,-0.72207762452158,-0.30810665682773536,-0.2606205901394752,0.023826384301006413,-0.08274872669477767
2.3025,-9.783920031454485,-0.8535516947830726,-0.0984200001335771,-0.26690442739151216,0.03107933092989927,-0.08220191074868932
2.305,-9.913380649814373,-0.8679625533010451,-0.10130257978207698,-0.26878750512510097,0.029859855601291337,-0.08474257759483465
2.3075,-9.99299708255818,-0.8372633783694434,-0.03954757882522715,-0.2677132009051515,0.028327573519499157,-0.08413827900176522
2.31,-10.041836977741,-0.8528098208543957,0.07124345222098628,-0.26490697922165063,0.02699545703869386,-0.08165466937150526
2.3125,-9.854322366682856,-0.9079333467702768,-0.021921652258377854,-0.26506968916949974,0.02843948421563866,-0.08445549247207382
2.315,-9.698449685466734,-0.8251258893870829,-0.33762451060902676,-0.264058798756678,0.02579538193686261,-0.0845334099698883
2.3175,-9.56061785501586,-0.7538277600140969,-0.6299627209869568,-0.26372589391610823,0.023045141741276167,-0.08465082260133942
2.32,-9.876361007831049,-0.7833511009777809,-0.04855093012458722,-0.2671678979733338,0.024475043591110086,-0.08314489797333378
2.3225000000000002,-10.092791842290586,-0.9146471914709033,0.3432451451196297,-0.26651600963242794,0.030823289445344303,-0.08007190468069775
2.325,-10.0763344186576,-0.9524216509813177,0.12464731916639366,-0.26772401589532374,0.029844021904529897,-0.08280413884177495
2.3275,-9.967941308218238,-0.9740498252811924,-0.05192203874947786,-0.2669379120824099,0.027089689975444677,-0.08553256521291251
2.33,-9.851865880338897,-0.9769679584843429,-0.11632673089197848,-0.26244645259590454,0.02503744834078587,-0.08358456666509745
2.3325,-9.709771111984717,-0.919512685567231,-0.157969015402435,-0.2623777354645331,0.01691596849056605,-0.0828811569763554
2.335,-9.889423961127296,-0.7814040569166487,0.0014730134296609965,-0.2643856069906854,0.018350341320754696,-0.08421973799379029
2.3375,-9.889160123296946,-0.751736726387818,-0.1464697927571721,-0.26416872641857614,0.019566777687221246,-0.08240545283715227
2.34,-9.755477682504228,-0.875621359887183,-0.4496700803609832,-0.26271759144952045,0.01980740855047953,-0.07887384818950921
2.3425000000000002,-9.797758784297157,-1.0843340504879517,-0.234429146278224,-0.26407022272396113,0.019076907210489973,-0.08054027056081607
2.345,-9.818310293727961,-0.770716081846784,-0.22027999549661964,-0.25686545638451513,0.033598,-0.08245284869894619
2.3475,-9.959802856913868,-0.6162852397509946,-0.02270368135707415,-0.2577325198972844,0.033071620340829444,-0.08253128047622768
2.35,-10.104062290332218,-0.6558050141843983,0.37150714097302107,-0.25898678954833887,0.033533413238770876,-0.08271200430508868
2.3525,-10.007308013346405,-0.7787140777402934,0.28112812930167497,-0.2574072601726167,0.03304899803452325,-0.07767496384856803
2.355,-9.775969545979756,-0.7431286055778838,-0.2033425771989717,-0.2594946003686357,0.024375662087928764,-0.08252547508687104
2.3575,-9.65244031381118,-0.7747424512719854,-0.361517304056475,-0.26451170957999265,0.02306,-0.08148295215029325
2.36,-9.563007,-0.830942,-0.47824,-0.26817,0.021955803608174968,-0.079412
2.3625000000000003,-9.61799581500822,-0.7842015838974332,-0.37605237545530384,-0.2664724878605484,0.0232480242789033,-0.0814023320253268
2.365,-9.742216385053311,-0.6858814848173084,-0.17323167566440212,-0.2639668183123119,0.02909799639677774,-0.0842177923606476
2.3675,-9.874323624901592,-0.6073098543111594,-0.04326947169635621,-0.26492348451733844,0.030784084948453812,-0.08233236358013084
2.37,-9.930996532282899,-0.6578566139684825,-0.09526117487723158,-0.2655204857750091,0.03298557923048733,-0.07773115846097466
2.3725,-10.069344,-0.60856,0.060976,-0.264505,0.03136290821514745,-0.077122
