time,acc_x_g,acc_y_g,acc_z_g,gyro_x_rad_s,gyro_y_rad_s,gyro_z_rad_s
1765409774.830627,-0.0028281341502959323,-7.730551431336926,-5.9429791397440255,-0.3557869649636026,0.00208431248160701,-0.007464609846417481
1765409774.830877,-1.2879354615538805,-7.472706054064949,-5.216859882278773,-0.3012634249519758,0.0005787153395767704,-0.006292716810438765
1765409774.831127,-2.5428423650611753,-7.221711165763093,-4.507011925402533,-0.2480060606793889,-0.0009089941708552382,-0.005208934359384374
1765409774.831377,-3.7388719910082253,-6.983374424741293,-3.828296045755464,-0.1972258637418508,-0.002436961824298543,-0.004248799064565365
1765409774.831533,-4.850369276295299,-6.762797314913614,-3.1938323722727575,-0.1500021737447935,-0.004067389901520404,-0.003441632271708491
1765409774.831783,-5.855883384011162,-6.5641110953957895,-2.614375871032698,-0.1072321179870454,-0.0058644558893690205,-0.002808174536582901
1765409774.832033,-6.739009252866102,-6.390301327314156,-2.097894549028604,-0.06959534307966389,-0.007892056182495732,-0.0023586243503957442
1765409774.832283,-7.4888606200841785,-6.243127966934298,-1.6493638763691716,-0.037535189795366776,-0.01021147749441814,-0.002091190893438453
1765409774.832604,-8.10018320120034,-6.123137361716038,-1.2707683336979838,-0.011255779977216628,-0.012879128622716875,-0.0019912399507234168
1765409774.832854,-8.573142414033718,-6.0297540492185,-0.961284949292477,0.009266726297231897,-0.015944471188055902,-0.002031083936531196
1765409774.833104,-8.912836641515561,-5.961434276351947,-0.7176135225217976,0.024261224919534845,-0.019448271773003265,-0.0021704328013539467
1765409774.833354,-9.128596618063842,-5.915859982745693,-0.5344129040175314,0.03413004599870324,-0.023421267624999825,-0.0023574777449399593
1765409774.83356,-9.233135836565856,-5.8901518433298445,-0.4048014104320273,0.03941165980539231,-0.02788330067046153,-0.002530529525176081
1765409774.83381,-9.241617060950501,-5.881082595780224,-0.32088156917428373,0.04074063745051531,-0.0328429345669066,-0.0026200902627171348
1765409774.83406,-9.170696835908664,-5.885276420666672,-0.2742540967649118,0.03880751754525408,-0.0382975312614723,-0.002551214689783225
1765409774.83431,-9.037603865534415,-5.899385185634552,-0.2564922579724661,0.03432085031977193,-0.04423373079883494,-0.002246021295982289
1765409774.834621,-8.859298721184803,-5.920236433539939,-0.25955466023107193,0.027973245732377937,-0.05062825292474,-0.001626241830085544
1765409774.834821,-8.651751975719376,-5.944950377392242,-0.2761216198774147,0.020412769603739542,-0.05744892225218165,-0.000615730520697957
1765409774.835021,-8.429366234067531,-5.971024417507624,-0.2998470974353174,0.012220537305393485,-0.06465581001868058,0.000857129740706373
1765409774.835221,-8.2045556000599,-5.996385029237011,-0.3255243643843611,0.0038948771076699473,-0.07220238270708662,0.0028571932908249965
1765409774.835421,-7.987484856582171,-6.019408825402569,-0.3491686533184382,-0.004157995818785075,-0.08003655039072008,0.005440570320755016
1765409774.835502,-7.785960821285704,-6.038916517233744,-0.36802384802706856,-0.0116272176571137,-0.08810151952310416,0.008652976312445911
1765409774.835752,-7.6054605286995836,-6.054144465217798,-0.38050275334614125,-0.018295136402856158,-0.09633638320178314,0.012528473069063184
1765409774.836002,-7.44927533285731,-6.064698559786114,-0.3860719352867176,-0.024030711879875367,-0.10467643238885718,0.017088645405669265
1765409774.836252,-7.318746616618463,-6.0704952029133485,-0.3850931086800568,-0.028779499735958117,-0.11305324074796214,0.02234224834808707
1765409774.836548,-7.213567242069458,-6.071694729002087,-0.37863397546041105,-0.03255131051228697,-0.12139464629108125,0.028285344555454176
1765409774.836798,-7.1321229814459075,-6.068633137449932,-0.368262098880585,-0.0354066047703704,-0.129624800591404,0.03490191396640967
1765409774.837048,-7.07184984984197,-6.061757480474302,-0.3558351816111928,-0.037442590158759656,-0.13766446320053047,0.042164862160004084
1765409774.837298,-7.029586204743714,-6.051568462070181,-0.3432996251633871,-0.038779845352075216,-0.14543168376797824,0.05003730824893466
1765409774.837566,-7.0019019442463275,-6.038571737167725,-0.33250703023484296,-0.03955012992390762,-0.15284295493255143,0.05847402248232616
1765409774.837899,-6.985390451899367,-6.0232382367279795,-0.3250563663823373,-0.039885865473782214,-0.159814861352254,0.06742290703533778
1765409774.838233,-6.9769120646025335,-6.005973853359729,-0.3221683261197408,-0.039911600714681084,-0.1662662069029144,0.07682644693533253
1765409774.838635,-6.973781189623478,-5.987099228180949,-0.3245973939249133,-0.03973760540831979,-0.1721205631406417,0.08662307925947209
1765409774.838885,-6.973892987433977,-5.966840205350263,-0.33258555380007804,-0.039455582553940736,-0.17730913006917373,0.09674843446639199
1765409774.839135,-6.975789520209127,-5.945328509170258,-0.3458589039926892,-0.039136357822242944,-0.18177373305977504,0.10713640849254104
1765409774.839385,-6.978668924743966,-5.922610940777104,-0.36366514804258654,-0.038829308470209906,-0.18546971830547873,0.11772004390364715
1765409774.839527,-6.982344053695803,-5.898664657685197,-0.3848468546229056,-0.03856323069133484,-0.18836847964737036,0.12843223411476107
1765409774.839777,-6.98715896281639,-5.873416170803938,-0.40794313508052554,-0.03834831090742109,-0.19045936173870678,0.1392063013991968
1765409774.840027,-6.993872747947663,-5.8467622389547245,-0.43131108253338346,-0.03817886131268117,-0.19175073291302183,0.14997651853194197
1765409774.840277,-7.003520948483567,-5.8185912755179965,-0.45325772982407275,-0.03803650166655492,-0.1922700978325971,0.16067863794454534
1765409774.840583,-7.017265398970355,-5.788803881450566,-0.4721730735648594,-0.037893510250416075,-0.19206321356172526,0.17125046932721524
1765409774.840833,-7.036243978273509,-5.757330873460323,-0.4866547490782894,-0.037716114156780396,-0.19119226495741565,0.18163252173450134
1765409774.841083,-7.061431664687128,-5.72414715284218,-0.49561557526285593,-0.037467536618163974,-0.18973323162043026,0.1917687082596211
1765409774.841333,-7.093523175100742,-5.689280243133511,-0.4983667786024448,-0.03711067139579256,-0.18777263624911436,0.2016070993087805
1765409774.841574,-7.132845311859576,-5.6528132042151595,-0.49467189722765414,-0.036610312329015314,-0.18540390383715713,0.21110070048034507
1765409774.841907,-7.179304422888375,-5.614882571936575,-0.48476848001941,-0.035934920698542754,-0.1827235784590943,0.2202082210344829
1765409774.842241,-7.232371417738985,-5.5756726738433695,-0.46935673583420545,-0.035057955993357016,-0.17982763633354856,0.2288947885925179
1765409774.842671,-7.291103701657552,-5.535407984017134,-0.44955667190101223,-0.033958824742735295,-0.17680810639807745,0.23713255731909247
1765409774.842921,-7.354200494403164,-5.494345079853538,-0.4268377363340873,-0.032623513587923,-0.17375017266466017,0.2449011555249922
1765409774.843171,-7.420085751164955,-5.452765256449605,-0.4029267746452516,-0.03104496451258013,-0.17072989223637514,0.2521879272632572
1765409774.843421,-7.487011467287535,-5.410968014432391,-0.37970100553700253,-0.029223228952317888,-0.1678126196517463,0.25898793990470387
1765409774.843535,-7.553173230369829,-5.369264813697342,-0.35907321306616036,-0.02716541388103965,-0.1650521791075675,0.26530375517361243
1765409774.843785,-7.6168291469151335,-5.327972247901175,-0.34287681267913234,-0.024885415113931594,-0.16249077092025016,0.27114499266035014
1765409774.844035,-7.676412797601984,-5.287404416240553,-0.33275869225952925,-0.022403427387219305,-0.16015954569549998,0.2765277421115675
1765409774.844285,-7.730631065931293,-5.247865335819665,-0.33008742482698344,-0.019745226777827588,-0.1580797388992012,0.2814738900662725
1765409774.844554,-7.778538885297093,-5.20964295577653,-0.33588338347952384,-0.016941228561854618,-0.1562642279210821,0.28601041411214206
1765409774.844804,-7.819585268530159,-5.1730062100587135,-0.3507751805881245,-0.014025324793810369,-0.15471934215757208,0.290168675148463
1765409774.845054,-7.853628203472822,-5.138205690696567,-0.37498367120376963,-0.011033505843208752,-0.15344672615893634,0.29398372046893456
1765409774.845304,-7.880919555235203,-5.10547742610671,-0.4083312975189233,-0.008002281319184765,-0.15244505141564307,0.29749360567379435
1765409774.84556,-7.902064342111478,-5.07504842724699,-0.4502719549998582,-0.004966943332135332,-0.15171141340937339,0.3007387454844973
1765409774.84581,-7.917961106814704,-5.047142420662948,-0.4999353379268336,-0.0019597490393950014,-0.15124232227135168,0.3037613009853104
1765409774.84606,-7.929731169822009,-5.021984466647835,-0.5561796813875685,0.0009918752253520525,-0.15103426495618252,0.30660459771795523
1765409774.84631,-7.938644068294795,-4.999803658391451,-0.6176477304283841,0.0038669942204964595,-0.15108386827164844,0.309312549152321
1765409774.846627,-7.9460445821115275,-4.98083354460266,-0.6828225480684497,0.006652573024266263,-0.15138772944355564,0.31192904380134623
1765409774.846877,-7.953284149802242,-4.96531017760969,-0.7500819634915286,0.0093445308112638,-0.1519420078091174,0.3144972526479621
1765409774.847127,-7.961657343308747,-4.953467705371965,-0.8177520657788256,0.011948363297178985,-0.15274188465588365,0.31705883170421945
1765409774.847377,-7.972343341263051,-4.9455312849066955,-0.884160498363929,0.01447929521966897,-0.15378100071232823,0.31965302842081217
1765409774.84757,-7.98635306788664,-4.941707081354166,-0.9476897532606998,0.016961950104874116,-0.1550509824863787,0.32231573931479096
1765409774.847903,-8.004484040711127,-4.942169486402123,-1.0068298900781159,0.01942953344029092,-0.15654116645995714,0.32507859686001633
1765409774.848237,-8.027285887089132,-4.947046266019513,-1.0602292669869589,0.02192253465012286,-0.15823860045208357,0.32796817787747795
1765409774.848599,-8.055039125617931,-4.95640260211703,-1.1067409072719843,0.024486976999525296,-0.16012833348165434,0.33100542457141857
1765409774.848849,-8.08774813931806,-4.970224828176241,-1.1454614394970946,0.027172275167012858,-0.1621939306486943,0.3342053632836633
1765409774.849099,-8.125147195476137,-4.98840476873671,-1.1757598114523353,0.030028787988740164,-0.16441811504949408,0.3375772010217823
1765409774.849349,-8.166717083768672,-5.010726520365604,-1.1972942903682735,0.033105184066122034,-0.16678345495603383,0.3411248630159561
1765409774.849586,-8.211709966637336,-5.036858627438256,-1.210017817088856,0.03644577665712924,-0.16927304481739494,0.3448479843373511
1765409774.849836,-8.25918084782164,-5.06635462702654,-1.2141726147629892,0.04008802459722249,-0.17187113246542263,0.348743285705915
1765409774.850086,-8.308024703597713,-5.098663433004068,-1.210274887859966,0.04406042218807913,-0.17456362027703795,0.3528061808481236
1765409774.850336,-8.357018306423308,-5.133148970004667,-1.1990899912533417,0.048380994961509105,-0.17733834597455705,0.35703241540997743
1765409774.850616,-8.404865413727766,-5.169117137554025,-1.18159807950881,0.05305656837132678,-0.18018505558813025,0.36141953225274553
1765409774.850866,-8.450243887846263,-5.205847795026519,-1.1589502291973366,0.058082889668259724,-0.1830950191677188,0.36596797777521817
1765409774.851116,-8.491853694384957,-5.242629141595523,-1.1324155341229025,0.06344558242040824,-0.1860602967986447,0.3706816964536292
1765409774.851366,-8.528465282751885,-5.278791032102485,-1.1033206486779452,0.06912182226482053,-0.1890727242932456,0.37556811365012444
1765409774.851526,-8.55896807753715,-5.313733003257806,-1.072984330441394,0.07508255666955081,-0.19212274273946545,0.3806374894430516
1765409774.851859,-8.582418584073514,-5.346943079059033,-1.0426502613988287,0.08129505575616622,-0.195198233172388,0.38590172544983786
1765409774.852193,-8.598087191646862,-5.37800494066108,-1.0134216915033343,0.08772557266263549,-0.19828352887164585,0.39137279146459597
1765409774.852625,-8.605502168708199,-5.406593087907032,-0.9862016630991384,0.09434190142861569,-0.20135876397317604,0.39706098654710353
1765409774.852875,-8.604488378274112,-5.4324574922064475,-0.9616431352260906,0.10111563335661078,-0.20439968649503334,0.402973255287031
1765409774.853125,-8.595197151668302,-5.455400555032286,-0.9401138742414757,0.10802391882356686,-0.20737801934053324,0.4091117504986279
1765409774.853375,-8.578123303704679,-5.4752496567317985,-0.921680664038479,0.11505054737141378,-0.2102623891403208,0.415472782470646
1765409774.8536,-8.554105917916877,-5.491828295007238,-0.9061157263833575,0.12218618085319692,-0.21301976112676846,0.42204624146461983
1765409774.85385,-8.524311032136112,-5.504928507438263,-0.8929254478704499,0.12942762066106223,-0.21561723611317699,0.42881553764553965
1765409774.8541,-8.490196102460956,-5.5142875693487765,-0.8813984950510385,0.13677606219600877,-0.21802401107117894,0.43575806834999314
1765409774.85435,-8.453457517491524,-5.5195725114575485,-0.8706684670668373,0.14423438848759393,-0.22021329820902377,0.44284618272062415
1765409774.854595,-8.41596311251776,-5.520375964023822,-0.8597860790049758,0.15180367249381221,-0.2221640319537905,0.4500485581063988
1765409774.854928,-8.379671832549487,-5.516225842098524,-0.8477967125248203,0.1594791777644353,-0.22386223931872692,0.4573318387369653
1765409774.855262,-8.346543251996586,-5.5066096956656665,-0.8338194536308703,0.1672462551212168,-0.22530198546856064,0.46466233992184264
1765409774.85559,-8.318441164501772,-5.491012556452359,-0.8171227809570404,0.17507661382232861,-0.22648583323819702,0.47200761276429687
1765409774.85584,-8.297037400468916,-5.468965065408433,-0.7971907009200925,0.18292547914811821,-0.227424779056544,0.4793376984908361
1765409774.85609,-8.283723149774119,-5.440096802919976,-0.7737727090534541,0.19073011596065667,-0.22813765266551017,0.48662596864325114
1765409774.85634,-8.27953461079309,-5.404188586299854,-0.7469121738102625,0.1984100888306873,-0.22865000455561163,0.49384953489586475
1765409774.856634,-8.285098273080092,-5.361217622656378,-0.7169502371897644,0.2058694477045122,-0.2289925619646143,0.5009893010019872
1765409774.856884,-8.300599707182938,-5.311390855111986,-0.6845050544436414,0.21300080318423031,-0.22919939983724522,0.5080297925616784
1765409774.857134,-8.325778757972035,-5.255163981632972,-0.6504282100899447,0.2196910313461155,-0.22930601723266505,0.5149589135089433
1765409774.857384,-8.359952623758659,-5.193245548768108,-0.615741550009268,0.2258281566513965,-0.2293475102318446,0.5217677350426982
1765409774.857613,-8.402065312714534,-5.126586584186411,-0.581559550277897,0.23130882078840173,-0.22935699506365034,0.5284503461807761
1765409774.857946,-8.450757602802472,-5.056356405277266,-0.54900518846562,0.2360456721161872,-0.2293643855387758,0.5350037278194728
1765409774.85828,-8.504447956010532,-4.983905018131643,-0.5191295431376765,0.23997401269909807,-0.22939558653902203,0.5414275859343973
1765409774.858597,-8.561414310590962,-4.910712534776684,-0.49284460322904816,0.24305710406466405,-0.22947212826290678,0.5477240954895698
1765409774.858847,-8.619869774338245,-4.8383267487986625,-0.47087471752169935,0.24528963780185323,-0.2296112233808508,0.553897544317754
1765409774.859097,-8.678029828839781,-4.768291493365981,-0.45372735326174024,0.24669901537738892,-0.22982618280816258,0.5599539037918446
1765409774.859347,-8.734172027158339,-4.702070263873868,-0.4416809891091266,0.24734425618673397,-0.2301270899132545,0.5659003776365471
1765409774.859575,-8.78669033786548,-4.6409711574542,-0.43478712791437696,0.2473125631720569,-0.2305216191343939,0.5717449877617435
1765409774.859825,-8.834145881709206,-4.586079941688801,-0.4328832596507047,0.24671380883028873,-0.23101589225691596,0.577496246872935
1765409774.860075,-8.875314523751817,-4.538207864189992,-0.43561375148035697,0.2456734346007193,-0.2316152833927731,0.5831629435690205
1765409774.860325,-8.909230014095382,-4.497859699510252,-0.44245646133205,0.24432444614602836,-0.2323250993615462,0.5887540315702249
1765409774.860603,-8.935219858149402,-4.465225514027914,-0.45275396061822043,0.24279929530995173,-0.23315106880649103,0.5942785789319384
1765409774.860936,-8.952930733404006,-4.440196771206751,-0.4657485874551326,0.24122243283856526,-0.23409957357223696,0.599745704887806
1765409774.86127,-8.962341208044588,-4.42240404468369,-0.4806198094951715,0.2397041865917727,-0.23517755999797582,0.6051644246929692
1765409774.861573,-8.963761114301755,-4.411270582931663,-0.49652121735323695,0.23833640101505085,-0.23639208969537223,0.6105433526213121
1765409774.861823,-8.95781837010714,-4.406074447833568,-0.5126137889063287,0.23719002006051235,-0.23774953690281875,0.6158902779070159
1765409774.862073,-8.945434780466611,-4.406012608452767,-0.5280923755269854,0.23631455054033013,-0.23925450360684586,0.6212116920405854
1765409774.862323,-8.927792296923112,-4.410262444193386,-0.5422036261307429,0.23573913351167583,-0.24090858158388803,0.626512365196963
1765409774.862632,-8.906290676205758,-4.418037704527595,-0.5542553801955986,0.23547480175946275,-0.24270912060842567,0.6317950379770296
1765409774.862882,-8.882496815735225,-4.428635772092963,-0.5636195440238579,0.2355174251778641,-0.24464815401560427,0.6370602481239278
1765409774.863132,-8.858085475687378,-4.441471711684803,-0.5697322647460569,0.23585083977108887,-0.2467115950044856,0.6423062947531825
1765409774.863382,-8.834770896072635,-4.456094123141712,-0.5720962609442235,0.23644971395746014,-0.24887877838231937,0.6475293720066736
1765409774.863987,-8.81422938184517,-4.472179860519374,-0.5702899284576918,0.23728182432314107,-0.2511224091048936,0.6527239555991807
1765409774.86432,-8.798014447635275,-4.489508987453605,-0.5639862963835781,0.23830958180038928,-0.2534089801265518,0.6578835469141895
1765409774.864654,-8.787468244345751,-4.507926027519845,-0.5529824481830776,0.23949084615526603,-0.2556996972527216,0.663001828551967
1765409774.864531,-8.78363499708836,-4.5272964202691774,-0.537237134113613,0.24077925423904914,-0.2579518793818859,0.668074169691319
1765409774.864781,-8.78718338859878,-4.5474669031849,-0.5169115566254244,0.24212441784091596,-0.26012071686668503,0.6730992957845175
1765409774.865031,-8.798344917817973,-4.568235873172747,-0.49240642065813145,0.24347238634603832,-0.26216121110946966,0.6780808687417925
1765409774.865281,-8.816874270922192,-4.589336448553341,-0.4643880069526629,0.24476671565060484,-0.26403010638808455,0.6830287315967877
1765409774.86554,-8.842035911610688,-4.610432366584411,-0.4337974441114575,0.24595035647504299,-0.26568765867792776,0.6879596264987632
1765409774.86579,-8.872618927808402,-4.631125186518147,-0.4018398210782929,0.2469683992323058,-0.26709914917755884,0.692897261276254
1765409774.86604,-8.90698016487362,-4.650970273830697,-0.36995220807524937,0.24777152527729504,-0.26823611460927604,0.6978716693169965
1765409774.86629,-8.943114005083316,-4.669498742155193,-0.339751412509773,0.24831985373972928,-0.26907730613990183,0.7029178831614291
1765409774.866604,-8.978745876250484,-4.686242814524992,-0.31296330866035504,0.24858676229827342,-0.2696093986333021,0.7080740155346599
1765409774.866937,-9.011445900530843,-4.700762401211445,-0.2913361095778096,0.24856220453313163,-0.2698274690284054,0.7133789001764385
1765409774.867271,-9.038759002028362,-4.712670652263817,-0.27654057414043465,0.24825504488882924,-0.269735262258697,0.7188694863587449
1765409774.867551,-9.05834760348788,-4.721656031560497,-0.2700614106126508,0.24769398782535657,-0.2693452601602355,0.7245782084186755
1765409774.867801,-9.068141859595245,-4.727498716190194,-0.27308608119119443,0.24692679953062135,-0.26867855378845384,0.7305305634986828
1765409774.868051,-9.066489938012364,-4.730080267375773,-0.28639927131036874,0.24601771369580996,-0.2677644996468541,0.7367431185887242
1765409774.868301,-9.052297896083866,-4.729387252914588,-0.31029264999462264,0.2450431638402956,-0.2666401281511539,0.74322212125925
1765409774.868621,-9.025146438227278,-4.725510860679505,-0.3444996904080407,0.24408625650157337,-0.26534926906787953,0.7499628051423843
1765409774.868871,-8.985371287217088,-4.71864438961431,-0.3881642356653834,0.24323063135349832,-0.26394136267919976,0.7569493794958594
1765409774.869121,-8.934095621773015,-4.709078381489329,-0.43984923269924087,0.24255446918467774,-0.2624699457994954,0.7641556097063109
1765409774.869371,-8.87320714149861,-4.697190196764168,-0.49758846199981666,0.24212535588606457,-0.26099084065600736,0.7715458671627495
1765409774.86962,-8.805278218677737,-4.683423597961092,-0.5589794687206009,0.2419965125856432,-0.25956011341482754,0.779076553780648
1765409774.86987,-8.733433894397848,-4.668256210996651,-0.6213113958370952,0.24220463866171263,-0.25823188978502803,0.786697849121833
1765409774.87012,-8.661177693058669,-4.6521572583044355,-0.6817180366628913,0.24276936126867027,-0.25705612224259483,0.7943557403090481
1765409774.87037,-8.592188504833096,-4.635541042638188,-0.7373442702787785,0.24369408207875673,-0.25607641068244025,0.8019942715417017
1765409774.87062,-8.530102875498782,-4.618721503134196,-0.7855131906957424,0.2449678682271698,-0.2553279918937765,0.8095579307268173
1765409774.870953,-8.478296277658156,-4.601871945187983,-0.8238822317139927,0.2465679408817863,-0.2548360337354837,0.8169941024327705
1765409774.871287,-8.439675479402043,-4.584994551271947,-0.8505791919171336,0.24846226911651442,-0.2546143871537453,0.824255526534349
1765409774.87161,-8.416493526768107,-4.567905765154497,-0.8643115303715525,0.250611801052777,-0.2546649372017742,0.8313026582015686
1765409774.87186,-8.410199741814665,-4.550242969934826,-0.8644428279876358,0.2529719797703586,-0.2549776333755463,0.8381057321381885
1765409774.87211,-8.421338304477201,-4.53149392105718,-0.8510291514809953,0.25549338614067685,-0.2555311834044086,0.8446462629884824
1765409774.87236,-8.449507859681482,-4.511045386573724,-0.8248079967317219,0.2581215865500156,-0.2562943063615181,0.85091773259693
1765409774.872594,-8.493389146731603,-4.488244242696365,-0.7871365330145558,0.26079649217107903,-0.2572274043528628,0.8569253254132683
1765409774.872844,-8.550838621925452,-4.46246367485032,-0.7398838797421465,0.26345170117046396,-0.25828453743299473,0.8626847180273299
1765409774.873094,-8.619037021703502,-4.433168011659148,-0.685290275154817,0.26601434981627636,-0.2594156387925425,0.8682200482451572
1765409774.873344,-8.694676489859194,-4.399970685010607,-0.6258100671086718,0.26840593345690433,-0.26056893338084774,0.8735612648371522
1765409774.873608,-8.774169237959388,-4.362680378587457,-0.5639545019882285,0.27054439570331695,-0.26169349249144025,0.8787411047016251
1765409774.873941,-8.853862813244822,-4.321331093378122,-0.5021465368706213,0.27234755625618357,-0.26274178265659826,0.8837919737900775
1765409774.874275,-8.930249298068984,-4.276193393217402,-0.4425960720848482,0.27373769414794125,-0.26367199783843304,0.8887430192161102
1765409774.874751,-9.000156829258424,-4.22776660914944,-0.38720135021106555,0.2746468735813815,-0.26444994762854107,0.8936176575073366
1765409774.875001,-9.060911993178145,-4.176754394569678,-0.337480702443292,0.27502244126498415,-0.2650503219285365,0.8984317578475265
1765409774.875251,-9.110462226621621,-4.124027451430929,-0.29453752371896735,0.274832061162003,-0.265457236207238,0.9031925831569289
1765409774.875501,-9.147449866497938,-4.07057693259949,-0.25905907825109264,0.2740676802093935,-0.26566404409214994,0.9078985047587194
1765409774.875601,-9.171234583496974,-4.017460936663622,-0.23134576965603296,0.2727479153807911,-0.26567246901916913,0.91253946166001
1765409774.875851,-9.18186759278165,-3.9657463934697597,-0.21136281279842836,0.27091850007898305,-0.2654911614529572,0.917098124961344
1765409774.876101,-9.180027116899543,-3.9164499492882987,-0.19880299551387526,0.2686506254591805,-0.2651338421741671,0.9215517103374539
1765409774.876351,-9.16692799547575,-3.870482773475014,-0.19314915099945623,0.2660372610268436,-0.2646172355373892,0.9258743326830473
1765409774.876551,-9.144217999496032,-3.828604196583357,-0.1937282165370553,0.26318780507494055,-0.26395901132820376,0.9300397333146904
1765409774.876884,-9.113869838398799,-3.7913880825595987,-0.1997538972427451,0.2602216309529447,-0.26317593874210066,0.9340241577843562
1765409774.877218,-9.07807311340046,-3.759204725871124,-0.21035988038179262,0.2572612042177032,-0.26228242782638767,0.9378091260953799
1765409774.877591,-9.03912705055829,-3.7322197240680772,-0.2246285231803843,0.2544254390693754,-0.26128960102602267,0.9413838127380163
1765409774.877841,-8.999334126595171,-3.7104090712870703,-0.24162012397899577,0.2518238654762913,-0.260204984818808,0.9447467561500272
1765409774.878091,-8.960896182617097,-3.6935869319857626,-0.26040565810677846,0.2495520214182141,-0.25903282555654816,0.9479066732677504
1765409774.878341,-8.9258165358383,-3.681440398066867,-0.2801028413519808,0.2476882880125161,-0.2577749387270712,0.9508822699491806
1765409774.878552,-8.89581252160114,-3.673565009967673,-0.29991329264190064,0.24629217163174888,-0.2564319392112751,0.9537010817872688
1765409774.878802,-8.872242773714639,-3.6694960379076154,-0.31915777033184306,0.2454038472731039,-0.25500468068211185,0.9563975112593345
1765409774.879052,-8.8560531918198,-3.668732737747175,-0.33730612399988813,0.24504465010696616,-0.25349572862907,0.9590103209974152
1765409774.879302,-8.847745490430853,-3.6707550350091402,-0.35399805293319797,0.24521814357057922,-0.25191068453234994,0.9615798906164104
1765409774.87954,-8.847372075314075,-3.675033962921398,-0.36905038617374375,0.24591139273831705,-0.25025917650263485,0.9641455454216669
1765409774.87979,-8.85455965857198,-3.681038810782554,-0.38244760377065845,0.24709613802635297,-0.24855535417051,0.9667432214662903
1765409774.88004,-8.868560946041846,-3.6882448494025564,-0.3943152607728934,0.24872970598705693,-0.2468177819311027,0.9694036478606081
1765409774.88029,-8.888329753210055,-3.6961446252726606,-0.40487970808078017,0.2507556874991074,-0.24506870299110942,0.9721511251224011
1765409774.880582,-8.912611509213578,-3.704263273436925,-0.41442024448883935,0.25310460213394803,-0.24333273021873772,0.9750028983563285
1765409774.880915,-8.940039320838698,-3.712175984542013,-0.42322068687296444,0.25569488817042507,-0.24163510546158815,0.9779690901872327
1765409774.881249,-8.969226080952732,-3.719525155765707,-0.43152634213524754,0.2584345739382596,-0.2399997537287271,0.9810531484908976
1765409774.881651,-8.998845414299833,-3.7260351817015724,-0.4395102400239198,0.26122390433029247,-0.23844741993103707,0.984252744115777
1765409774.881901,-9.027697611527246,-3.7315230670148973,-0.44725045829848564,0.26395904746745263,-0.23699417994512287,0.9875610232566585
1765409774.882151,-9.054759881376084,-3.7359034466313914,-0.45471894770510446,0.2665368191779244,-0.23565054151351172,0.990968093237018
1765409774.882401,-9.079222432088976,-3.7391880336144667,-0.46178095824084303,0.2688601680472264,-0.23442120622492033,0.9944625932145695
1765409774.882627,-9.100512643290523,-3.741480937884213,-0.46820296805289435,0.270844001661933,-0.23330540751796233,0.998033159540507
1765409774.882877,-9.118308885668894,-3.742970689819277,-0.4736667028314885,0.27242083444099613,-0.23229763423031408,1.0016695605426051
1765409774.883127,-9.13254390340707,-3.7439173043728,-0.4777877258211704,0.2735457033627568,-0.23138852170286062,1.0053632997485762
1765409774.883377,-9.143395821972781,-3.7446310471726534,-0.4801386406102598,0.27419982110190533,-0.23056573424352342,1.009107593210967
1765409774.883557,-9.151263584345793,-3.7454408588602,-0.4802782405384415,0.27439251039325413,-0.22981474366874596,1.0128967695065874
1765409774.883807,-9.156723991832562,-3.7466538938974225,-0.47778791174352936,0.27416109563655305,-0.22911948543966237,1.0167252478087339
1765409774.884057,-9.16047024653593,-3.7485108841560457,-0.4723146852222425,0.2735686301768493,-0.22846291576437192,1.0205862918142452
1765409774.884307,-9.16323636031104,-3.7511435070299672,-0.46361710691174446,0.27269959664198734,-0.22782749941080044,1.0244707346116504
1765409774.884596,-9.165716040064389,-3.7545397454125595,-0.4516071578754933,0.2716539806764277,-0.22719564358481706,1.0283658438429866
1765409774.884929,-9.16848654961546,-3.758521899399725,-0.4363805922055681,0.2705403246854399,-0.22655007633168264,1.032254456602175
1765409774.885263,-9.171946866633956,-3.762739538785538,-0.41822992693252325,0.269468477026533,-0.2258741691706227,1.036114472059157
1765409774.885579,-9.176276409952868,-3.7666767884133074,-0.3976377647767939,0.268542743808173,-0.22515222624585718,1.0399187649754815
1765409774.885829,-9.181417564474277,-3.769671399686289,-0.37525134235075824,0.2678560311008571,-0.22436978139128425,1.04363557720044
1765409774.886079,-9.1870830226764,-3.770943028922063,-0.35184139546168164,0.26748537346929174,-0.22351393690841106,1.0472294340749804
1765409774.886329,-9.19278734228895,-3.7696291487261555,-0.32824984658804945,0.2674890324260331,-0.22257374786125977,1.050662595389524
1765409774.886583,-9.197900766999377,-3.764827659485671,-0.3053315151332536,0.26790515225953654,-0.22154062355508827,1.0538969877868298
1765409774.886833,-9.201722186492015,-3.7556453527768254,-0.28389479363935016,0.26875179601155536,-0.22040869815647476,1.0568964893617483
1765409774.887083,-9.20356685812137,-3.7412513927027615,-0.26464523150152286,0.27002805888474485,-0.21917511831790945,1.0596293480328502
1765409774.887333,-9.202862820048308,-3.720934579978903,-0.24813490511891484,0.27171588029017874,-0.21784020276263014,1.0620704231912217
1765409774.887523,-9.199247820186974,-3.694161490373848,-0.23471982517559506,0.2737821617520262,-0.2164074391610194,1.0642028952280222
1765409774.887773,-9.192656522343086,-3.6606300363128605,-0.2245275436465169,0.2761808541079286,-0.214883294097055,1.0660191468457711
1765409774.888023,-9.18338650443482,-3.6203114824760187,-0.21743753588422424,0.2788547981319035,-0.2132768308356803,1.0675206796063261
1765409774.888273,-9.172132107585172,-3.573474787229323,-0.21307757253149473,0.28173726535279997,-0.21159916401186285,1.0687171178328867
1765409774.888599,-9.159978060014746,-3.520689731113532,-0.2108394531348288,0.2847533159070428,-0.20986281649638588,1.0696244979651586
1765409774.888932,-9.148349458170818,-3.4628082059400436,-0.20991640859493688,0.28782122490179296,-0.2080810566545855,1.0702631211071485
1765409774.889266,-9.138920050739214,-3.4009255765190662,-0.20936204532673966,0.29085428596462093,-0.2062672764983553,1.0706552675819996
1765409774.889602,-9.133486124316612,-3.3363260082523754,-0.20816734381615365,0.2937632618305659,-0.20443443896471086,1.0708230438806605
1765409774.889852,-9.133818293955454,-3.2704165796423936,-0.20534855155767945,0.2964596324394381,-0.20259459674012378,1.0707865685796507
1765409774.890102,-9.141507580617636,-3.2046545986445003,-0.20003551720010646,0.2988596214264999,-0.20075847472437935,1.0705626346834167
1765409774.890352,-9.157824326292346,-3.1404717639303463,-0.1915480804554008,0.30088879155015946,-0.1989351098069267,1.0701639375324643
1765409774.890555,-9.183607774921684,-3.079198942370424,-0.17944869431191696,0.30248682624886086,-0.19713154903773045,1.0695989228911567
1765409774.890805,-9.219200167882597,-3.0219962221788648,-0.16356311573768323,0.3036120036098632,-0.1953526174913286,1.0688722610072066
1765409774.891055,-9.264432573331588,-2.9697934379655426,-0.14396712948610527,0.30424484540689856,-0.19360077555283411,1.0679858830093367
1765409774.891305,-9.318661672360832,-2.9232463711020835,-0.12094403230900047,0.30439047618410975,-0.1918760852643276,1.066940446417133
1765409774.891555,-9.380848791415843,-2.8827137050483334,-0.0949229285891259,0.3040793311871034,-0.1901762980468557,1.0657370349608597
1765409774.891805,-9.449666093440097,-2.8482587207941608,-0.06641051659631618,0.3033659966904496,-0.18849707198578255,1.0643788348666368
1765409774.892055,-9.523611483484412,-2.8196762779578743,-0.03592880516755962,0.3023261516235576,-0.18683232796244617,1.0628724836448955
1765409774.892305,-9.601114219256994,-2.796540576709152,-0.0039687405092190976,0.301051794311071,-0.18517474684433877,1.061228813150231
1765409774.892587,-9.680617114576021,-2.7782654210188626,0.02903393232487426,0.2996451520044734,-0.18351638657778338,1.0594628320391186
1765409774.892837,-9.760627509765822,-2.7641680981184216,0.06269833664794947,0.2982118454981782,-0.18184936832090798,1.0575929647611224
1765409774.893087,-9.839736271741371,-2.753529684847606,0.09667562483083508,0.29685398583323913,-0.1801665562637541,1.0556397084483453
1765409774.893337,-9.916609966398003,-2.7456468027789125,0.13060940042311828,0.2956638920865167,-0.17846213866255103,1.05362394998305
1765409774.893591,-9.989964570816039,-2.7398719788413666,0.1640876960554274,0.2947190248673702,-0.1767320125363892,1.0515652093195589
1765409774.893924,-10.058530045522538,-2.7356418879954467,0.19659576064516046,0.29407854292279445,-0.17497389386760454,1.049480053341694
1765409774.894258,-10.12101546215796,-2.7324941844959776,0.22747900586194686,0.29378165572565335,-0.17318712323072094,1.0473808671522953
1765409774.894601,-10.176084963423143,-2.7300735560573464,0.25592513175479,0.2938477132029708,-0.17137219555703972,1.0452751015504718
1765409774.894851,-10.222354470074556,-2.7281267862825214,0.28097290183361595,0.2942777757601351,-0.1695300866570052,1.0431650682812867
1765409774.895101,-10.258416416505378,-2.7264868330840737,0.3015514776851383,0.295057258600399,-0.16766147420850797,1.0410483311201453
1765409774.895351,-10.282895362362565,-2.7250478819566495,0.316549381744484,0.2961591546294279,-0.16576597170520072,1.0389187064911474
1765409774.895521,-10.294532618936687,-2.7237358635295656,0.3249074789899615,0.2975473207919351,-0.16384151157580956,1.0367678139335368
1765409774.895771,-10.292293636666026,-2.722480721811231,0.32572642876682034,0.29917937298502106,-0.16188401066581135,1.0345870146422578
1765409774.896021,-10.27548758550772,-2.7211971265667754,0.3183760422397296,0.30100887526092435,-0.159887415341298,1.0323694754054697
1765409774.896271,-10.243884985764554,-2.7197787776673827,0.30259284658670865,0.30298671197324895,-0.15784416091635756,1.0301120239574446
1765409774.896662,-10.197818140711835,-2.718107705582307,0.2785537601467048,0.30506175436849187,-0.1557460079782143,1.027816450768417
1765409774.896912,-10.138251400242604,-2.7160751043832176,0.2469174722244441,0.30718111580903557,-0.1535851496239188,1.0254899862158802
1765409774.897162,-10.066812750997821,-2.7136064806693176,0.2088293443633961,0.3092903825534149,-0.15135542254937542,1.0231448329824895
1765409774.897412,-9.985782540042056,-2.7106830442552705,0.1658893428748229,0.3113341963611428,-0.14905341245688877,1.0207968152676465
1765409774.89763,-9.89803792649251,-2.7073532527663944,0.12008529134997621,0.3132574691847464,-0.14667924763625884,1.018463362374263
1765409774.89788,-9.806953560087734,-2.703731733866039,0.07369562428506574,0.3150073581678641,-0.144236937499166,1.0161611397170958
1765409774.89813,-9.7162616603981,-2.69998596883622,0.029167456523491033,0.3165359542512828,-0.1417342065292802,1.0139036695005414
1765409774.89838,-9.629878798419842,-2.696313427029653,-0.011022021544715587,0.31780347525430663,-0.13918184992478724,1.011699253882671
1765409774.898633,-9.551711002644868,-2.6929128433828144,-0.04451036621309714,0.31878163230690193,-0.13659267588839044,1.009549438126918
1765409774.898883,-9.485451205466239,-2.6899527343020564,-0.06918938910682557,0.319456768172888,-0.13398012603219756,1.007448157317593
1765409774.899133,-9.434382634237975,-2.6875388905761524,-0.08332913540683691,0.3198323434897092,-0.1313567122941812,1.005381634057751
1765409774.899383,-9.401199780397848,-2.685682315382499,-0.08567871235248008,0.31993036696354327,-0.12873247079162514,1.0033290450738563
1765409774.899555,-9.387856961704932,-2.6842705164348044,-0.07553840323112014,0.3197914363755208,-0.1261136682606351,1.001263920844559
1765409774.899805,-9.39545356314345,-2.683046609356708,-0.052799011841690335,0.3194731963202139,-0.12350197517057245,0.9991561621869889
1765409774.900055,-9.42416346616202,-2.6816008140236764,-0.017946799015345575,0.31904722399915947,-0.12089425349969496,0.9969744750029838
1765409774.900305,-9.473213202878522,-2.6793780865714107,0.027964349583930657,0.3185945867827221,-0.1182830242120366,0.994688971255058
1765409774.90061,-9.540910034993056,-2.675704620222442,0.08336968899881105,0.3182005190097603,-0.11565759041853006,0.9922736563882004
1765409774.900943,-9.624718627761945,-2.669833880568386,0.14627512460875738,0.31794879797413905,-0.11300570113115807,0.9897085035371846
1765409774.901277,-9.721382884768765,-2.6610086101865087,0.21435922082553482,0.3179164336929114,-0.11031556167126133,0.9869808203191256
1765409774.901631,-9.82708670040597,-2.6485302162034183,0.2850903686049264,0.318169214232396,-0.10757794461628191,0.9840856892411008
1765409774.901881,-9.937643696988813,-2.631824423946273,0.3558520015252368,0.3187584876729705,-0.10478813736790939,0.9810254202008624
1765409774.902131,-10.048702474477702,-2.6104937708607663,0.4240671735717341,0.3197193566809303,-0.10194748537975437,0.9778081392393586
1765409774.902381,-10.155951946193536,-2.584351845136069,0.48731300460942,0.321070257317435,-0.09906434989989993,0.9744457727878688
1765409774.902636,-10.255312168194074,-2.55343826813064,0.5434163049425739,0.32281372318631696,-0.09615437236817347,0.9709517364680887
1765409774.902886,-10.343100103901657,-2.518015894966128,0.590525077186241,0.32493801338113176,-0.09323999931434274,0.96733862144531
1765409774.903136,-10.416165778390065,-2.47855291839846,0.6271561730470847,0.32741920613904757,-0.09034926689572853,0.963616118995897
1765409774.903386,-10.47199948029066,-2.435693004122567,0.6522245953115878,0.33022333351292465,-0.08751388739917346,0.9597893521028527
1765409774.90355,-10.50881271055384,-2.390216159554051,0.6650618266626042,0.33330817610567554,-0.08476674003718683,0.955857711207083
1765409774.9038,-10.525594572716956,-2.342991946920879,0.6654286434724007,0.33662446369299126,-0.08213895228343099,0.9518142490323305
1765409774.90405,-10.52214326821633,-2.294926113248679,0.6535243842515415,0.3401164166440402,-0.07965684853086556,0.9476456885922022
1765409774.9043,-10.499070936611275,-2.2469027980657525,0.6299918388214162,0.34372176821886746,-0.07733910400058502,0.9433331090675443
1765409774.904624,-10.457779436452462,-2.1997264913195664,0.595914951947445,0.3473715820503045,-0.07519444474216193,0.9388533484909409
1765409774.904874,-10.40040445605575,-2.154069036692576,0.5528045378680163,0.35099028493918305,-0.0732201784504518,0.9341810868741732
1765409774.905124,-10.329725904752348,-2.1104266630132824,0.5025656316975611,0.354496344485942,-0.07140174555402204,0.9292914786509585
1765409774.905374,-10.249044534859067,-2.0690913883819477,0.4474405968080929,0.3578039260032407,-0.06971336434019204,0.9241631177261809
1765409774.905574,-10.162027928409728,-2.030140732523988,0.38992506625465473,0.3608256878025089,-0.06811971949030358,0.9187810440648926
1765409774.905824,-10.072531994331872,-1.9934484940305286,0.33265754818432924,0.3634766628579277,-0.06657852518739943,0.9131394424802455
1765409774.906074,-9.98440583314653,-1.9587165567592288,0.27828644619876186,0.3656789698444846,-0.06504370396909509,0.907243674965338
1765409774.906324,-9.901288514940028,-1.9255240006635912,0.22932052162205227,0.367366930171762,-0.06346888002025468,0.9011113599622333
1765409774.906617,-9.826407378736091,-1.89338685474292,0.18797149976999186,0.36849206311272364,-0.061810891389806624,0.8947723526056103
1765409774.906867,-9.762390008365841,-1.8618208428719174,0.15600080787839846,0.3690273987669718,-0.06003305359883348,0.8882676333047094
1765409774.907117,-9.711105532959461,-1.8304002788386493,0.13458541516447362,0.36897058947383904,-0.058107921199116876,0.8816472283825761
1765409774.907367,-9.673553010344587,-1.7988076855554305,0.12421903732300765,0.3683454090559497,-0.056019287315246996,0.874967359830871
1765409774.907577,-9.649812860091288,-1.7668700826950896,0.12466343416627071,0.36720138971275085,-0.05376317399302975,0.8682870738863455
1765409774.907827,-9.639070977279003,-1.7345797520828203,0.1349598065858548,0.36561153859022993,-0.05134764771940738,0.8616646404816422
1765409774.908077,-9.639715962355371,-1.7021000709064007,0.15350296348799708,0.3636682873689035,-0.048791451261363104,0.8551540301525682
1765409774.908327,-9.649500506534837,-1.6697596640331656,0.17817254124253473,0.36147804068803496,-0.04612162955569684,0.8488017371346972
1765409774.908616,-9.665750529955249,-1.6380388171492564,0.20650831134740608,0.3591548644360759,-0.04337048311162009,0.8426441309289419
1765409774.908866,-9.685601299887928,-1.6075500641826292,0.23591216634977877,0.3568139483298027,-0.04057226903129876,0.8367054290203195
1765409774.909116,-9.706238643068076,-1.579011716269652,0.26385792023898447,0.35456546401006656,-0.03776007524682207,0.8309963438323792
1765409774.909366,-9.72512491311611,-1.553211778124678,0.28809072010106945,0.35250932719938344,-0.034963219742755396,0.8255134726898496
1765409774.909582,-9.740192487190207,-1.5309615872674769,0.30679975022848816,0.3507311973181646,-0.03220539588535421,0.8202395169647425
1765409774.909832,-9.749991287788925,-1.5130417684092747,0.3187506725111759,0.3492998612500381,-0.02950364452027345,0.81514438033477
1765409774.910082,-9.753780775322266,-1.50014469229563,0.3233678719388224,0.34826598795291663,-0.026868123515994713,0.810187110403564
1765409774.910332,-9.751560990602027,-1.4928168735602951,0.3207608470390599,0.34766211528382274,-0.024302572598882015,0.8053185650534282
1765409774.910579,-9.744041523984745,-1.491403792788784,0.31169354838264707,0.3475036247284214,-0.021805324357931515,0.8004846383082195
1765409774.910829,-9.732551775703799,-1.49600056928495,0.29749988353176743,0.3477903648749645,-0.01937068654569765,0.7956298543358367
1765409774.911079,-9.71890046150812,-1.5064143583658522,0.27995291721053256,0.3485085234211741,-0.01699051766514133,0.7907011027570299
1765409774.911329,-9.705196571223903,-1.5221461180298874,0.2610992158996036,0.3496323643836639,-0.01465583226968189,0.7856512391234676
1765409774.911552,-9.693647363053401,-1.5423986277696748,0.24307291628053476,0.3511255645618726,-0.012358292080119796,0.7804422348632086
1765409774.911802,-9.686351082450766,-1.566114000363837,0.22790611487972617,0.3529420773742371,-0.010091458823984524,0.775047568889723
1765409774.912052,-9.685102545006245,-1.5920385332246665,0.21735255010153945,0.3550266689593804,-0.007851714338197814,0.7694536365270919
1765409774.912302,-9.691228233945374,-1.6188075743304655,0.21273971583478457,0.3573154497229884,-0.005638798490938027,0.7636600949373465
1765409774.912588,-9.705464390464654,-1.6450399463749406,0.21486085314914144,0.35973680837282945,-0.0034559605823635685,0.7576792074884395
1765409774.912838,-9.727887463339774,-1.6694309924075146,0.2239141368276913,0.3622131149323382,-0.0013097492357280432,0.7515343407403413
1765409774.913088,-9.757901849188967,-1.6908346424828824,0.23949296080433252,0.3646634074580137,0.0007905142033667516,0.7452578076170293
1765409774.913338,-9.794285195072414,-1.7083268547818937,0.26062814061635875,0.3670070594038019,0.0028335097787028523,0.7388882704476438
1765409774.913571,-9.83528653066311,-1.721245105853955,0.285878814975589,0.36916819642701154,0.00480684480099344,0.7324679342765226
1765409774.913821,-9.87876747968166,-1.7292017710020118,0.3134636327344025,0.3710804472239638,0.0066980182931582095,0.7260397628563915
1765409774.914071,-9.922372768737745,-1.7320730751673883,0.3414190128013517,0.3726915102581337,0.008495315665905938,0.7196449181782054
1765409774.914321,-9.96371421142741,-1.7299685882552156,0.36776874044699615,0.37396700054746396,0.010188555794286425,0.7133205560100431
1765409774.914579,-10.0005524764105,-1.7231877213468112,0.3906894277257097,0.3748930862400905,0.011769652526932862,0.707098024761705
1765409774.914829,-10.030962551635383,-1.712169008187039,0.40865844033274706,0.37547751813615293,0.013232980489217241,0.7010014477338745
1765409774.915079,-10.053470993067611,-1.6974360282230687,0.4205734514289864,0.3757488021879504,0.014575551244136536,0.6950466509320681
1765409774.915329,-10.067155371709184,-1.679542437539374,0.4258352118008593,0.375753471054742,0.015797026326472317,0.6892404347684458
1765409774.915544,-10.071698969021204,-1.659019058091549,0.42438757475857447,0.37555165535276536,0.01689961863184524,0.6835802416739065
1765409774.915794,-10.067396936613227,-1.6363277159018437,0.4167115656363576,0.375211393667244,0.017887944219912317,0.6780542889223982
1765409774.916044,-10.05511368619447,-1.6118272895954928,0.40377351579376786,0.3748023062125079,0.01876887247401375,0.6726421965392602
1765409774.916294,-10.03619509606747,-1.5857556866200664,0.38693126184068943,0.3743893515801605,0.019551395001664116,0.6673160768866666
1765409774.917505,-10.012343445164797,-1.558228037040785,0.3678071685716583,0.3740273601457475,0.020246509389245687,0.6620420129625103
1765409774.917755,-9.985467587101123,-1.529248594018923,0.34814125239475,0.37375689114335103,0.020867100481997004,0.6567818503478058
1765409774.918005,-9.957524400311463,-1.4987330686950036,0.32964020714319897,0.3736017369911263,0.02142779931361684,0.6514952356796374
1765409774.918255,-9.930368532058711,-1.466538750790093,0.3138378548158963,0.37356816067072446,0.021944805601772217,0.6461418165115244
1765409774.917555,-9.90562565531097,-1.4325001151824037,0.30198029450597297,0.37364574165801834,0.02243566905065938,0.6406834676563145
1765409774.917805,-9.884600510522072,-1.396466923886849,0.29494572212048364,0.37380953672435807,0.022919030846577593,0.6350863606648465
1765409774.918055,-9.868225384364843,-1.3583408732969575,0.2932043060525656,0.37402313645220553,0.02341432396723737,0.6293226851528512
1765409774.918305,-9.857048067534722,-1.3181067066511973,0.2968175647614585,0.3742421224704761,0.023941417401297294,0.6233718714510281
1765409774.918595,-9.851252476199486,-1.2758545111983746,0.30547104470815917,0.37441741786554195,0.024520169319789585,0.6172212331293752
1765409774.918845,-9.850701939391376,-1.2317910582125837,0.31853085663948205,0.37449808794329537,0.025169840985127354,0.6108660245549942
1765409774.919095,-9.85499503013862,-1.1862393342526873,0.33511414189735156,0.3744332905263279,0.025908336050595417,0.6043089811880151
1765409774.919345,-9.863525597954785,-1.1396270943898945,0.35416463681628263,0.3741732736562506,0.026751276470281794,0.5975594650903188
1765409774.919533,-9.87554111110041,-1.0924671289959418,0.3745263656037187,0.37366953663040625,0.027710985833776316,0.5906323586700177
1765409774.919783,-9.890195920878153,-1.0453330768965632,0.395010946677331,0.3728744600204174,0.028795489673095413,0.583546832066624
1765409774.920033,-9.906598174613793,-0.9988343188490982,0.4144564836733883,0.3717408245503138,0.030007649590361042,0.5763250710281935
1765409774.920283,-9.923850361196939,-0.9535920193123776,0.431777674231804,0.3702216516104471,0.0313445419866039,0.5689910216656094
1765409774.920566,-9.941083945914935,-0.9102167750295858,0.4460075395655451,0.36827071733611594,0.032797185374305794,0.5615692063708569
1765409774.920816,-9.957489039544486,-0.8692874617561197,0.45633182033589137,0.3658439444216546,0.034350703826673934,0.5540836871046055
1765409774.921066,-9.972341052093102,-0.831330986822228,0.4621179614664854,0.36290168911704673,0.035984978435823566,0.546557271946206
1765409774.921316,-9.98502706961746,-0.7968034094652745,0.4629410264533121,0.3594117459332586,0.03767578736144643,0.5390110490773211
1765409774.921538,-9.995073943108627,-0.7660735817202032,0.45860793321799576,0.3553527268062627,0.039396376821951,0.5314642790015437
1765409774.921788,-10.002177347643476,-0.7394104927099184,0.4491790323459397,0.35071736714367224,0.04111934553828666,0.5239346002317369
1765409774.922038,-10.006227468579088,-0.7169749499598909,0.43498321409641505,0.34551528261695513,0.04281866490893598,0.5164384412971686
1765409774.922288,-10.007324596524501,-0.6988157573963754,0.4166209087193928,0.33977474302940386,0.044471601675022454,0.5089915039606985
1765409774.92262,-10.005778351753609,-0.6848705418130207,0.3949496336449195,0.333543127069259,0.046060279130715406,0.5016091836231128
1765409774.92282,-10.002087308918934,-0.6749715218061025,0.37104900552103076,0.3268858575047376,0.04757263392349366,0.494306810008876
1765409774.92302,-9.996899815599797,-0.668856270604963,0.3461653005513344,0.3198837793434309,0.04900260804079261,0.4870996245008935
1765409774.92322,-9.990960207921974,-0.6661828269782865,0.32163888503823945,0.31262912407139004,0.05034954407061922,0.4800024678976767
1765409774.92342,-9.985046648086067,-0.6665478059071321,0.2988207608441088,0.3052203825155613,0.051616894409564865,0.47302922945925857
1765409774.923583,-9.979907259283323,-0.6695059365082316,0.27898638114531377,0.2977565561523342,0.052810475579970324,0.46619218105394244
1765409774.923833,-9.97620045770822,-0.6745899274524421,0.2632550767898795,0.2903313409063348,0.05393656975407314,0.4595013601714611
1765409774.924083,-9.974444256045585,-0.6813306725514275,0.25252216419950996,0.28302780499292696,0.055000187251574045,0.45296415585347016
1765409774.924333,-9.974978475660247,-0.6892789918999568,0.24740899635351907,0.2759140592228286,0.05600376196754521,0.44658519079267583
1765409774.924613,-9.977942902858697,-0.6980302063309781,0.24823425376688604,0.2690402975197298,0.05694646954468558,0.4403664934955698
1765409774.924863,-9.983272808392192,-0.7072510227240648,0.2550075344190597,0.26243742355452476,0.0578242495962444,0.4343078494702317
1765409774.925113,-9.990711147738264,-0.716705069855774,0.26744400787753847,0.2561173035456283,0.05863049459883776,0.42840715920964184
1765409774.925363,-9.999834995705353,-0.7262709024426354,0.28499708078277985,0.25007452606627384,0.05935726235122274,0.4226606467296552
1765409774.925604,-10.010092702102177,-0.7359461798065544,0.3069048911987636,0.24428942402322623,0.059996796686921094,0.41706284407560307
1765409774.925854,-10.020847799123377,-0.7458343530629291,0.33224590232608486,0.23873202576209854,0.06054310579829335,0.4116063807873986
1765409774.926104,-10.031425923937167,-0.7561143924330679,0.3599988915530378,0.23336655101217046,0.06099334767513694,0.406281689394682
1765409774.926354,-10.041161856667559,-0.7669980826136895,0.3891030972825966,0.22815604612003498,0.061348821688477495,0.4010767700856401
1765409774.92658,-10.049444337478878,-0.7786817495272366,0.4185145209023268,0.22306675126987985,0.0616154691399115,0.395977132993631
1765409774.92683,-10.055755825660244,-0.7912994330546504,0.447253981918002,0.21807180895469905,0.061803900833122066,0.3909659773672965
1765409774.92708,-10.059703614857938,-0.8048830263244808,0.4744425415957208,0.21315396862329938,0.06192903370576936,0.38602460990937915
1765409774.92733,-10.061039394833529,-0.819332814353046,0.4993217781793822,0.20830702986999478,0.062009419154921155,0.38113307280219183
1765409774.927577,-10.059666509340747,-0.8344000195310918,0.5212595495850085,0.20353589803095404,0.06206632693765311,0.3762709459993014
1765409774.927827,-10.055636107354147,-0.8496817766166948,0.5397441575523149,0.19885528350586057,0.06212264204806098,0.37141829412832245
1765409774.928077,-10.049134183382968,-0.8646283722511111,0.5543703737764812,0.1942872250797175,0.0622016247569896,0.36655672555535823
1765409774.928327,-10.04046184136907,-0.8785623250310802,0.5648206544157989,0.18985773146472978,0.062325566446577045,0.3616705076321529
1765409774.928616,-10.030011572504854,-0.8907086974829994,0.5708448565942325,0.1855929116786485,0.06251437232493645,0.35674764648436125
1765409774.928866,-10.018242620529028,-0.900235737641167,0.5722417682203839,0.18151500868868758,0.06278413654802877,0.35178081290270563
1765409774.929116,-10.005658482822728,-0.9063043445855734,0.56884583601759,0.17763875566340082,0.06314582144883779,0.34676799062919705
1765409774.929366,-9.992789355337267,-0.9081238016827681,0.560522480822051,0.17396843114955718,0.06360417226444531,0.34171273741900704
1765409774.929653,-9.980181384734912,-0.9050098581242192,0.5471741771982436,0.17049590077603072,0.06415698132853848,0.3366239777146623
1765409774.929903,-9.968392530619653,-0.8964400135640346,0.5287565107665488,0.1671998133692603,0.06479477317429781,0.3315152914268256
1765409774.930153,-9.957992585030498,-0.8821003699715785,0.5053003354769943,0.16404599162168187,0.0655009276439941,0.3264037298670812
1765409774.930403,-9.949563903524844,-0.8619190912823557,0.476934967384651,0.16098894226215843,0.06625220566243224,0.3213082658059016
1765409774.930595,-9.943699840902477,-0.8360832527799028,0.44390811977508876,0.15797431697330386,0.067019606528652,0.3162480433803003
1765409774.930845,-9.9409987356411,-0.8050379730037687,0.40659959438314935,0.1549420878927877,0.06776946714104842,0.3112406159809511
1765409774.931095,-9.942051966041186,-0.7694684088163287,0.36552665546028607,0.15183016673876693,0.06846469760630551,0.30630035053428456
1765409774.931345,-9.947425437565444,-0.730266236529767,0.32133959049611666,0.14857819147759796,0.0690660302487368,0.30143715059893356
1765409774.931576,-9.957635081331453,-0.6884831393899722,0.2748065792550113,0.14513121611101182,0.06953316105121575,0.2966556157196685
1765409774.931776,-9.973118131258198,-0.6452751034714416,0.22678785142601934,0.14144306145817084,0.0698257022838025,0.29195470585434596
1765409774.931976,-9.994202748638692,-0.6018426042583144,0.17820029451433012,0.13747912139963767,0.0699039300025347,0.2873279119158963
1765409774.932176,-10.021079134887627,-0.5593718536423504,0.1299751721276361,0.13321846918776756,0.06972937087553664,0.2827638553331861
1765409774.932376,-10.053775627776448,-0.5189805923955095,0.0830130465005487,0.12865516303690439,0.06926530979752973,0.27824718049467684
1765409774.932568,-10.092142967550576,-0.48166951992102974,0.03814064638662177,0.12379870027418828,0.06847730354376885,0.2737595940498715
1765409774.932818,-10.135848804848267,-0.44827920505330965,-0.003926133619044864,0.11867361114517885,0.06733375363238005,0.2692809412059486
1765409774.933068,-10.184383036138781,-0.4194530280733632,-0.042610500163219954,0.11331822029696026,0.06580654172896419,0.2647902533437722
1765409774.933318,-10.23707297430856,-0.3956084041071806,-0.07749389785592807,0.10778264446851694,0.06387170007343759,0.26026671922975897
1765409774.9336,-10.29310575594382,-0.37691952917607235,-0.10832776618732443,0.10212614292302521,0.06151009593213096,0.25569052452470836
1765409774.93385,-10.351554358253228,-0.36331423193383133,-0.13504058250775824,0.09641398611149957,0.05870812978515665,0.25104349797188696
1765409774.9341,-10.411404014894671,-0.35448555010296434,-0.15774174144159953,0.09071404825357986,0.05545844814777992,0.2463095216029315
1765409774.93435,-10.471577567497876,-0.3499164773181791,-0.17672140944578024,0.08509335477665037,0.05176065223502629,0.2414747091525528
1765409774.934607,-10.530960158736285,-0.34891501844498296,-0.19244355705128033,0.07961481946199907,0.04762196675242267,0.23652741193485782
1765409774.934807,-10.588424638232508,-0.3506566602606966,-0.20552907760190958,0.0743343829849798,0.04305782765345652,0.2314581452683778
1765409774.935007,-10.64285907436224,-0.35423203509549633,-0.21672713278613723,0.06929871967764205,0.03809233943456945,0.22625952135477057
1765409774.935207,-10.693197264979776,-0.3586978424683097,-0.22687482675737083,0.06454362798370303,0.032758534878813014,0.22092623125301333
1765409774.935407,-10.738452309169894,-0.36312846779919733,-0.23684720062647074,0.06009316987893132,0.027098358072596387,0.2154550669758263
1765409774.93556,-10.777752236084735,-0.3666647398618175,-0.24750086188185835,0.05595956897796592,0.02116229683144104,0.2098449441856866
1765409774.93581,-10.810375740990441,-0.3685559010052983,-0.2596153116399488,0.05214381179712435,0.015008606911238459,0.20409688536920007
1765409774.93606,-10.83578557906938,-0.36819159090684506,-0.2738365246726128,0.04863683394364192,0.008702093090202428,0.1982139396461973
1765409774.93631,-10.853656979353795,-0.3651220556863323,-0.2906276826578055,0.045421132467795194,0.0023124513765017765,0.19220103091615737
1765409774.936549,-10.863898283994812,-0.3590661291047111,-0.310231782318124,0.04247263580274414,-0.00408776474547396,0.18606473415721791
1765409774.936799,-10.866661041964127,-0.3499074072148187,-0.33264970256999327,0.03976267760413589,-0.010425432584595879,0.1798129857441651
1765409774.937049,-10.862337324439343,-0.3376796545022086,-0.3576354751026281,0.037259949336877506,-0.016629246577321784,0.17345474577030173
1765409774.937299,-10.851542955704092,-0.3225432262535083,-0.3847088721089275,0.03493233837320082,-0.022632038423874002,0.16699964876105355
1765409774.93756,-10.83508630561994,-0.3047552293414565,-0.41318444734376686,0.032748584326551304,-0.028372874912059757,0.1604576939576494
1765409774.93781,-10.813923340032131,-0.2846369355988857,-0.4422152449444577,0.0306797015398222,-0.03379879587648071,0.15383902685749248
1765409774.93806,-10.789101019526703,-0.2625422195100241,-0.4708479820473385,0.028700123696300997,-0.03886608696503846,0.14715384714907748
1765409774.93831,-10.761692530181087,-0.2388303315941525,-0.4980851418316718,0.02678853523700669,-0.04354102379159119,0.1404124495384931
1765409774.938534,-10.732728564048145,-0.21384522592111374,-0.5229488943764637,0.024928368339681668,-0.047800063857574474,0.1336253745505349
1765409774.938734,-10.703128979935496,-0.1879023206979603,-0.5445419999848835,0.023107963202341143,-0.05162950152429594,0.12680362934235992
1765409774.938934,-10.673639362247132,-0.16128247206828578,-0.5621011818314778,0.021320410056360286,-0.05502465039063197,0.11995893658779759
1765409774.939134,-10.644777416337801,-0.13423222766359671,-0.5750388210810988,0.019563110850572284,-0.05798866674156976,0.11310397326010113
1765409774.939334,-10.616794063331145,-0.10696881864749287,-0.5829697953406664,0.017837114663508676,-0.0605311496562016,0.10625256508350028
1765409774.939564,-10.589653091157563,-0.07968770567083526,-0.5857218974184706,0.01614628962161304,-0.06266664292598968,0.09941981164597015
1765409774.939814,-10.563031816175414,-0.052570252419045664,-0.5833298154470041,0.014496393486955507,-0.06441314341557973,0.09262213582432134
1765409774.940064,-10.536343913261845,-0.025789783558986656,-0.5760138110349919,0.012894101746174,-0.06579070181687882,0.08587727234122966
1765409774.940314,-10.508784084088111,0.00048437204223818165,-0.5641454063626441,0.011346053274094572,-0.06682017544908418,0.07920421988531492
1765409774.940602,-10.479392283242106,0.026084235278303596,-0.5482035859777773,0.009857974638443408,-0.06752215749110367,0.07262317208367448
1765409774.940852,-10.447133320431496,0.05084125547266629,-0.5287256446445747,0.008433934918992197,-0.06791608380541606,0.0661554243167065
1765409774.941102,-10.41098641069144,0.07458494744500495,-0.5062568170793096,0.0070757649815802485,-0.0680195238623189,0.05982324356385229
1765409774.941352,-10.370038576939782,0.09714214028730543,-0.4813027940024004,0.005782661345439222,-0.06784768257993067,0.053649694238092405
1765409774.941597,-10.323575400057393,0.11833653031085939,-0.45428924226596523,0.004550993973521063,-0.06741314872538787,0.04765842479448159
1765409774.941797,-10.271162593072727,0.13798775358490314,-0.42553187146723076,0.003374342621615217,-0.06672591611733546,0.04187342254686901
1765409774.941997,-10.21271252674849,0.155909202080964,-0.3952192040903164,0.0022437816346077225,-0.06579368700045841,0.0363187326462092
1765409774.942197,-10.148530915157442,0.1719044187759972,-0.3634087369318024,0.001148410800943571,-0.06462244820219548,0.031018122778639134
1765409774.942397,-10.079339863244313,0.18576275449587146,-0.3300363155410503,7.60976434554974e-05,-0.06321728785671007,0.025994671389701317
1765409774.942628,-10.00627431475689,0.19725567093369129,-0.29493802405443065,-0.000985632714889307,-0.061583394961312536,0.021270263889517676
1765409774.942878,-9.9308499597689,0.20613549901966285,-0.2578831720026781,-0.0020486407497648487,-0.05972716200088931,0.01686499073888997
1765409774.943128,-9.854902021247428,0.2121385650145318,-0.21861615584493926,-0.0031232307953697265,-0.0576572970326756,0.012796454222698778
1765409774.943378,-9.780495984070535,0.21499426038540237,-0.17690441627852826,-0.004217297448390259,-0.05538584566600118,0.00907901321402226
1765409774.943601,-9.709813402420215,0.21444078701792513,-0.13258915314250322,-0.00533562343347683,-0.05292902221102522,0.005723025573831426
1765409774.943801,-9.645018625394291,0.21024710655058512,-0.085634628889734,-0.006479385938943205,-0.050307752487362654,0.0027341750356854543
1765409774.944001,-9.588115346226777,0.20223933808625477,-0.036171269092532383,-0.00764592000807578,-0.04754784182208292,0.00011298305385981266
1765409774.944201,-9.540804600123572,0.19032863263892483,0.01547209232009108,-0.008828766799995688,-0.044679704171851846,-0.0021453983112480726
1765409774.944401,-9.504357567201458,0.17453647227741706,0.0687508449113453,-0.010017998052184403,-0.04173762401623613,-0.00405104226231191
1765409774.944586,-9.479516799603125,0.15501274549016061,0.12290546019482189,-0.011200767324798704,-0.038758571687467026,-0.005618733856468405
1765409774.944836,-9.466437736519909,0.1320424813027804,0.1769828023525094,-0.01236201197097157,-0.035780650898689335,-0.00686714197663101
1765409774.945086,-9.464678297034977,0.10603910026393844,0.22987791249293238,-0.013485224370214757,-0.03284131418034152,-0.007817799157036166
1765409774.945336,-9.473238567862762,0.07752491379033581,0.2803935325581477,-0.014553218906863973,-0.029975521841158818,-0.008494045552458746
1765409774.945595,-9.490646527460868,0.04710222560093788,0.32731260705417997,-0.01554883477279019,-0.027214028638809035,-0.008920083232692014
1765409774.945795,-9.515080586389413,0.015419816871215143,0.3694780493901404,-0.01645553430447528,-0.02458196125107716,-0.009120243918027736
1765409774.945995,-9.544515988808296,-0.016860390681421998,0.405873409571848,-0.017257881705738373,-0.022097815779273236,-0.009118515467014806
1765409774.946195,-9.576879932506362,-0.04909272859910798,0.43569723946128097,-0.01794191052430521,-0.019772966940412605,-0.008938316077175597
1765409774.946395,-9.610199803540372,-0.08067095563530934,0.45842344703708154,-0.01849540294325898,-0.01761173208779408,-0.008602461958692716
1765409774.94657,-9.64273048521321,-0.11104437085417525,0.47384066641877454,-0.018908108262073835,-0.015611971324653043,-0.008133249961245334
1765409774.94682,-9.673050325927992,-0.13972711858114586,0.48206603434733286,-0.019171924099017187,-0.013766142947982831,-0.007552570829325068
1765409774.94707,-9.700120334439056,-0.1663016410962396,0.4835322778378281,-0.019281055389008744,-0.012062684358884388,-0.006881978074961039
1765409774.94732,-9.723306201910574,-0.19041762002522822,0.4789506252169317,-0.019232158158654308,-0.010487556479321574,-0.006142659102976866
1765409774.947588,-9.742366711893323,-0.2117879056941967,0.4692547758525823,-0.01902447116049851,-0.009025778999556151,-0.005355285109087835
1765409774.947788,-9.757414646823737,-0.23018297096296295,0.4555325842659302,-0.018659936583151224,-0.0076628007925977504,-0.004539746256319765
1765409774.947988,-9.768857626973027,-0.24542540917684544,0.43895237198109477,-0.0181433051036013,-0.006385591860052923,-0.0037148010270631965
1765409774.948188,-9.777326648398978,-0.257385827962869,0.4206902518552896,-0.017482209323026503,-0.005183397123399971,-0.0028976819889846707
1765409774.948388,-9.783599544501968,-0.2659809844628227,0.401863819629393,-0.016687179601441723,-0.004048146400401462,-0.0021037063234123667
1765409774.948618,-9.788525392074055,-0.27117419723698233,0.38347616102839516,-0.01577157386696235,-0.002974562156902968,-0.0013459378642921996
1765409774.948818,-9.792954398292931,-0.27297731175771367,0.366372518849484,-0.014751398493432698,-0.0019600379851341257,-0.0006349374517340929
1765409774.949018,-9.797676453183058,-0.2714531351348306,0.3512105406921601,-0.013645008298526077,-0.0010043668944088196,2.1375919830941014e-05
1765409774.949218,-9.80337058284388,-0.26671730264455945,0.3384441342015922,-0.01247268826906479,-0.00010938227069294511,0.0006177431452578794
1765409774.949418,-9.810566994661466,-0.2589387836119397,0.32832053818952844,-0.011256135019800722,0.0007214488870606218,0.0011514606660175627
1765409774.949638,-9.819622961367394,-0.24833855152103776,0.3208898123110301,-0.01001786819921731,0.0014834573813415483,0.001622159275622148
1765409774.949838,-9.830713070938273,-0.23518631649473654,0.3160252120015527,-0.008780608394492562,0.0021712109607617473,0.002031479087479919
1765409774.950038,-9.843833347314842,-0.21979552542222225,0.31345209491182424,-0.007566657358842285,0.002778943722716163,0.0023826587798031784
1765409774.950238,-9.858817777861994,-0.20251684936276945,0.31278264403209183,-0.006397308279085304,0.0033009575317152953,0.0026800582585865306
1765409774.950438,-9.87536511804806,-0.18373007665969293,0.3135538860506584,-0.005292301983108026,0.003731981948531336,0.0029286362145169277
1765409774.950612,-9.893073323334349,-0.16383404706089466,0.31526674172635005,-0.0042693375230651795,0.004067489752715778,0.00313341466559664
1765409774.950812,-9.9114783706471,-0.14323439913119906,0.3174237947160623,-0.0033436475524837497,0.004303973897390508,0.0032989784500496396
1765409774.951012,-9.930093766683262,-0.12232952783268526,0.3195633523761001,-0.002527656309533367,0.004439188606621902,0.003429065604464477
1765409774.951212,-9.948447100546916,-0.10149591485779294,0.32128765304928647,-0.0018307418612932226,0.004472342432865841,0.0035262953610834475
1765409774.951412,-9.966110652174486,-0.0810744277198082,0.32228376924241126,-0.001259119938713496,0.004404219013578086,0.0035920585916914085
1765409774.951554,-9.982723994945957,-0.0613590734709597,0.3223365086374806,-0.0008158570283656238,0.0042372061378035415,0.0036265724136337733
1765409774.951754,-9.998007495937973,-0.04258925247267795,0.3213332409730479,-0.0005010102352548262,0.003975231713278101,0.0036290828615332393
1765409774.951954,-10.011766676345577,-0.024946164082880758,0.319261206004389,-0.00031188201700920636,0.003623619932452135,0.003598185809670444
1765409774.952154,-10.023888520531779,-0.008553763633682366,0.31619851255998066,-0.0002433680576268232,0.0031888851718467758,0.0035322230807840033
1765409774.952354,-10.034331644481082,0.006515706101340767,0.31230043061799073,-0.0002883674701314317,0.0026784828509557558,0.0034296981971655635
1765409774.95255,-10.043112427474341,0.020232283385855587,0.30778249278677317,-0.00043822007352075905,0.002100541881897639,0.0032896518375312303
1765409774.95275,-10.050288950772444,0.0325964163388464,0.30290160528077936,-0.000683137907183785,0.0014636065370641827,0.0031119492536598775
1765409774.95295,-10.055944320565914,0.043626506195149864,0.29793623090341737,-0.0010126054437795873,0.0007764102543311942,0.0028974583332752432
1765409774.95315,-10.060170829933114,0.0533474916436012,0.2931667665901157,-0.001415731129137032,4.769428039254801e-05,0.0026481227537100906
1765409774.95335,-10.063056252935985,0.06178150479426958,0.28885720908572887,-0.0018815391185361015,-0.0007139239356657391,0.0023669462553971717
1765409774.953557,-10.064673279906723,0.06894113321719353,0.2852390419159303,-0.0023991941063774675,-0.0015000350172346153,0.0020579017781295387
1765409774.953757,-10.065072821216724,0.07482565807516339,0.2824982043574386,-0.002958155606795526,-0.002302483721280534,0.0017257741472913478
1765409774.953957,-10.06428162869064,0.07942061535326027,0.28076597304964257,-0.0035482628111159157,-0.0031133864245019645,0.0013759473015854038
1765409774.954157,-10.062304230784264,0.08270077872642535,0.2801142715672252,-0.004159758220742881,-0.003925123845668403,0.0010141576873679118
1765409774.954357,-10.059128568885004,0.08463606540280705,0.2805553111295172,-0.004783267496442046,-0.004730309644706025,0.0006462463032055664
1765409774.954583,-10.054734260430035,0.08519920510044121,0.2820449653103432,-0.0054097618937116055,-0.005521739877212567,0.0002779427099529422
1765409774.954783,-10.049102272537766,0.08437370967059071,0.28448912469961213,-0.006030533440638884,-0.00629233469732013,-8.529843202302484e-05
1765409774.954983,-10.042224837703301,0.08216088175393833,0.2877522896134144,-0.006637208522900989,-0.007035087169932504,-0.00043840727428089615
1765409774.955183,-10.034114582852647,0.07858507379985581,0.2916676911174293,-0.0072218145316634156,-0.007743036052616138,-0.0007767687189213548
1765409774.955383,-10.024812141939252,0.07369683375250483,0.296048343922266,-0.007776901104054625,-0.00840928055744521,-0.0010962688892796574
1765409774.955677,-10.01439190519377,0.06757383099904546,0.3006985923010106,-0.008295705606050401,-0.009027051096104875,-0.0013933284959762625
1765409774.955877,-10.00296576389095,0.06031962957398618,0.30542573049417393,-0.008772343219613251,-0.009589839455311071,-0.001664925426522136
1765409774.956077,-9.99068468637796,0.05206058032826635,0.31005116274032196,-0.00920199511821505,-0.010091581633345333,-0.0019086038764982315
1765409774.956277,-9.97773794955068,0.04294134717156281,0.3144205093766495,-0.009581063790725855,-0.010526882887503237,-0.0021224662814053334
1765409774.956477,-9.964349978837168,0.0331197383607579,0.3184121225291244,-0.009907265675569033,-0.010891273592871663,-0.0023051461454699387
1765409774.95658,-9.95077488298014,0.022761446816087997,0.3219435242186471,-0.010179642298161118,-0.011181479591938267,-0.0024557633609882997
1765409774.95678,-9.937288806412774,0.012035058846867628,0.324975266848799,-0.010398490368460075,-0.011395682806646249,-0.002573868078196389
1765409774.95698,-9.92418024484075,0.0011074761807129065,0.32751171964955367,-0.010565229034328367,-0.011533741886195398,-0.0026593837148964224
1765409774.95718,-9.911738573629577,-0.009860174301204762,0.32959839648983363,-0.01068223002236203,-0.011597340339276773,-0.0027125618057291284
1765409774.95738,-9.900241247733758,-0.020716079574522678,0.33131573735237413,-0.01075263365489716,-0.011590032469110573,-0.0027339587098181503
1765409774.957581,-9.88994044353927,-0.03132070348620544,0.33276975712836776,-0.010780165831203113,-0.01151716829616165,-0.002724437809517184
1765409774.957781,-9.881050224561324,-0.04154917267475368,0.33408050566013664,-0.010768962439113874,-0.011385695057982068,-0.0026851942946937786
1765409774.957981,-9.873735412363196,-0.05129303227413086,0.3353695649538827,-0.01072340109170628,-0.011203846868596098,-0.002617795021489321
1765409774.958181,-9.868103161696467,-0.0604612235222812,0.3367477994587475,-0.0106479370979642,-0.010980742071848433,-0.0025242231627102592
1765409774.958381,-9.86419796917919,-0.0689800749702897,0.3383044794026726,-0.01054694116997709,-0.010725913755023861,-0.002406915997491028
1765409774.9586,-9.86200064413713,-0.0767921227225714,0.34009878866468607,-0.010424539588931945,-0.010448806486103052,-0.002268783823443712
1765409774.9588,-9.86143151718957,-0.08385370868711531,0.342154454549121,-0.010284462445456199,-0.010158279814603663,-0.0021131979835274056
1765409774.959,-9.86235771930937,-0.09013154415896905,0.34445779674700105,-0.010129911539490727,-0.009862163073107567,-0.00194393714409419
1765409774.9592,-9.864603871279055,-0.09559868447826106,0.34695914318008897,-0.009963465763573626,-0.00956690520416641,-0.0017650861012260602
1765409774.9594,-9.867965182989634,-0.10023050162846622,0.34957738118862114,-0.009787045479098895,-0.009277356530805426,-0.0015808915775149762
1765409774.959592,-9.872221733679192,-0.10400121302764469,0.3522071582653445,-0.00960195389743791,-0.008996704900502627,-0.0013955900932114769
1765409774.959792,-9.877152491221176,-0.10688142119396289,0.35472783640089933,-0.009409001199669486,-0.008726568064628936,-0.001213227240580459
1765409774.959992,-9.882547572632705,-0.10883704139362448,0.35701305109414444,-0.009208700974731929,-0.008467223168285956,-0.0010374840780886841
1765409774.960192,-9.888217543532106,-0.10982990262593656,0.3589398446441388,-0.009001515725512731,-0.008217937823094374,-0.0008715200197679742
1765409774.960392,-9.893999122319858,-0.10982011145026183,0.36039663617108036,-0.008788121438037684,-0.007977357807880335,-0.0007178375700295014
1765409774.960681,-9.899757257613294,-0.10877001186564268,0.36128954896062854,-0.008569658365255462,-0.007743905869635648,-0.0005781730451487908
1765409774.960881,-9.905384074526674,-0.10664939031294743,0.3615469133359664,-0.008347934257906532,-0.00751615416731895,-0.0004534181213274957
1765409774.961081,-9.910795591239724,-0.10344148505422207,0.3611221177302231,-0.008125548768354444,-0.007293144354921755,-0.0003435802399379553
1765409774.961281,-9.915927247490322,-0.09914926304514517,0.35999513159519675,-0.007905916741514845,-0.00707463782262513,-0.00024779488953268625
1765409774.961481,-9.920729093278513,-0.09380128726419946,0.35817283576680503,-0.0076931838801560315,-0.006861282893131717,-0.00016440520184313426
1765409774.961594,-9.925161165027863,-0.08745641323018924,0.3556880405748865,-0.007492045919433085,-0.006654688710977673,-9.111934100799767e-05
1765409774.961794,-9.929189382504564,-0.08020663084191726,0.3525970579606905,-0.007307494743843166,-0.0064573998362124265,-2.524372360340068e-05
1765409774.961994,-9.932782241945029,-0.0721775935060521,0.3489759086777595,-0.007144518787104352,-0.006272771850730139,3.60246983910081e-05
1765409774.962194,-9.935908539282869,-0.0635266445132765,0.34491552844286016,-0.007007784237984608,-0.006104756123223613,9.527545910142915e-05
1765409774.962394,-9.93853631739367,-0.0544383728561933,0.34051659220526426,-0.0069013229869467965,-0.005957610386375562,0.00015456587460717578
1765409774.962679,-9.940633191982117,-0.045117916728823676,0.335884676919667,-0.0068282529815858,-0.005835559765166071,0.00021514407599295969
1765409774.962879,-9.942168062429534,-0.035782453319651936,0.33112629162780405,-0.0067905534855245845,-0.005742439282622839,0.00027724941003046485
1765409774.963079,-9.94311394930442,-0.02665157042059513,0.32634593765406006,-0.00678891091693963,-0.005681352896672006,0.0003400181257597846
1765409774.963279,-9.943451528801113,-0.01793739313920931,0.3216441356040918,-0.006822643394106735,-0.00565438380129111,0.00040150912191970234
1765409774.963479,-9.943172958421783,-0.009835335175789012,0.3171163416583153,-0.006889706556636584,-0.005662383102484538,0.00045884918996870645
1765409774.963556,-9.942285626326097,-0.0025161987106137465,0.3128526500740528,-0.006986779703192738,-0.00570484973656588,0.000508482736106582
1765409774.963756,-9.940815373021298,0.003879839420149009,0.30893802890361727,-0.007109428190465114,-0.005779899977750096,0.0005464985028572225
1765409774.963956,-9.938808653898503,0.00924703335738648,0.3054526770051037,-0.007252333643299583,-0.005884316348979434,0.0005689957731243437
1765409774.964156,-9.936333177815312,0.013515618822220547,0.30247202710159377,-0.007409577003438534,-0.00601366374498334,0.0005724470555135233
1765409774.964356,-9.933476746060379,0.01665133088035543,0.30006598422191144,-0.007574952325999753,-0.006162462359835194,0.0005540166370495203
1765409774.964695,-9.930344260828637,0.018653259249164892,0.29829720601511345,-0.007742284739291934,-0.006324410764755808,0.0005118049100101181
1765409774.964895,-9.927053124846632,0.019550414721757683,0.2972185167240929,-0.007905725950189974,-0.006492655657275598,0.0004450025499464618
1765409774.965095,-9.923727416622702,0.01939731114784004,0.2968696980764872,-0.008060004932660398,-0.006660103346014849,0.00035395154205245877
1765409774.965295,-9.920491257822052,0.018268820267960957,0.29727387326588345,-0.008200619125025087,-0.006819761937655485,0.00024011993704034442
1765409774.965495,-9.91746182555428,0.016254600101770822,0.29843371288937415,-0.00832396077618951,-0.006965098111997435,0.0001060038357317244
1765409774.96553,-9.914742612558056,0.013453518549048606,0.30032789870106485,-0.008427381535329794,-0.007090391648752279,-4.5026947964341694e-05
1765409774.96573,-9.912417675195524,0.009968579759129249,0.3029085230261029,-0.008509203964675843,-0.00719107069795133,-0.0002089231994862746
1765409774.96593,-9.910547547897833,0.005902805087466012,0.3061001276426475,-0.008568689825242476,-0.007264006757183323,-0.00038117490076817703
1765409774.96613,-9.909167248563207,0.001356330660659801,0.30980084855834605,-0.00860597188280553,-0.007307741951864791,-0.0005570373574970179
1765409774.96633,-9.908286477312728,-0.0035752514577476508,0.3138857510014723,-0.008621952037524824,-0.007322617084001139,-0.0007317463569331076
1765409774.966709,-9.90789181578813,-0.008801477757825334,0.318212061075532,-0.008618167742484382,-0.0073107703684596285,-0.0009007053468217774
1765409774.966909,-9.907950547250524,-0.014236792856841948,0.3226257929162921,-0.00859663151659098,-0.007275986581888729,-0.001059634496386977
1765409774.967109,-9.908415680922575,-0.019799776951102237,0.3269693140352882,-0.008559653026334262,-0.007223395561379624,-0.0012046809679409052
1765409774.967309,-9.909231767743085,-0.02541199259862835,0.33108952714966144,-0.008509658527004534,-0.007159042900834233,-0.0013324967106436358
1765409774.967509,-9.91034099218125,-0.030996578110229,0.3348463314751704,-0.008449027658862398,-0.007089375979844003,-0.0014402920191397886
1765409774.967602,-9.911688886319366,-0.0364767624142573,0.33812085323350216,-0.008379969842527793,-0.007020699871125817,-0.0015258714935237072
1765409774.967802,-9.913229046374239,-0.041774572401469784,0.3408227867331377,-0.008304457649562207,-0.006958658885023055,-0.0015876570988100857
1765409774.968002,-9.91492645563709,-0.046810064082262424,0.3428961449238434,-0.008224222160862193,-0.006907791290883853,-0.0016247023840564383
1765409774.968202,-9.916759250896451,-0.051501386082925656,0.34432275985533517,-0.008140801258744168,-0.0068711922628125754,-0.0016367018892707687
1765409774.968402,-9.918718928255704,-0.05576587610721191,0.34512305284320316,-0.008055622597879777,-0.0068503105844174485,-0.0016239987036440503
1765409774.968658,-9.920809122404483,-0.059522211619532715,0.3453539363769007,-0.007970099769873373,-0.0068448978742906815,-0.0015875897290212424
1765409774.968908,-9.923043194033024,-0.06269342840585473,0.3451040485067889,-0.007885720301787006,-0.006853117305886395,-0.0015291228914731385
1765409774.969158,-9.925440868765937,-0.06521047742314104,0.34448671090427907,-0.0078041065674620295,-0.0068717992689847724,-0.0014508762409650635
1765409774.969408,-9.928024171145893,-0.06701597843546414,0.3436311247431752,-0.007727035811493697,-0.006896811435532957,-0.0013557087887767693
1765409774.969652,-9.930812971803348,-0.06806789562797451,0.34267243908125405,-0.007656412126908824,-0.006923498467500602,-0.0012469776862809642
1765409774.969852,-9.933820488970701,-0.06834288982465421,0.3417413191709389,-0.007594189831780232,-0.006947144087218312,-0.001128423448603476
1765409774.970052,-9.937048955081456,-0.06783906106658717,0.34095351260697443,-0.00754225460658314,-0.006963413711710188,-0.0010040302785780636
1765409774.970252,-9.940485594247503,-0.06657776059332182,0.3403999719760486,-0.007502275977532974,-0.0069687468351450005,-0.000877869607165128
1765409774.970452,-9.94409929871467,-0.06460420382903391,0.3401384925469319,-0.007475549353366809,-0.006960679387484464,-0.0007539334390394034
1765409774.970704,-9.94783873835604,-0.06198675454119146,0.3401881712066578,-0.007462845800405527,-0.006938080457154874,-0.0006359640864842976
1765409774.970904,-9.951632649204196,-0.0588148980415697,0.3405278057964039,-0.00746428617892826,-0.006901285056633672,-0.0005272899931719556
1765409774.971104,-9.955392653614737,-0.05519599860780625,0.3410986949295055,-0.007479257360210842,-0.006852104323539024,-0.000430681233570279
1765409774.971304,-9.959018483793859,-0.05125093500572292,0.3418116135742409,-0.007506390432822686,-0.0067937039583261605,-0.00034823948820510164
1765409774.971504,-9.962405087725026,-0.04710870762594755,0.3425572124185576,-0.007543618036438947,-0.006730357348104015,-0.0002813340517831454
1765409774.971596,-9.965450679283625,-0.04290021191089345,0.343218585194388,-0.007588317289964302,-0.006667094739384084,-0.00023058893363982254
1765409774.971796,-9.968064380842028,-0.03875158327382486,0.34368432971536655,-0.0076375296585628125,-0.006609282086256948,-0.00019592046791703938
1765409774.971996,-9.97017199713989,-0.03477771517475859,0.34386039000026153,-0.007688234986091848,-0.006562171877258289,-0.00017662347998996855
1765409774.972196,-9.971718779468175,-0.031076595433323848,0.3436793301799623,-0.007737646680142677,-0.0065304689661737254,-0.00017150499643857876
1765409774.972396,-9.972668560301432,-0.02772498249798728,0.3431061597170154,-0.007783489687791624,-0.00651794576402473,-0.00017906149343302697
1765409774.972621,-9.972999176535502,-0.024775750249505128,0.34214026075093146,-0.007824223700324172,-0.006527129190540105,-0.00019768551504632353
1765409774.972821,-9.972694716367835,-0.02225704962552936,0.34081345160755905,-0.007859181896289747,-0.006559072373369628,-0.000225874979795483
1765409774.973021,-9.971735821081051,-0.020173279986575105,0.33918475255234454,-0.007888609541996766,-0.00661321568432021,-0.0002624128387464393
1765409774.973221,-9.970089837201302,-0.018507715527581254,0.3373328873363164,-0.007913603755244452,-0.006687331828894802,-0.0003064910516314195
1765409774.973421,-9.967702873765473,-0.017226487557691104,0.33534791586666757,-0.007935971153801258,-0.00677754239224787,-0.00035776778218477
1765409774.973585,-9.964495748245927,-0.01628350732277671,0.33332357107345967,-0.007958030007211797,-0.006878392919445552,-0.0004163616807059268
1765409774.973785,-9.960365366874727,-0.015625881995942257,0.33135165666437244,-0.007982386297428428,-0.006982976890617563,-0.00048279500677315664
1765409774.973985,-9.955192258714373,-0.015199458477959027,0.32951919426193294,-0.008011709323647483,-0.007083099892172634,-0.0005578973927377306
1765409774.974185,-9.948853949271957,-0.014954255494739726,0.32790817619110557,-0.008048524019198196,-0.0071694745789937986,-0.0006426789985668172
1765409774.974385,-9.941242925832437,-0.014849587877987958,0.3265971512072549,-0.008095027479062456,-0.007231939739083326,-0.0007381805521461596
1765409774.974613,-9.932287277493904,-0.014858609664050173,0.3256635812208619,-0.008152930575220114,-0.007259704082523162,-0.0008453097037571095
1765409774.974813,-9.921971667282834,-0.014971892758990664,0.32518587613860533,-0.008223323505126522,-0.00724162324925232,-0.0009646766452634546
1765409774.975013,-9.910356083170804,-0.015199620734181123,0.32524412430002553,-0.008306564715447672,-0.007166522865053066,-0.0010964441069856515
1765409774.975213,-9.897589874228663,-0.015572056513730554,0.32591875866570336,-0.008402194365297936,-0.007023580561175164,-0.0012402052843811131
1765409774.975413,-9.883918957360327,-0.01613811565089031,0.32728676644242993,-0.008508876702585242,-0.006802776790338526,-0.00139489844390425
1765409774.975517,-9.869684704511867,-0.01696206067126035,0.32941552594971074,-0.00862437953219916,-0.006495417622483423,-0.0015587621176181502
1765409774.975717,-9.855313711875594,-0.01811845389398019,0.3323548019491274,-0.008745601261323786,-0.006094720847812921,-0.001729332809911822
1765409774.975917,-9.841298298394824,-0.019685594017165995,0.33612773022390463,-0.008868656422727033,-0.005596439912759897,-0.0019034880002532727
1765409774.976117,-9.828168242552552,-0.02173777573919812,0.3407217487390142,-0.008989029010746335,-0.004999481510289785,-0.0020775383707642738
1765409774.976317,-9.816455087759106,-0.024336825407463347,0.3460804409409006,-0.009101797488247817,-0.004306455855029223,-0.002247372074321039
1765409774.976557,-9.806651404798671,-0.027523431892200165,0.3520972665631697,-0.009201925340223932,-0.003524087272562152,-0.002408649425759585
1765409774.976757,-9.799168664648596,-0.03130884632805713,0.35861226188646006,-0.009284599372073881,-0.0026634101358649614,-0.0025570377937870923
1765409774.976957,-9.79429867511914,-0.03566764360283694,0.36541294116264467,-0.00934558686030983,-0.001739683856057056,-0.0026884630724730734
1765409774.977157,-9.79218439771832,-0.04053249176522736,0.37224064921996247,-0.009381572284945737,-0.000771980930357716,-0.0027993396968904872
1765409774.977357,-9.792805579301817,-0.04579221511991883,0.3788032125094588,-0.009390427523659163,0.00021756604908199396,-0.0028867363674049806
1765409774.977605,-9.795982406097412,-0.05129445902324827,0.3847935203784169,-0.009371372734530401,0.0012048275837395104,-0.002948449782944837
1765409774.977805,-9.80139677091712,-0.05685343891515676,0.38991175724681665,-0.009325001613464126,0.002164965351775266,-0.002982990891607614
1765409774.978005,-9.808627273220848,-0.062261727591829484,0.39388764469651893,-0.009253168737332278,0.003073815515088104,-0.0029895186019038766
1765409774.978205,-9.817192157629659,-0.06730380396531628,0.3964995731130722,-0.009158760495339298,0.003909231653860537,-0.0029677648129504846
1765409774.978405,-9.826594167928196,-0.07176911209106991,0.3975893748306242,-0.009045390925715718,0.004652288412384794,-0.0029179802228681342
1765409774.978578,-9.83636188677029,-0.07546367545820307,0.3970726021350693,-0.008917075807516186,0.005288290801299332,-0.002840910598953371
1765409774.978828,-9.846083024498038,-0.07822081250738418,0.3949436518241463,-0.008777934792493091,0.005807548130233726,-0.00273780733614117
1765409774.979078,-9.855426666056323,-0.0799118002483331,0.39127459718874913,-0.008631950564296244,0.0062058624394510115,-0.002610483931106239
1765409774.979328,-9.864153878742044,-0.08045608537783479,0.3862078365034018,-0.008482790950026922,0.006484684360852235,-0.002461429722219069
1765409774.979524,-9.872118425173875,-0.0798291920867663,0.37994467552687217,-0.008333692577834537,0.006650916976301444,-0.002293964538341698
1765409774.979724,-9.87926039348044,-0.07806646781960079,0.3727324656575302,-0.008187410508763402,0.006716380948385292,-0.0021123743561792894
1765409774.979924,-9.885595216489444,-0.07526221104476988,0.3648515820099691,-0.00804623798429024,0.006696977428922804,-0.001921947961665307
1765409774.980124,-9.891199746159494,-0.07156492829604233,0.3566021151138905,-0.007912085300319675,0.006611604916648733,-0.0017288639674574793
1765409774.980324,-9.896196556807165,-0.06716936406490275,0.3482899104907071,-0.0077865889897728875,0.006480906990293395,-0.0015399356830089286
1765409774.980527,-9.900737479515556,-0.062305207538802615,0.3402120820913906,-0.007671217697399612,0.006325942027378475,-0.0013622598882770693
1765409774.980727,-9.904987311527174,-0.05722240648444524,0.33264260148208374,-0.0075673515741062035,0.00616686794809218,-0.0012028117883647006
1765409774.980927,-9.90910871140543,-0.05217416534447939,0.325818947344485,-0.007476327862683599,0.006021729349657401,-0.001068007022254581
1765409774.981127,-9.913249405878483,-0.047399953305490045,0.3199310546690976,-0.007399456375150736,0.005905426773104283,-0.0009632487772372721
1765409774.981327,-9.91753266381411,-0.04311099763662894,0.31511360653845555,-0.007338011544626091,0.005828937064087455,-0.0008924988070651978
1765409774.98153,-9.922051410854952,-0.03947958690666384,0.31144209152801716,-0.007293205629221459,0.005798836546435088,-0.0008579306422835405
1765409774.98173,-9.926865697666724,-0.03663198440142769,0.30893250879528356,-0.007266145605987388,0.005817154992036504,-0.0008597184214204295
1765409774.98193,-9.932002872066638,-0.03464405209754475,0.3075444186004798,-0.007257777692762857,0.005881558660870612,-0.0008959858540228943
1765409774.98213,-9.937459790939451,-0.033539175407915504,0.30718700394735754,-0.007268826720375937,0.005985826406805286,-0.0009629072312959079
1765409774.98233,-9.94320656573987,-0.03328897280514621,0.3077276954154259,-0.007299737898395489,0.006120552474745608,-0.0010549368269072666
1765409774.982554,-9.949191462441856,-0.033817486501017714,0.3090027411250354,-0.007350624216421339,0.006273994582826827,-0.0011651474757151707
1765409774.982754,-9.9553465562455,-0.035008770916755076,0.3108289907054211,-0.007421217707212088,0.006432987446382525,-0.001285667871205743
1765409774.982954,-9.961593630833141,-0.03671669932143328,0.3130161095429427,-0.0075108211357937625,0.006583850738105892,-0.0014082020328054846
1765409774.983154,-9.967849771653501,-0.03877539212142025,0.3153783812228157,-0.007618258365865095,0.00671323018331059,-0.0015245892905935113
1765409774.983354,-9.974032206023892,-0.04100934350749035,0.3177452125864129,-0.007741824788242778,0.006808823069939786,-0.0016273367556243275
1765409774.983513,-9.980062142482764,-0.043243441582884096,0.3199695465207877,-0.007879242406385035,0.006859956498585016,-0.0017100549196458997
1765409774.983713,-9.985867579317459,-0.045313486561537095,0.3219336626731821,-0.008027626505183775,0.006858003381124067,-0.001767760090493334
1765409774.983913,-9.991385207155021,-0.0470770587174618,0.3235522135495841,-0.008183472874411945,0.006796632572785212,-0.001797053593506105
1765409774.984113,-9.996561566204972,-0.048423422808516844,0.3247726829295127,-0.00834267845142566,0.006671897433447287,-0.0017962120410398975
1765409774.984313,-10.001353563958357,-0.04928069692899056,0.32557369096450767,-0.008500612932617828,0.0064821769267865625,-0.001765211489442584
1765409774.984572,-10.00572840542326,-0.04961911999916919,0.3259616617204756,-0.008652258054620056,0.006227996051650892,-0.0017056820126928472
1765409774.984772,-10.009663003631626,-0.04945034146824361,0.32596634074909653,-0.008792419732111749,0.0059117627091267635,-0.0016207786294259818
1765409774.984972,-10.013143031646798,-0.0488234229797856,0.32563561447761485,-0.00891599923598554,0.005537460733981834,-0.0015149665100667093
1765409774.985172,-10.016161872379595,-0.047818383393356506,0.3250300997983233,-0.009018293226565707,0.0051103338615779235,-0.0013937354691770376
1765409774.985372,-10.01871967377346,-0.046537951564901904,0.324217953731315,-0.009095287247253076,0.004636585827002915,-0.0012632646179061102
1765409774.985558,-10.02082248328658,-0.045098157437381596,0.32327020883532126,-0.009143912969850556,0.00412310958006515,-0.0011300541396926911
1765409774.985758,-10.022481201928803,-0.043618552772954004,0.32225674379527475,-0.009162248940063343,0.003577247063636214,-0.0010005387797384193
1765409774.985958,-10.02371008457757,-0.04221295327039532,0.32124290493151036,-0.009149652255975773,0.00300657481057329,-0.0008807025308393632
1765409774.986158,-10.024524736480815,-0.040981478553152775,0.32028684502192983,-0.009106814187659977,0.002418709158432983,-0.0007757222039553191
1765409774.986358,-10.024939856427126,-0.040004414267961454,0.3194377236374861,-0.009035737285507286,0.0018211225985153357,-0.0006896717068253134
1765409774.986538,-10.024967165974298,-0.03933815821328397,0.3187348602290641,-0.008939635145641483,0.0012209590022265807,-0.0006253143733836869
1765409774.986738,-10.024613932977767,-0.03901328940315958,0.31820772813489184,-0.00882275960824318,0.0006248367449360542,-0.0005839984365884045
1765409774.986938,-10.023882314946361,-0.03903461123910213,0.31787651021393376,-0.00869016536090169,3.863935384734774e-05,-0.0005656562434205904
1765409774.987138,-10.02276961006432,-0.03938286453119344,0.31775299974140475,-0.008547428602138812,-0.0005326909100352416,-0.0005688971186389776
1765409774.987338,-10.021269501709094,-0.040017719380054426,0.3178418760955232,-0.00840034261670503,-0.0010853286760886681,-0.0005911784904889328
1765409774.987502,-10.019374388787393,-0.04088168657812488,0.3181425598298548,-0.008254616566214108,-0.0016166798472122652,-0.0006290371542533
1765409774.987702,-10.01707872655328,-0.041904705638052264,0.31865173631526594,-0.00811560249944632,-0.0021254128894849177,-0.0006783602442123292
1765409774.987902,-10.014382921553347,-0.043009233552894786,0.31936621267547427,-0.007988068584526642,-0.0026113994692418467,-0.000734674739424406
1765409774.988102,-10.011296905415428,-0.04411557218256756,0.32028529539276,-0.007876025914538483,-0.003075567264160624,-0.0007934359430133973
1765409774.988302,-10.0078423741811,-0.04514698325303743,0.321411780122016,-0.0077826066368649445,-0.003519669742578354,-0.0008502969544067445
1765409774.989538,-10.00405301450103,-0.046034036657275734,0.3227511214891202,-0.0077099863422147325,-0.00394597713719109,-0.0009013404834023785
1765409774.990038,-9.999972662325336,-0.04671779834383513,0.32430904601021904,-0.007659343984547168,-0.004356898935644378,-0.0009432540824603007
1765409774.991533,-9.995651869749127,-0.04715185970118873,0.3260882777044927,-0.0076308559845358085,-0.004754563742916953,-0.0009734356837213581
1765409774.992574,-9.991143596990032,-0.047303548567626225,0.3280850586313563,-0.007623725025249564,-0.005140401328511875,-0.0009900298001492703
1765409774.996609,-9.986498738066063,-0.04715463521445433,0.33028596958263284,-0.007636246884815186,-0.005514782398703049,-0.0009919100018097949
1765409774.998583,-9.981761993648334,-0.046701495449551995,0.3326653207949312,-0.007665920339974565,-0.0058767648030095525,-0.0009786316155331386
1765409775.001555,-9.976968326525002,-0.045954425398553315,0.3351831895250403,-0.007709605210676556,-0.0062239734779635176,-0.0009503758564930279
1765409775.003501,-9.972140113546812,-0.04493595300455622,0.3377842244723557,-0.007763729666240727,-0.006552618719833632,-0.0009078964507443362
1765409775.004573,-9.967285272002893,-0.04367842828596192,0.34039760354611914,-0.007824538040150557,-0.006857641980916951,-0.0008524703882741068
1765409775.007584,-9.962396843861072,-0.04222145635063755,0.34293863482042514,-0.007888357305308985,-0.007132968381932486,-0.0007858508254300354
1765409775.011502,-9.957454432820006,-0.04060960942193034,0.34531217891400184,-0.00795185161072781,-0.00737183808349002,-0.0007102201791568015
1765409775.013578,-9.952427536480952,-0.03889047858278464,0.3474176433453317,-0.008012235783398776,-0.007567187034355194,-0.0006281397921110768
1765409775.01654,-9.94728047436239,-0.037112854160750185,0.34915512574296986,-0.00806742818484695,-0.007712051464410023,-0.0005424877725155179
1765409775.01859,-9.941978355750633,-0.03532485727512959,0.3504322177729524,-0.008116133009632842,-0.007799974442362056,-0.00045637299550130517
1765409775.019566,-9.93649326183319,-0.03357210147667107,0.3511707224657339,-0.008157847694409217,-0.007825394252983993,-0.00037301592596954944
1765409775.023554,-9.930809644667724,-0.03189617572332816,0.3513122771897063,-0.008192795062846106,-0.007783996418176611,-0.00029559641292023904
1765409775.026586,-9.924928130926684,-0.030333690436230465,0.35082205954034124,-0.008221786506825013,-0.007673014872267741,-0.0002270804644426667
1765409775.028615,-9.918867425558966,-0.028915849147890044,0.3496903611477284,-0.008246032858252634,-0.007491469929483398,-0.00017004650894920876
1765409775.031562,-9.912664486955569,-0.027668257755630022,0.34793237335965177,-0.008266930594310391,-0.007240331647030179,-0.00012653295339648212
1765409775.032562,-9.906373376650505,-0.02661069629109336,0.34558676633018254,-0.008285857132626475,-0.00692260079752549,-9.79229100692686e-05
1765409775.036565,-9.900063238129567,-0.02575683664832694,0.34271364456748843,-0.008304005014546732,-0.006543304549361544,-8.487334886571657e-05
1765409775.038553,-9.89381577649462,-0.025114151828524146,0.33939228696613555,-0.008322270964140345,-0.0061094049207944465,-8.729080809651829e-05
1765409775.041525,-9.887722379737985,-0.024684301209505714,0.3357187303974347,-0.008341199625760796,-0.005629616331852324,-0.00010435569451721209
1765409775.043542,-9.881880809138757,-0.024464074438440217,0.33180294306486596,-0.008360971476658976,-0.005114131372927547,-0.00013459721133239017
1765409775.046608,-9.87639140699089,-0.024446703902130325,0.3277653004159448,-0.008381422158655486,-0.004574262539044435,-0.00017601609677074626
1765409775.047108,-9.8713529559529,-0.024623205026900234,0.32373225832557617,-0.008402083309951316,-0.0040220148718026405,-0.00022624405405896072
1765409775.05155,-9.866858451718342,-0.02498345053091443,0.3198313025015664,-0.008422238992449533,-0.0034696065821592623,-0.0002827224112231671
1765409775.053551,-9.862991082602004,-0.025516857352001553,0.3161853868495229,-0.008440994567164253,-0.0029289567852641223,-0.0003428808792390675
1765409775.056557,-9.8598207053453,-0.026212721162691736,0.3129071567543238,-0.008457356485390916,-0.0024111644196252984,-0.00040429935032056276
1765409775.058615,-9.857400996023234,-0.027060287353386083,0.31009319085250747,-0.00847032299846883,-0.0019260066975899243,-0.0004648402070576987
1765409775.061526,-9.855767240928976,-0.028048621008024247,0.30781834570364064,-0.0084789861157352,-0.0014814877150148024,-0.0005227442899153832
1765409775.063517,-9.854934679179669,-0.029166291612535974,0.3061303722509823,-0.00848264183413483,-0.0010834706309838706,-0.0005766880789257596
1765409775.066589,-9.854897571084024,-0.030400850701054666,0.3050454109868552,-0.008480899100039836,-0.0007354280613015585,-0.0006258014071623261
1765409775.068569,-9.85562945759893,-0.03173807221969997,0.30454538956180277,-0.008473771879846796,-0.0004383395919392669,-0.0006696463565854286
1765409775.07475,-9.857085040484991,-0.03316098065180482,0.30457833129444695,-0.008461736528772605,-0.00019075378579899686,-0.0007081623914691353
1765409775.075083,-9.85920379491941,-0.034648810986128036,0.30506215791006136,-0.008445739117296689,1.0979689810000835e-05,-0.000741589715180809
1765409775.075417,-9.861915088230523,-0.0361761579530846,0.30589196910904215,-0.008427143842362515,0.00017231583391958606,-0.0007703869635506024
1765409775.076555,-9.865144305234848,-0.037712603293074375,0.3069501051715969,-0.008407623147808425,0.0002999874048943559,-0.0007951566198060919
1765409775.081538,-9.868819254476634,-0.039223037493122746,0.30811765431033533,-0.00838900009886077,0.00040139940431319743,-0.0008165840982397267
1765409775.082546,-9.872876039706268,-0.04066873208834503,0.3092857276969547,-0.00837306006099029,0.00048401299580914833,-0.0008353898740347367
1765409775.084545,-9.877263672444963,-0.04200901720307393,0.3103649478999595,-0.008361351216287123,0.0005547824670306886,-0.000852291430313298
1765409775.088538,-9.881946840115463,-0.04320327456128396,0.31129200835347637,-0.008354995590143278,0.0006196904285921357,-0.0008679721424184494
1765409775.091565,-9.886906362362094,-0.044212951696628554,0.31203263367679007,-0.008354535721856288,0.0006834036176631936,-0.0008830550909584583
1765409775.093542,-9.892137114300343,-0.04500340287955786,0.31258077889335684,-0.008359843230928338,0.0007490530842639409,-0.0008980802421852928
1765409775.094609,-9.897643657069404,-0.04554545794482629,0.31295449499118067,-0.008370110598597495,0.0008181338058238889,-0.0009134848195945034
1765409775.098561,-9.903434311484085,-0.04581667890696438,0.3131894674639824,-0.00838393655665431,0.0008905189854550319,-0.00092959025798274
1765409775.09955,-9.909514686887995,-0.04580232517421366,0.3133315876153268,-0.008399500325831701,0.0009645850298349438,-0.0009466024879252669
1765409775.103508,-9.915881646488527,-0.04549609513074141,0.31342985170717447,-0.00841480347940068,0.001037436808384832,-0.0009646308403453751
1765409775.106599,-9.922518419984065,-0.0449006943077629,0.3135304163689876,-0.008427945369287655,0.001105211449909489,-0.000983723718904408
1765409775.10862,-9.929391217694958,-0.04402822643324628,0.31367207504785777,-0.008437392839178213,0.0011634309868101141,-0.0010039111080588235
1765409775.11159,-9.936447445892838,-0.0429003715913925,0.3138831175835712,-0.00844220705054709,0.0012073731071746093,-0.0010252406591041616
1765409775.11209,-9.943615536002751,-0.0415482907915364,0.31417951898620744,-0.008442196747766867,0.0012324317002671342,-0.0010477972939430397
1765409775.116521,-9.95080634937792,-0.04001215049448294,0.31456439387369717,-0.008437976532861888,0.0012344414580315684,-0.001071702827393406
1765409775.118574,-9.957916002309023,-0.0383401415072697,0.31502852263460285,-0.008430921031560531,0.0012099442678998105,-0.0010970969267430513
1765409775.121563,-9.964829860735833,-0.036586925359909456,0.31555168122574223,-0.008423020712230334,0.0011563819826496547,-0.001124102057803518
1765409775.123601,-9.971427432823978,-0.03481153100879755,0.3161045714891323,-0.008416659329579813,0.0010722111964680792,-0.0011527761257217382
1765409775.126623,-9.977587794577355,-0.03307476252884668,0.3166511587241203,-0.008414343078761965,0.000956948125296665,-0.0011830599619554662
1765409775.128573,-9.983194956351577,-0.03143617734766961,0.31715109496127014,-0.008418417337938203,0.0008111594778308822,-0.001214730126688006
1765409775.129543,-9.988142449653619,-0.029950746645289086,0.3175618711610786,-0.008430809282131156,0.0006364135875217816,-0.0012473668321822627
1765409775.133503,-9.992336602845056,-0.028665442621607827,0.31784054532166445,-0.008452831527548785,0.0004351979133709087,-0.0012803426946892934
1765409775.136614,-9.995698369051775,-0.02761612480873609,0.3179451438640324,-0.00848507056007278,0.0002108030191678418,-0.001312834270233154
1765409775.13857,-9.998163944076193,-0.026825121359785816,0.31783596167407374,-0.008527366979325346,-3.282531627964944e-05,-0.001343856674690935
1765409775.141582,-9.999684731973549,-0.026299803326984516,0.3174770916899122,-0.008578879968827823,-0.0002912569770695804,-0.0013723200060370637
1765409775.143566,-10.00022747203168,-0.02603228331026914,0.3168386129043941,-0.008638220105166641,-0.0005597543120817895,-0.0013971023053717514
1765409775.146643,-9.99977532125127,-0.026000222235923985,0.315899695265943,-0.00870363126985019,-0.0008334335928270966,-0.0014171284820126326
1765409775.147143,-9.998330246135406,-0.026168675420244265,0.3146523740081682,-0.00877320085960145,-0.001107394662683854,-0.0014314425887837602
1765409775.151576,-9.995916466231566,-0.026492927356513988,0.3131053028637579,-0.008845075453830722,-0.0013768164702765075,-0.001439265849825067
1765409775.153682,-9.992584280810446,-0.026922215558028727,0.31128675389659205,-0.008917656652349793,-0.0016370312580333995,-0.001440042848944197
1765409775.156556,-9.988413440609275,-0.027404039707790755,0.3092463269150975,-0.00898975271143523,-0.0018835957821900467,-0.0014334852205704078
1765409775.157056,-9.983515136863778,-0.027888508824543183,0.30705497200135073,-0.009060669991611673,-0.002112372637935991,-0.001419619281697085
1765409775.161524,-9.978031689919572,-0.02833210584350606,0.30480304178762874,-0.009130241864639066,-0.0023196262305094904,-0.0013988334550325615
1765409775.163559,-9.972133254705762,-0.028700412460748437,0.302596303551165,-0.009198803914208405,-0.0025021329172163547,-0.0013719123928499191
1765409775.166568,-9.966011274793914,-0.028969616311952873,0.3005500961211058,-0.009267128489945148,-0.0026573028257388005,-0.001340045035765771
1765409775.168524,-9.959868896687768,-0.029126857521513342,0.29878206499789295,-0.009336331031587963,-0.002783307694428206,-0.0013048033450535296
1765409775.171659,-9.953909090552521,-0.029169583039571918,0.29740422072587935,-0.009407758924297944,-0.0028792029269987707,-0.0012681002934340547
1765409775.173706,-9.948321727685947,-0.029104093550328135,0.2965153337099046,-0.009482872874698933,-0.0029450244040898897,-0.001232141575314271
1765409775.176584,-9.943271091405892,-0.028943485256046158,0.2961946200828053,-0.009563130881514517,-0.0029818350028678916,-0.0011993814444711196
1765409775.178631,-9.938885150803952,-0.028705264841030847,0.2964972705198764,-0.009649884364273222,-0.002991696501697301,-0.0011724819376961741
1765409775.179518,-9.935247600264729,-0.028408999247721747,0.2974519330194166,-0.009744293674000797,-0.0029775511234321913,-0.0011542634867700268
1765409775.183572,-9.932393324766858,-0.028074360598925974,0.29905996590974254,-0.009847266926109682,-0.0029430101724436525,-0.0011476300352660756
1765409775.186654,-9.930307550719801,-0.027719812975809034,0.3012960681101417,-0.009959423720707839,-0.0028920614051286928,-0.0011554559431960435
1765409775.187545,-9.928928483732713,-0.02736200341882,0.3041097744765747,-0.010081084082213313,-0.0028287216401506393,-0.0011804330399425396
1765409775.191604,-9.928152879219358,-0.027015725825494868,0.3074273852323411,-0.01021228141101946,-0.0027566753039392354,-0.0012248889720672602
1765409775.193614,-9.927843847016865,-0.026694199496127745,0.3111541369021206,-0.010352795684367873,-0.0026789469965482027,-0.001290597656321256
1765409775.196618,-9.927840201474137,-0.026409425083698836,0.31517665027987785,-0.010502201093749686,-0.0025976520947829755,-0.0013786068096442352
1765409775.198581,-9.927966746688268,-0.026172549915729152,0.31936585442669313,-0.010659922684717858,-0.002513856725877789,-0.0014891064154551972
1765409775.201547,-9.9280449721704,-0.025994355792668112,0.3235806918122373,-0.010825298551100105,-0.0024275623210463777,-0.0016213573315839254
1765409775.203542,-9.927903661090728,-0.025886004492525334,0.32767287521986704,-0.010997644272924599,-0.002337811844903473,-0.0017736921781022418
1765409775.206581,-9.927388895485642,-0.025860002384195054,0.33149276595198823,-0.011176312603780426,-0.002242896443001127,-0.0019435913592861576
1765409775.208566,-9.926373005010095,-0.02593110919331362,0.3348962309356212,-0.011360736638881588,-0.0021406280975936184,-0.0021278271976176402
1765409775.210644,-9.924762171740113,-0.02611679095078413,0.337752209000717,-0.011550444085344896,-0.0020286392715254177,-0.0023226619061541207
1765409775.212573,-9.922502492507531,-0.02643688612632449,0.3399505488104871,-0.011745035912944084,-0.0019046727210650842,-0.002524081801532729
1765409775.216521,-9.919584197365225,-0.02691238863203459,0.3414094003386154,-0.011944130765086018,-0.0017668322430457108,-0.002728048730581407
1765409775.218567,-9.916043597013775,-0.027563543508908283,0.3420812383780682,-0.012147281210503482,-0.0016137776265104128,-0.0029307481448881973
1765409775.221533,-9.911962412212263,-0.028407650317415135,0.3419566784568201,-0.012353867932912672,-0.0014448592155859724,-0.00312881289164939
1765409775.223524,-9.907464416079906,-0.029456971693515938,0.3410655849139274,-0.012562977634428991,-0.0012601920537851168,-0.003319505352164371
1765409775.226581,-9.902709630373693,-0.030716982512065782,0.33947541258971964,-0.012773273875666895,-0.0010606678780281855,-0.00350084760729926
1765409775.228549,-9.897886550926726,-0.032185009810420384,0.33728712021983714,-0.012982876478231865,-0.0008479042122564621,-0.0036716955179105426
1765409775.231516,-9.893202979125228,-0.03384923575231459,0.33462916657483477,-0.01318927055037617,-0.0006241374418771957,-0.0038317546046413974
1765409775.234584,-9.888875972491679,-0.035688097412897565,0.33164996493948345,-0.013389267394524808,-0.0003920753870644541,-0.003981535056857972
1765409775.236505,-9.885121298645531,-0.03767023626588413,0.32850896764582854,-0.013579034938654307,-0.00015472805712612146,-0.004122245288791506
1765409775.238559,-9.882142773464315,-0.03975518824318502,0.3253666421873103,-0.013754205399349987,8.476711580592096e-05,-0.004255631348169467
1765409775.241761,-9.880122016880083,-0.04189488768526306,0.32237399347553297,-0.013910056341509304,0.00032331327060168444,-0.004383779692689071
1765409775.243538,-9.879209300103842,-0.04403585350959324,0.31966264094281643,-0.014041753198243856,0.0005580056325970498,-0.00450890554749228
1765409775.246628,-9.879516153450394,-0.046121777754282625,0.3173365203609636,-0.014144638112629839,0.0007862575422537396,-0.004633144965039497
1765409775.248583,-9.88111024870861,-0.04809623140326923,0.31546604468522726,-0.014214548638726543,0.0010058923273569367,-0.0047583616795373335
1765409775.251504,-9.884012779681374,-0.04990530228842433,0.3140851072562635,-0.014248148023149746,0.001215193790230341,-0.004885977742253955
1765409775.253594,-9.88819820175755,-0.0515000630059415,0.31319080775219854,-0.01424324805816178,0.001412910380187585,-0.0050168402599195805
1765409775.256542,-9.893595939732771,-0.052838745598617155,0.3127454964076405,-0.014199108033591487,0.0015982110964160203,-0.005151138721074373
1765409775.258608,-9.900093664504064,-0.05388843424256743,0.31268075578325255,-0.014116697199495428,0.0017705964968106767,-0.005288382265519758
1765409775.261577,-9.90754187603243,-0.054626135835788105,0.3129030365373787,-0.01399890806769861,0.0019297765971956567,-0.005427434407779578
1765409775.2646,-9.915759635526642,-0.05503928915153662,0.31330063062174035,-0.013850700361147236,0.002075535980291495,-0.00556659096707859
1765409775.266639,-9.924541326524947,-0.05512594559619513,0.3137515937276734,-0.013679142704429693,0.0022076113219632876,-0.005703681685007413
1765409775.267139,-9.933664340257927,-0.054894812492638556,0.3141322490638896,-0.013493309016589348,0.0023256062645920536,-0.005836178031131723
1765409775.27155,-9.942897561770698,-0.0543651393344942,0.3143259325416235,-0.013303988828576252,0.0024289621815150953,-0.0059612964865064615
1765409775.273621,-9.952010428931462,-0.05356624833363049,0.3142315395943161,-0.013123191058429287,0.002516990257520531,-0.006076096212459316
1765409775.276545,-9.960782156261459,-0.05253647563090348,0.31377124418495733,-0.012963455815372676,0.002588953982386528,-0.006177579854543131
1765409775.278642,-9.969010537999463,-0.05132137640640116,0.3128966466676398,-0.012837027789682282,0.00264417835023418,-0.0062628114227541954
1765409775.279526,-9.976519671475806,-0.049971213735728846,0.31159270208020456,-0.01275497522742877,0.0026821564048684628,-0.006329062084619777
1765409775.283525,-9.983166032190603,-0.0485379658049603,0.30987907862445774,-0.012726351456015644,0.002702625213640937,-0.0063739852436958755
1765409775.286588,-9.988842535335717,-0.04707227231638691,0.3078089364223754,-0.012757489731024042,0.0027055921183210705,-0.006395812657048581
1765409775.288598,-9.993480430302146,-0.04562078871512399,0.30546534379796825,-0.012851502079469475,0.002691306768344763,-0.006393557917391957
1765409775.289592,-9.99704908061975,-0.04422426855749426,0.3029556957696992,-0.013008025733360172,0.002660188496722243,-0.006367211294371527
1765409775.293628,-9.999553920113541,-0.04291641010200219,0.30040465776307096,-0.013223231347314538,0.0026127253248586593,-0.006317907246931328
1765409775.294633,-10.001033069372689,-0.04172324360075138,0.2979462511647494,-0.01349007936214595,0.0025493600771835287,-0.006248041834384784
1765409775.298588,-10.001553109018134,-0.040662749594528994,0.29571563388444666,-0.013798789681037567,0.0024703760298520486,-0.0061613139357893755
1765409775.30157,-10.001204346508604,-0.03974450268703293,0.2938410130970817,-0.01413747908216511,0.0023757940320945853,-0.006062665273508156
1765409775.3035,-10.000095706762396,-0.03896930893357331,0.2924360649164538,-0.014492918399279735,0.0022652954754627057,-0.005958102722867432
1765409775.306549,-9.99834921875074,-0.038328898698464106,0.29159316117978046,-0.014851360194424259,0.002138187118013446,-0.005854401928869005
1765409775.308572,-9.996094050209765,-0.03780570302613212,0.2913776204705221,-0.01519938311442937,0.001993421092233802,-0.005758709232985449
1765409775.311543,-9.9934602440371,-0.03737269254698763,0.2918232670625343,-0.015524695329310624,0.001829677196587462,-0.0056780736536882
1765409775.312517,-9.990572627676844,-0.0369933710428644,0.292929761680653,-0.01581684361726252,0.0016455086800426023,-0.005618949453898114
1765409775.316544,-9.987545515200582,-0.03662232072531319,0.29466215984195104,-0.016067788339123423,0.0014395491123657474,-0.00558671384567666
1765409775.318551,-9.984478658454918,-0.03620696475998371,0.2969528295785707,-0.0162723211443692,0.0012107740431153118,-0.005585246486158862
1765409775.321537,-9.981454582492907,-0.03569113068462224,0.2997054636515686,-0.016428313335478492,0.0009588033319611669,-0.005616618500375688
1765409775.323507,-9.97853718442658,-0.03502048192368605,0.30280071644543743,-0.01653678601434477,0.000684218386736653,-0.00568093537730565
1765409775.326582,-9.975771359430956,-0.034149185118554214,0.3061029804711789,-0.016601793485133562,0.00038885728784945824,-0.005776364639013867
1765409775.327082,-9.973183391029892,-0.033046666893441136,0.3094678356970782,-0.016630116412477258,7.604454375572859e-05,-0.005899354056416152
1765409775.329625,-9.970781834923285,-0.03170319389373041,0.312749664497746,-0.016630774951991046,-0.00024928654288496255,-0.006045015716229605
1765409775.333504,-9.968558647790267,-0.030133254683694766,0.3158088836104335,-0.016614391367267674,-0.0005806114210299327,-0.006207626198108605
1765409775.336547,-9.966490452458887,-0.02837616089368102,0.3185183353838611,-0.016592448139272513,-0.0009099865862684103,-0.0063811802157893146
1765409775.33852,-9.964540074513659,-0.026493751720177292,0.3207686129701636,-0.016576495027960377,-0.001228368125369966,-0.0065599332645953825
1765409775.341535,-9.962658639929993,-0.024565504030534292,0.3224722893648323,-0.016577357972029236,-0.0015260458853948663,-0.006738874404276381
1765409775.343561,-9.960788451426414,-0.022681697612651402,0.32356704401437797,-0.01660439935275754,-0.0017931501652498451,-0.006914082244160256
1765409775.34668,-9.95886665516416,-0.020935513982044948,0.32401760026370385,-0.01666487649954854,-0.002020187600374703,-0.0070829350832324976
1765409775.348589,-9.956829504034564,-0.01941500387198918,0.32381629910129095,-0.016763442981335933,-0.002198569054868769,-0.007244166516471292
1765409775.349625,-9.95461683771669,-0.018195766637238868,0.32298207055092004,-0.01690183270508288,-0.0023210983745971226,-0.0073977756822945565
1765409775.353534,-9.95217628833578,-0.0173350368326539,0.32155764868263714,-0.01707875803999282,-0.002382396404067517,-0.0075448140795296385
1765409775.354601,-9.94946682740378,-0.016867727559792402,0.3196052536376198,-0.01729003947002679,-0.0023792405998118173,-0.007687079395080561
1765409775.359579,-9.946461577567652,-0.016804805927364923,0.3172014751481299,-0.01752896624783286,-0.0023108040877313886,-0.007826753859038478
1765409775.361626,-9.943150076353975,-0.017134113805829375,0.3144323576068167,-0.017786866577670455,-0.002178778055026422,-0.007966031831801156
1765409775.362126,-9.9395402094497,-0.017823405485417717,0.31138954625852744,-0.018053843683421913,-0.0019873627679936334,-0.008106785778690163
1765409775.366676,-9.935659855389384,-0.018825047225328455,0.3081679374578427,-0.01831961322935984,-0.0017431195641566498,-0.00825031555096809
1765409775.368614,-9.931558014682786,-0.02008162267045978,0.30486471891202693,-0.0185743628250975,-0.0014546873756502716,-0.008397210324996794
1765409775.371547,-9.92730496430263,-0.0215316667211372,0.30157911476405824,-0.018809551658708547,-0.0011323796752458282,-0.008547330316081089
1765409775.37359,-9.922990964464608,-0.023114880490173875,0.2984118511550403,-0.019018579626076927,-0.0007876898826465155,-0.008699894585051233
1765409775.375589,-9.918723314241113,-0.02477637139916415,0.2954635367786783,-0.019197275832962386,-0.0004327423597353934,-0.008853647095829604
1765409775.376628,-9.914621872790239,-0.026469631578973314,0.2928315806555305,-0.019344177313077086,-7.972845615334485e-05,-0.00900706627164644
1765409775.380726,-9.910813268095529,-0.02815811066397599,0.2906055882542058,-0.0194605836769353,0.0002596360207090098,-0.009158582021424583
1765409775.383583,-9.90742400652247,-0.029815414827802485,0.28886145214063713,-0.01955038258756464,0.0005745993451067407,-0.009306767363704983
1765409775.384559,-9.90457286611678,-0.03142439208692967,0.2876548385652831,-0.019619651292391158,0.0008557809410387837,-0.009450479471669944
1765409775.388623,-9.902363274598578,-0.03297557059304677,0.28701527838638047,-0.019676057336620045,0.0010954809156815848,-0.00958893702301765
1765409775.390741,-9.90087651726139,-0.03446549321180324,0.28694213346406544,-0.019728106035747733,0.0012878918477496441,-0.009721734504038028
1765409775.393537,-9.90016649463652,-0.03589538377479429,0.28740330515324075,-0.019784305387348513,0.0014292224268906053,-0.00984880527678751
1765409775.39755,-9.900256568075783,-0.037270327940158464,0.2883370880914023,-0.019852332369134147,0.001517741367272143,-0.00997035123108595
1765409775.398911,-9.901138847189694,-0.038598869330722665,0.28965717726130613,-0.019938284137561435,0.0015537452305889093,-0.010086758393935994
1765409775.401505,-9.902775892062332,-0.03989272489068954,0.29126027575084684,-0.020046085632336227,0.0015394531417277546,-0.010198516694477106
1765409775.403505,-9.905104278424336,-0.04116625569619951,0.2930351228300399,-0.02017710702264283,0.0014788333581618382,-0.010306158553826305
1765409775.406582,-9.908039211954963,-0.04243537006794833,0.29487157294066013,-0.020330024305057245,0.0013773675586414161,-0.010410224577204308
1765409775.408538,-9.911479547518848,-0.04371565293219459,0.29666871030668884,-0.020500934805375945,0.001241761325116583,-0.01051125617679597
1765409775.411499,-9.915312825568243,-0.04501968934313052,0.29834134813888097,-0.020683716370653773,0.001079617409826522,-0.010609806671888006
1765409775.413495,-9.919419979876356,-0.04635378348618346,0.2998243139526988,-0.020870596256655622,0.0008990971225481596,-0.010706455817869567
1765409775.416508,-9.92367940517947,-0.04771458544129846,0.30107407016756554,-0.021052875669600405,0.0007085956116350601,-0.01080180893048332
1765409775.418663,-9.927970394247973,-0.04908648103428006,0.3020678709280681,-0.021221741361765925,0.0005164495801853195,-0.010896463810817741
1765409775.421562,-9.932176341842505,-0.05044078656776306,0.3028014187947797,-0.021369088685739484,0.00033069043768805693,-0.010990939275910295
1765409775.423499,-9.93618810495785,-0.05173757028623153,0.30328615661773345,-0.021488281106955647,0.0001588544276991737,-0.011085575553026538
1765409775.426615,-9.93990753805193,-0.052930215364904595,0.303546940499062,-0.021574777962633355,7.85540690554139e-06,-0.011180431009758868
1765409775.428527,-9.943250994158845,-0.05397188466369118,0.30362051258605155,-0.021626574598148523,-0.00011608857516729673,-0.011275204098582441
1765409775.431508,-9.946152702157155,-0.05482230081501271,0.3035550884127919,-0.021644416900588877,-0.00020749861623651906,-0.011369202372356398
1765409775.433557,-9.948568027287907,-0.055453098500803155,0.30341104900254035,-0.021631774175485504,-0.00026167749329247933,-0.011461366499761025
1765409775.436595,-9.950476388536037,-0.05585051019132446,0.30326207895696805,-0.021594577287575346,-0.00027477663936972845,-0.01155034259509778
1765409775.437095,-9.951883285405,-0.05601505942541918,0.30319566117209135,-0.02154075073907973,-0.00024390399341105327,-0.011634585443250767
1765409775.441539,-9.952820858645074,-0.05595885814773985,0.3033119704766649,-0.021479586615282424,-0.000167277268198159,-0.01171247155670735
1765409775.443511,-9.953346599476346,-0.055701698344880694,0.3037205371660346,-0.021421022904296764,-4.4411534764274155e-05,-0.011782405240437456
1765409775.446592,-9.953539882477312,-0.05526724913350761,0.3045341514179816,-0.021374895428212394,0.0001236871463721943,-0.011842908815971215
1765409775.448615,-9.9534959491199,-0.05468039344472613,0.30585957057937035,-0.021350230150456086,0.00033436252608644757,-0.011892694398527217
1765409775.449579,-9.953317247082063,-0.053966242572776386,0.3077852071719644,-0.021354633239429335,0.0005832259699506597,-0.011930719497325944
1765409775.452512,-9.953102805029703,-0.05315077691870512,0.3103671057196638,-0.021393823535614573,0.0008641876082077851,-0.011956236350471109
1765409775.45652,-9.952937118802057,-0.05226244025288785,0.3136154662810259,-0.02147133717112673,0.0011696279141918146,-0.011968853277472734
1765409775.458579,-9.95288027340039,-0.051333508384459506,0.3174841663607224,-0.0215884167573039,0.00149072485963738,-0.011968625662343175
1765409775.461542,-9.952960735518745,-0.05039994224634991,0.32186531810835034,-0.02174407975726521,0.001817933093118992,-0.01195617791752291
1765409775.463557,-9.953171819283636,-0.04949893983705861,0.3265903056655294,-0.021935345789026815,0.002141586553593763,-0.01193283177381281
1765409775.464646,-9.953472393596295,-0.048664420407669405,0.3314380172223904,-0.022157591815317585,0.0024525721969702267,-0.011900695027865152
1765409775.468673,-9.953791810397531,-0.04792177322884136,0.33614995269685977,-0.02240499657734934,0.0027430071753492317,-0.011862660685228269
1765409775.471541,-9.954038334794914,-0.047283853701471076,0.34045076920996187,-0.02267103038069339,0.0030068460037543186,-0.011822282712301678
