time,acc_x_g,acc_y_g,acc_z_g,gyro_x_rad_s,gyro_y_rad_s,gyro_z_rad_s
0.0,0.000598,-7.742108,-5.934959,-0.355524,0.001985,-0.008399
0.0025,-8.591235996720686,-6.4746095421544325,-1.2404815879122975,-0.004076826806482363,-0.015779044537654913,0.0008295443660629166
0.005,-7.658114823069591,-6.2766028364918975,-0.4570200401525263,-0.015958944671115347,-0.09934199126787417,0.010002927206863679
0.0075,-7.391142305438972,-5.768655928308351,0.1477696742612417,-0.030744566852248394,-0.152411,0.07383485336188436
0.01,-6.613266176145038,-5.973967215610687,-1.0880710392748087,-0.04871530896946564,-0.19621987629770993,0.17184241885496185
0.0125,-7.270842153053436,-5.597967775381681,-0.624221945801527,-0.026328782824427476,-0.16629354408396949,0.2582694143129771
0.015,-7.6520941019847335,-5.07424775091603,-0.6375835410687021,-0.006211793053435111,-0.15472081809160307,0.29896286916030534
0.0175,-7.781034295046396,-5.016442212248396,-1.171918444653822,0.02009784065667386,-0.1624955825553177,0.33097775117773026
0.02,-8.64141998749285,-4.795113991077217,-1.0465048555195433,0.0499469944709247,-0.1827911931363203,0.3719158670734033
0.0225,-8.60931085129771,-5.682011022900763,-0.6524163032061081,0.11201182931297707,-0.19903013007633585,0.4123088641221374
0.025,-7.944965839885497,-5.5833666921755745,-1.1224771106870242,0.1567570547709923,-0.23303489198473284,0.4836670937022901
0.0275,-9.069987643083511,-5.154524501584582,-0.059551688736617425,0.2530446135331906,-0.2227932485653105,0.5417200195289079
0.03,-9.446644901232094,-3.960504404240685,-0.1314244972492818,0.2225736947851003,-0.23842526169054437,0.6064178038681948
0.0325,-9.067194401067683,-5.235842142345092,-0.36887844701620554,0.2502074273021926,-0.2469659807435652,0.6369592164346998
0.035,-8.618983687175577,-4.737032251755727,-0.5919244755725097,0.24028228122137402,-0.2633219421374044,0.6966706609160305
0.0375,-9.193733932824426,-4.4777575908396985,-0.14510302290076438,0.2621612427480918,-0.26576510992366403,0.7267718671755724
0.04,-8.693711917967072,-4.713628255490334,-0.9769068442376507,0.26775023988546887,-0.23978414210450968,0.7887226427487474
0.0425,-8.678027157251908,-4.733882769465648,-0.35362512000000534,0.23837055725190848,-0.23950855206106908,0.874827400610687
0.045,-9.106373069312982,-3.6736888882824434,-0.5908649699999958,0.3103941424809161,-0.2616096508396946,0.9028998749236641
0.0475,-9.122200225954197,-4.088403832748091,-0.24453809923664135,0.24489925423664125,-0.25440212782442745,0.9570077088167939
0.05,-9.554209548280795,-3.4065473431232056,0.1257362926933954,0.2444812318051576,-0.24073039083094566,0.9651268263610318
0.0525,-9.38664317698473,-4.262316144770993,-0.14587901740458337,0.28038702916030533,-0.221134148282443,0.9978483905343511
0.055,-8.752926693816795,-3.5333051067175574,-0.7908791177862584,0.2541978194656489,-0.2203598790076336,1.0307929364885497
0.0575,-9.590688602669205,-3.706245826501436,0.13927470551000976,0.2833558284080073,-0.208295851020019,1.0702149571020019
0.06,-8.455344104022878,-3.356925702955192,-0.6252086924690254,0.3102471374261201,-0.1927049574451859,1.0742277931744522
0.0625,-9.731270984747377,-3.2079342516682554,-0.0826548255481411,0.2747672659675882,-0.18417078455672067,1.049477515729266
0.065,-10.313141090829362,-2.1150554354242184,0.9073722351572938,0.3257334936892277,-0.15312805468064825,1.0360369654528123
0.0675,-9.695520550229002,-1.9619124622900586,-0.3912857786259698,0.3190606073282444,-0.15055277893129798,0.9929581288549617
0.07,-8.994414059212605,-2.1871346286614397,0.2273035297637735,0.2943686163779529,-0.109192,1.014452811338583
0.0725,-10.26300502703526,-2.063879512564347,0.0009846163203006408,0.34760791180171585,-0.103389,0.9679042585700665
0.075,-10.187708,-1.677427,0.829746,0.357967,-0.07016473339694654,0.938289
0.0775,-9.601068577998094,-0.8847591177883688,0.24389439378455663,0.3635018544137274,-0.04813524083889418,0.851298734871306
0.08,-9.94799689746425,-1.4122465392564325,0.5348746602859846,0.36935589757864634,-0.028135159580552804,0.7932035250333651
0.0825,-9.363602007213743,-2.303938075267173,-0.33731861473281693,0.3581713729770995,-0.003325017671755523,0.7406391732824426
0.085,-10.412902022900777,-0.9573928717557368,0.8739697282442886,0.37226189587786185,0.016294773740457923,0.6812126341984733
0.08750000000000001,-9.863904431704363,-1.4770498970202692,0.36081141835513514,0.37850116996424243,0.02148291847437434,0.6448013890345657
0.09,-9.716298831755724,-1.0744203239694687,0.22309491297709919,0.35313134656488543,0.02564875755725189,0.5499752396946567
0.0925,-9.720004370441002,-0.6264472887723468,0.05936365611442265,0.32002384586412413,0.05328161115613819,0.4829220782359953
0.095,-10.532953493740456,-1.0763104869083946,0.7630099595419818,0.23851810679389315,0.082467,0.40720569267175566
0.0975,-9.893075692621547,-0.8454238094184925,0.3446928127359493,0.19798632861773077,0.0704654168922782,0.36697731653002863
0.1,-10.22479843260248,-0.7281349096282217,0.44374995119161553,0.16134009094375565,0.05839049380362301,0.31586948827454686
0.10250000000000001,-10.416155442213748,-0.2080587576335831,0.3790510951526703,0.1118404116793892,0.05933359320610678,0.2657981669465649
0.105,-10.745570517254533,-0.4252042895328878,-0.24814200613917775,0.05708086924690187,0.029177099523355603,0.2067560187607245
0.1075,-10.739426124770988,-0.10906703938931098,-0.5532993950000029,0.03155547843511454,-0.046446584961831884,0.14980392477099244
0.11,-10.357626330954199,-0.0757435694274809,-0.8169484753053429,0.009512344503816808,-0.06559416061068701,0.07353451152671754
0.1125,-10.25103297349857,0.030559121448998874,0.034983839847473025,-0.0036587128693994432,-0.05879040838894187,0.01514275748331739
0.115,-9.460994629749704,-0.1846844695589961,0.2772787319666273,-0.017508790607866427,-0.023187561764004404,-0.005051097210965485
0.11750000000000001,-9.65351737935638,-0.21146823680572607,0.24691493740167128,-0.017778606626936713,-0.008169813921334625,-0.0006194357091775372
0.12,-10.051359453253875,-0.24819520157330544,0.47919978636472194,-0.0027768910607866883,-0.00044974579261038936,-0.0010172830512515509
0.1225,-10.145411227651966,0.13122209015494543,0.46636621878426443,-0.0022140743742550435,-0.0026312902979737816,0.002355004910607858
0.125,-10.097646114355232,0.10769292457420925,0.35536932116788317,-0.007431053527980535,-0.01210992700729927,-0.0010200632603406326
0.1275,-9.819805716085918,-0.06994939789976158,0.22873232210023686,-0.01138334272076372,-0.011279164391408084,-0.001542030644391357
0.13,-9.844053413597358,-0.06058582442244094,0.2471498547854739,-0.0102516576237624,-0.007703229108910898,-0.0012117646204620346
0.1325,-9.857165650822411,-0.024339138879619648,0.23633151170441527,-0.0063041236710369335,-0.002980785029797495,-0.0006659601907031622
0.135,-9.905742160905842,-0.005031091108461713,0.2843869945649606,-0.008270843241954864,-0.007636,0.000611
0.1375,-9.927879607389745,-0.010026804529200304,0.33655690727054843,-0.007540479856972578,-0.00399186317044084,-0.0004758889153755572
0.14,-9.979055976007581,-0.053044181116366385,0.39653793513719693,-0.008340329422894971,-0.011622446622516686,-0.000916
0.14250000000000002,-9.927530687532764,-0.017199926817642045,0.2675000701787693,-0.0076089021215732305,-0.007463830798569274,-0.00010732700834314719
0.145,-9.949002259261023,-0.021153444672234636,0.2996423586174045,-0.007683042860548378,-0.004887,-0.0008626980214540892
0.1475,-9.71767864777115,-0.38243476972587304,-0.2425716162097759,-0.007983516758045602,-0.0053231835995227374,-0.0049147858879616335
0.15,-9.834674580691306,0.04514810655541973,0.18050300929678947,-0.00725409106078663,0.005650135876042993,-0.0067192088200239055
0.1525,-9.994506712800954,0.18637605711560642,0.3464091278188332,-0.006947415446960696,0.007335308986889192,-0.010019998951132236
0.155,-10.052989269368295,-0.02085804615017872,0.35641790769964254,-0.010063518617401675,0.0027976602145411466,-0.0019488655065554408
0.1575,-10.033997722431465,-0.12867628562574496,0.26146243618593545,-0.008418125911799763,-0.005097252729439812,-0.00047727275327773277
0.16,-9.992747111299632,0.07097499225641841,0.3110494897911016,-0.0076309996746930335,-0.002373416010205689,-0.001406836517301865
0.1625,-9.907605003202553,-0.11363631899078243,0.2866204582250062,-0.007953991420467972,-0.002960753474355951,0.0017282953438903321
0.165,-10.025017138470812,-0.1625267016331838,0.41218130038997913,-0.006629330886315288,-0.005988637492318611,0.0012549367619947988
0.1675,-10.113886869251209,-0.12748914772946823,0.4872434268019325,-0.006225880657004832,-0.006003810768115934,-0.0013970280724637844
0.17,-9.993525688635378,-0.026086604765342455,0.27543417545126225,-0.005210820909747287,-0.004179923985559558,-0.001612566584837542
0.17250000000000001,-9.846120163224699,0.054567186415094726,0.14870955588336168,-0.007571877324185275,-0.005116333722126945,-0.001744790120068614
0.17500000000000002,-9.979016006492994,-0.03278897869981785,0.4493072612241673,-0.010384737904822219,-0.009346295161928888,0.0007327927468524721
0.1775,-10.040385147442342,-0.04113695847136839,0.49049702352583285,-0.008335539421894968,-0.008128837105823655,-0.0003733397091218903
0.18,-9.940062464762368,-0.09568486082395167,0.2936680842937996,-0.008043293448548653,-0.00618010522241831,1.653428588815084e-05
0.1825,-9.833354323790054,-0.1002719157735156,0.16113393493970385,-0.007343755111978869,-0.005498,-0.0025968313127368707
0.185,-9.928444719665164,-0.048690605820991675,0.3353475390341273,-0.008445276857694783,-0.010357508692852537,-0.0021978683837733434
0.1875,-10.053718096999303,0.019241633635729245,0.492118505931612,-0.00936455315189579,-0.008621367062107466,-0.0013254468481042102
0.19,-10.000578428653075,0.015226804474203343,0.423538249842769,-0.009305726215101333,-0.005666995159921089,-0.0006936791199856509
0.1925,-9.824446873089016,-0.02637019980390992,0.21293100485681798,-0.008923331667364141,-0.009305385250194302,0.0005512972272374028
0.195,-9.892443734327278,-0.08660802743728885,0.3011937274262802,-0.009588847316190929,-0.009927,0.0015987657372021728
0.1975,-10.004113272404231,-0.0830422203807284,0.4721819186839019,-0.005983102618096335,-0.008187067609870731,0.0009414962444183252
0.2,-9.900223546590082,-0.04964007512337176,0.285298847083568,-0.004734,-0.0056548174419545245,-0.0005359285656500346
0.2025,-9.789830876243002,0.029215119957117317,0.2541614597832049,-0.0087265927742704,-0.006209150258487212,-0.0013566729029183963
0.20500000000000002,-9.912660406887433,0.02622864560810004,0.37363042612983993,-0.008822144964860036,-0.009356127306730216,7.411185944015183e-05
0.20750000000000002,-10.004310783636365,-0.010588236224514685,0.4203385838666347,-0.007897887291916516,-0.009457462470616441,0.0024110149052530786
0.21,-9.909104073922181,-0.020325,0.3591084271833135,-0.009447647704773358,-0.004047677320497411,0.0008768067645407215
0.2125,-9.808848867706857,-0.06020971796690294,0.27539860453900733,-0.008776086666666672,-0.003045863971631202,-0.0007275595271867588
0.215,-9.887235269262831,-0.06647469968273717,0.35902085965163283,-0.0076720334494556775,-0.007721799303265934,-0.0003971267744945576
0.2175,-9.910547378880361,-0.0012521462272556431,0.35064941054157056,-0.009115069344640653,-0.0030600166646986213,-0.0003374765476893344
0.22,-9.782024075362568,-0.016055803855939035,0.21068637980784707,-0.009372837477322742,-0.00082508816059256,-0.001540769708550266
0.2225,-9.74399790172763,-0.02340538034552604,0.22073377608483274,-0.008385131495293695,-0.004212468819254149,-0.0011425062361491703
0.225,-9.9261238875,-0.023912,0.41113866562500045,-0.0071450812499999974,-0.003974109374999996,-0.0003890531249999986
0.2275,-10.000645151913808,-0.026192241339202976,0.4725828726598702,-0.007651473628359597,-0.00336,-3.627971733086133e-05
0.23,-9.851715287485668,-0.014092640832104769,0.30055940646682966,-0.007941,0.0017068077411957656,0.0
0.2325,-9.734073863906119,-0.048744722212908945,0.1788631247611061,-0.009291815758591795,0.0015146058675607524,-0.0023333734115674946
0.23500000000000001,-9.819960501367483,-0.07090110182072186,0.2741322157795894,-0.008781728313542873,-0.004328417837795922,-0.002377283495537443
0.23750000000000002,-9.898328449205202,-0.016153014113679497,0.2940222344894024,-0.009111287259152223,0.002414676300578133,0.0001161522639691959
0.24,-9.863550579338863,-0.01074657054117642,0.24713375517531358,-0.009570047655930567,0.00504,0.0007130572852459019
0.2425,-9.809631729586114,-0.02525392790588232,0.20022671392246877,-0.009878654594406941,0.00504,0.00065117411147541
0.245,-9.963805254556883,0.0012882324659543496,0.43861055712549785,-0.007229536869893154,-0.0022345518793211827,-0.0015110245799287696
0.2475,-9.879547241485168,-0.014902135517703332,0.35254646746220103,-0.00803586650334928,-0.0019370491636363635,-0.000764
0.25,-9.798268051866028,-0.03289750583732057,0.3009600402392345,-0.011100317320574163,-0.0018607890909090909,-0.000764
0.2525,-9.904038686660305,-0.08093233482824427,0.3600822923377863,-0.007911008583015265,-0.0016995943654580148,-0.0009696658587786233
0.255,-9.979797094943875,-0.052330553692381085,0.3853919701862909,-0.006926764435156438,-0.0002981745641270556,6.024215189873129e-05
0.2575,-9.974557345395272,0.00493354153570591,0.37528624698590873,-0.007404471318366373,0.0021874038452352586,-0.0015657143037974726
0.26,-9.915111244839318,-0.032685471956521946,0.370736756663516,-0.007904676625708887,0.002596,-0.0021490849338374305
0.2625,-9.871333109827564,-0.10669832427348404,0.3344910096949232,-0.005922180610153126,0.0009068949234293862,-0.0018082856867237395
0.265,-9.882811782203184,0.0007068117471041623,0.22849594035472948,-0.006969073144305029,-0.0028642319184362768,0.0013608653788609976
0.2675,-9.856341184519787,-0.015176179449807047,0.17744428197635104,-0.008708054457046343,0.00022722012789577143,0.0002013336414092592
0.27,-9.856418672530571,-0.06782826319137399,0.30466450533823336,-0.00887125118245889,0.002306005727365809,-0.000833010457201372
0.2725,-9.96440980998976,-0.06291920188663329,0.40963516786699683,-0.009257179702427567,0.0005696432046262139,-0.0006403620143364843
0.275,-9.982917980825299,-0.031846220887003146,0.3903913927034319,-0.0091062348168145,0.0014566519861164793,-0.002495459112996549
0.2775,-9.878096622156676,-0.022905847022180355,0.22868760203869515,-0.00901,0.0005998990655969574,-0.001974143006134947
0.28,-9.865383555989403,-0.04228489045195496,0.23222823183752175,-0.00973240268764551,0.0015978053752910202,-0.0010113842369751879
0.28250000000000003,-10.015058963517005,-0.07921751010331418,0.4185121760180798,-0.010540504709427448,0.002291,2.2541980197994982e-05
0.28500000000000003,-10.011010570921222,-0.03671756926818716,0.39557542237193255,-0.009075748308222109,0.002291,-0.0021317106930693335
0.28750000000000003,-9.889842675949364,-0.02058536715828589,0.22369301381952977,-0.008552,0.0034855747067704347,-0.002902
0.29,-9.854473976370743,-0.02237802362925738,0.22002595678072862,-0.00813232872617054,0.002034912230996269,-0.0008036436308526966
0.2925,-10.016400216003742,-0.06414389982218016,0.3996876253626561,-0.010168057538605496,-0.001825431249415034,-0.00019847910154421685
0.295,-10.087399428828403,-0.07010602275976337,0.42310099593846173,-0.007976248151479312,-0.0008034167763313761,-0.0005101510911242588
0.2975,-9.997060538652649,-0.027762074126421676,0.2811249496173138,-0.005153212187308975,0.0015660165154664258,-0.0011994997823694775
0.3,-9.984585710662893,-0.01707904746824007,0.29588828871093914,-0.007540969402131367,0.0017600619664037654,-0.0016923943163345203
0.3025,-10.067616338510446,-0.026136739004154343,0.4544001002444452,-0.009083939926545843,-0.0001680198591125226,-0.0010175025444036391
0.305,-10.089490618996091,0.004335217555368132,0.41702113860065926,-0.008273497475668638,0.001209867496359869,2.204745804275897e-05
0.3075,-9.941732415041443,-0.014161339609946262,0.17772665388103429,-0.008260811652852265,0.0016307545294978068,-0.0008414156996586991
0.31,-9.829408444974275,-0.03779220683923057,0.14863263158078047,-0.008816259846433944,-0.002331458481754132,-0.001222
0.3125,-9.965535779593798,-0.06658330453070543,0.3649098470135801,-0.008653331330368946,-0.003766331330368946,-0.002767823819252494
0.315,-10.071611646369131,-0.008864589146133514,0.4468727198109407,-0.007222397598016425,-0.002335397598016425,-0.004229822603440262
0.3175,-9.932388498121975,0.03628071607615354,0.23394298764762825,-0.010282559122297518,0.0014087388706034193,0.0003902979929009369
0.32,-9.91249803663117,0.003917196626868791,0.22382942306550496,-0.01157452836829085,0.0007196134150801316,0.0009931417833709815
0.3225,-10.020733471631383,-0.07572742619268691,0.3820018028574672,-0.01161503063058983,-0.001341141030227566,0.0003220612611796619
0.325,-10.096963483972125,-0.06423009767711943,0.4043780976771194,-0.008146619163763047,-0.002708468408826949,-0.0009298836236933851
0.3275,-9.955060500298826,-0.051934447782283906,0.2308851399316972,-0.009462443071504805,-0.001374,-0.0034022276157950893
0.33,-9.968774800064034,-0.05594858023906086,0.28841805427107825,-0.009804321372465317,-0.001374,-0.003145958774813232
0.3325,-10.099894552642063,-0.010299870251903404,0.45221379689279595,-0.008001843875805485,-0.0018552890310486285,-0.003054
0.335,-10.06858313983361,-0.007469041397670643,0.36137915261231157,-0.009477412778702182,-0.0018805373044925113,-0.001060274475873525
0.3375,-9.86828752896148,-0.04768956058020529,0.15050041506581938,-0.009898032106289608,-0.0015891175524134532,0.000698994563627511
0.34,-9.868552381519507,-0.05799374587268995,0.20041050891170534,-0.009056913921971244,-0.0032683989322382133,0.00019891392197124425
0.3425,-9.970597018802703,-0.03286264195667319,0.3395001443279775,-0.008595281928721173,-0.006204057796412803,-0.00026200095970184216
0.34500000000000003,-9.952913374719575,-0.014735877617430084,0.3073859291525132,-0.009469754121448112,-0.0032531974252339754,-0.001018512113329478
0.34750000000000003,-9.841749851162355,-0.0035511990496155084,0.20771251524341822,-0.009351140116468658,-0.003906577498253021,-0.003100825907290973
0.35000000000000003,-9.913280217125383,-0.01757987232415874,0.3509386908256889,-0.010147008409785916,-0.00511012767584099,-0.002234283333333327
0.3525,-9.967102678475651,0.0034329641848975037,0.4143453489484822,-0.008922929745942141,-0.0059580411079745875,-0.0017637684615384654
0.355,-9.953169156540573,-0.0031891061777673726,0.3307725409731578,-0.009315731857352821,-0.002951996348727497,-0.0020873768175137274
0.3575,-9.89978597737077,-0.07736722759163538,0.2689902653312965,-0.010014856578947361,0.0007387681719925023,-0.000305
0.36,-9.957226679927162,-0.07073909886983086,0.3485234984140033,-0.011049635526315785,-0.0026476691212405827,-0.000305
0.3625,-9.965178885683786,-0.042331003700628825,0.3687322248369115,-0.010875114363657934,-0.0022351007946862893,-0.0011149852686513997
0.365,-9.902059750095239,-0.00964000163809535,0.2667152655047623,-0.010280583447619049,0.0001620394476190396,-0.0011696267619047628
0.3675,-9.87969803211466,0.0377751018243652,0.23336117580954688,-0.009022804047127419,0.00048171200291510037,0.0006920952896878338
0.37,-9.979780883437298,-0.012198154176848747,0.3488548052508036,-0.010179855646302248,-0.003382139115755619,-0.0006743415209003174
0.3725,-9.99361085956501,-0.03235336746175909,0.37790091097514344,-0.011447276304971318,-0.0027416909082218005,-0.0016481720506692158
0.375,-9.901167081195576,-0.03910059355142386,0.2637480032948929,-0.012863518239585784,-0.0019287566486232055,-0.0023084160979053893
0.3775,-9.841553472192192,-0.07190777740300304,0.2559146132756757,-0.012487269703303302,-0.0020705431591591596,-0.0018825916924924916
0.38,-9.963075957035338,-0.05935358972464429,0.3804645129233596,-0.010096533758604859,-0.008196900032124841,-0.0015282547544745292
0.3825,-10.005562424098073,-0.021135437886345712,0.4207935515139801,-0.011121501769430525,-0.0001979486901382921,-0.0026552269992149327
0.385,-9.93893836581436,0.010284481171568435,0.35038337335346315,-0.012378475837912923,0.0002852106117519191,-0.0042991084509934226
0.3875,-9.907603007714718,0.009320261228294987,0.36602833762964715,-0.013547029576972385,-0.00014092965854795887,-0.004167970423027614
0.39,-9.96035080585162,-0.02599158583393638,0.4374139436829841,-0.012895987480106095,-0.0033810421380918135,-0.0031222929571577793
0.3925,-9.920327842423662,-0.019474286562088168,0.3289377556460291,-0.012767165082026107,-0.0036340563190037016,-0.002626517188360674
0.395,-9.8311533791421,-0.058759012559663454,0.19991071680548977,-0.012722753373888628,-0.0009434549181094793,-0.0029110519918889434
0.3975,-9.885286096147324,-0.06200441232856775,0.3472790607026921,-0.0120756336418706,-0.00020677692270414807,-0.00401392881996609
0.4,-9.940115663837995,-0.015519941176470146,0.4286383411764709,-0.011484064320154287,-0.000305,-0.005666265670202522
0.4025,-9.95337,0.002391,0.441176,-0.011301,-0.0001448481000854743,-0.006261
0.405,-9.87158530254437,-0.00734531228496984,0.31849868236812395,-0.01370549019237936,8.306321956063264e-05,-0.003773989484919882
0.40750000000000003,-9.870228679257112,-0.038201367814277826,0.3067866885943139,-0.013920899816598923,-0.0009327759721416325,-0.0015591827463726038
0.41000000000000003,-9.903267129036486,-0.06122454675502632,0.3419917267282206,-0.013242018600148918,0.00035643456142965893,-0.0038940060014892386
0.41250000000000003,-9.815477946598682,-0.0631877953039043,0.22338146282033777,-0.013602929826915347,0.001222,-0.00566169856433652
0.41500000000000004,-9.786584,-0.060976,0.185916,-0.013744,0.0009123734835275003,-0.005803
0.4175,-9.914458419404877,-0.008267842775610386,0.4132487271073144,-0.015851651595121925,6.093833658537412e-05,-0.0043984100682927
0.42,-9.939983715745655,-0.013562384634723534,0.3924877832536126,-0.015103989323320556,0.0025186588229532078,-0.0038639377161048087
0.4225,-9.890602803048141,-0.09885122902121772,0.26383570858316296,-0.013203357152635193,0.002953659018936807,-0.001564384795801981
0.425,-9.866504384892844,-0.120756,0.2507041108289526,-0.012933512462596037,0.002011792009704816,-0.004813064876667993
0.4275,-9.90946106568659,-0.05196733473344142,0.34221284288483683,-0.012043565529656132,0.0012112827648280665,-0.006098282764828066
0.43,-9.928549870118857,0.007940179174429681,0.37190355554127846,-0.012589995329264372,0.0018999953292643725,-0.005851955576614199
0.4325,-9.908891474990536,-0.004961017586750695,0.3104832210126185,-0.014468444280757093,0.002291,-0.005646615820189275
0.435,-9.891823709892423,-0.06478037315247889,0.2622201647988774,-0.017497718652946675,-0.0004780839008419022,-0.007036156099158089
0.4375,-9.924390000756716,-0.049966444192205826,0.3135920571320469,-0.017104,0.0023270295119182747,-0.006158413545213772
0.44,-9.91761373209232,-0.0553875724771634,0.29631245868439543,-0.017104,0.0031924830290254586,-0.005898834166801794
0.4425,-9.933318491046391,-0.08105797135950277,0.3377270377437552,-0.015592566570737881,0.002233563361344534,-0.004640300329227578
0.445,-10.012021101069799,-0.08806444943248531,0.3937119378995435,-0.012499797208088706,0.001833,-0.003961805427266796
0.4475,-9.998528792850482,-0.06397425896986911,0.3538537454735642,-0.009227125644115965,0.004828009528141006,-0.0062373943467879615
0.45,-9.959068122220236,-0.0300134903833541,0.25655183884814925,-0.011620337304000462,0.004820890633756621,-0.00661981465450426
0.4525,-9.996440013521731,-0.0072165116580217015,0.3585774771954933,-0.008183223580754767,0.002243367919871208,-0.006047170752995884
0.455,-10.068439313825797,0.005028247239044199,0.40558924995718865,-0.010046128110843017,0.001937310783840586,-0.00564169513816455
0.4575,-9.997026869771082,-0.028106642955758935,0.26312318113628097,-0.010563819470999875,0.002219284720673707,-0.005965803805005342
0.46,-9.939148351670607,-0.07893984694706985,0.25583120475189125,-0.011912294603024605,0.0023420127244801613,-0.006109
0.4625,-10.008764556131855,-0.06746051658790159,0.36840136369329024,-0.015601636909262794,0.0035715870155954743,-0.006109
0.465,-9.98869543516547,-0.05734413148954105,0.3035295303659037,-0.013435742610163346,0.0032037426101633464,-0.008894889572608353
0.4675,-9.943729103220205,-0.03618361623726543,0.16031916806799534,-0.011890911852432318,0.0016589118524323182,-0.008605391828319969
0.47000000000000003,-9.980399182620932,-0.0028509634540653077,0.24181850153674095,-0.01285934580954667,0.0015832328520028814,-0.00750788704245621
0.47250000000000003,-10.106330446626314,-0.02299925403829592,0.41904726063002107,-0.013439,0.0008175844150710143,-0.007025
0.47500000000000003,-10.069796965470326,-0.08488087703495276,0.3519637840018751,-0.01663532925170073,0.002102434295097373,-0.005853059113300474
0.47750000000000004,-9.940926340124925,-0.09887651727047711,0.20707968997524812,-0.017662987573364753,0.002749,-0.005702232443134952
0.48,-9.912122,-0.096246,0.178144,-0.017562,0.001376031843351268,-0.005803
0.4825,-10.016196504434316,0.0983672424557459,0.35371939458409835,-0.014137398375466214,-2.317672369901072e-05,-0.006524955071931807
0.485,-9.964984452382927,0.06051396545852841,0.3039904092925229,-0.015749589407376703,-0.00011815755846308635,-0.005102725709549472
0.4875,-9.9806156822048,0.041913205797101484,0.2942351027797576,-0.01585910985982419,0.0003288901401758103,-0.0033766689950107
0.49,-10.015188269274992,-0.022521344650271204,0.31645769931651224,-0.0167916039540083,0.0013075612519961638,-0.0016739843819865918
0.4925,-9.9481440850829,-0.064206156955101,0.2692375651216267,-0.019721755038121735,0.000940734900157331,-0.0019317449691395342
0.495,-9.944295368891991,-0.09104306644956187,0.2653375572613786,-0.01946921531518958,0.0017112663037915777,-0.004664732899123822
0.4975,-10.052900444672792,-0.0663808211963248,0.3912231018676168,-0.015955596549784363,0.0026232479429964374,-0.006585689709356836
0.5,-10.007676642839582,-0.051973754578979715,0.35165137086662573,-0.015479039827904117,0.002443,-0.005995524216349109
0.5025000000000001,-9.9194486719287,-0.06083476959065785,0.2819168777184987,-0.016758985701290748,0.002443,-0.006094130318377384
0.505,-9.889878931069497,-0.07843676661286535,0.2501300601143931,-0.016205479871503562,-0.0010726214275640598,-0.008346467338400066
0.5075000000000001,-9.980486485258583,-0.026125359526338897,0.36106888562591094,-0.016738837796036764,-0.004308074026099633,-0.009070960405993225
0.51,-9.997679083384469,-0.004256782185671328,0.36506133105171584,-0.016952,-0.0013189585260161172,-0.008369898099003636
0.5125,-9.86919756907144,-0.0007261016358714972,0.20264101687654887,-0.015271209697540354,-0.0006870022596210194,-0.008094
0.515,-9.922518087469806,-0.009705383002599051,0.3293033778107334,-0.015825152245833977,-0.0033437081027366004,-0.007689271582326859
0.5175,-10.05185449945797,-0.022503856815286397,0.48465539896590293,-0.015182773328337737,-0.004002644665917338,-0.0072518094667166294
0.52,-9.975390696590424,0.011800168300091594,0.304425881617566,-0.014781987405916443,-0.00031680253979872745,-0.008403600846599576
0.5225,-9.919952716913693,0.02632865406770336,0.2585456449990857,-0.015465688378164066,-0.0014891354510521333,-0.008794378483684044
0.525,-9.920660597222222,0.022533338888888754,0.270790115555556,-0.015293803333333328,-0.004047270555555567,-0.00803953277777776
0.5275,-9.944376594157088,0.0075228328352492276,0.31882373492720245,-0.014603792114942537,-0.005351462065134083,-0.006045330049808454
0.53,-9.931832475340709,-0.008540995531741594,0.2897993887105402,-0.016079309237041397,-0.0029031477647058004,-0.00480867112871287
0.5325,-9.883458429063088,-0.04006342940683281,0.1868637982351693,-0.01983163759169984,-0.004276,-0.00641123680150911
0.535,-9.973128050760847,-0.05353052108572643,0.3281028755271449,-0.020922301687277312,-0.004276,-0.007166185147767773
0.5375,-10.070285310925195,-0.04172690457677192,0.4952386134350377,-0.02138,-0.0022178350639764093,-0.007483
0.54,-9.949948395083723,-0.016174614124532246,0.34886735666070234,-0.020226975386116057,0.0006740416290034526,-0.008741032212648372
0.5425,-9.818782400452795,-0.032138827228381094,0.17203593912942106,-0.0197,-0.0003276420025673716,-0.008606829076905131
0.545,-9.947034579642043,-0.04905061940339734,0.40524189731069726,-0.017436062909591744,-0.001374,-0.009484818063331821
0.5475,-10.03078499728431,-0.05702911864331862,0.4382893342300315,-0.02236749327127814,0.001251222926290046,-0.010541149267554827
0.55,-9.976448641782534,-0.01655014426668147,0.3128414813194462,-0.022740219977892846,0.0056293891674909155,-0.011565385176566427
0.5525,-9.785404307181842,-0.031522660095134714,0.10340471027288733,-0.022497851726612703,0.004776087614120007,-0.010579927967954606
0.555,-9.899569054593455,0.010001747694473906,0.260582543343896,-0.02060869088349172,-0.0035063890601899966,-0.00954084544174586
0.5575,-10.007314759908484,0.01662070684031443,0.4157663780687548,-0.020233452493253548,0.00043915034142906744,-0.009353226246626774
0.56,-9.915575158977935,-0.01713261586672763,0.3079888037325492,-0.01726863437640695,0.001222,-0.009604563507429094
0.5625,-9.711715829112306,-0.04361544879338279,0.0052457652426025625,-0.017494825104459794,0.0042188946874733525,-0.010011825104459793
0.5650000000000001,-9.75219036644487,-0.04128613456273746,0.10742618935361639,-0.018278071768060858,0.0018707544866919364,-0.009522286749049414
0.5675,-9.917963294604064,-0.03805744981079189,0.36642348510161266,-0.01874286192011212,-0.0001163078906797427,-0.009333846054660129
0.5700000000000001,-10.03676871360294,-0.064387113602942,0.45924173491176223,-0.017468867044117608,0.0013699474705882574,-0.008258469808823474
0.5725,-9.860214419096435,-0.05119682745023231,0.20580002070330078,-0.018190317091429258,0.005767176254619167,-0.011198762221957344
0.5750000000000001,-9.790153773547186,-0.05120414723384491,0.14040178712226825,-0.018689323802882386,0.0028231481636446943,-0.01006382073454201
0.5775,-9.936950650604585,-0.09251823978547083,0.3619537083471497,-0.018181378805460745,-0.002067315548512948,-0.00880126932228181
0.58,-10.099445373218453,-0.09691715674369927,0.5883862605040633,-0.01985241852967224,-0.0016088604911828899,-0.011721620043481703
0.5825,-9.94857423799331,-0.07007415585284253,0.35041916374581605,-0.02123929157190636,0.003913410501672295,-0.012981
0.585,-9.761027072533041,0.019191418513886407,0.07327359857561475,-0.02148826157474084,0.002986568039882918,-0.012872738425259161
0.5875,-9.822652670870673,0.08389204334550324,0.18370327994247418,-0.021992017214293624,-0.002909686845890101,-0.012139849806394504
0.59,-10.010731089497488,0.07158045773172171,0.44470083646681163,-0.022350628406941356,-0.0035465030249198287,-0.010256262863722374
0.5925,-10.058118163672615,-0.007604309976616555,0.37622918602338185,-0.024299879867076955,0.0007705592713846809,-0.008481564243692293
0.595,-9.896656543533554,-0.10556007198714412,0.11608275771673701,-0.023801689102456208,0.0014710311974902466,-0.010019820298416077
0.5975,-9.77886569123192,-0.17514303577556173,0.12707141809975298,-0.023245018588528676,0.0004085208927680599,-0.009997711576059833
0.6,-9.939087408461967,-0.16078481869951233,0.3959872682716123,-0.0234278489962409,0.000153,-0.010311474702071497
0.6025,-10.067563259976728,-0.14226899054223857,0.46688955850127933,-0.023518,0.0012386038910868285,-0.011140640009308833
0.605,-10.004697038486894,-0.07878723148642339,0.2900728404457713,-0.022789623569298388,0.001527,-0.01411025727201379
0.6075,-9.833121524939916,0.0077060047918453755,0.2154738594849796,-0.02079122065665235,0.0019820327360514844,-0.011099391933476381
0.61,-9.869105007995708,0.00030803109227471766,0.28273123424892666,-0.020103795832618027,0.0008653893025751132,-0.010240392173819748
0.6125,-10.089705759061788,-0.02453449411195806,0.5161863726272578,-0.01972979717083786,-0.0032308376496192545,-0.01189421903034705
0.615,-10.180937643414067,-0.0003306075740928255,0.5564504174572468,-0.02106389929273388,-0.0008718926224560997,-0.01436296865433722
0.6175,-9.986489870972296,0.013152,0.3072995230312238,-0.019947777664113084,0.000611,-0.013533777664113084
0.62,-9.826277405725897,-0.022777884714680362,0.1718642522484145,-0.018980927234595997,-0.0013855456088440864,-0.008791787797106165
0.6225,-9.944177797791923,-0.11913769295580448,0.34338945222295003,-0.020533819066087713,-0.003054,-0.007282755231693556
0.625,-10.006447406519541,-0.20005100916066862,0.3784394975313783,-0.02205762560228422,-0.003054,-0.00833064511331866
0.6275000000000001,-9.927922037693374,-0.19723267809170797,0.20761158874478267,-0.019384303094024894,0.0008785672348310815,-0.011327231773969524
0.63,-9.828498236543012,-0.14987983621147494,0.11759814501327746,-0.021434563492395597,0.001985,-0.013331275097770984
0.6325000000000001,-9.815555786990062,-0.08662947707051405,0.17942827362518057,-0.02227439196876477,0.0009042218741125937,-0.014617518750591604
0.635,-10.070080733316756,0.10881417983895807,0.4667922532978089,-0.021092156085257555,0.004429,-0.016933843914742445
0.6375000000000001,-9.969874986465362,0.13627768280639507,0.33095851385434805,-0.023083146749556003,0.004429,-0.014942853250443998
0.64,-9.947989,0.142276,0.301291,-0.023518,0.004220517053786681,-0.014508
0.6425,-9.887700858405278,0.07140234746904472,0.2387009909362358,-0.02575212019905098,0.00635712019905098,-0.01015831732438386
0.645,-9.931531321998586,-0.12217579369314316,0.32534070827244965,-0.025502136460051842,0.005495672458166378,-0.005901478095686988
0.6475,-10.109623881034603,-0.1834117984241414,0.5783687241958999,-0.024702016079511446,0.00816533695126324,-0.008774711114836443
0.65,-10.007501419591643,-0.12603223755458462,0.5018059923285715,-0.02413356216216216,0.009316,-0.011290351634604049
0.6525,-10.005977,-0.125538,0.500359,-0.024129,0.004770188945216737,-0.011301
0.655,-9.904147316915264,-0.1436043461885118,0.3492570890257042,-0.025177827534116168,0.0005092509679466392,-0.011930159149476365
0.6575,-9.916532251958262,-0.07927783797136741,0.40130713228827747,-0.022991100956078668,2.107778694489769e-05,-0.011975024945401607
0.66,-9.947094518041125,-0.0801558270412811,0.3652319534641334,-0.022086084300737715,0.000621373548893428,-0.012227684281902376
0.6625,-9.936811736296649,0.026386485001186843,0.25037623389588903,-0.020569991585452838,0.000764,-0.013791784074162091
0.665,-9.862445069279321,0.15500978575600732,0.16302012678913377,-0.0238694793154342,0.0034437531166588626,-0.012862448440885516
0.6675,-9.950850096996534,0.11482209823300205,0.3060829836812466,-0.025934261186660874,0.000458,-0.010747927871372884
0.67,-10.013968445857515,0.011660657332176777,0.40347475889129647,-0.02888153630142924,0.000458,-0.011268469335210056
0.6725,-10.031245317402965,-0.11146691832039449,0.3674863357233598,-0.028599298193366277,0.005549095525758603,-0.01072613367678194
0.675,-9.90194889388845,-0.23683309156323867,0.17032714923801662,-0.028881334265514546,0.006872,-0.01127028529457975
0.6775,-9.81295353726077,-0.2661704580234103,0.12029999999517296,-0.026658213500663705,0.004480998450585268,-0.012204141841438395
0.68,-9.93466710370119,-0.17013483809846985,0.3079742340011361,-0.023709731341256313,0.0062844694510470304,-0.014622268658743687
0.6825,-9.992416655791246,0.04247647635311437,0.4795575691729801,-0.023401882640993268,0.009278124450757576,-0.01725973826388889
0.685,-9.882272043804711,0.10249542638678578,0.3173079756376228,-0.023822791462542098,0.009193722026515149,-0.01658617381944443
0.6875,-9.686567948174533,0.06832053671712675,0.11243856776491541,-0.02650795458593054,0.007590146749777382,-0.012303989492430988
0.6900000000000001,-9.859604463907395,0.06906502878955181,0.2631477911451504,-0.02755372940338382,0.005403356908281339,-0.011353454881567209
0.6925,-10.141800782406458,-0.0334784859427736,0.6282934578283208,-0.027580593279530444,0.003848186559060893,-0.012461626881878215
0.6950000000000001,-9.994882789387102,-0.11798619448714051,0.39374148816766313,-0.025020674052079955,0.008279146456017919,-0.011862591559225123
0.6975,-9.909731,-0.142874,0.261836,-0.023976,0.006273512380723449,-0.011454
0.7000000000000001,-9.935728225330239,-0.0410195131534673,0.3679528997198016,-0.02941968367624707,0.0024057244896324432,-0.013413754639340386
0.7025,-9.964479057436137,-0.10873104568762482,0.43330069226175216,-0.029277271951475545,0.0010988654286714092,-0.010392266697772046
0.705,-9.931649940901858,-0.12409344371352807,0.2812661081167139,-0.026979844137931065,0.0017178292838196162,-0.012280774111405782
0.7075,-9.804216373744632,-0.1816262591412436,0.10801874656723046,-0.026621863575141246,0.006244912524293832,-0.013793863575141247
0.71,-9.771639,-0.199665,0.0485003124492782,-0.026725,0.00390445550397669,-0.013897
0.7125,-9.986589906689462,-0.06271351498575306,0.33924813957835187,-0.026030134404558394,0.0012479430199430054,-0.019110009139601213
0.715,-10.07624845044733,0.0714949349110135,0.4638656285521881,-0.025604410870610873,0.0074722431168830145,-0.020769
0.7175,-9.926366859978561,0.15321302172204423,0.18880696330593755,-0.02608364374895797,0.008601611184946968,-0.01636051680838387
0.72,-9.801456648402773,0.07224364186091096,0.17204374459013683,-0.028121393540986195,0.007941,-0.013009071785230648
0.7225,-10.022219602105267,0.027499,0.451259089122812,-0.029720516491228085,0.007236483508771915,-0.013356357192982482
0.725,-10.144801518903591,-0.0870269144612464,0.49079995406427257,-0.030138419848771265,0.006509624952741026,-0.013847209924385631
0.7275,-10.01464761735494,-0.24132148765797745,0.31537807608174395,-0.029896185896171004,0.006945374526661985,-0.016290445045806963
0.73,-9.85580555352136,-0.1801716595216898,0.22101353214580277,-0.02894095379844962,0.005814378268184079,-0.01762857553026554
0.7325,-9.813626981503,0.0017648426794752703,0.28565916513805734,-0.027209627563025175,0.005192,-0.018358390213685485
0.735,-9.91327763523619,0.026921806825665542,0.3386046221387904,-0.028332300563163555,0.0035302337344206907,-0.01816746133866749
0.7375,-9.960225204124189,-0.02286934443929698,0.27149301848933954,-0.028344365708989787,0.003084817145505107,-0.015221546153846072
0.74,-9.867567559851253,-0.10736795535906093,0.14691771352780805,-0.02954576220808197,0.004756224143459211,-0.014925881104040986
0.7425,-9.82305,-0.139885,0.101626,-0.030238,0.006565303049083416,-0.015272
0.745,-9.871910722532771,-0.0693530758236874,0.26278570563434234,-0.03033884840475278,0.008583127181295513,-0.016076809818321196
0.7475,-9.994935405761568,-0.014322929748024887,0.44524161016924024,-0.030275166513726963,0.00969966697254608,-0.019268461180895174
0.75,-10.045872439001036,0.060943937684512894,0.4525806102289955,-0.030550374052501397,0.011127848240644698,-0.02026266999122317
0.7525000000000001,-9.86061719904819,0.05645671615393817,0.2071675811484677,-0.029008659356561793,0.011879749821536972,-0.015731188141313412
0.755,-9.822138486923016,-0.015514171668941285,0.2168871856723129,-0.031668831185678745,0.009016096414867137,-0.014508
0.7575000000000001,-9.885549865377703,-0.11564892562288667,0.2806056263724473,-0.03238237584121422,0.009963747628721625,-0.012694918916520654
0.76,-9.973519221317718,-0.1841704254758421,0.2368839069399705,-0.03189892644216691,0.009888852884333818,-0.014378669692532953
0.7625000000000001,-9.94494798946619,-0.1575374280901523,0.08131803943059954,-0.030142433214709306,0.008622120094899129,-0.018891509181494806
0.765,-9.97258491670335,0.07469711135566515,0.44857552103277304,-0.03232769537791752,0.012845359891159768,-0.01869400386503808
0.7675000000000001,-9.955528596122868,-0.03901169251421294,0.4591887231515301,-0.031843288518563294,0.015459508426653841,-0.0162732376490506
0.77,-9.90931977412218,-0.08860767271092584,0.3870757239945406,-0.033812982191538915,0.012972340945653022,-0.01857641626715905
0.7725,-9.784217186042556,-0.07174768442553256,0.15678127165957884,-0.03417445600000001,0.011882337531914892,-0.018838249531914913
0.775,-9.771629466987333,-0.10356234542247916,0.06852819708192999,-0.03459706083052751,0.007038906910373526,-0.018198434984768315
0.7775,-9.877035110596836,-0.14301660725741033,0.2165295080696146,-0.031823298822220514,0.00504,-0.017604642768815078
0.78,-10.041819742992304,-0.11370919988396627,0.4773987637264338,-0.02972721829298227,0.007472903014615699,-0.018311204864442734
0.7825,-9.919334023011112,-0.06430525852636967,0.36150029398033856,-0.031555631980589936,0.018197680781509233,-0.02291817879708843
0.785,-9.871471,-0.062769,0.306074,-0.031918,0.010954441520924535,-0.023824
0.7875,-10.027856599999998,-0.05416100000000012,0.4227643999999984,-0.0320396,0.00497880000000003,-0.02223520000000002
0.79,-10.114577342923978,-0.030473924153626947,0.49666284336336414,-0.034503658928402126,0.004429,-0.02257855832464044
0.7925,-10.13231884850251,-0.06873469357658817,0.4237734626129557,-0.0345957760205706,0.009117102088894278,-0.019329726856863023
0.795,-9.855976657215027,-0.1449375921378462,0.09085828213004249,-0.033724193600498976,0.010763135468579458,-0.02028374826758151
0.7975,-9.810564691242211,-0.05043068837425291,0.12263693296689732,-0.033445,0.006824575434225027,-0.021075
0.8,-10.014268882200083,0.004204369023515862,0.3185877041849375,-0.033120979147070545,0.007639589812674411,-0.02075097914707054
0.8025,-10.083215374255078,-0.07586570773617667,0.45697827410771025,-0.03359029741807943,0.010683149693883657,-0.01961565768166297
0.805,-9.999852545802431,-0.12393135617803964,0.3360638241035141,-0.03550930519379384,0.012601529316479999,-0.019903351809740615
0.8075,-9.783249838019264,-0.0880842900169973,0.05443718720000068,-0.03280914992407933,0.014686864797733708,-0.020122929794900848
0.81,-9.722387854375901,-0.11360126005768417,0.03964270805640278,-0.0328962933183785,0.01337088246755323,-0.021495676926774593
0.8125,-9.865447334808804,-0.11836164859215542,0.16801844620681178,-0.037054938399114716,0.012162084962498463,-0.02166251727529817
0.8150000000000001,-9.972712104186048,-0.04996105364340908,0.37801016022148903,-0.03495709687707633,0.0150285568549281,-0.02216784987818385
0.8175,-9.9196650313211,-0.060465539990825795,0.37895746889908233,-0.032788217788990826,0.019233187541284412,-0.02059839388073394
0.8200000000000001,-9.852132868621855,-0.08613894557690763,0.2670395692206159,-0.031685313058969045,0.012356621832577077,-0.01852989306061851
0.8225,-10.008335487666123,-0.0948760883049662,0.38787277618092886,-0.03610057662858478,0.008858,-0.022302136861739357
0.8250000000000001,-10.245585647432343,-0.10056759085641734,0.537377031637435,-0.03542563101833472,0.009276309230891355,-0.02215678061750928
0.8275,-10.188786425725128,-0.13019301902242691,0.4386657559884979,-0.03336781746751005,0.008551504340425524,-0.022335402833812544
0.8300000000000001,-10.001054033122646,-0.13491173965917258,0.24337544522601284,-0.033494729831186516,0.01017743806064492,-0.024126520371229754
0.8325,-9.893961122426663,-0.024983921138433382,0.21258388178754264,-0.03627367801273252,0.007422682970914948,-0.025373812992135817
0.835,-9.95052642908263,-0.011345666560436798,0.2540406416571814,-0.035329660587298,0.006414,-0.022451822681538863
0.8375,-10.05996366230624,-0.08056503314429836,0.33778073119092733,-0.03580244461247639,0.005360236370510381,-0.020922
0.84,-9.915679483076927,-0.07389435759897045,0.15221693188606683,-0.033540827930479605,0.011407473984550918,-0.021664860383006104
0.8425,-9.689891294177976,-0.11151980847894269,-0.1097511144633977,-0.033680805847546146,0.014203,-0.01973787990254086
0.845,-9.798401602873215,-0.10926499907704873,0.10636250810272793,-0.03256369168854466,0.011111590499796209,-0.02015583479494495
0.8475,-10.057060441542717,-0.0933561820032234,0.5366993416210054,-0.031918,0.009774,-0.020974585899148062
0.85,-10.11119,-0.090866,0.625299,-0.031918,0.013538504683635162,-0.021075
0.8525,-10.098367157865045,-0.04527464337507495,0.4073162446930042,-0.03713500045227976,0.01126808919148927,-0.01937651561337382
0.855,-10.007338487164752,-0.13419736735632098,0.3110405212547896,-0.036661851273946375,0.010232,-0.019472642078544055
0.8575,-10.122536232926388,-0.12199053227608059,0.37497365277891886,-0.03683458871509732,0.007017942502115357,-0.0221664116426931
0.86,-10.135416873081107,-0.23337115461863836,0.3420137898609938,-0.03828647292638703,0.009630827095370468,-0.022263372919134536
0.8625,-10.010878923442272,-0.13047919661415086,0.2155380198918379,-0.03374851855161049,0.014226517328944376,-0.026969690759464034
0.865,-9.91366318704604,-0.0005304944579070658,0.21658859510357215,-0.03316116816696631,0.01501340859219886,-0.02620280535918081
0.8675,-9.860658197218893,0.04665004814193252,0.33891616065692026,-0.036190658192280116,0.012578403155118602,-0.023679525849916037
0.87,-9.854136,0.047824,0.36944,-0.036957,0.008932457343197177,-0.023213
0.8725,-9.979976257457494,-0.08312512194332419,0.3522592390607282,-0.03505933298785419,0.008585221894736874,-0.021908014089068784
0.875,-9.985651918755615,-0.12117307618192211,0.22996640336408916,-0.036220728831550586,0.01067161770229444,-0.02174607912141749
0.8775000000000001,-9.906712934619504,-0.09765023592711598,0.17837220996070022,-0.03782202303679889,0.009970756570203592,-0.0246806809431941
0.88,-9.913944995964467,-0.03393482091370547,0.17182590642131979,-0.037811098857868014,0.004886833527918772,-0.025888605152284264
0.8825000000000001,-10.065718809079996,0.06616604599567912,0.4143314628777418,-0.03858910092721598,0.009226387297622152,-0.023262016411241784
0.885,-9.958342254076689,-0.05190111661726667,0.3195626314420136,-0.03599582522230064,0.016117727254763587,-0.021867179468360386
0.8875000000000001,-9.923320654340156,-0.09392617297106674,0.30260497946365517,-0.03693747163020468,0.016306426534932965,-0.0215847472124206
0.89,-9.796452837564598,-0.17930519087069094,0.07991284946768765,-0.040771718867468505,0.004429,-0.025071802916498832
0.8925000000000001,-9.889882123779712,-0.13890330475455948,0.16684865214939537,-0.04316792954595161,0.004429,-0.02719164379121834
0.895,-9.898772053253309,-0.11165020769218104,0.1698949509759104,-0.04077380588012823,0.008783791179807654,-0.02681232197977472
0.8975,-9.912447764291256,-0.06510647141748545,0.21558219328920217,-0.03974498821273681,0.011301901305637973,-0.028828668555124348
0.9,-9.860556074017065,-0.0168908012380789,0.25639890933578746,-0.04070793936757572,0.015273532441023967,-0.028884351731637937
0.9025,-9.871129021946176,-0.0321584360887059,0.30854788335885014,-0.041081,0.012667068177728754,-0.025344570897324663
0.905,-9.95284746115834,-0.10779850598916434,0.36308140990246884,-0.04082450235279951,0.00901,-0.024568855320891075
0.9075,-10.054975531915897,-0.1039371609729663,0.41721067366276204,-0.03959178717003356,0.00959710512515457,-0.02861560641498322
0.91,-9.974493510406973,-0.13199470548795605,0.21600500231815523,-0.040346460514753525,0.012520692370575452,-0.028238269742623237
0.9125,-9.775571816504147,-0.06385489002925512,-0.05087332408580908,-0.035676080131643174,0.01334420862993662,-0.026120908142369604
0.915,-9.906398186093567,-0.06190424042111957,0.22177879403467637,-0.038937369489432515,0.010588599471226109,-0.027598156640544637
0.9175,-10.028879426496875,-0.05441434851078898,0.46139288616908264,-0.04443688296663125,0.01581515725032418,-0.025719725716307068
0.92,-9.954505842851749,-0.0900793819249326,0.3199617930467571,-0.04273207935416225,0.015253464399245083,-0.02635807419584821
0.9225,-9.840496944146727,-0.07397959332855755,0.19191336661412836,-0.04270898360796674,0.012920209835219956,-0.026749634067918044
0.925,-9.7836967292517,-0.11547609076305351,0.13977672853044737,-0.04347719085320875,0.011144601081878504,-0.024028583870174522
0.9275,-9.94357528833823,-0.13012862411033244,0.29873458922902907,-0.042358301388198065,0.005640607795613864,-0.02500556285778882
0.93,-10.112836258454138,-0.11396509711124858,0.4554733034409103,-0.04247053858111681,0.010037494885286975,-0.02860520209706121
0.9325,-10.093540664599105,-0.03768700564475026,0.37376849957000635,-0.041392256878457025,0.01365765674763118,-0.027604084613534703
0.935,-9.945658042772317,-0.05098561138962973,0.18303978555156958,-0.04188221579299994,0.014859970751992564,-0.026556109035462606
0.9375,-9.931532016976954,-0.06564337382104486,0.23438976822767163,-0.04322929886000164,0.009464443041089149,-0.028169683752973018
0.9400000000000001,-10.050831215948554,-0.08234159991425785,0.35104424291532393,-0.042267657834940985,0.011138101307610174,-0.02815908394426571
0.9425,-9.931960155476999,-0.2290505484349763,0.1549958038253537,-0.04254929563385228,0.01806899015802412,-0.026573
0.9450000000000001,-9.814144414362337,-0.20268015225041863,0.051170686010725844,-0.04259633870466735,0.021165673163077492,-0.028156306476663246
0.9475,-9.864874708276968,-0.14538083500379503,0.1774357668415291,-0.04288226782154002,0.01879496976638271,-0.029802541806527794
0.9500000000000001,-10.062528188531475,-0.035666897342652895,0.43962440699301447,-0.04235491020979017,0.015862408391608383,-0.030024659300699273
0.9525,-10.102340714376632,-0.08394034486820329,0.41022529560674303,-0.044381903433863716,0.015963604939444317,-0.02600114497269054
0.9550000000000001,-9.92781467413675,-0.13046255121464267,0.24322663744869225,-0.04633735374376044,0.017477327561999892,-0.025098757673718414
0.9575,-9.740019637604673,-0.1957090056621234,0.0701393374780902,-0.04320842006815965,0.014497420068159645,-0.026739973330087652
0.96,-9.872084779855312,-0.17993504402893767,0.23700785807456531,-0.04215,0.012389093117099946,-0.027184
0.9625,-9.946323981441811,-0.0725494933927054,0.20449404934408297,-0.04335476606089784,0.01118929815862317,-0.03103893580454934
0.965,-9.817184941409263,0.023989062458608858,0.03462327365912385,-0.045277082920898964,0.014302325860993313,-0.030470615500279956
0.9675,-9.766138046596215,-0.13613688349320954,-0.02404366139124375,-0.048706764538381186,0.018707392655905288,-0.027397617977006114
0.97,-9.873283848647862,-0.048993535136185457,0.24626551716155798,-0.043331081616422934,0.014776461550149582,-0.027361621672997646
0.9725,-10.03310461979218,-0.06824849124576925,0.5112139094360799,-0.043251624373613594,0.017575400663164133,-0.027402536154115583
0.975,-10.020942798117982,-0.0810819937371502,0.38911910162897534,-0.043774018266645585,0.016437809663134614,-0.028585936122093928
0.9775,-9.853684726030512,-0.22109070263502392,0.11533796560425796,-0.04821874345846463,0.01072947388713964,-0.027375938779365422
0.98,-9.98983581473801,-0.1911196417973966,0.2628993431565559,-0.04568651967608768,0.007887958177199126,-0.030777046436964085
0.9825,-10.22075502408231,-0.06017652518514595,0.4722482425679203,-0.04285245875783722,0.015725156193130096,-0.032546584939713824
0.985,-10.124685660854189,-0.08906476308022063,0.34359497435721625,-0.04413978934890948,0.018213845493810606,-0.03151660808531162
0.9875,-9.852674111098123,-0.09449017200934567,0.02452590116821679,-0.04338099726635511,0.016786639205607412,-0.031396876775700945
0.99,-9.922090825106,-0.11930110516845804,0.26623659344183503,-0.045872668548435525,0.010726927389345992,-0.02942493253017837
0.9925,-10.024110827690832,-0.2055096572650308,0.3535748947090282,-0.04673855768422319,0.00899577885532397,-0.02894381303945708
0.995,-10.00016064881356,-0.07722496135593251,0.27777130237288156,-0.046777781694915255,0.010507239999999996,-0.03225573762711864
0.9975,-9.785759431097643,-0.05620649468863722,0.09165762630966312,-0.04968077884661992,0.016463314194330197,-0.03239785035134476
1.0,-9.684415769436155,-0.02177539885346317,0.10202323794565729,-0.048160871603580964,0.01643748507931522,-0.029409730249725145
1.0025,-9.862107954367033,-0.16680736204757918,0.17710595265930087,-0.04525186780798642,0.013185595046728895,-0.0274253969413763
1.0050000000000001,-9.946986818462197,-0.1391803466525051,0.290943710756165,-0.04465664279524211,0.016842136355140355,-0.031167129481733395
1.0075,-9.95515462655348,-0.08270936697550145,0.24534799137520882,-0.050121747756488214,0.018173,-0.03203482948338587
1.01,-9.949782,-0.071736,0.224773,-0.051465,0.019361249221975234,-0.031918
1.0125,-9.850820778302799,-0.1907846598360623,0.12091100395371547,-0.047210013307618245,0.016849431774349166,-0.03229334358727096
1.0150000000000001,-10.036477335984884,-0.02182984434288185,0.3812707068767892,-0.048219860340372005,0.016188,-0.03497157771824787
1.0175,-10.09316766992901,-0.028721919744443034,0.4485576543587295,-0.05306635551348811,0.01876146193090404,-0.0317518967818266
1.02,-10.051038901986859,-0.05772468391355979,0.41553493000870717,-0.05288959325575872,0.019714620410037204,-0.030269606832897963
1.0225,-10.035867,-0.060976,0.406504,-0.052382,0.021256926004364272,-0.030085
1.025,-9.956203480533423,-0.224408003772964,0.2763327898194886,-0.05332581219710518,0.019797688697349245,-0.03176380422832974
1.0275,-9.91045541206757,-0.20074940124672358,0.20614808962169823,-0.04929611610754201,0.017851630026171728,-0.03602428599571752
1.03,-9.931452435039986,-0.08462505570353832,0.33278770829677895,-0.04768435629741072,0.01661381923509382,-0.036324879490062544
1.0325,-9.818651843974227,-0.010174872810779723,0.19487257862449076,-0.04949389870884589,0.0211267273954305,-0.036393656243702395
1.035,-9.753599685140795,-0.129159190469309,0.12403606451985608,-0.051239659061371796,0.016545558353790853,-0.03493258457761739
1.0375,-9.936537340630558,-0.17902852334953162,0.3497193107265635,-0.04621486829441759,0.015119,-0.03316247842835138
1.04,-10.004518298715185,-0.1730846870096005,0.40395518611354825,-0.050200625354984055,0.015119,-0.03506090184899848
1.0425,-9.974213643076924,-0.143269867692308,0.3743039507692313,-0.0538592369230769,0.021488221538461468,-0.03384848000000002
1.045,-9.70786893732228,-0.1660786094680321,-0.008527524958503452,-0.05029941344395655,0.02093893819424118,-0.031287756817960054
1.0475,-9.63870094194977,-0.16328766538269152,0.031199253869789972,-0.053515203328175526,0.016207481533150592,-0.03598063582430697
1.05,-9.87473493362446,0.08356907423581303,0.37985797903930757,-0.0498479135371178,0.022364429694323295,-0.036793271615720505
1.0525,-9.895090383934605,-0.07470024831607536,0.31538526276839296,-0.05127877294822887,0.023976,-0.033206218681198926
1.055,-9.820056963406648,-0.20039085130557036,0.1298053216658922,-0.053452266953673354,0.021518870154422234,-0.03215539230697231
1.0575,-9.736691862277462,-0.22152211384306703,0.14984026757062924,-0.053756,0.020764023131199117,-0.031564586495919505
1.06,-9.821190055495563,-0.15191921135819791,0.13705920974304575,-0.053178329456483105,0.020590855130846623,-0.036151449513321485
1.0625,-10.007868245648313,-0.04800278436944938,0.2561920948490231,-0.052230327353463585,0.01916854156305506,-0.03605646305506217
1.065,-10.070305940885497,0.020360566839693343,0.43414190369465244,-0.04819768561832071,0.02830900525190816,-0.03560999780152673
1.0675000000000001,-10.08369,0.041846,0.500359,-0.046578,0.03197541595048207,-0.03543
1.07,-9.937616779076722,-0.09613650102888635,0.2887001538555022,-0.05038648714937206,0.025390284371549533,-0.033906890100007955
1.0725,-9.99570474322201,-0.20827216578286006,0.3828052128518067,-0.05418720695573419,0.020491012897090443,-0.03353072503566173
1.075,-10.028693,-0.224175,0.433405,-0.054825,0.01954253821009204,-0.033598
1.0775000000000001,-9.777806485156544,-0.20060228508083605,-5.0550735953790865e-05,-0.055085201669821025,0.022400950841940482,-0.0383678119115341
1.08,-9.739164591250741,-0.09281323106039815,0.007067722721029781,-0.055344893341264266,0.028202621545449794,-0.038454564806142864
1.0825,-9.842871202055989,-0.010006579920018327,0.15123825322512505,-0.054457612354740045,0.030238,-0.03506064324159018
1.085,-10.10415397007598,-0.10993467598387331,0.46957554297410525,-0.05455105590634208,0.02404698861528916,-0.03387550555434955
1.0875000000000001,-10.07852874206171,-0.13438283060571693,0.38281450317047006,-0.05428695497312645,0.025276959381605034,-0.03238854310042889
1.09,-9.941115197069866,-0.21009256341566762,0.1719626440002348,-0.05535015873180751,0.022762378008333757,-0.034612469008998205
1.0925,-9.773968278508292,-0.27008240287686214,-0.012101162164912818,-0.053411798023973805,0.021838,-0.03555284312386488
1.095,-9.905343132782496,-0.21172412826566026,0.17883433943342503,-0.054223608105130605,0.019602619046270094,-0.03568964586402266
1.0975,-10.14882712720737,-0.018020176628737228,0.4865753047418126,-0.05385354293997848,0.025672871225589675,-0.0385279453312566
1.1,-10.149511434482756,-0.08592441666098113,0.392371301809485,-0.06046614455445574,0.03191164909525454,-0.03543547476954576
1.1025,-9.852755407123059,-0.19028566119865692,0.069284512457157,-0.05627969493154048,0.027983588331556883,-0.033856922266131
1.105,-9.776809144022934,-0.22286908684185366,-0.02932288510272298,-0.05409728277114191,0.023820208084089852,-0.035195770090778775
1.1075,-9.878110134150758,-0.2209694851145042,0.13796070513357947,-0.054912771679389245,0.02790231989503792,-0.03722848931297704
1.11,-9.948548021140722,-0.21377791380478856,0.15354475256383593,-0.05261290868506868,0.029322,-0.03692740187415477
1.1125,-9.905071159343064,-0.1657765356934294,0.09599120773722507,-0.05208830131386863,0.0323120514598541,-0.03777296335766426
1.115,-9.79142689650115,-0.012050997728050914,0.1458930307303531,-0.05518585566983527,0.03623635238117731,-0.040332792546495855
1.1175,-9.88802193802208,-0.039438289758516175,0.3035558458026766,-0.05565823182145597,0.034250886695400655,-0.03655068781484334
1.12,-9.94331268410389,-0.08677206343604027,0.29031452538151103,-0.055741,0.02846962278431977,-0.034290563381190436
1.1225,-10.051016501957777,-0.1946032364683331,0.392903784184265,-0.057028884990403116,0.022937854126679355,-0.03454184936660272
1.125,-10.029648297052846,-0.2438576605691057,0.31091881554878054,-0.05965853912601626,0.022578234654471542,-0.03690353912601626
1.1275,-9.742138912644107,-0.24803873430923976,-0.05764171912167532,-0.05932487934126265,0.021615299286367903,-0.03903654060384261
1.1300000000000001,-9.693631097859827,-0.08667446285355762,-0.10156407471839687,-0.060462284993742274,0.022227255143929994,-0.039248
1.1325,-9.94082767334623,0.017818432750427438,0.3155898904605054,-0.061239,0.023576506965321233,-0.039248
1.135,-10.148185735534234,-0.14876339979508943,0.48600012258903896,-0.061642029471458776,0.02513335106521386,-0.03773680438770531
1.1375,-10.158293029460225,-0.2818560941841866,0.3507751117422888,-0.05924735300627083,0.02462618989302844,-0.03660223442764048
1.1400000000000001,-9.929710634758917,-0.24523443160659644,0.0889050772833441,-0.057961255543809036,0.02555154107960924,-0.03819264541406385
1.1425,-9.850244759621603,-0.24976807044425936,-0.023607759621602886,-0.059186352202131545,0.026114,-0.04295701514549174
1.145,-9.961565362318888,-0.16018242083221818,0.148107818233306,-0.05987625554314482,0.026431255543144815,-0.044932384252340134
1.1475,-10.073946361997917,-0.006085553793504658,0.28460188819054094,-0.05990195704474506,0.031901116082784016,-0.04188177894785532
1.1500000000000001,-10.030632245417232,0.027272410605938546,0.3495355560634134,-0.06130959087470839,0.03266894833829559,-0.039227706687052284
1.1525,-9.904650757502708,-0.11788097064963987,0.2667170786934982,-0.062003,0.031034939891527,-0.03634618059057479
1.155,-9.866574791363991,-0.23151241921122462,0.21457701079657027,-0.06087111211223693,0.026991762138737288,-0.03717646208573657
1.1575,-9.842216131741445,-0.26041333873764266,0.08404209198479298,-0.06227364725475282,0.022759491315589398,-0.038483227939163485
1.16,-9.938249281166824,-0.23619828880424387,0.16661950314689383,-0.06331214826100931,0.02192525475409837,-0.04169371461266462
1.1625,-9.971563732928427,-0.15406890322733918,0.19828651911396855,-0.06302520645468618,0.02284758709062766,-0.04316580986066454
1.165,-10.040983425352113,-0.007187890672572611,0.30349995211900793,-0.06313754763095428,0.02600539356227256,-0.04540019106187692
1.1675,-9.941236741771911,0.0003337652107528316,0.14083768642596053,-0.06422651275966279,0.027184,-0.04243259217432802
1.17,-9.738608731428577,-0.10506969458573312,-0.15764932175397312,-0.06412924297253642,0.024738145312716515,-0.0384047351303947
1.1725,-9.898902906640174,-0.17983590473161157,0.04100009701791135,-0.06663621996023877,0.022379093996023836,-0.039475775188866906
1.175,-10.126045046332415,-0.26649641794902473,0.34088556848151197,-0.06622245085557013,0.031883667703721516,-0.04339780749072633
1.1775,-10.021034996907982,-0.2634963638434845,0.3112570542108413,-0.06296517755653944,0.03667359097762353,-0.04311047483068087
1.18,-9.915708216126815,-0.1417232095813021,0.2926741320598835,-0.06159395622127935,0.03698218763910016,-0.04566642180770147
1.1825,-9.97029824630908,-0.06978148174385487,0.3799364195935788,-0.06594055439981128,0.03235055469754224,-0.042648433634215235
1.185,-10.009910420297432,-0.23739651779900245,0.3427253715466485,-0.06608707860363179,0.022603593415779367,-0.03914415295554158
1.1875,-10.019332938025833,-0.313247,0.17587515369119566,-0.06209124813366513,0.021049822727811352,-0.04208058905083541
1.19,-9.940064069579808,-0.22990921668434178,0.04519848826145681,-0.06181752365593098,0.025964586164437652,-0.04509758702540155
1.1925000000000001,-9.901305699129399,-0.18805954010733428,0.10562151261062185,-0.06380941726416232,0.0270019691782945,-0.045495484589147255
1.195,-9.983218746909095,-0.17941935465382253,0.22215468196027016,-0.06492240407947024,0.026853012720048273,-0.0459071752341963
1.1975,-10.00043250879191,-0.16185158952176182,0.18169941105700432,-0.06591597842756698,0.028558,-0.046597794312278465
1.2,-9.902085475681332,-0.14509655271079114,-0.016452754047297347,-0.06656733977569876,0.028558,-0.046876862130280667
1.2025000000000001,-9.894440633915378,-0.2061998069308292,0.013347538579585393,-0.06370280590664862,0.029736553344526587,-0.046491148885157804
1.205,-9.993929366234745,-0.10537334304224975,0.3032856865633899,-0.06248963841314552,0.031192914676056383,-0.046950865192488284
1.2075,-10.14185269948514,-0.08591104361646598,0.5051450051535886,-0.06548735938813585,0.03299880688471585,-0.04484500931724907
1.21,-10.007931442205122,-0.14992680630752223,0.3151076269891664,-0.06863839864928535,0.03136164675985554,-0.041821164447934704
1.2125000000000001,-9.776209671431983,-0.25602363233389985,-0.0828537206044874,-0.06927052285919882,0.030543,-0.04310467464619833
1.215,-9.7664058588016,-0.22650562599200874,0.024794845326238657,-0.06875756484687083,0.02948552708388811,-0.046849418748335675
1.2175,-9.89011183046387,-0.1651929850585931,0.2964584881884798,-0.07150491696777349,0.029749529042968764,-0.04764699272949218
1.22,-10.058892570349514,-0.12198535928337242,0.4453333261105322,-0.0705043047492602,0.02960767167559786,-0.047278309023434384
1.2225,-9.985778859429784,-0.18252749873987667,0.41911493191130217,-0.07175143038366762,0.028004479352340798,-0.04412642913058797
1.225,-9.93407531053345,-0.19331053804321793,0.281938212247822,-0.07169893895223664,0.027642,-0.044121064476517056
1.2275,-9.765584610017852,-0.35038799554339123,-0.04135389995001196,-0.06828396093322217,0.025557178726342056,-0.0443179773455541
1.23,-9.73116083629224,-0.27788236767209107,-0.06072376445244095,-0.06771163990926159,0.022935838416770982,-0.04776804755006255
1.2325,-9.78991413002119,-0.1487064809324265,0.0552275582717169,-0.07038936293854474,0.02821413679303009,-0.05050181505062391
1.235,-9.80691,-0.12494,0.083692,-0.071166,0.027608410830954527,-0.050855
1.2375,-9.893185745574018,-0.1860916686337732,0.23349043305232275,-0.07043962767170839,0.030173981006694876,-0.04649518006446801
1.24,-9.811928179613373,-0.2563666892372085,0.20804773380404284,-0.06789323808558682,0.029031659487800867,-0.043606548346092414
1.2425,-9.78154794661453,-0.3368062188335057,0.10862041420719526,-0.06877508836481797,0.023916119361128068,-0.044136120517706656
1.245,-9.778745411612904,-0.38075919071390923,0.050158782668780155,-0.0685244252846818,0.022449,-0.04630098060285576
1.2475,-9.781802,-0.391559,0.034672,-0.068264,0.025021568995835346,-0.047342
1.25,-10.003541908455794,-0.19865292917369312,0.21498895495061432,-0.06753777017586124,0.03027032016381595,-0.04931348638882197
1.2525,-9.986328197234961,-0.09787261162368706,0.12029941407354966,-0.06932592135148036,0.035927018810888126,-0.050244
1.2550000000000001,-9.83235774010056,-0.12008787168329615,0.005349711408728211,-0.07130691820576271,0.03727146676989386,-0.048251461645781674
1.2575,-9.670940785370766,-0.28866246522678807,-0.04119342929685696,-0.07361171425965929,0.036814480364770794,-0.046260592426205865
1.26,-9.641916,-0.331181,-0.046031,-0.074067,0.03527771294405754,-0.045968
1.2625,-9.641916,-0.331181,-0.046031,-0.074067,0.0336234392592026,-0.045968
1.2650000000000001,-10.056096954498326,-0.23526162770585857,0.39104654150590856,-0.07403223055545763,0.033442509144772196,-0.050478461110915265
1.2675,-9.987270544597507,-0.14183334250148263,0.27159946936336077,-0.0749398289460581,0.03900840078719626,-0.05047950810669825
1.27,-9.872537248065749,-0.17618874532346027,0.13877136644478721,-0.07286266028806247,0.039401,-0.048693472676377234
1.2725,-9.857482505758242,-0.23067244794139102,0.1545321789304016,-0.07226268802930401,0.035433310564102656,-0.047871875252747255
1.2750000000000001,-10.060175188139503,-0.3551836159044629,0.3312283946668443,-0.0728226706880172,0.037721,-0.04979562760211701
1.2775,-10.066555721161624,-0.32200882846519097,0.2691313226733594,-0.06967153545664259,0.037721,-0.05044734127832815
1.28,-9.960488924384485,-0.23356412846061086,0.12179518128643524,-0.0713511327872802,0.035224374965068625,-0.05185167967236812
1.2825,-9.857605578138758,-0.10405210032845648,0.10712909929169859,-0.07399666663836439,0.03737915373924696,-0.051324692436599276
1.285,-9.855443404473554,-0.14659726814802404,0.20813819029637767,-0.07147362341902747,0.04075239886032412,-0.046797490820370234
1.2875,-9.968285822249698,-0.2514050907045776,0.32618677859085726,-0.07047570768850435,0.03527780402966589,-0.04515119616810879
1.29,-10.104511837594174,-0.3007161645884365,0.3880021208401806,-0.07227527948225083,0.03153699956595873,-0.047139754521779605
1.2925,-10.152438,-0.315041,0.407102,-0.072998,0.03210854079432623,-0.047953
1.295,-9.796157116629896,-0.2945260373548134,-0.1639518362722318,-0.0697897576254532,0.034453525222714394,-0.05073403699395883
1.2975,-9.839765697125042,-0.15180949790255968,0.10659162510202314,-0.07114460719942421,0.04060801085673178,-0.0521715952963763
1.3,-10.167827374774495,-0.07520122997309606,0.6013695605633881,-0.07263852090520653,0.04119768292451336,-0.05050525260325997
1.3025,-10.193197524235456,-0.18695937640897117,0.5277872351132883,-0.07452768354320846,0.04057523310030741,-0.04543341102584541
1.305,-10.165589,-0.225968,0.45911,-0.074984,0.03654938666775924,-0.044135
1.3075,-9.822013823354014,-0.29632162946966545,0.010486816473931126,-0.07313727667462959,0.039743326841854124,-0.04782844665074081
1.31,-9.827854295896685,-0.3214410253220944,0.05373863012296415,-0.07300688956151884,0.03757870242981973,-0.049867699942773215
1.3125,-9.90578347089279,-0.22444499848465715,0.10473874277055184,-0.0747595042303321,0.03542190819547923,-0.051757353706276044
1.315,-9.94997448020366,-0.08251336259666166,0.02608920732537974,-0.07710070614478913,0.037569752750994376,-0.05153068505330152
1.3175000000000001,-9.837693053200805,-0.185908556110656,0.02505951622081388,-0.07851620982876306,0.04302657124176777,-0.04815860323793536
1.32,-9.886922580395948,-0.20727439227426497,0.19518571638822346,-0.0760140879188798,0.03976460054080149,-0.049398387831965235
1.3225,-10.071932828585226,-0.2606208861419606,0.40516609827136724,-0.07736721170449058,0.03773428197006276,-0.04920535567358764
1.325,-10.132534880774593,-0.33529900536018453,0.3436647266615047,-0.0764300523625097,0.03804267975213012,-0.048338549992254086
1.3275000000000001,-9.950079755966614,-0.4159093377729457,0.07530906269131285,-0.07353221397170819,0.038332,-0.050675876401886324
1.33,-9.844936442944169,-0.33349494017382797,0.008547108570981073,-0.0722265299162164,0.041013893383446964,-0.055797912887009776
1.3325,-9.952687956896726,-0.08353176838286916,0.26657259403526745,-0.07436918317380355,0.04242420884634761,-0.05958752759697735
1.335,-10.0730701316818,-0.05166180252076025,0.3478605756119516,-0.07856534771284433,0.03876811565386114,-0.055066745400077693
1.3375000000000001,-10.083280923780707,-0.20730870732180862,0.16168905956672666,-0.0789769086046229,0.036270557497276944,-0.05092082555972391
1.34,-9.807705490677579,-0.3940166020170912,0.0823291475219652,-0.07730354670357442,0.04258903927307733,-0.05005629508244077
1.3425,-9.789976618447467,-0.43475445477434155,0.11552353772054436,-0.0770145541605488,0.04075854283788661,-0.051405347608617175
1.345,-9.905190712479486,-0.33843380622333485,0.08733365762600652,-0.07528276683285147,0.03340756129092765,-0.05646686942252084
1.3475,-9.958152,-0.292324,0.072334,-0.074526,0.03223636844192625,-0.058643
1.35,-9.974281841963016,-0.10361301074758147,0.07031785406985924,-0.07751278293029884,0.03870571305516068,-0.05328662166903722
1.3525,-9.818486183073258,-0.28613926587730903,0.02353321072066803,-0.0773816565646218,0.046804186780226284,-0.0472246972197737
1.355,-9.80056546340679,-0.3645407750422865,0.09148143513996378,-0.07795434518403811,0.04394324177963076,-0.049037066220369255
1.3575,-9.912003095019559,-0.31802037603433425,0.14091460650258636,-0.08032576174681297,0.04050742466742406,-0.053106567926290385
1.36,-10.149382803772898,-0.1579347557571677,0.31376671129375633,-0.07892241394456694,0.03569125509158917,-0.05305820687637864
1.3625,-10.173129374575621,-0.12727494460535094,0.3065527859691185,-0.0777709614462453,0.036305698302483945,-0.05321156627025991
1.365,-10.10426334283693,-0.121284094573753,0.2047553718146453,-0.079840814106827,0.040606933003183555,-0.0536276676759816
1.3675,-9.901796374110226,-0.2187847512017445,-0.01092442471473136,-0.08508949229424606,0.04300663472687549,-0.052932835901917975
1.37,-9.90942500152933,-0.2864502900562043,-0.04214815912926452,-0.08187783982585273,0.042761,-0.053540985795931334
1.3725,-10.053822204575674,-0.262245339875265,0.15676713841636408,-0.08025670022262572,0.04300257321544171,-0.054392146430883415
1.375,-10.200357545476832,-0.23880732802157392,0.4476038685952439,-0.08319293723951948,0.048441603579308656,-0.053730062515322384
1.3775,-9.873217113325522,-0.38625986955174396,0.058944647247140824,-0.08442016190565599,0.050851468650551575,-0.051616579497770515
1.3800000000000001,-9.705693571780728,-0.38215231100875563,-0.06719691735322776,-0.08480001916315281,0.041904612169963856,-0.05926044282841432
1.3825,-10.035842041274105,-0.17922025454586715,0.38285959929372726,-0.08567537090825161,0.03909656937564918,-0.06135969420427001
1.385,-10.112298321133654,-0.2634406666266683,0.4304413436299042,-0.08466437686902975,0.039248,-0.054956931134443804
1.3875,-9.971215546969878,-0.44309248165257853,-0.04047485505417027,-0.0844286210025003,0.03062433156328133,-0.05689133156328133
1.3900000000000001,-9.858520780831046,-0.39719371709488993,-0.20093482356471806,-0.08433311431837123,0.03157752572449106,-0.05784452572449106
1.3925,-9.849120718509717,-0.3881663623405718,-0.20851568226742637,-0.084299,0.031918,-0.058185
1.395,-10.006884603580817,-0.2467924336990789,0.04850988547306387,-0.08142885563074899,0.030535485637319306,-0.058503827582128784
1.3975,-10.15196235211268,-0.18941740139412666,0.22630786222726515,-0.08157644049892569,0.03947868664597748,-0.059154193802816925
1.4000000000000001,-9.98212257746478,-0.24665478219145687,-0.002639783587980671,-0.08597262479111983,0.04530855894008148,-0.05752963943661963
1.4025,-9.852283385151477,-0.27135723982356375,-0.1289312258386558,-0.08460107377829353,0.044921360250725365,-0.058294589645966406
1.405,-9.940248368096434,-0.21285661503438155,0.012476308198367814,-0.08126173660707059,0.043858005475285164,-0.056816051086481655
1.4075,-10.073775473646837,-0.20401459146484807,0.19221542527157112,-0.0865466126357864,0.04551493899365151,-0.057149282050317406
1.41,-10.047821427472302,-0.28438601530489943,0.18660714260024044,-0.0873668133790355,0.045860629978477487,-0.05677818340055801
1.4125,-9.916607146184733,-0.34185812890349415,0.027910367384682305,-0.08466689930631605,0.04719392077400519,-0.056630580284775474
1.415,-9.80122719648613,-0.2807152838074624,-0.001089108868113997,-0.08223266971799426,0.04228403837750127,-0.05952914723634402
1.4175,-9.9044366379661,-0.17128869401130037,0.2238264522033873,-0.08164358531073446,0.040012,-0.05660041333333338
1.42,-9.985620669599383,-0.21937418193975555,0.2656523072655194,-0.08226389369075089,0.03882054536008052,-0.055631928419433097
1.4225,-10.087997527041841,-0.36774715851826134,0.23857448723829705,-0.08349619852298958,0.03720911754068282,-0.05572624379430736
1.425,-10.03739775812136,-0.42595670477633435,0.08002131600350523,-0.08228826902160909,0.03760376249102944,-0.056171939893150474
1.4275,-9.866074128573102,-0.4667111660821724,-0.18401172280931644,-0.08388789992274376,0.03629553101252488,-0.05926572976237854
1.43,-9.962137437776827,-0.20605186731485672,0.015463077117264912,-0.08538670290831553,0.03780581149111574,-0.06581164854584225
1.4325,-10.107375026321732,-0.10892953371807215,0.25188231068657724,-0.0869040452935324,0.04243435165505824,-0.0650529773532338
1.435,-10.060945192520318,-0.14321709146341954,0.26633457699186314,-0.088196167398374,0.048664024065040834,-0.05944722959349566
1.4375,-9.795084532161235,-0.41068493932247,-0.11660617581475129,-0.08767947255574614,0.04210797084048028,-0.057128099271012006
1.44,-9.949307714322467,-0.3485252236449413,0.11859274837049244,-0.08810888511149227,0.043137661680960525,-0.06056171354202394
1.4425000000000001,-10.158509839071671,-0.25585987516688086,0.43548461831799745,-0.08659430317502081,0.043524,-0.059097405402559915
1.445,-10.064302050270008,-0.3117121786626452,0.2933903915883039,-0.086132,0.045839678271918746,-0.058338
1.4475,-9.945107667516869,-0.3216692479487178,0.13370231954116021,-0.0892923737112011,0.04157877022941967,-0.0605951986234818
1.45,-10.033900257462498,-0.3496550858208329,0.16582113761498174,-0.09299165993204601,0.03898260228722965,-0.06046220724289387
1.4525000000000001,-10.143046543675837,-0.2920460017944948,0.22334779449107817,-0.08622240855764529,0.03330153706705216,-0.058562440607814646
1.455,-10.00458293666482,-0.27218271262252386,0.1265689329113689,-0.08753265621024398,0.039535206881856466,-0.05807900339673269
1.4575,-9.688736531667477,-0.33685533047781646,-0.38013441630424705,-0.09418856059483185,0.043158914490492445,-0.058768136187225754
1.46,-9.596194125522677,-0.38303471243761056,-0.4237235076721019,-0.0907352768817122,0.04332322434366066,-0.058948
1.4625000000000001,-9.782768068784245,-0.33157429521722687,-0.03732003117923166,-0.08785959028842637,0.043371,-0.059306485870755786
1.465,-10.011025528156326,-0.19909925031830633,0.43120852708479207,-0.087659,0.04985155017648937,-0.059407
1.4675,-9.91580676933333,-0.25589843083688135,0.25338464073758266,-0.09081786700709225,0.05553009236879437,-0.05847098266666665
1.47,-9.68661384085024,-0.4372808032037481,-0.1644495203297462,-0.0898931863638568,0.0464835843045342,-0.05535062327325632
1.4725,-9.83584499428159,-0.4276697745838369,-0.048878952132418885,-0.08866964934516673,0.04090632941232915,-0.059153383660349945
1.475,-10.06313297666127,-0.41534395980551087,0.3321973631118448,-0.08933442314424639,0.04539621244732597,-0.06253688544570511
1.4775,-10.131515,-0.41846,0.460306,-0.089644,0.04709765498377376,-0.063377
1.48,-9.968799188614966,-0.38818693105782365,0.12310050115326299,-0.08985922139064881,0.046821778609351196,-0.0634846106953244
1.4825,-9.813499662650777,-0.3069464621975717,-0.08999565871827847,-0.0912956417325622,0.046731,-0.06683242908532973
1.485,-9.781138617041082,-0.2861855934299056,-0.044311835427844753,-0.08780040124119352,0.044178166342119726,-0.0636109553296919
1.4875,-9.892546460466756,-0.30600589642312714,0.15208527156092885,-0.08934849121613707,0.048665799648176536,-0.06256460246276535
1.49,-9.893350616052679,-0.42571668980957444,0.07599226084119465,-0.09303172592038916,0.04868185288960077,-0.06485879470605684
1.4925,-9.761714113045029,-0.47703327892507436,-0.22409629394316152,-0.0914169051954678,0.045926829395503424,-0.06542858506970398
1.495,-9.7234583563227,-0.3912820305347045,-0.19436497881800746,-0.08777360954033754,0.044553528649155676,-0.06891339045966247
1.4975,-9.94056121342052,-0.11565618824069912,0.3217339268725191,-0.08823408745853016,0.045840750710739855,-0.070402
1.5,-10.178731264120923,-0.09895866555290372,0.5133442992840096,-0.0921555093078759,0.04777249148766906,-0.06751032394590295
1.5025,-10.031336889673767,-0.26034860175886054,0.12896108612767332,-0.09373674459574469,0.04731768578723408,-0.06299826164539019
1.5050000000000001,-9.779541869929385,-0.30076247812863705,-0.21124275371558437,-0.0932488949274575,0.047037,-0.06184412928233376
1.5075,-9.726665061603482,-0.28454415615164624,-0.1846873872765637,-0.09191875690242382,0.04510662581479172,-0.060732602749533834
1.51,-9.835813492517092,-0.37739207426973315,-0.050224014070851045,-0.09674290275947796,0.04772373906774396,-0.05953650497203231
1.5125,-9.931668301226996,-0.5039068914110452,-0.07003620000000005,-0.0906729656441718,0.051967822085889466,-0.06282108343558278
1.5150000000000001,-9.866442282644048,-0.3776041273739863,-0.06777456549019596,-0.08980640518224464,0.05765028916155447,-0.06580674371706981
1.5175,-9.81365664214841,-0.22856169917692348,0.056648254957879784,-0.09114500966299424,0.06153063538561253,-0.06606349516850288
1.52,-9.729165898016213,-0.2648250868669547,0.04247406817834819,-0.09535601334763953,0.05622262840247963,-0.06228963774439671
1.5225,-9.816637729701977,-0.5773177188622005,-0.21582328175626866,-0.09776135994570671,0.042058251826497424,-0.0634370963352021
1.5250000000000001,-9.69974115296547,-0.6246679333018614,-0.32865055440543534,-0.09662707856004715,0.04659413974623807,-0.06551630280318689
1.5275,-9.641892901303475,-0.4474454570889707,-0.20117368365821187,-0.09178997654684716,0.05650379560165039,-0.06759356980553925
1.53,-9.688131202738543,-0.23719822601295487,-0.07739484549308066,-0.09351590307286256,0.0582680425753819,-0.0695421812301048
1.5325,-9.918221413577978,-0.14757138579292303,0.1428168607077295,-0.09821117310615984,0.05441715271297516,-0.06759863853211014
1.5350000000000001,-10.082207492245544,-0.3111637030692255,0.277343245606019,-0.09827910459755711,0.05199202424678975,-0.06511848407140608
1.5375,-10.100387276848874,-0.42684119950531996,0.44517233000248085,-0.09485520366064787,0.05021969985159529,-0.06490068219144204
1.54,-9.969036173867389,-0.3838406179045024,0.21427628779361396,-0.09514093075809009,0.050243693930753563,-0.06582023582711022
1.5425,-9.759867112184404,-0.42777046331460644,-0.29618388198942136,-0.09725746534038333,0.04310560283873105,-0.06542456664243226
1.545,-9.745758751708518,-0.45540477269758056,-0.4888223422061277,-0.092375332885534,0.038140860677861786,-0.06588365728239098
1.5475,-10.074863625873338,-0.23247993591763272,0.14083994288998336,-0.09448964708248549,0.0524923615754822,-0.0675651176391715
1.55,-10.056103367245301,-0.18970524070393796,0.23576977646354774,-0.0985154859810847,0.061023574907219116,-0.06622317133963844
1.5525,-9.822290819126696,-0.37580535463300524,-0.033590431510050145,-0.09743856387470781,0.062614,-0.06183155593080881
1.555,-9.746780878237413,-0.5496435962335556,-0.047230162550056305,-0.0967616761899975,0.05335114554410685,-0.060994323810002506
1.5575,-9.898887525433201,-0.49869856661471584,0.15281533266194874,-0.0954489484870333,0.0478632577788114,-0.06450346383067822
1.56,-9.89044810400566,-0.45167900844538755,-0.06349260007549615,-0.09745577891012037,0.048020420627506506,-0.06693995050719515
1.5625,-9.732965327002374,-0.33317831238285645,-0.41755718568036987,-0.09576210745970262,0.04340121429463951,-0.0690229462701487
1.565,-9.775110501903937,-0.2999979978335039,-0.2462676590236672,-0.09633174269318448,0.047709663812593214,-0.06868430696014466
1.5675000000000001,-9.926337805176251,-0.3101950427040087,0.0736564979526961,-0.09894465305649461,0.057929837817480054,-0.0662943469435054
1.57,-9.990386208283443,-0.40672813047240686,0.1513197899953235,-0.09957857271281571,0.057948848643592094,-0.06533980660898034
1.5725,-10.058079874218487,-0.4817502067226889,0.16052929458823506,-0.09894614850420166,0.05505576947899157,-0.06628681566386557
1.575,-10.078828924536431,-0.4208480261036024,0.026420978801295972,-0.09656253688240223,0.05449142100729741,-0.06888401303983735
1.5775000000000001,-9.886498764415226,-0.4037739605890239,-0.12986899793599227,-0.09867952328100299,0.0573037046562006,-0.06885196099793119
1.58,-10.01183349555895,-0.411803156594174,0.16303754941980017,-0.09882919849771285,0.056111310389214304,-0.0699016030045743
1.5825,-10.253173064379949,-0.41864873065963065,0.3903348651187346,-0.10030553535620054,0.050382122216358786,-0.07101165762532982
1.585,-10.164396004868708,-0.3408354589836281,0.1609906135125157,-0.09903324957985792,0.046971227559468684,-0.06955924957985792
1.5875000000000001,-9.897501241162857,-0.2533661748205769,-0.251212506483422,-0.0981034492154239,0.04867227896849555,-0.068875
1.59,-9.824748447000712,-0.41266570072667474,-0.20918208521490894,-0.1011584147423416,0.05040146957017339,-0.0657605852576584
1.5925,-9.866658387679784,-0.5480874970484486,-0.0007947658264799151,-0.09976328295953384,0.049787242451911545,-0.06461051853459973
1.595,-10.044435949942587,-0.5017333166350346,0.27895165488927604,-0.09928046066783827,0.04727391565553607,-0.06945422727123597
1.5975000000000001,-9.99483393431866,-0.28411999607785376,0.02922535015137301,-0.10286544525835153,0.047308383508772055,-0.07391312008171118
1.6,-9.844543310456359,-0.22964625015212084,-0.19530946768615448,-0.10166559843074452,0.04387794051240977,-0.06932905599679724
1.6025,-9.794040686969797,-0.4353534507666824,-0.1348461067109168,-0.09922144248257547,0.042302,-0.06378497760371715
1.605,-9.916876021791735,-0.4282974782280999,0.03888286566611447,-0.0999040787966942,0.043864030307438004,-0.06875712224793383
1.6075,-10.111082877137324,-0.4118185711798831,0.16312593733075162,-0.10244754181818173,0.04826861481624742,-0.06941879154738888
1.61,-9.805046530953566,-0.5495601718266906,-0.2119092706854245,-0.10184291128945755,0.04935788247447891,-0.06837266896551739
1.6125,-9.732209049179094,-0.5050328115256143,-0.29447729307051945,-0.1007882678835207,0.047399047598438125,-0.07198844827586214
1.615,-9.759294116367668,-0.33955459690980894,-0.16265741571710352,-0.10429226548546078,0.04996416451453915,-0.07691941329226216
1.6175,-9.815877,-0.224773,-0.015543,-0.107665,0.056604652629315355,-0.07926
1.62,-9.826892615769202,-0.36205144366807374,-0.14349977473251016,-0.10257748938416397,0.054498764520884375,-0.07081719887770427
1.6225,-9.82647874366416,-0.417471618170347,0.012894512443588552,-0.1031372847221549,0.05708376685755897,-0.07075527281242429
1.625,-9.67297798807469,-0.49837963627804804,-0.1287981373764318,-0.10445343786285893,0.05809638820021968,-0.07016951247450182
1.6275,-9.655756425798234,-0.5491418029985471,-0.299744679798902,-0.10603829849178859,0.050417824900011426,-0.070450484576025
1.6300000000000001,-9.670013,-0.554758,-0.329986,-0.106443,0.049913284408401704,-0.070708
1.6325,-10.03184607202866,-0.42744706038769703,0.3151874502778381,-0.10460956362513883,0.058191147381158465,-0.07339730689220901
1.635,-10.034697055314032,-0.46621691150134503,0.20066782350260914,-0.1035095303211517,0.060018,-0.07310284804935926
1.6375,-9.721537621020463,-0.4994777194921231,-0.33159303964259373,-0.10203055683047263,0.0533868784387493,-0.07341610801786971
1.6400000000000001,-9.77439677850713,-0.39162568900284245,-0.22490608574357668,-0.10322214361253569,0.051618,-0.07436557180626785
1.6425,-10.086104808854058,-0.3253392866820374,0.380981573728406,-0.10226904171085997,0.05756654502651628,-0.07212862356006446
1.645,-10.144066350422182,-0.43520152848437477,0.5487624102796275,-0.10446587181326861,0.058684298670008614,-0.07105429867000862
1.6475,-10.060998528587278,-0.4545448173161816,0.09478051764901363,-0.10845950001180213,0.05351041007435394,-0.07618769101852932
1.6500000000000001,-9.91633590989459,-0.3570115029986053,-0.23717840380751265,-0.10671254842715891,0.0502389000408529,-0.0762005895252879
1.6525,-9.702414035635742,-0.35745134750872326,-0.3413398459809947,-0.10405289138939003,0.05500649993023004,-0.07409093482497286
1.655,-9.745157966979251,-0.39598325787787086,-0.16881661006571433,-0.1077898094543307,0.05775040955179799,-0.073062795224101
1.6575,-9.782753268545683,-0.45628176085060285,-0.074725,-0.11115297379708053,0.06024625849702646,-0.07492804801585866
1.6600000000000001,-9.751354134456324,-0.42687478773617726,-0.1600791685026836,-0.11048061379679124,0.06185,-0.07688055727272726
1.6625,-9.611282641529595,-0.38234092356904453,-0.2222555095113702,-0.10198908046130517,0.061530386379362624,-0.07139264286494698
1.665,-9.768800078305313,-0.3975600733790594,0.0783226992364231,-0.10675238412382404,0.06007224518603944,-0.07382266603216998
1.6675,-9.968298053628276,-0.4951486546301488,0.3438638569896987,-0.11559452308052427,0.059559,-0.07698591875468162
1.67,-10.005379,-0.51889,0.384983,-0.117439,0.05641799143933459,-0.07758
1.6725,-9.744994442266574,-0.5362178288105286,-0.49823819322809854,-0.11166643042645397,0.055126487745732894,-0.07605821251217303
1.675,-9.762770692150463,-0.4932856296859107,-0.40734327840975815,-0.10918146969875323,0.05803954173042972,-0.07862845525175241
1.6775,-9.984640641187934,-0.35792787508120716,-0.025711313763343013,-0.11016492079814384,0.0631162131415313,-0.07980159834802784
1.68,-10.114929067791756,-0.2775154834575225,0.1964707698922572,-0.113505042365326,0.064294,-0.07879895952298711
1.6825,-10.021877618675793,-0.28459500661864395,0.13079307336761753,-0.11274864624814145,0.06730105433504865,-0.07584087977587148
1.685,-9.697926658387576,-0.39284741258523453,-0.17173208890105346,-0.10858322442791697,0.06577783475932636,-0.06963909499851254
1.6875,-9.660257905396561,-0.49578529559112283,-0.187023068364372,-0.11048859189623371,0.06034685119295532,-0.07002029327066105
1.69,-9.844689701077018,-0.518133011272846,-0.04670406384465134,-0.11400334238903385,0.06061055055483025,-0.07239322663185373
1.6925000000000001,-10.086838812248406,-0.5676347271948643,0.04012015974304218,-0.10999003100642359,0.06060415785867233,-0.07294862706638111
1.695,-10.061088442171508,-0.54892322253758,-0.006900001174547761,-0.10605627300568572,0.06439453595762921,-0.07513210966274637
1.6975,-9.793578940584183,-0.45248405230111566,-0.26590376128235704,-0.10947802505818098,0.06757628822607457,-0.07642274119211588
1.7,-9.730453781503078,-0.42748978150307754,-0.3112267671849695,-0.11089573035309361,0.0660957161645611,-0.07716846070618721
1.7025000000000001,-9.86519170807948,-0.5216458194039806,-0.13691818245031848,-0.11026583331125822,0.060557979867549315,-0.07426615112582757
1.705,-9.970577992460086,-0.5474645994481477,-0.1342616968656033,-0.11042926157804993,0.06084194656332356,-0.07702949091923744
1.7075,-10.016292969551245,-0.5711550698821571,-0.04565348748958342,-0.11273127876681349,0.06764392349482212,-0.08186248090465424
1.71,-10.115547743775034,-0.4548095973241489,0.1687084559974331,-0.11150612277840093,0.06539545425412602,-0.08287862734497677
1.7125000000000001,-10.095127870711641,-0.4418425219930895,0.09321860975085117,-0.11181759041602107,0.06282889588747162,-0.0814604791035879
1.715,-10.053712406508037,-0.38681819927974026,-0.1347893636527403,-0.11425422873311905,0.0617496255691318,-0.08314471243729911
1.7175,-10.055715698409976,-0.31177640568660075,-0.2193169010976095,-0.11647668503534273,0.061392,-0.08299748622349296
1.72,-10.126039113824428,-0.30307698553541934,-0.17709197132501878,-0.11469553061426224,0.061647455994351605,-0.07952054437279366
1.7225000000000001,-10.184851381968254,-0.44405797899048643,-0.03682771249840362,-0.11207276285396822,0.06551923349841303,-0.07628543695873005
1.725,-10.168806622399998,-0.5612396848000013,0.13885309360000697,-0.11400858320000018,0.07051535440000015,-0.07708235440000014
1.7275,-10.148253,-0.573888,0.206839,-0.115759,0.06681418717080143,-0.078496
1.73,-10.03634078487704,-0.4722248042840735,-0.09077274693633403,-0.11680611980694093,0.059175445754998904,-0.0791241347368421
1.7325,-9.961490656935485,-0.47468199495967517,-0.20985261173387176,-0.11667224649193551,0.05546236963709681,-0.08051804334677413
1.735,-9.8178931025994,-0.5293960687477764,-0.3557923892462977,-0.11490331696142426,0.06418926855786392,-0.0796736335905044
1.7375,-9.681518225900025,-0.5079516678580664,-0.3738168653198635,-0.11501887340067343,0.068722,-0.07851938684278682
1.74,-9.855850732490463,-0.4823123435332306,-0.10804170950904918,-0.11864432651464739,0.06408484708593688,-0.08017709779436824
1.7425,-10.274845112487315,-0.6060534791201327,0.14704469157361189,-0.11737717635645797,0.057142526880992583,-0.08109098754653127
1.745,-10.082854758003933,-0.696641523057056,-0.15427162689335155,-0.11759978376072401,0.06042788844077144,-0.08255662160409308
1.7475,-10.009341368415583,-0.5052097580259699,-0.2124909103376636,-0.11482751553246748,0.06244415854545459,-0.0872205357922079
1.75,-10.049896011461835,-0.34970277430388863,0.031156671267402777,-0.11434464786365818,0.06268146405424868,-0.08461265950552088
1.7525,-9.985196279767164,-0.4708270198727771,-0.1456401388718157,-0.11703530495439264,0.0551865116202594,-0.08115306346135388
1.7550000000000001,-9.988163915251324,-0.5376553418985522,-0.31363301897629503,-0.11837874387844377,0.05239043228608693,-0.08303670760187258
1.7575,-10.011924886589926,-0.4776890684243066,-0.09726212049509925,-0.11592451365267967,0.06269118777076417,-0.0827023627627181
1.76,-10.053473105174758,-0.5089483476310681,0.270203148533981,-0.11130905301941747,0.06553581488349512,-0.07621535397087378
1.7625,-10.112809908592231,-0.5481261501941741,0.3789871820873767,-0.11198922762135921,0.05863671927184479,-0.07660411606796115
1.7650000000000001,-10.091845488915869,-0.5566690681352994,0.25526071117558113,-0.11818232490735667,0.055010678829929674,-0.07986797661121205
1.7675,-9.832677548924782,-0.5990179509008504,-0.34209547145881736,-0.11890319689875617,0.04834104801115865,-0.08112631838195977
1.77,-9.719635043847193,-0.6304507022095149,-0.6090828720196976,-0.11949662611389089,0.044240488269398755,-0.08244156515606386
1.7725,-9.697509468406805,-0.6262380576282134,-0.47165466786539617,-0.12346028149012783,0.06398456895070112,-0.08687016150006201
1.7750000000000001,-9.854550473563595,-0.49020542511538234,-0.0778913514562889,-0.12225941578863588,0.06918,-0.08802762135922332
1.7775,-9.75924561094308,-0.6110549574570614,-0.05781715929415125,-0.11995244331892012,0.07027321257450046,-0.08253167757391582
1.78,-9.838394507766123,-0.5978034542148484,-0.09476426924290483,-0.11599808767992188,0.05916852002927529,-0.08402045920793694
1.7825,-10.15036883045121,-0.38487952715677987,0.2452433420719537,-0.11602232011550954,0.06020899219829138,-0.0880459265262905
1.7850000000000001,-10.08588285737456,-0.40976917105041655,0.16227828298399238,-0.11843022204788847,0.06425517584887522,-0.08515606570569109
1.7875,-9.856040887822003,-0.42610348782201446,-0.17433479217800274,-0.11744103793910997,0.0631052540046837,-0.08231623882903971
1.79,-9.903984516785888,-0.5385986427714534,-0.13731589604490585,-0.116981,0.05966819283400156,-0.081856
1.7925,-10.117943257239626,-0.530778054249426,0.04783334088786591,-0.12124282371355989,0.06112244773678478,-0.0834853759767751
1.795,-10.109950985018775,-0.451518314092618,-0.07134571419586488,-0.11937594240613277,0.06158993559449312,-0.08308802730600753
1.7975,-9.95266648769389,-0.36289636943122694,-0.18181531681489435,-0.120909080744571,0.06801718080661881,-0.08171321009307128
1.8,-9.763447651099302,-0.5187240394442212,-0.18861222214957074,-0.12288066048222317,0.07132128336738867,-0.07991455826726601
1.8025,-9.701487421271676,-0.7101670492485554,-0.27207479537572277,-0.1164479352601156,0.0633808705202312,-0.08043569572254333
1.805,-9.919018382799324,-0.5505629992580094,-0.20656060164137593,-0.11952586288926352,0.069333,-0.08356712580101176
1.8075,-9.987980379426647,-0.5772409350228872,-0.030886019927720776,-0.12415532635027725,0.069333,-0.08498173086003379
1.81,-9.908581882028749,-0.65727117288645,-0.16061975840090859,-0.1207134332547245,0.06998096099822325,-0.08338164149248906
1.8125,-9.848416045125923,-0.6697882635258601,-0.2503258252164932,-0.12187608858345912,0.06534395543020577,-0.08652752212600302
1.815,-9.808441705674472,-0.40632597278225463,-0.21225497212626743,-0.12945765008247237,0.062919,-0.09150434961418158
1.8175000000000001,-9.821485238622326,-0.4305184595154464,-0.21069672906412973,-0.126144,0.062919,-0.08666048195724467
1.82,-9.805479510546318,-0.5809006963990536,-0.13922793088835927,-0.126144,0.062919,-0.08694566474109264
1.8225,-9.955828811330557,-0.5984251561480027,-0.018055031374662536,-0.1271497377897574,0.06153518387650085,-0.0876773068561627
1.825,-9.91920859902303,-0.6774288429867393,-0.1871484738311196,-0.12511540027913473,0.060382510676901625,-0.08888313775296579
1.8275000000000001,-9.688905566487612,-0.671572532909578,-0.5343725460771875,-0.12225690077635731,0.0619190992236427,-0.0910027536390291
1.83,-9.668099826492691,-0.4732021402924004,-0.5703737259676137,-0.121715,0.06586576126395233,-0.091477
1.8325,-9.98824719133546,-0.35538151319774536,0.01695462010292259,-0.12456998201421222,0.07083194218083806,-0.08945475353099729
1.835,-10.102062416303333,-0.4060702856328653,0.22004884254254659,-0.12485563968020265,0.07188145972294784,-0.08436792762764196
1.8375000000000001,-10.018125765601722,-0.5632392170790407,-0.011421398630816537,-0.12401738020658175,0.0671351810233001,-0.08566998722075456
1.84,-9.842597791026387,-0.6510722134604126,-0.44083028521995526,-0.12612432718475083,0.065821,-0.08821257891495607
1.8425,-9.781204,-0.672525,-0.589431,-0.12706,0.06497256865386825,-0.088881
1.845,-10.044616082296537,-0.5786362517952073,0.017486546684816272,-0.12304994621130512,0.06848027543296828,-0.09429166358330869
1.8475000000000001,-10.1321763676354,-0.42837304564900003,0.17813869255520295,-0.12295560850665878,0.07416722535187957,-0.09334394203728909
1.85,-9.87402256477897,-0.4223719288411062,-0.22573299106332517,-0.1272907693189965,0.066584,-0.08878757524492228
1.8525,-9.826091867679809,-0.6204594608076492,-0.33282742791875897,-0.12958711317562727,0.066584,-0.08716146813859019
1.855,-9.818267,-0.652798,-0.350311,-0.129962,0.06700568371902776,-0.086896
1.8575,-10.077605184336717,-0.6551992794845992,0.057906512381868724,-0.12677180902196603,0.06621327918026756,-0.09143505288992494
1.86,-10.029567919344977,-0.5638315982793972,-0.1812920359696153,-0.1302430516304946,0.059595270569615,-0.09552222733213209
1.8625,-9.87347553193717,-0.5076254628272248,-0.5062170335078584,-0.13241490052356022,0.0596482345549739,-0.09571829947643977
1.865,-9.800507201865043,-0.440851751387067,-0.5365723620431128,-0.1307894444329897,0.062308,-0.09437657022492972
1.8675,-9.818675170906415,-0.45112173354593144,-0.1968711117134883,-0.12936022423647736,0.07108109246657635,-0.08974543125229995
1.87,-9.960636845682405,-0.5666582002560576,0.060929560679534145,-0.12832108872219936,0.07279478969880995,-0.0889601044103406
1.8725,-10.044816059792257,-0.6549281270254973,0.02250967127478362,-0.12856768128423043,0.072388,-0.08868994185080263
1.875,-9.987296860699502,-0.6854447828304038,-0.1761921370208171,-0.12956804421381005,0.072846,-0.09145380004799328
1.8775,-9.891779506933831,-0.6106108407151015,-0.15889431300737936,-0.12937618166656667,0.072846,-0.09106944589597457
1.8800000000000001,-9.806634052586663,-0.5576506001129389,-0.14722726219294066,-0.12662314530509788,0.06989951682509789,-0.09014591502431368
1.8825,-9.968550473573815,-0.5768748915432402,-0.06491447223125285,-0.13360292118012423,0.06491666324892495,-0.09146553284758709
1.885,-9.898918238733875,-0.6109423392259915,-0.3000161831533692,-0.13475081881987577,0.06309931521261347,-0.08706619792164356
1.8875,-9.755759486865152,-0.622908,-0.5891326328546354,-0.135154,0.06755535600700512,-0.085521
1.8900000000000001,-9.700321951980115,-0.6605584884814794,-0.3911153232974166,-0.131369901597822,0.07620727143330616,-0.08891120111965933
1.8925,-9.720311948242816,-0.6778420593364439,-0.022656327156532402,-0.127824,0.08221061596461035,-0.0905264815237157
1.895,-9.824963235758638,-0.754702360897947,-0.1875129946951145,-0.12824782811654195,0.06987905159051097,-0.09093078723770102
1.8975,-9.94615816220709,-0.6203481963653479,-0.37103736020661976,-0.13332409416294894,0.06212812322141354,-0.09795073173984489
1.9000000000000001,-9.971304,-0.571497,-0.389766,-0.134696,0.07214515818694496,-0.099724
1.9025,-9.674897441834684,-0.5705874741727966,-0.3343031758949914,-0.13214081038511452,0.07992659480744274,-0.09159454256454586
1.905,-9.78590034828874,-0.5542968892594895,-0.09277439025513096,-0.13752099775980095,0.07875632187927814,-0.0915498731176105
1.9075,-9.99928619729736,-0.6787531504629944,0.09115659715153583,-0.13795042295297125,0.0766001831279621,-0.09233974188358246
1.9100000000000001,-9.933973299935005,-0.7007387004067934,-0.269968623030457,-0.13042,0.0748085821542904,-0.088575
1.9125,-9.841557522999153,-0.799566578264536,-0.41255173866891826,-0.13042,0.07268909317607405,-0.088575
1.915,-9.834301551801591,-0.7762770578193724,-0.25496971356106396,-0.13363411706130096,0.07678083713617227,-0.09371856956481057
1.9175,-9.900148728526661,-0.5834121789870055,-0.14839115033645123,-0.13351904039353824,0.080254725883639,-0.09405274156200659
1.92,-9.960523690748953,-0.5861788407039682,-0.09230428193512909,-0.1328461430731592,0.07762629581879893,-0.0924333014442428
1.9225,-9.951742563855824,-0.6743211701017885,-0.22054365378997437,-0.13455559514309676,0.076358,-0.093042679319842
1.925,-9.965293411330993,-0.7071209750398982,-0.3042264543887658,-0.1366211165177147,0.0770057637408235,-0.09125780526651768
1.9275,-9.83402279982506,-0.8062460800094557,-0.3933624071725764,-0.13360042450118204,0.0805965790827423,-0.090408
1.93,-9.833734752261401,-0.6677342642971351,-0.14590044280206707,-0.13259093060648797,0.07968784444757882,-0.09504338824635632
1.9325,-9.849207657047485,-0.5465367247014523,-0.20852537496944318,-0.13466146149506356,0.07695856429713199,-0.09748981908791736
1.935,-9.720526238455546,-0.5272135214644923,-0.5909474811783367,-0.13119845318043125,0.076511,-0.090003689691741
1.9375,-9.858935937028141,-0.6542327373884694,-0.4078559306794784,-0.13317677342141385,0.07459521611187371,-0.08755115803019904
1.94,-9.950078945860056,-0.7953637466666637,-0.1956121209523854,-0.13479390612244896,0.08079704409135065,-0.08900414779397468
1.9425000000000001,-9.811470241397389,-0.846485,-0.3096934403775571,-0.13681484513851447,0.08456885068399124,-0.09268840828144174
1.945,-9.777114790271954,-0.6245479425951825,-0.6733620741808574,-0.13792843722909576,0.07808724242663312,-0.0961967169900185
1.9475,-9.897379206247086,-0.6241731601864802,-0.4939014661502593,-0.14060831946924873,0.07521558189707726,-0.09466562430697507
1.95,-10.114151582591056,-0.5100280149752601,-0.17718545644520778,-0.13688628091181967,0.07657863902003727,-0.09385077584164843
1.9525000000000001,-10.182196556449002,-0.589748013406278,-0.0034740522210789243,-0.13721067374586912,0.08335778869971557,-0.08966164848774898
1.955,-10.091088526058654,-0.7045579330033438,-0.10349558814008575,-0.13785003522831332,0.08421140021284491,-0.08990324420740013
1.9575,-9.984560072992616,-0.7968657525966265,-0.24699907232273335,-0.1377838585472095,0.08295620590850966,-0.09175273105968734
1.96,-9.907980451552062,-0.8012881892899242,-0.4689291966432819,-0.1366671865394331,0.07349767851810282,-0.09764611796800447
1.9625000000000001,-10.131772226529879,-0.623652643288124,-0.24160274552337996,-0.1327543117136922,0.0705028864297056,-0.10025464534017361
1.965,-10.08105070027493,-0.24770818635015168,-0.316453303358573,-0.13471939677587372,0.07800583166717144,-0.09707951641252328
1.9675,-9.917442237260339,-0.35209906112759753,-0.5362434181626621,-0.13956825908799134,0.08198220356325324,-0.09106733354569121
1.97,-9.776092887307051,-0.7204349873521714,-0.5230199214343415,-0.13619766058418425,0.07662118216338161,-0.08293032178342434
1.9725000000000001,-9.956210280420338,-0.8655710036143516,-0.24763363416764045,-0.13885956451199255,0.07652593630254095,-0.08464163466872486
1.975,-10.185571456710724,-0.8698183949848742,-0.02184444448335482,-0.13949236924056682,0.07532858064002541,-0.09168146229899726
1.9775,-10.034424666126313,-0.8313567093731478,-0.362410528195293,-0.13860337853774143,0.07348422090295055,-0.09526611692380615
1.98,-9.832960176893893,-0.6179700001929278,-0.6490419379549823,-0.1391182301028939,0.073151,-0.09761131219292603
1.9825000000000002,-9.825026800064506,-0.5639301068601733,-0.5035503566827716,-0.14304840959226017,0.07387452394379182,-0.09524535237963573
1.985,-9.933832444509637,-0.736710429515587,-0.34747167388249756,-0.14390662048045666,0.07585037902798708,-0.09259630767937833
1.9875,-10.087287818004576,-0.8907909674088361,-0.23491903656276134,-0.1409768429413888,0.07234037121193873,-0.09658633296425577
1.99,-10.250712195487745,-0.8150424859405945,0.031246146774873168,-0.1390063346210031,0.07278560796623923,-0.09940244558350918
1.9925,-10.197754780756116,-0.6953482386785957,-0.16801086122837255,-0.1358846348193203,0.073457,-0.09652317975909376
1.995,-9.975440908255646,-0.7758863137848401,-0.43669071325130027,-0.13737431778324743,0.06910358933545035,-0.09847379258753487
1.9975,-9.906530377409375,-0.6544902992608284,-0.3384816678285454,-0.14316087048766105,0.06908138305821236,-0.10130438305821235
2.0,-10.017435439705407,-0.4596334651181612,-0.1340549188248624,-0.1420114172062156,0.07321864292651344,-0.0981956282777598
2.0025,-9.978865539450503,-0.516171980136236,-0.23474511298364603,-0.14013706712988197,0.06616682783832906,-0.09293106470027261
2.005,-10.032812870553848,-0.5585526407815269,-0.3082390545938947,-0.14031670238333602,0.06613081027611808,-0.09375645889875657
2.0075,-9.932719459766645,-0.8591458802261227,-0.24348816390714112,-0.13812856904126092,0.07327928835318115,-0.09116322369301127
2.0100000000000002,-9.699265539383124,-0.8324419319566319,-0.5519961167940848,-0.1363091657544364,0.06910427520304828,-0.09602547233059469
2.0125,-9.811987147195435,-0.6234210373704745,-0.4609222275098185,-0.13955092268667404,0.06452697934976745,-0.10069767324044335
2.015,-9.829028,-0.591822,-0.447154,-0.140041,0.06807213750342127,-0.101404
2.0175,-9.967249038100928,-0.6643154666493744,-0.22484070227525205,-0.1420160366792062,0.06997330756777792,-0.09251431382539846
2.02,-9.879175554781225,-0.7907469837804305,-0.39239034459825156,-0.1452204095019889,0.06884957954176611,-0.09402023255369932
2.0225,-9.692093803339635,-0.8319757221965045,-0.6397818641379276,-0.14817550123287668,0.07116469277279162,-0.10019349439300887
2.025,-9.79725259591707,-0.7456703781927556,-0.5300018072638136,-0.14762076290552306,0.071777,-0.09995397627789213
2.0275,-9.879350759850874,-0.6978507022139413,-0.40195024660695794,-0.1471411743755637,0.07679215237087346,-0.09957365124887255
2.0300000000000002,-10.007122434511468,-0.6367916885839636,-0.0657464289843932,-0.1467559420167157,0.08045091403764092,-0.10034411596656853
2.0325,-10.022130321947772,-0.49753669462242706,-0.10375784945661967,-0.14567965944954114,0.07988384609738859,-0.09634775441072635
2.035,-9.924672044249078,-0.60181739998373,-0.3172568230329784,-0.14559560563288562,0.07264814493772848,-0.08995190526332891
2.0375,-9.86400108746141,-0.8286349961291946,-0.3790458710757534,-0.14195674975065284,0.069639,-0.09163462764189051
2.04,-9.765650821079076,-0.8945962044458476,-0.5245421390473194,-0.14464319117465835,0.07336011845169445,-0.09574841664586464
2.0425,-9.82366010975374,-0.817698120702251,-0.5760240559490991,-0.14617481561446918,0.07396803800164956,-0.0980303935242135
2.045,-9.846555934125133,-0.7563952814422075,-0.5165676840296942,-0.14692971126192997,0.07613759079533397,-0.09991701488865318
2.0475,-9.936149235662652,-0.7178259629247995,-0.18504167845450925,-0.14452867444952228,0.08428130607395094,-0.09538084696302453
2.05,-9.89857375834768,-0.7806994486675722,-0.15341885675114475,-0.1434831479019527,0.08485136697726864,-0.09509581651136569
2.0525,-9.884624,-0.804041,-0.141679,-0.143095,0.0825524568339765,-0.09499
2.055,-9.881771615751768,-0.8110126702532522,-0.315014484042918,-0.1463332857038563,0.07530963065480192,-0.09749941963039051
2.0575,-9.878771028242891,-0.7727675713249689,-0.45827818161182093,-0.14715167390040962,0.07086,-0.09851679585744436
2.06,-9.882431073254978,-0.7816079499736153,-0.2679454784072871,-0.14628577629167666,0.07472809159030952,-0.0989490898344927
2.0625,-9.771380574390388,-0.6719185296265755,-0.4962927693485687,-0.14468645022970902,0.0761144742608081,-0.0971924382141595
2.065,-9.800357143630176,-0.5790147174422132,-0.4503731389276099,-0.14846903338261172,0.07793140901795136,-0.09274333667253325
2.0675,-9.811757008954594,-0.6705802663991514,-0.3474077246462557,-0.1503476859134107,0.08093762215417094,-0.08814020737064433
2.07,-9.896348559505352,-0.887934739046975,-0.2799185460379262,-0.14432094686892055,0.07598176749216862,-0.08793654602802962
2.0725000000000002,-9.918879596010974,-1.046476880266572,-0.335176168376334,-0.141415,0.07377752092512745,-0.08827
2.075,-9.789722769046438,-0.88172499731141,-0.4943080420004345,-0.14477177801769142,0.0847858643588493,-0.10014313204708489
2.0775,-9.50592655472869,-0.7957128431064943,-0.727456801211964,-0.14064525130598293,0.08422860066309115,-0.09791261654663219
2.08,-9.717267168915194,-0.6968899862984883,-0.25840023074292506,-0.14806607303090083,0.08041888767915852,-0.10350165065088757
2.0825,-9.923329180519994,-0.7107519216089894,-0.005881495346361232,-0.15189474482816331,0.08281172921164308,-0.10340576150618612
2.085,-9.959349,-0.713175,0.038259,-0.152564,0.08291048047085382,-0.103389
2.0875,-9.586580870517114,-0.8644736676292784,-0.7164976961319479,-0.1443137770382109,0.085674,-0.10150878025473961
2.09,-9.50453258351823,-0.8387187158795577,-0.7205444104595877,-0.14563026706814572,0.085674,-0.10329487378763856
2.0925000000000002,-9.625856068954679,-0.6589347613209425,-0.6199874431652315,-0.14110244462847626,0.08579732736695035,-0.10301499318684093
2.095,-9.862676509850765,-0.6164423069850745,-0.3370941574925137,-0.14278960740298535,0.0833546869253729,-0.0990163964179101
2.0975,-10.224746046621233,-0.623284615048202,0.18549974928759844,-0.1494365491088648,0.08990882147190286,-0.09670990921232066
2.1,-10.02886172733748,-0.9308972833125627,-0.21984263031167647,-0.14757927319679437,0.09097215284060528,-0.09281774500445246
2.1025,-9.75311954228554,-1.129610683238946,-0.5372626767491884,-0.14948096490353224,0.08412730766636975,-0.09557473111546458
2.105,-9.632771598266674,-0.8475413696918411,-0.878362457445315,-0.1498220167228945,0.08238898551350057,-0.1060230562698933
2.1075,-9.813608926475528,-0.6868805512475458,-0.4591495602455863,-0.14342693438874668,0.08897532030994795,-0.10468678906598322
2.11,-9.942880007598689,-0.6758997217455128,-0.1305835483654314,-0.14417216168352354,0.09421642767699813,-0.10218473400652542
2.1125,-10.107615627085442,-0.7027659447481768,0.05067170965770313,-0.14840262260515355,0.09317570721391116,-0.10166433599122733
2.115,-10.138761428467346,-0.7675909566982118,-0.031363012327369724,-0.15226285298013262,0.09287488462630124,-0.1022655901892148
2.1175,-9.871537973393174,-0.7514854172022628,-0.5100586761247997,-0.14821165329867625,0.08827810048204096,-0.10102965976370495
2.12,-9.841730834449887,-0.7462378300293835,-0.5414971636238948,-0.14853728384590278,0.08550738043094999,-0.10096471497224944
2.1225,-10.04018945030464,-0.7535682567421543,-0.027254286147817386,-0.1495683487665249,0.09004375901138079,-0.10012587294171742
2.125,-10.07279612103678,-0.8224988540741914,-0.048012367073557397,-0.14997809115409005,0.0921673698478123,-0.09671439830374129
2.1275,-9.897372637270921,-0.8618715001992029,-0.576640109865522,-0.15187063656374497,0.0809163035009964,-0.0996715914093624
2.13,-9.817609195959376,-0.7860387941547948,-0.7479572041067598,-0.15442942020943223,0.08344661960160592,-0.102703346904968
2.1325,-9.824911754729728,-0.8576547698648547,-0.4387241429537011,-0.15317729115830137,0.09380903174710344,-0.10102985226834002
2.1350000000000002,-9.793309812210907,-0.8641900452173854,-0.33884918501390815,-0.15461001391304352,0.09303181428307039,-0.10002229642923241
2.1375,-9.750566041890817,-0.8054854084697233,-0.6508936611651748,-0.15539299926748323,0.08464466105070347,-0.1027703400480717
2.14,-9.835167036513043,-0.8346945494295644,-0.7367297985756777,-0.15368692815052967,0.08379810246516645,-0.1031419758437535
2.1425,-9.891154776134336,-0.96160009257116,-0.6538676941860165,-0.14777471775157777,0.09009180621650607,-0.09866020942241265
2.145,-9.80717474957154,-1.0387954438134392,-0.601881808075889,-0.1445579242245059,0.09295453467826088,-0.09956916438893282
2.1475,-9.812437087118642,-0.895705524237292,-0.49283418271186646,-0.14915332186440663,0.09539101983050845,-0.10682761076271172
2.15,-9.8464824122173,-0.6578135180228561,-0.47029838232687815,-0.15164591112147371,0.09387122103054349,-0.10884213383073006
2.1525,-9.834882828570723,-0.6887625975243885,-0.4931650394811634,-0.145024368454602,0.091477,-0.09756042181099518
2.1550000000000002,-9.973492557244313,-0.8146615552598285,-0.3472766046398459,-0.1511482309428647,0.08693551197742717,-0.09640158170076032
2.1575,-10.048377310906568,-0.9656708148936302,-0.32952736837188273,-0.15301604509713215,0.08757018572617976,-0.10132531374653155
2.16,-9.800460983597253,-1.0291463298180028,-0.9657885534767249,-0.147337350186717,0.08648598062869277,-0.10349863704088877
2.1625,-9.697864848026468,-0.9061790465847274,-1.0606064905696087,-0.14572892233514528,0.08279576634365385,-0.10529665615693695
2.165,-9.909250177814679,-0.6632453442616313,-0.6821306830490493,-0.1496124341668764,0.08686915714884705,-0.10789872227421388
2.1675,-10.007969319875057,-0.6736377222258202,-0.28268854848681413,-0.1505321420360944,0.09264353546043495,-0.1009446037019899
2.17,-9.918484107572787,-0.9096365464147199,-0.45453063915983305,-0.15413095431351864,0.0899717663157896,-0.09859298107209473
2.1725,-9.959838398764903,-1.1490703164030296,-0.5300981978114766,-0.15587598377031434,0.08281736177681469,-0.10703412600216679
2.1750000000000003,-9.804393034151904,-1.2283023700252882,-0.6844125595401633,-0.15298473141928465,0.08368454814012288,-0.10828693890694607
2.1775,-9.664596555858978,-0.944853685325458,-0.8252255588672264,-0.14808017596709702,0.08084708282491145,-0.1127280726674506
2.18,-9.742140402439269,-0.5597007606932063,-0.8662549526141899,-0.14868382300939434,0.08207228955620359,-0.11129324389698718
2.1825,-9.954135937356908,-0.4968769082514899,-0.6220187994150602,-0.15189557603378184,0.08333468992180172,-0.10395531441038433
2.185,-10.11035320917013,-0.8592236339689097,-0.4170448412537107,-0.15450363779176068,0.08501019806719702,-0.09627224165736663
2.1875,-10.047607608526661,-1.1491090689906474,-0.5222099194704238,-0.14896186590550223,0.08490453905016397,-0.1050587944856067
2.19,-9.998339428025846,-1.0004874669059622,-0.4699025665757377,-0.1497931654558506,0.08903507325197405,-0.1086371962383345
2.1925,-9.908061327554302,-0.81104353227574,-0.47824355410764613,-0.1449530827950901,0.08410524120868788,-0.10559704207743176
2.195,-10.034513566251809,-0.8064191826049217,-0.2870813679594651,-0.15154519027496385,0.073915,-0.10663065357452961
2.1975000000000002,-10.047743428904969,-0.7860084964881795,-0.5047968285287225,-0.15096602022190056,0.073915,-0.10740266955137488
2.2,-10.009249517286579,-0.8400562519150327,-0.5900176294243116,-0.1539233604043278,0.0774966971649691,-0.10512443882176399
2.2025,-9.689091347562432,-1.0482328319330727,-0.7852846981324411,-0.15098940305602684,0.07933299472228962,-0.10402639259277224
2.205,-9.769447014899116,-0.8539101624800851,-0.5197923118577403,-0.15076182459373794,0.08005452527560883,-0.10838696919366075
2.2075,-9.832090569151054,-0.6494491118295673,-0.32916137594261785,-0.1571997476073226,0.07546314433572417,-0.10712495885665342
2.21,-9.902182056126193,-0.588977293922938,-0.3908417093043687,-0.1602519692061029,0.073457,-0.1024618771864495
2.2125,-9.761554619098483,-0.8462855485409015,-0.6470544164162304,-0.155969235340867,0.07408646315658757,-0.09537532693406214
2.215,-9.687342762271088,-0.9708526255127959,-0.6726523653777302,-0.15674899967331543,0.07824783967017407,-0.0982531269043503
2.2175000000000002,-9.639400066825203,-1.1201507027063207,-0.6666952645564806,-0.15819470486563628,0.079871,-0.10161185262306804
2.22,-9.71299761328407,-1.0342050573232542,-0.5888941432969079,-0.15476195861182485,0.07593835762853433,-0.10572848014460189
2.2225,-9.996411,-0.857245,-0.33417,-0.155618,0.0777877628737865,-0.107054
2.225,-9.996411,-0.857245,-0.33417,-0.155618,0.07934281126213598,-0.107054
2.2275,-9.62090296356361,-0.9949317363759044,-0.7602281089183622,-0.1550027338636892,0.07716511751570126,-0.10397927996278197
2.23,-9.669282167122185,-1.0043229468068278,-0.6061540226445437,-0.15765995510069095,0.07842564912537645,-0.10950990023976848
2.2325,-9.99911886000826,-0.8977091538487009,-0.13379446865648303,-0.15907865681686645,0.08249226377842071,-0.1131034079040925
2.235,-10.032287285336304,-0.8692076785211589,-0.35614146978172034,-0.1550091713318488,0.08002455131403136,-0.10797286955011168
2.2375000000000003,-9.870718798611552,-0.730424714710729,-0.6504122611570562,-0.155007,0.07870028988429738,-0.10797
2.24,-9.645396069214943,-0.6973508115096844,-0.7731604766967375,-0.15893666755234923,0.08231927237706885,-0.10478440328131094
2.2425,-9.651817692632603,-0.9072742220733102,-0.5972407710221581,-0.16138692665380913,0.083994,-0.09998628125361586
2.245,-9.694205313967922,-1.1446039740404703,-0.5438237370065285,-0.161574,0.07880003301362108,-0.10235905221890884
2.2475,-9.782010231868854,-1.026183124608893,-0.6305630240000029,-0.16341705852927407,0.07985777667447316,-0.11315465836065605
2.25,-9.688290774152476,-0.836180499124622,-0.7556134009231259,-0.15882908976603533,0.08813384402355563,-0.11266804297310203
2.2525,-9.57620812177778,-0.8267980493015856,-0.7276326152761928,-0.15782994086349203,0.08928295780317468,-0.10952374917460324
2.255,-9.586944736585805,-0.8677990751762018,-0.5964755366132789,-0.15769447256750582,0.08581020885125874,-0.10862544405491983
2.2575,-9.718525600685476,-0.889359385433465,-0.5615289704737876,-0.16293553536290256,0.08564691209677405,-0.11057015581653212
2.2600000000000002,-9.664506266353548,-1.051400965140265,-1.0408146202653263,-0.16181093977821237,0.08198194021308937,-0.1116126630310938
2.2625,-9.722646885037243,-1.0970993815842955,-0.9297415113066936,-0.15988053229519283,0.081856,-0.11110831442112386
2.265,-9.875993294679615,-0.901014124574533,-0.38567005321995473,-0.1573064822423609,0.09152983266661377,-0.11276375612158163
2.2675,-9.89315566914936,-0.6256441674996983,-0.18592938082365418,-0.15983938405725698,0.10223905909656253,-0.1092699789463802
2.27,-9.683061104636879,-0.7871133282859482,-0.6967033905897687,-0.160658,0.09440025046953689,-0.108276
2.2725,-9.866554823053791,-1.1015640084549885,-0.683743412881727,-0.1648215900670169,0.091783,-0.10382705935881177
2.275,-10.03231884257682,-1.2037474642637167,-0.49300108865544356,-0.16095471679043666,0.091783,-0.10643789521221991
2.2775,-10.090864,-1.239837,-0.425634,-0.159589,0.09815070759628715,-0.10736
2.2800000000000002,-10.017223557224007,-0.9688217499096983,-0.2586576030608494,-0.16166669740124248,0.10020473599006215,-0.11501618242650195
2.2825,-9.972784652610168,-0.7012205428609983,-0.18009469244745618,-0.16224672786440675,0.09387911585084671,-0.11195942286101625
2.285,-9.811243944898607,-0.9010463157708566,-0.651211948921822,-0.16079559261023485,0.08412073233987714,-0.10517888645638844
2.2875,-9.971822823379748,-1.0444143693830987,-0.5745810654104516,-0.16007704903984632,0.08335905368458994,-0.10633777683629393
2.29,-10.147490765693714,-0.9706862120715304,-0.17960946829092095,-0.1582509763370139,0.09498689568170925,-0.10979737288046092
2.2925,-10.010184377241627,-0.9923998041434825,-0.3391576941115156,-0.1601713791215816,0.09984659378714336,-0.10686609985083466
2.295,-9.834982049461628,-1.0034776618050543,-0.8919675218458479,-0.16471437887929669,0.08916085634908215,-0.10973637887929669
2.2975,-9.75063522010254,-0.8821067706002979,-0.9454802886541427,-0.16274582649433889,0.09372138088442622,-0.110546920952788
2.3000000000000003,-9.822278206472983,-0.9068808066438822,-0.7660390525421727,-0.16154850995513767,0.0975698183294172,-0.10798092264473376
2.3025,-10.03148379154264,-1.0300562455271343,-0.23726220933546288,-0.16483848680911062,0.10100131300305262,-0.10801489541206868
2.305,-10.125721405818243,-1.0951384039429422,-0.1406675042218327,-0.1674410534156116,0.101556,-0.10710927379387714
2.3075,-10.016635332633337,-1.019739459091448,-0.36164072451637497,-0.16569733688121763,0.09838043778017479,-0.11038267797195278
2.31,-9.735505720006367,-1.0441494784897256,-0.8015862396112892,-0.16851797107535457,0.09308166963836216,-0.11004344976262542
2.3125,-9.860983504055989,-1.0345308870685541,-0.7283293205821536,-0.16628546166693176,0.08833438778431685,-0.11213294385239382
2.315,-10.117811891212634,-0.9543902883893344,-0.32151811282572174,-0.16551264024172108,0.09387782336314553,-0.11414963247764086
2.3175,-10.1390258907163,-0.8463052608492512,-0.20030201752961602,-0.16448104625574092,0.09749051450487456,-0.11144011412134408
2.32,-10.000134468978878,-0.9825909379899869,-0.501120807188232,-0.16497902681722854,0.09640321677044697,-0.10872818995321844
2.3225000000000002,-9.865759033920174,-0.9858306019062962,-0.8155800682105525,-0.16117724388663912,0.09156874648004569,-0.10794049740659342
2.325,-9.937475546987773,-1.0821075413349945,-0.7454473646739874,-0.15926188390893595,0.08972755322905367,-0.10692853255381747
2.3275,-10.058085139317104,-1.1306284270321867,-0.4209480410671667,-0.15703628724023974,0.09398918472157669,-0.11049746763921217
2.33,-9.928769573237863,-1.143900238186158,-0.5458825345743904,-0.16086525153858408,0.09867520221479725,-0.11205792006364361
2.3325,-9.79872670583519,-0.905703635486263,-0.7884955569116573,-0.16454462051967336,0.09443641573867848,-0.1149940659242762
2.335,-9.803444791854306,-0.9153386608609261,-0.7990527656291395,-0.164934,0.09419283185430462,-0.115606
2.3375,-9.861686442005626,-0.9352704012279361,-0.627361364850355,-0.16117192197492988,0.09237908165771311,-0.10990369081606582
2.34,-9.809867938935238,-0.9780381995356626,-0.8675872088511538,-0.1669301392074289,0.09210857416379792,-0.11027439416860127
2.3425000000000002,-9.734067727454228,-1.0240998234678838,-1.0980602314497048,-0.1707419102762935,0.09629903650255889,-0.11448668021375834
2.345,-9.76637071210225,-0.9386797528625177,-0.9873996273963488,-0.1647197348189409,0.097433,-0.11138136658036991
2.3475,-9.772536374388352,-0.8587407302653169,-0.6643120413993667,-0.1662040322704864,0.10074603718243748,-0.10842297895280571
2.35,-9.860423737758023,-0.8689515651000326,-0.540802448174021,-0.16946767789774542,0.10048768189901552,-0.10662721473483638
2.3525,-9.723110368279961,-1.1560883894060292,-0.8224362060802353,-0.1668984247732412,0.09137865826925347,-0.10306113184144737
2.355,-9.805690715007499,-1.1794113021236288,-0.8878464360716825,-0.1618714064482514,0.08071123868003481,-0.10676930171942839
2.3575,-9.900272307829075,-1.1228871367964937,-0.8820133734296277,-0.162822510116069,0.08243312580861466,-0.1118565198727537
2.36,-9.939400516767456,-1.0396706894844516,-0.7301520660387354,-0.16184980760060938,0.08867641785077204,-0.11341536904502944
2.3625000000000003,-9.764347322429876,-0.9476307221183712,-0.9515008641745086,-0.1606058576323989,0.09022597320872276,-0.11088052928348877
2.365,-9.84734407241964,-0.9735058722842678,-0.9665411476367677,-0.16507722373378497,0.08390933166384595,-0.11139841326565153
2.3675,-10.114837207826927,-1.1419938862464871,-0.7767114486171054,-0.16765586430856075,0.08729207668861769,-0.11134306784571962
2.37,-10.180984316836275,-1.1738955989338857,-0.5844341451990235,-0.16267301179300767,0.089492,-0.11138580554517134
2.3725,-9.948366606978508,-1.0390729841424147,-0.627714813637818,-0.16518261810190318,0.09613654522283632,-0.11531610183425427
2.375,-9.789052928703704,-1.0290014666666667,-0.7426178157407407,-0.17014732685185185,0.08880191574074074,-0.11584852314814816
2.3775,-9.762587616071556,-1.0228827688491358,-0.8690980501466876,-0.16839858130471091,0.08618897900536669,-0.11393336945020877
