time,acc_x_g,acc_y_g,acc_z_g,gyro_x_rad_s,gyro_y_rad_s,gyro_z_rad_s
0.0,-4.322692,8.240075,3.136059,-0.008705,-0.005497999999999999,0.0013739999999999998
0.0025,-3.0944702396779387,8.998516389951691,2.037758292173913,-0.06017461384863124,0.05528374650563607,0.029561288115942032
0.005,-2.990424020934223,7.621635429018113,2.2665477290371783,-0.15599441208770257,0.11937375103908485,-0.046504105700667306
0.0075,-2.508572111039084,8.003993697883699,2.063069958245948,-0.23665467904671114,0.21529408019065777,-0.1132616992564347
0.01,-2.830973117521449,8.034333608427072,1.9366512466348904,-0.2807897531363203,0.30200296205910393,-0.17814351599618686
0.0125,-2.899228543736579,7.924488366213315,1.9014200151753768,-0.3353443905511811,0.44536904280601297,-0.28439567816750183
0.015,-2.886767127893231,7.963584238970449,1.8113925811630107,-0.3824892549475691,0.577879,-0.3670613396758818
0.0175,-2.6755008903053423,8.497594602671752,1.6628436021374071,-0.4320184173282445,0.6401953827480918,-0.4331856661832061
0.02,-3.9268575029835833,8.428627622412561,2.2833072310635263,-0.5007060581584583,0.762971,-0.5255463336188437
0.0225,-4.835464561221375,8.02889454015267,2.6118232815267173,-0.5477474320610687,0.8359764870229007,-0.5996930161832061
0.025,-3.144296185356811,7.97923237849861,0.8642069607043552,-0.5897824031510658,0.8751677234476367,-0.6396564100092679
0.0275,-6.904047852245763,8.66470615838983,3.8796091975847458,-0.6975415319491526,0.9324051559745763,-0.7038602124576272
0.03,-5.5158412199999995,7.41083154,2.2043751800000018,-0.7505003,0.93293122,-0.7308056199999999
0.0325,-7.07328743206107,9.01530497801527,4.461238915725194,-0.8093963667175572,0.945279343206107,-0.7634911190839695
0.035,-7.183833550657779,8.000230640343187,4.00058034101051,-0.8646046925452813,1.011287,-0.7631080182268828
0.0375,-6.227447182268824,8.731126102192563,2.7616660110581464,-0.918171836224976,0.9498203725452812,-0.8064194278360345
0.04,-7.202645589950036,6.741026641142041,4.005217631434692,-0.9633302944182727,1.016785,-0.7798066083083511
0.0425,-6.659420138783105,7.698848447931275,3.263019402462418,-1.0286846764209019,1.0088200060415178,-0.8058677912956334
0.045,-6.233859,7.068388,2.060019,-1.047787,0.9850529239694658,-0.848492
0.0475,-7.098858882176092,5.466635251939872,2.7494102515962764,-1.081439337265569,0.998154,-0.8493915240372226
0.05,-7.680025626882744,5.68690585033365,3.2639998358436615,-1.1323963393708294,0.9958061639656814,-0.8452405161105816
0.0525,-7.425490851755723,6.198227520381679,2.8357400134351076,-1.1605958256870228,1.0452867820610685,-0.8879572615648855
0.055,-7.538000545867237,6.120899046595289,2.414846940385438,-1.1795902499357602,0.9725442489935759,-0.9163780567023554
0.0575,-7.914872,5.485413,3.085844,-1.200961,1.0142288513099498,-0.979064
0.06,-7.245065436793896,4.512014218664116,2.356938887290086,-1.1940806176335879,1.012815,-0.9851845735496183
0.0625,-8.496691612011439,3.9062518722592947,3.213418260247855,-1.196074,0.9781238417540515,-0.966847
0.065,-6.3672922125190885,2.531892694045803,0.7365824925190891,-1.199434,0.9553833908396947,-0.960738
0.0675,-7.569749471267892,2.7618764667302163,1.9526445022307097,-1.196877658684461,0.944856,-0.9711337809723547
0.07,-9.147732894961845,3.1351502946564946,3.220048530992386,-1.1724591712977097,0.9842826925190835,-0.9916081294656488
0.0725,-7.501556149639526,2.844537441922559,0.4824021746328533,-1.1591981974899868,0.9139299010947929,-1.0302414743391188
0.075,-8.202529908674935,2.374284394470918,2.678168504671132,-1.1227247763584365,0.9377342205910393,-1.0324903275500477
0.0775,-8.747817496020025,1.4339646321902382,2.6035689495869847,-1.0689349623529412,0.954171,-0.9970909990988736
0.08,-10.000596,1.260162,3.174318,-1.025795,0.8779914875119161,-0.99342
0.0825,-9.322195095648867,0.38901300122138155,1.8750408974809314,-0.9936921203816793,0.9104003841221379,-0.9940494011450384
0.085,-8.076088649821559,1.0765305726766432,0.3457104281798668,-0.9589643139186296,0.8658967170877944,-0.9668004949607425
0.08750000000000001,-9.611063125954203,-0.49809174885494345,2.4186115580152743,-0.8758467343511445,0.892709786259541,-0.9501227076335891
0.09,-9.811106981717563,0.14973127473283643,1.7697143436641307,-0.8394770888167938,0.8847490269847325,-0.9057028943129775
0.0925,-10.672047854287758,0.8243013068289213,2.7125934552612754,-0.7768259857122405,0.8421651622047243,-0.8996832742161776
0.095,-11.281240352557255,-0.3853487820992363,2.5562029532442825,-0.7125512775954198,0.8803962851908398,-0.8956507266793893
0.0975,-9.760647788372268,0.7244979592361881,1.0385292422988515,-0.6775460107489804,0.838582929221357,-0.8736858410938079
0.1,-10.70222517748911,0.036055503896063934,1.778985315151424,-0.6558046926406917,0.8432286458874454,-0.8415826121212133
0.10250000000000001,-10.323293077383436,-0.12607962917097454,1.4564782400000102,-0.5717744060103624,0.8294074060103624,-0.7632063958290155
0.105,-9.055475,-0.316834,0.248685,-0.536645,0.8166766053765493,-0.672563
0.1075,-11.04008335306006,-0.25483028766443755,1.3381636310390923,-0.48589677239275497,0.7205312699332698,-0.572608873517636
0.11,-10.618718533384175,-0.47473690081982733,0.3812572276453769,-0.4314008682554814,0.6717123371591992,-0.49173160899904667
0.1125,-11.520453508293617,-0.20159448884651895,0.987723433555774,-0.3861315450905625,0.5495538183031459,-0.4002007923736891
0.115,-11.068095218044244,-0.17872853647395104,0.428162063783002,-0.3498714564453961,0.4456255408422555,-0.308924356802284
0.11750000000000001,-10.938681981811255,0.10965356808387954,0.25325201479504666,-0.33574478543374625,0.33634174932316446,-0.21928013029551918
0.12,-11.4329303960687,-0.18960704458015396,1.217733060496186,-0.2853735825572519,0.20293024396946596,-0.1464004366412214
0.1225,-11.079582924923665,-0.39921754278626037,0.7097426307633617,-0.21150048522900766,0.09752494950381693,-0.08066812133587786
0.125,-10.810191613918018,-0.2142786825548141,0.8410068007626311,-0.12478129265967589,0.02297399714013346,-0.02539260343183985
0.1275,-10.349113,-1.299617,0.652798,-0.052076,-0.01689153969010729,0.000916
0.13,-9.946005157902269,0.4976929558045372,0.4657556045292,-0.005607814445768824,-0.008224636948748318,-0.00901986960667465
0.1325,-9.937863272657923,0.2899312836233613,0.25744419432657184,-0.0029412553992847713,0.002062378736591119,-0.0014537632896302883
0.135,-9.96459839966626,0.273034219690112,0.14634021497019015,-0.009754985697258703,9.557740166861917e-05,-0.004276496305124986
0.1375,-9.97750948081049,-0.10532517735399517,0.3291924605482692,-0.00975847771156151,-0.013132285816448576,-0.0005315856972585395
0.14,-9.809478661644805,0.014631291775923162,0.2245272256972418,-0.008777465840286106,-0.004445031227651762,0.0004902471036950479
0.14250000000000002,-9.774456100882006,-0.007017654636468692,0.21832048205006452,-0.004750769821215769,-0.0036067493682958984,9.038984505371837e-05
0.145,-9.897917794469604,0.01483540171633186,0.20755038188318653,-0.007885610488677097,-0.0021114994040520923,0.00168
0.1475,-9.850030059165677,0.003363852300360329,0.1749822097735394,-0.0058177106078663885,-0.004079311179976026,0.000153
0.15,-9.791807426221698,-0.026467137544696432,0.16103650703218703,-0.006256717282479193,-0.003711874612634131,0.00020910941597133514
0.1525,-9.875322333349226,-0.028605097926102076,0.222382,-0.007413966293206173,-0.005782693063170377,0.0007779325864123448
0.155,-9.801956248724673,-0.02962673949940392,0.14583078102502975,-0.008247,-0.009426681811680543,-0.002443
0.1575,-9.974219609773542,-0.05227904314660327,0.4257960820977365,-0.00819644023837903,-0.008518747699642466,-0.0015715177115613818
0.16,-9.871653927446303,-0.024025719904534594,0.3138154386634875,-0.008909422816229152,-0.00800126940334139,-6.578138424780458e-06
0.1625,-9.941755781883193,-0.0009011566150196378,0.30542363933253946,-0.007245714898688902,-0.006599406436233501,-0.0013094531585221094
0.165,-10.06572651030537,-0.33743302984733536,1.0395468006488489,-0.020129230916031235,-0.00955024442748105,0.0018453400381667519
0.1675,-9.829368812649204,-0.20083474386633882,0.3266552605728823,-0.005962268591886283,0.014813,-0.001510164152746159
0.17,-9.803337476805746,-0.16527555342073733,0.33926231599526746,-0.009482221120381799,0.009826202526817276,0.0015127788796182018
0.17250000000000001,-9.909099659499416,-0.0645176540643701,0.39333066493446334,-0.007314495303933353,0.002250669797377765,0.002132936114422173
0.17500000000000002,-10.171792656495846,-0.11607927008345138,0.5925184288438853,-0.010592007866508065,-0.0026639506555423504,0.004823390941597304
0.1775,-9.810033330310718,-0.09387718005072843,0.09574892232086317,-0.007973661623335468,-0.005572046455294848,0.0012460620418516116
0.18,-9.772107511649985,0.016149188360802966,0.06342249131794997,-0.006056414309859152,-0.006692323802217567,-0.005528571519328742
0.1825,-9.801411707217262,0.07325368835480961,0.17237258572130637,-0.007208371042253519,-0.004484563845370097,-0.004281089733293379
0.185,-9.96507285346968,0.07429989129607613,0.4705805409750293,-0.00967120226397146,-0.00594009898692033,-0.00022582096551724672
0.1875,-10.072248465668519,0.020356771794252597,0.5132399776221525,-0.008420463012154874,-0.006140632858407792,0.0015099680431457782
0.19,-9.952325127901815,-0.06562439380351173,0.21960763828762697,-0.0065210321850960136,-0.002267945161782842,0.0008740822573257377
0.1925,-9.859563497685125,-0.148079449889013,0.1920000835515884,-0.007649718430911976,-0.0028319804051911454,2.8029392213281762e-05
0.195,-10.025898161075368,-0.13429115023529387,0.49871015221507364,-0.006162918005514708,-0.007811124558823532,-0.0025041979613970636
0.1975,-10.068243572840075,-0.04210898364705849,0.5491222745680149,-0.007119454476102945,-0.008620686911764708,-0.004197050667279418
0.2,-10.087995297718104,0.04718373289180597,0.56248685970257,-0.007954631729785057,-0.008676466951652698,-0.0053924426154494465
0.2025,-9.970243413761214,0.11889145715696348,0.3503827069757349,-0.008051225220061414,-0.004144780198687434,-0.003560322950207709
0.20500000000000002,-9.801805554400866,-0.04840162528247732,0.22850286839151057,-0.0091229859014034,-0.009763189456639228,0.0028983716156890916
0.20750000000000002,-10.058149715555198,-0.1400752534056333,0.5288263242246701,-0.009728395697636776,-0.010788140229847821,0.00028311055033989436
0.21,-10.014322612206964,-0.1517678298243373,0.4319749211210485,-0.009939671207282017,-0.005735237585435982,-0.0011784496103481295
0.2125,-9.727424058878881,0.06831321349643753,0.10907153942734184,-0.00899480459739212,-0.0028311186180938292,-0.0053695738405699755
0.215,-9.873201354106735,0.14415067276784505,0.3521730102271807,-0.009532553950799837,-0.0031539091867186448,-0.002463049157144781
0.2175,-10.033399103662198,0.08893332363169307,0.5628550133129966,-0.008654653457493779,-0.0037443280629365014,0.0012368584506703044
0.22,-10.023990808012673,-0.024498995779802024,0.4590009987833662,-0.007343475374257426,-0.004052747466138614,0.002267396698613861
0.2225,-9.878005118517438,-0.11500933090776527,0.18860682200510354,-0.006567,-0.0018793445376108818,0.001985
0.225,-9.813769079415671,-0.12562396023748143,0.1697448323412236,-0.008050356190922588,-0.000976966861963912,-7.518695414421468e-05
0.2275,-9.941009874978272,-0.04427704003862812,0.35886678335103905,-0.008553781265089324,-0.00642072336069535,-0.003272068971511357
0.23,-10.02666426987414,0.117988715516505,0.3847099693944427,-0.010897508762764208,-0.005673410363334097,-0.0030737654238898043
0.2325,-9.902449580413261,0.1170816638923593,0.21717362421912456,-0.0094394651033157,-3.085107160016604e-05,0.0016926093608842156
0.23500000000000001,-9.850018236860198,-0.014757692039605044,0.20115963321663405,-0.0090495378249505,-0.0015682902400000298,0.003346335112871286
0.23750000000000002,-9.958306128923478,-0.14011633092795694,0.40806616347129127,-0.009043523334512433,-0.00672273170616676,6.37586369531427e-05
0.24,-10.088471684585867,-0.046987162629855556,0.47509814346279866,-0.008705,-0.0044685175105288015,-0.0035244307440336865
0.2425,-9.948207912431746,0.012025213422222129,0.2668822038285721,-0.010069407079365074,-0.001680095263492069,-0.002138095263492069
0.245,-9.805976790319226,0.020098232722617824,0.12135894241139308,-0.009490065150812068,-0.00395590478598287,-0.0014541353260260818
0.2475,-9.861999238160584,0.04455463302189775,0.23733627969343032,-0.009325501605839413,-0.006130458204379564,-0.0006848762189781038
0.25,-9.989260399181166,0.05726877993858751,0.4109391750255885,-0.010079,-0.0029530266120777896,0.0015534759467758445
0.2525,-9.880859356109335,-0.022212446574370028,0.25760458714944934,-0.01016198607028754,-0.0010248455662051838,0.0016593785161519322
0.255,-9.754692972571977,-0.09807119906909793,0.12532265597248887,-0.010474424996801025,-0.003394914056301989,0.0001261500063979513
0.2575,-9.88339669408023,-0.07055507050557772,0.31949545293140386,-0.011273633909328274,-0.004941949176358888,-0.002139433990030868
0.26,-10.032574675019326,-0.030140835431602852,0.466306665121637,-0.010294750205380818,-0.002267337212580509,-0.0026630917468738104
0.2625,-9.970177023776582,0.007266189341532538,0.3222357586471928,-0.008780563105303611,-0.0025522300794261145,-0.0019118045605944175
0.265,-9.84054757592096,0.033728493465067,0.14157653536579598,-0.009181508134556579,-0.0010235286756057043,-0.0029716942648788593
0.2675,-9.964112662157552,-0.04679871343073548,0.4003818593571476,-0.009498927621205785,-0.0012579448458465113,-0.00024253997495378082
0.27,-10.015697924067029,-0.07894633149740615,0.4755174041171214,-0.00787563267457808,-0.0026905213954320573,0.00023456867076152764
0.2725,-9.850597766452667,-0.0728306946982606,0.19477485549667276,-0.010519820077039811,-0.0025689622178125563,-0.0015671461141589828
0.275,-9.786574900665343,-0.05307518993813452,0.13038602236488794,-0.011547955760476255,-0.004999156740982863,-0.001660779899614802
0.2775,-9.823794110170132,-0.048200841739130425,0.22157674759924514,-0.011968583969754256,-0.0076945221928166625,-0.0022025900945179646
0.28,-9.973696173808541,-0.016866274774357825,0.39875994957304683,-0.008605023705145301,-0.008705,-0.0025668017710740805
0.28250000000000003,-10.02101233347552,0.03441693624659513,0.4059848886993069,-0.007789,-0.0061611870319918695,-0.002596
0.28500000000000003,-9.97310927828567,0.03386422337161758,0.30028472502890424,-0.010644111847683707,-0.003804974627302835,-0.001284164538657185
0.28750000000000003,-9.94285635169259,-0.013944093138152846,0.2507060404391598,-0.01100306477584621,-0.004301314181152849,0.00024354034766698
0.29,-10.184594474173425,-0.05868620792660528,0.5528407515501634,-0.013188393894051487,-0.003207,2.3094079905296666e-05
0.2925,-10.142298288423795,-0.08614158319266035,0.47121629389050074,-0.01404115709263095,-0.003207,0.00011805242734536778
0.295,-10.126732,-0.096246,0.441176,-0.014355,-0.00419269377911222,0.000153
0.2975,-9.965141634388392,-0.018748315190049283,0.303329274913616,-0.012502001962681432,-0.005713566717346226,-0.002205862639944686
0.3,-9.93754871208293,0.06019673015873005,0.34099816209912437,-0.013034082636864255,-0.006261,-0.0023294659216067503
0.3025,-10.021277682295684,0.014720109375574393,0.4129060415610657,-0.014066863746556479,-0.004519472369146019,0.00014830633608814707
0.305,-9.893729382457362,-0.0691067700661328,0.20916678131569852,-0.013093349488339715,-0.0028238178907065794,0.0008012862930734429
0.3075,-9.914860630771502,-0.09774845862753131,0.24846086977125503,-0.014238403571370005,-0.005264493498401241,-0.0013328165450520574
0.31,-9.963431957680765,-0.1144111598362892,0.35180087304229185,-0.01215375001364257,-0.007223435716234651,-0.0025219428376534784
0.3125,-9.871084084177859,-0.014853909857925621,0.22522563661930853,-0.010370798283469911,-0.006589151578334869,-0.0026984449886049556
0.315,-9.842511748281046,0.05079966915579697,0.21033161694806768,-0.009594395455559325,-0.0044150202802696,-0.0033197706308490523
0.3175,-9.848595629851888,0.0826211496798853,0.2433126768466318,-0.010947887797419979,-0.0034619044624940288,-0.0014554569517438998
0.32,-9.972919681678322,-0.07160805286713293,0.3528992492881477,-0.01111562859601936,-0.00818225719203872,0.0036817455406132245
0.3225,-9.999146302843824,-0.09558597958041966,0.34390760511146967,-0.009105716915904602,-0.004162433831809202,0.0006189334480903599
0.325,-9.971460383304127,-0.08523987768042046,0.3167888137963994,-0.010218656523817123,-0.002749,-0.001119791747650156
0.3275,-9.825245466446281,-0.08093416409917334,0.1278222498512403,-0.012815517421487602,-0.003416037223140541,-0.0031477128595041198
0.33,-9.865702920613932,-0.041956518485635336,0.2442599914144045,-0.012311243563951198,-0.011860767354584861,-0.0007526183675718072
0.3325,-9.903625507020767,0.03785716949449885,0.2866833591759744,-0.010170656152891519,-0.006760343142218853,-0.0021369045056672618
0.335,-9.845169512109061,0.021673478570282408,0.24172382978118848,-0.010769351687478538,0.0002692646122122184,-0.0005998020758391288
0.3375,-9.808995966850112,-0.03999867316283641,0.20214017856911592,-0.01146980097118809,-0.0010936091939139148,0.0010729041113629121
0.34,-9.858484574856963,-0.06355004168800384,0.2656277784984996,-0.011688356415362732,-0.0046862043812233665,-0.00036342961277069374
0.3425,-9.919661233281344,-0.05077244857588446,0.33638136874385144,-0.011333960940611868,-0.0030438631505697936,-0.0027509616076784827
0.34500000000000003,-9.871919954111954,0.006519263483069228,0.2334136404975793,-0.010278424791522677,0.0,-0.002165084685556302
0.34750000000000003,-9.912638915202688,0.01913,0.25996191520268735,-0.012808769604221677,-0.0015748935188294793,-0.002357506222115623
0.35000000000000003,-10.003145089353522,0.06448044979572315,0.4132979180966141,-0.01272239221341021,-0.0024111168949771714,-0.0018721376592165191
0.3525,-9.970511561172392,0.04358470250236401,0.40516445887173064,-0.01237,-0.00023454639773087512,-0.00168
0.355,-9.903906164241713,0.004203194287953876,0.30964523214985584,-0.012448351732894427,-0.0005659310478877503,-0.0008196672466494338
0.3575,-9.970109,-0.021521,0.375418,-0.014203,-0.005125449806955177,-0.00168
0.36,-9.970109,-0.021521,0.375418,-0.014203,-0.007022518101609858,-0.00168
0.3625,-9.958870740063393,-0.0548166599683041,0.25472123261489765,-0.015053075293185416,-0.008818502028526142,-0.0013611347385103028
0.365,-9.903945136675288,-0.068409690317423,0.1646561252010348,-0.013393846207383035,-0.009229480390312721,-0.0037299750434986925
0.3675,-9.970772331553977,-0.03567523526222376,0.28496139819267347,-0.012509028904308538,-0.008525057808617075,-0.0017699789446506456
0.37,-10.02553324057414,-0.018587400345456764,0.35172012028706967,-0.013493715061428047,-0.008746701530227465,-0.0023595464347402947
0.3725,-9.968407675314081,0.039783276176539206,0.2794502978002647,-0.014278522873822681,-0.006400174272592826,-0.003389867738771697
0.375,-9.948003129493893,0.024001213263525306,0.31662723036649215,-0.01698069214659686,-0.004991868411867365,-0.001898571029668412
0.3775,-9.957173399219482,-0.036491249669408206,0.35974047323334946,-0.017400443147879377,-0.008243417764876637,9.438984679890515e-05
0.38,-9.96862162146177,-0.07188958016616499,0.31254078775677285,-0.015193478516556287,-0.00564616214810354,-0.002878163111378698
0.3825,-9.880088208934426,-0.07987472393442624,0.1628121107377045,-0.012969331311475405,-0.004581,-0.003712097663934426
0.385,-9.825185039372455,-0.0135918805700595,0.12260703763832345,-0.011976651233532934,-0.007349344972455106,-0.0028225972742514918
0.3875,-9.971077290471936,0.03102214387133472,0.3581624747299176,-0.011371112078628866,-0.008634887921371135,-0.0012990017382828293
0.39,-10.07450537493772,0.055882985682726316,0.4453880145898942,-0.011271884333725031,-0.006632130500587526,-0.0002692723666274931
0.3925,-9.912129259387378,-0.07118134985260288,0.1919010019990786,-0.014184200382312289,-0.0068112961860893675,-4.264251497008276e-06
0.395,-9.888309896807922,-0.13578577870566605,0.16808103567941024,-0.01270926304467986,-0.0081020927590972,-0.0003731495209580865
0.3975,-9.97106943419254,-0.1355415428411429,0.25481585125257444,-0.012572793477723793,-0.010734781925389137,-0.004011872585028448
0.4,-9.992825024422286,0.02381689866275681,0.24780457560117264,-0.012828,-0.0076195508269794555,-0.006309756457477993
0.4025,-9.97885467109912,0.04771397645278616,0.20773113738416382,-0.012828,-0.005741339035777108,-0.004806695024046906
0.405,-9.956322117501315,0.037013991152024826,0.2465739929510795,-0.013058027974750136,-0.003968391551814816,-0.0017122166175696529
0.40750000000000003,-10.043532649411766,0.024542731054021532,0.4019913268187294,-0.014815042084033638,-0.004400584931572639,0.0002400174789916129
0.41000000000000003,-10.048903337803903,-0.026964276614155687,0.39813982902421685,-0.014985215264519151,-0.004024477987303066,0.001000249141782276
0.41250000000000003,-9.932610992327364,-0.08561974322250712,0.24546704092071395,-0.01567683836317137,-0.005437520204603607,-0.00011860102301792207
0.41500000000000004,-9.930423149515471,-0.045948445912433085,0.2694610048336269,-0.014304340796263828,-0.011547867722125044,-0.004690757898423905
0.4175,-10.005728156889875,0.06514373110758409,0.39564305467470556,-0.013897,-0.006820484620755367,-0.005651
0.42,-9.85342039756178,0.07039771360790809,0.29239419756178064,-0.016681472092256972,-0.003791709522240532,-0.0021404885008237573
0.4225,-9.833821456814004,0.06222619006634161,0.2351269278778676,-0.01922009113899767,-0.004197707869874507,-0.0003699463128447022
0.425,-10.038004339999999,0.03276122086651075,0.47332284999999824,-0.02120367580796252,-0.008022027423887563,0.0008384514988290341
0.4275,-10.048165890716138,-0.13246988763771805,0.52593879073558,-0.01864584453337655,-0.00901,0.004704729125080995
0.43,-9.938456409601487,-0.28261445490414744,0.28430804793307873,-0.016687041333798076,-0.012742264259323791,-0.0013241530289299103
0.4325,-9.928167933596633,-0.1439056216898676,0.2631059267076723,-0.017671077565555193,-0.014922077565555194,-0.00785773184849465
0.435,-9.941701182568691,0.0680658535718848,0.33352042320766767,-0.016018596421725245,-0.015092428063897764,-0.00795062568690096
0.4375,-9.874474414031726,0.13655667619503886,0.22927447705738316,-0.01544715287980411,-0.015100704886617695,0.0009775302352815927
0.44,-9.867467162299585,0.005757062593420514,0.15519877274992008,-0.014935870213989141,-0.013225257553497283,0.003023219067390612
0.4425,-9.893354069740662,-0.21317381002141383,0.11365096641922436,-0.013515489564596712,-0.013802603316678569,0.003947078206043302
0.445,-10.01166822343577,-0.2690588457788765,0.23625317199576173,-0.013671863082538566,-0.015589243367479104,-0.005152136215707089
0.4475,-10.033475,-0.257054,0.264228,-0.013897,-0.011721030056461215,-0.007178
0.45,-9.989764030431308,0.022827166261982723,0.289997855175719,-0.016480206166134204,-0.007412306182108608,-0.006011355559105424
0.4525,-9.907010758397414,0.1498940191940872,0.3031755639995381,-0.01795465537928645,-0.011621428347765923,-0.00013331642073657717
0.455,-10.023392623465819,-0.11183183613495895,0.3202901083695456,-0.02059084847906729,-0.013554110927397955,0.00134868994877229
0.4575,-10.040002022851088,-0.18417512138727016,0.25459095332744464,-0.01870522691397278,-0.008651124402049072,-0.0005375490431608213
0.46,-10.022873954589787,-0.19520030674291142,0.24153553442935446,-0.014698355247398893,-0.006872,-0.0017892161035660465
0.4625,-10.0033642020413,-0.11291073952053028,0.3627470314265392,-0.012836921433657748,-0.008364799003085717,-0.004198133539045849
0.465,-10.073818509337434,0.04383885699215425,0.5292420193414783,-0.017023298943451226,-0.009129293037780107,-0.007442917870722458
0.4675,-10.00735982292033,0.10036447948156889,0.37797884456598785,-0.01743275349346011,-0.009569292894173622,-0.0047086016979784985
0.47000000000000003,-9.849754684336514,0.022570715635101123,0.11735137402822506,-0.0165649498572893,-0.014594501988488605,3.6580216037242815e-05
0.47250000000000003,-9.930941906887082,-0.011549563082653867,0.23804531373225254,-0.016914815729918497,-0.01576961795576244,-0.0015123248894063671
0.47500000000000003,-10.106492923727437,-0.07782035765165235,0.45575477580094415,-0.017629001561229495,-0.010751996096926269,-0.002429055879004683
0.47750000000000004,-10.050664304139062,-0.1646968349354011,0.29106820935869687,-0.01753005008221749,-0.008924208992248083,-0.001831068104298826
0.48,-9.969339649007756,-0.06028536476024819,0.19350801050166092,-0.01607978695363191,-0.011328716961544527,-0.006002356100648797
0.4825,-10.002436927102805,0.085445603489096,0.33620111451713275,-0.017238908785046705,-0.014310418193146398,-0.005672665046729021
0.485,-10.012159650187872,0.08334221850178389,0.45209747921046334,-0.01620470775743165,-0.015424,0.00040581548632577643
0.4875,-9.93455284658375,-0.01804214101114472,0.30999557124858745,-0.017413027394605065,-0.014452235115490233,-0.0006140273946050622
0.49,-9.777648526353406,-0.0690416779626406,0.05023723213365927,-0.018537580540665972,-0.013806415621301776,0.0005706948926789545
0.4925,-9.791083756082884,-0.13332700032310957,0.19832835639428661,-0.018778969377195035,-0.01553682077733552,-0.003322507045188475
0.495,-9.930878135815968,-0.05554063250292686,0.363073370039803,-0.018685061552329667,-0.014786785731678765,-0.00547870435729337
0.4975,-10.045332063751825,0.04586496868613127,0.49480201420437947,-0.019458060671532846,-0.014355,-0.006637185678832117
0.5,-9.990308,0.07039827814569537,0.3821961059602649,-0.021277556291390727,-0.012117887417218542,-0.004569503311258279
0.5025000000000001,-9.894770490136711,0.014427648069354537,0.20321277124374526,-0.02129654366122035,-0.014414189489830184,-0.0021375897965988325
0.505,-9.995884563106797,-0.07475011495145625,0.34338822213592246,-0.020922,-0.01782868621359222,-0.0054367813592232994
0.5075000000000001,-10.071233000330231,-0.04204418391915909,0.4295008207542456,-0.020922,-0.010953833857737098,-0.004590496522026265
0.51,-9.940046379910372,-0.06840310791493544,0.2907603401613288,-0.019528278184632927,-0.008399,-0.0014064148293000734
0.5125,-9.812954224276169,-0.049841421024500884,0.19909213703785975,-0.02142898946547872,-0.012237231670378471,-0.0026874192650332617
0.515,-9.936521699993408,0.07228417770232475,0.34941582192516984,-0.022303373601450453,-0.014386080273611329,-0.006749773209164339
0.5175,-10.014980751102561,0.07984149810749297,0.36185259150174637,-0.018478093692437254,-0.013286,-0.0021788708957558717
0.52,-9.993423,0.02989,0.297704,-0.016799,-0.012288548236982687,0.001985
0.5225,-9.983870156055884,-0.026113306528112785,0.31154033145364235,-0.019828797288996558,-0.00985478724396726,-0.002222990559981395
0.525,-10.012938598645178,-0.12302138509694069,0.4548636600794226,-0.02017845274468579,-0.012082227143190894,-0.004003012707311352
0.5275,-9.968907945218934,-0.10676908704631938,0.41113004461149594,-0.017189914765882087,-0.013211521604657116,-0.004082369754492483
0.53,-9.888606019606629,0.090696585790919,0.22749296455358145,-0.015471410742639156,-0.011301,-0.004628410742639156
0.5325,-9.852886822168374,0.03518920122879811,0.2521438755663249,-0.017827696490268084,-0.01268519032283278,-0.000488415861799471
0.535,-9.933298381475568,-0.05886538630150221,0.39541810757585694,-0.017243456125838358,-0.01610857312360274,0.0006574853752794523
0.5375,-10.04455840785963,-0.10058231546689116,0.5092062804470616,-0.018248916884989735,-0.016531627664944162,-0.0038780368224972145
0.54,-10.029444651132707,-0.04250221812330617,0.40735027294567244,-0.022032817199299067,-0.01489514469332484,-0.006767813426796231
0.5425,-9.94496713615738,-0.0278169234114732,0.23027534323948784,-0.02368640705854635,-0.015974791301684516,-0.005069495280951842
0.545,-9.929178016593943,-0.03667815372468962,0.24610321987129405,-0.0222251287552974,-0.01975599591900808,-0.004450399692356
0.5475,-9.944086994485259,0.04676553465442154,0.2549252292025142,-0.022072045355244062,-0.016261134045432654,-0.005619563141614297
0.55,-9.927780798694705,0.0521031235678012,0.191296,-0.024027769108049334,-0.01271691559100803,-0.003898329659173248
0.5525,-9.91978540959257,-0.05377588479164203,0.3255772613163077,-0.023824051909460253,-0.015770903089959362,-0.0009999234033662282
0.555,-9.976533375097803,-0.07476247618449566,0.46224102214924007,-0.022333601603477398,-0.016952,-0.0011128142284472602
0.5575,-9.970433142584968,-0.09633542994761828,0.4117193152686079,-0.023580723147764642,-0.012730473343890868,-0.0039866329199658825
0.56,-9.82214044493897,-0.048336100457397474,0.2304316934613065,-0.020670169119563788,-0.013218322749141014,-0.004525575779120713
0.5625,-9.915500210617518,-0.05181375897920605,0.28402425078764965,-0.021961773629489603,-0.01889655702583491,-0.004814819785759294
0.5650000000000001,-9.967509221815122,0.03975670349579802,0.20578801991596596,-0.01960140554621848,-0.0171747114285713,-0.003988625126050367
0.5675,-9.831681495370947,0.02696357277791114,0.1877274627010804,-0.019217473157262903,-0.011503841224489785,-0.0016818838055222048
0.5700000000000001,-9.71620634066122,-0.017120599546501122,0.11998415963846595,-0.019174408987552526,-0.01004526622690876,0.0008649185729010417
0.5725,-9.842835762356243,-0.045612456157082724,0.26749637612903376,-0.022811427826086982,-0.014128282103786844,-0.0007557249649369092
0.5750000000000001,-10.136621717350618,-0.002028048860089504,0.5205550951763902,-0.02226068312934952,-0.014456826733861188,-0.004551103959683287
0.5775,-10.054758352432746,-0.006244551160646705,0.4271893524327465,-0.02197242884518878,-0.014397112474762207,-0.005106858308922217
0.58,-9.806393241937332,-0.03477582869113568,0.17882424193733254,-0.022906767149442713,-0.01383601998949642,-0.005574333400245076
0.5825,-9.95783902054318,0.056847139066515694,0.3123729042120685,-0.025672431549845526,-0.014724107334525947,-0.0048882982924052625
0.585,-10.104259020034336,-0.03376808008240538,0.42541339174544945,-0.023200723529815802,-0.014875452439052311,0.00015862655373687952
0.5875,-10.043082559990621,-0.09825670203954084,0.3786659146049849,-0.023127341064311958,-0.01533255820895523,-0.001741309103696212
0.59,-10.097372688630493,-0.04186499589069452,0.4138487176174245,-0.02429103815603959,-0.013334834975049552,-0.006222203180990038
0.5925,-10.078903715250625,-0.04510080371171374,0.4328171899110412,-0.02659754625472752,-0.016067880153411842,-0.004076155804613013
0.595,-10.038168271965056,-0.05511793575454099,0.31361309517924807,-0.025232995480743634,-0.018456262924412693,-0.00458779252543546
0.5975,-9.960700212419871,-0.03182689405933429,0.1645187459740236,-0.02380112080543308,-0.013832703819849693,-0.005679089631836077
0.6,-9.919219302439023,-0.023211736585365593,0.17656365853658412,-0.025448892682926796,-0.008247,-0.005237092682926847
0.6025,-10.020560757176176,0.07542548102111749,0.4462127805735939,-0.022093877655215814,-0.010824468868578678,-0.005092900472738736
0.605,-10.171197174612313,0.04043048596105095,0.6722947393879267,-0.023684336339663683,-0.009949490373775275,-0.00425237204306279
0.6075,-10.06767140790415,-0.008817726594249668,0.5310904075431276,-0.023379564712460037,-0.012874377840255661,-0.0015633379520766304
0.61,-9.999598222025611,-0.021549943478463313,0.37616773081723,-0.023453083706635618,-0.022073367855646033,-0.00034139868218859237
0.6125,-9.956073406884544,-0.04687909010049908,0.2424777454617369,-0.026527599446071123,-0.024435,0.0001025130173300715
0.615,-9.91431571769751,-0.0049432458251439035,0.12819017524952173,-0.024758563221442265,-0.020265382223356755,-0.003005482205488174
0.6175,-9.873567680944157,-0.011953670390495512,0.13475174342970345,-0.02354396441980197,-0.015997483618217748,-0.002303750704158381
0.62,-9.909861028799243,-0.07062808543964688,0.28444819913016034,-0.024347889643870153,-0.013515104771509615,-0.0015159944153797671
0.6225,-10.023226829371655,-0.10615001275206976,0.44464685920117086,-0.02468531662932292,-0.013890342221139862,-0.003767828358499873
0.625,-10.063134195121952,-0.03540541154242528,0.4793557207145311,-0.02452193473033322,-0.013284096873926487,-0.006011295431123325
0.6275000000000001,-9.952813006922455,-0.10352702157988311,0.21762013885860937,-0.026392038507174,-0.014207669401902344,-0.005259651884571957
0.63,-9.972139875918948,-0.04517277567010282,0.3049595439270062,-0.025242898106410706,-0.01857368636094325,-0.006585067041118621
0.6325000000000001,-10.133075538606317,-0.01099087318244476,0.48010664615884197,-0.02506507262432061,-0.01401963608988383,-0.00800021787296182
0.635,-9.839241955383136,0.024570128080711198,0.17710262750900602,-0.024564942767235164,-0.010745112793658414,-0.00257039310593319
0.6375000000000001,-9.850586782205749,0.028992730444856285,0.17201841974050255,-0.026680940268767446,-0.015029580861909312,-0.0026576945783132926
0.64,-10.00703512694788,-0.02216050250181861,0.3224361316315162,-0.02641857022060605,-0.015606867781818171,-0.004185423553939402
0.6425,-10.087178137915537,-0.08226154969242938,0.48999466657848345,-0.02536090270278886,-0.015486868733067725,-0.0031376741386454424
0.645,-9.917336889609205,-0.11582202985375224,0.29892904412370863,-0.028023275626948008,-0.009497775636537933,-0.004457219165667726
0.6475,-9.917577396011504,-0.04311917939277851,0.31692830594758586,-0.029363883464365602,-0.014298531176094496,-0.006084428187919443
0.65,-10.000680859692674,0.061942671205674774,0.48706271640662124,-0.030746111631205688,-0.01630134555555555,-0.004949419432624091
0.6525,-9.9688776142598,0.02762141513368637,0.37511501357205035,-0.02681251193627264,-0.020484083542866096,-0.0035071549238899122
0.655,-9.844301987549859,-0.0041776016571705675,-0.007893726291546312,-0.02615766973884143,-0.021838,-0.003199383252611592
0.6575,-9.979358426980054,-0.058125617003798105,0.14650921418328422,-0.028723718437796746,-0.021838,-0.003770100365622026
0.66,-10.017176719987233,-0.15651835929466362,0.24234446473470117,-0.029958247509774202,-0.018526609182159037,-0.003971
0.6625,-9.952331382284981,-0.1368046776520031,0.2127962989380337,-0.028968739479519223,-0.015052987186369484,-0.008200945034426338
0.665,-9.857279730491802,0.11456644009643606,0.24772644748312636,-0.02905153471552558,-0.011196002449373119,-0.011238089527483116
0.6675,-10.052816191594685,0.053417217043189816,0.5942570902325596,-0.028227159667774084,-0.015882,-0.0006624450166113119
0.67,-9.997035009022305,-0.009058777413384955,0.39344259348836885,-0.028512071751305178,-0.015882,0.0016174737304224377
0.6725,-9.988043,-0.01913,0.361071,-0.028558,-0.020215704090014924,0.001985
0.675,-9.938261467543859,-0.1627287266081912,0.21507896128167228,-0.030269910769980556,-0.01651903594054565,-0.0027840086744640724
0.6775,-10.062156886353815,-0.08054671882651601,0.436782535616551,-0.02981128960037778,-0.017235651002892396,-0.005530481376542104
0.68,-10.090277366155481,0.051177352961457034,0.5918177869759785,-0.0305676557369695,-0.015817619236172573,-0.009027591582551276
0.6825,-10.017181224949866,0.1335868062135921,0.40771585951297196,-0.02805066014324368,-0.017058334890975645,-0.0062349926977558565
0.685,-9.84801011030207,0.07866894029497319,0.09387476013249513,-0.027037920296553362,-0.021067054843442026,-0.0020205811120749934
0.6875,-9.840413784220184,-0.10700385847094802,0.02271047437308868,-0.027846103119266056,-0.026613649051987768,-0.002605785932721712
0.6900000000000001,-10.07702021328357,-0.09740686024028555,0.49997356684475835,-0.02756409489793535,-0.017658879622068892,-0.005792983627668283
0.6925,-10.054265635665546,-0.06520046399487425,0.6315062045587058,-0.028394666189332052,-0.0092609011468845,-0.004367654066954986
0.6950000000000001,-9.997867841591622,-0.040219098987782684,0.46877372649213966,-0.03099192538917984,-0.015623904628272596,-0.006267105968586489
0.6975,-10.040031166669362,0.02433588868342384,0.30742006412672707,-0.0309792441089469,-0.026823657231067687,-0.008923958454699758
0.7000000000000001,-10.017626346574913,0.07169634426024488,0.26167416210509864,-0.02918468160775721,-0.024572087879261552,-0.006274324053800291
0.7025,-9.89770479017714,-0.005250300237807606,0.1842302306673127,-0.027794,-0.018937,-0.00047023444309630263
0.705,-10.00639315717358,-0.07983167714809239,0.319240857481075,-0.029159699676571303,-0.020462565945988966,-0.002584357444435481
0.7075,-10.22034734170982,-0.0633861291060087,0.47793259706888086,-0.030728785637518324,-0.020231580107474327,-0.007581464406448478
0.71,-10.075104593846158,-0.023466627692308457,0.38291565538461697,-0.02712147384615393,-0.01505747384615393,-0.005732470769230828
0.7125,-9.883990699749372,-0.02403125094995564,0.2844843338669245,-0.028910811674347187,-0.020933917729808467,-0.0066528679763926115
0.715,-10.041989336707786,0.053917131434612464,0.4390849561367606,-0.03081990515333097,-0.023824,-0.00733
0.7175,-10.095646,0.074127,0.485414,-0.031001,-0.023824,-0.00733
0.72,-9.916346181199266,0.0009571391658005635,0.3225934027443786,-0.030495965808982475,-0.022729024122968556,-0.00446740445440722
0.7225,-9.8633943223247,-0.044710720266222595,0.23137347135250882,-0.03017376763964821,-0.021749812541003086,-0.0029351682148799833
0.725,-10.166890903996373,-0.029966076168912097,0.4490052034189944,-0.0297570164836409,-0.028057653979395365,-0.005556376746292285
0.7275,-10.224427474035231,-0.0497704541089721,0.35728374714297173,-0.030919510551413378,-0.02482643392052429,-0.005462392157312566
0.73,-10.221784,-0.058584,0.297704,-0.03146,-0.018833109072537033,-0.005192
0.7325,-9.936781714689038,0.01192249244137844,0.15074406808563762,-0.03287035721119915,-0.011293205323503915,-0.005843535296055223
0.735,-9.979992996772074,0.05170626350492345,0.4875751348202673,-0.0326970730926267,-0.008552,-0.003865763224721818
0.7375,-10.158304751077743,0.03809420222814151,0.8465301393073393,-0.03207,-0.011474931460402148,-0.0015425006539113413
0.74,-10.043827759441038,-0.018859886105115846,0.4924158847232378,-0.03647922864994951,-0.017585037559195695,-0.0031351716108997648
0.7425,-9.895395474236713,-0.034587431966182774,0.02737677626569371,-0.03666924288405782,-0.02177433894202902,-0.00712077230917885
0.745,-9.954519814600772,-0.06021627531804198,0.17348171431859313,-0.03291657524710334,-0.023353088153227713,-0.005722993785764965
0.7475,-10.114321927620894,-0.0673718299032869,0.521269216518381,-0.035400982282398616,-0.024470710909090927,-0.007428690831721689
0.75,-10.09732026633048,0.09543033927524332,0.4294400757593526,-0.039496355341855284,-0.018002676204995897,-0.008300749618857746
0.7525000000000001,-9.845698072180372,0.010882126888938914,0.11883747640200759,-0.03792505970736382,-0.01977903790837141,-0.0015119729911248015
0.755,-9.886157159488912,0.013290542883317408,0.30410878474445596,-0.03661083597878495,-0.02621800628736742,-0.003048490453230483
0.7575000000000001,-10.257908279786106,-0.025379740320857082,0.6846840449197953,-0.037373612192513395,-0.02635259807486628,-0.006484615401069592
0.76,-10.225131871610486,-0.08534402951310882,0.6029396053932573,-0.03637249782771535,-0.022928421872659158,-0.0052080922846441825
0.7625000000000001,-9.69328654449766,-0.07359581835502071,-0.08967392958875102,-0.03466519978136386,-0.0251355068297762,-0.010428881259760546
0.765,-9.808799663548152,0.028212123075482057,0.09175373576887136,-0.03408168716085372,-0.02663604583237898,-0.010595365216033317
0.7675000000000001,-10.05746671870351,0.0937224290976064,0.4552764132596856,-0.03408946844935546,-0.028507405348066367,-0.00805981401104955
0.77,-10.174934270837424,0.06052232794680977,0.6505627724426151,-0.03419524454646193,-0.02658295906284626,-0.005291891264840898
0.7725,-9.988803365032618,0.020601196994975104,0.1810718453384673,-0.036584623635974756,-0.02448312909207573,-0.0059400865361993556
0.775,-9.920093098631162,-0.0715711115923439,0.12342203169714418,-0.03692719658860015,-0.02345541023419954,-0.004656138808683551
0.7775,-9.99550995142621,-0.15593232428925236,0.29509752037748666,-0.03596485848767256,-0.0258145633360858,-0.004146953733632177
0.78,-10.164804450112939,-0.03442146773646988,0.5871681799411733,-0.03948905994823528,-0.02364684292,-0.011461373298823524
0.7825,-10.002932688945885,0.03194969220705812,0.298085028882356,-0.038641563816470596,-0.02355247108,-0.010896375877647064
0.785,-9.784630666721734,0.050393300745059814,-0.03821583211856622,-0.0382495321574344,-0.023764864522189833,-0.008632076974408771
0.7875,-9.748543403419824,0.013909932536171843,-0.023096481717091305,-0.03861689998804256,-0.025727026784646626,-0.006172162453664966
0.79,-10.03272179595578,-0.025464078275917665,0.4888622014100381,-0.03953532294824549,-0.0238156117224803,-0.00497390117609356
0.7925,-10.188916816722747,-0.07147327900437839,0.6840788291680124,-0.039492114468771614,-0.018197129716524593,-0.006247182005070266
0.795,-9.899878539077505,-0.09780716971366961,0.20136307518388813,-0.04389553457290056,-0.02388315962142107,-0.010097523268240148
0.7975,-10.008153939512825,0.009190294227856798,0.28201783735868863,-0.040059902039091405,-0.027250056634384002,-0.011715915313728956
0.8,-10.135089674320598,0.05039846321535554,0.5233786511357676,-0.03714626772319065,-0.0247124744027704,-0.009272499970652066
0.8025,-10.130795487759904,0.12737219270108013,0.6393052908235292,-0.036013698650660265,-0.02204724844177672,-0.005452564744297733
0.805,-10.05662253015018,0.07432030564158175,0.512407020733012,-0.0381235383487667,-0.020040452167146495,-0.0026972292677612244
0.8075,-10.046423698220153,-0.11795159273351262,0.4001410279186074,-0.042587861054179936,-0.02290149901446431,-0.004041091728364784
0.81,-10.091961747669268,-0.22887049684244096,0.4297814893229249,-0.04200031297753695,-0.029750972923371154,-0.0074764380946312345
0.8125,-10.02027885361171,-0.16788756971442284,0.3462152195824334,-0.04054737077033837,-0.030477941444684426,-0.01099236093112551
0.8150000000000001,-9.799946261682237,0.08770541575845431,-0.017043448483116286,-0.04246765915168948,-0.026954074335010725,-0.013597521552839706
0.8175,-9.8605034016,0.1477221720934654,0.17772361396277286,-0.043297881248316836,-0.02850732051326733,-0.009446135432871278
0.8200000000000001,-10.052553351465727,0.03437274863356514,0.5929065224255436,-0.039872044127659434,-0.024695073153664125,-0.004592304841607447
0.8225,-9.994651917585319,-0.07135071074372215,0.46547173283000554,-0.0395895998583387,-0.022332096329684477,-0.0022007944591113902
0.8250000000000001,-9.847129552696396,-0.24737220284587463,0.10574938512494392,-0.04385122845868724,-0.02395950957790275,-0.007265777352624891
0.8275,-9.95184066176651,-0.20716331012433348,0.2179754176457301,-0.04110229077991278,-0.029844896050379495,-0.010318909788470866
0.8300000000000001,-10.076669350431876,-0.07958211128160811,0.5103208823064448,-0.038532384237802454,-0.030995794910901837,-0.01116342413819937
0.8325,-10.05068725973327,0.026872391710138478,0.4708738428750112,-0.03883587233329401,-0.028125063915968335,-0.01045593624926235
0.835,-9.916971900417348,0.055772285927616363,0.17895458077600507,-0.04378024286925326,-0.027838159165308088,-0.008939820860776021
0.8375,-9.931774707710531,0.07172676562833133,0.22103699810494154,-0.04463401167831335,-0.029016,-0.00557714246121042
0.84,-10.215898054338632,-0.08734650930894966,0.7191074549085652,-0.042913,-0.02699640305390647,-0.003665
0.8425,-10.144495089914964,-0.1674058316013675,0.686804985367558,-0.04488493069061435,-0.020438423329889457,-0.0033364644393228922
0.845,-10.02227568282938,-0.19455613871594696,0.41978125514736697,-0.046673680503425186,-0.022993853974828657,-0.0076742896861557355
0.8475,-9.995635456940843,-0.10106103077252437,0.19396837140340312,-0.045639497978812,-0.03401097392691365,-0.013421491084394773
0.85,-9.982793214514102,0.10345918907849883,0.19526060603556583,-0.042137473468654575,-0.028709649793425635,-0.00846981957966592
0.8525,-9.917486537539068,0.04265609610921414,0.2992272837291195,-0.04146629944075204,-0.018738100765223496,-0.005017888049817327
0.855,-9.844009418840605,0.02679661072321207,0.2717299453422566,-0.04148616312827541,-0.01611422243328226,-0.004997221717326441
0.8575,-9.970562812282067,-0.05214227380030789,0.42443450365365,-0.04425002593453018,-0.02323912491376298,-0.0043679211169775365
0.86,-10.17074257517857,-0.17010539124999954,0.7065093016071418,-0.04180600428571432,-0.02452122875000003,-0.007267573392857111
0.8625,-10.028320986011368,-0.12843641345899104,0.6324101771165958,-0.041468566150011696,-0.021230839084040762,-0.007121829986759073
0.865,-9.76895855051669,-0.07358188184919673,0.08330297827441568,-0.045630734813349796,-0.030704725339925777,-0.010404139787391822
0.8675,-9.875467893469455,0.008882922406158456,0.06399095376786743,-0.04708251606093924,-0.03994888530234035,-0.012899665123292013
0.87,-9.969803061291405,0.05986137116449831,0.1674059282432754,-0.04566533961848512,-0.038233358164258935,-0.010489574389017488
0.8725,-9.971395955226763,0.12785042069501942,0.22605165871127345,-0.042983071876546056,-0.02720731385086549,-0.005592585048886686
0.875,-9.971410771004942,0.0037442965403624295,0.43899312355848435,-0.04433007413509061,-0.021686,-0.0005032981878088966
0.8775000000000001,-10.12407017029742,-0.15626137919064204,0.6171854753583652,-0.04511759473427597,-0.02693944066309132,-0.0030878769575817602
0.88,-10.064645557894737,-0.19798997473684207,0.2589191726315778,-0.04245941052631578,-0.03749890526315792,-0.0063003852631578995
0.8825000000000001,-9.881224387642272,-0.12244974536585149,0.09187014926829049,-0.044474456910569185,-0.03359174536585349,-0.011761290406504213
0.885,-9.822462423015974,0.06269611500319569,0.16813924944409003,-0.044913105929712455,-0.02951931778913737,-0.013488696460063896
0.8875000000000001,-9.985773923591516,0.20649847576800018,0.46754704390939417,-0.04461946967145061,-0.0281,-0.008001615229509842
0.89,-10.150701158158165,0.1311803899519034,0.5566367751383737,-0.044746,-0.03130258981944337,-0.004276
0.8925000000000001,-10.11647564641082,-0.0519225759570814,0.41699887082234377,-0.045173408160503935,-0.029882114317041627,-0.001111050973987906
0.895,-9.989826787038071,-0.23384808074706787,0.35020548075664465,-0.04665488882113498,-0.028607837899273705,-0.00042629960252216843
0.8975,-9.988462679882144,-0.1865515579587549,0.3717923991137295,-0.04689047576193285,-0.03427389713612244,-0.008880162324101135
0.9,-10.062804191601135,0.03797731875152173,0.32431509002026665,-0.04858609587353063,-0.03575041297122008,-0.015581782813133375
0.9025,-10.086679,0.13869,0.270803,-0.050549,-0.03287865899626914,-0.016493
0.905,-9.857482620778136,0.10477070616952239,0.14966266489115138,-0.04770226291801756,-0.02746146227883272,-0.005228448397406025
0.9075,-10.192491,0.020923,0.619919,-0.050702,-0.034928362909160994,-0.00672
0.91,-10.192491,0.020923,0.619919,-0.050702,-0.0319203103824294,-0.00672
0.9125,-10.09720385239755,-0.10258573390217272,0.45092438235789306,-0.048666495733685894,-0.031594817714217016,-0.007058787886071379
0.915,-9.899061487843383,-0.1207544160513575,0.24104295012760396,-0.049747268704129405,-0.03580273041452016,-0.011026701092177302
0.9175,-9.912089370770884,0.10257466600214883,0.2487867608461803,-0.050207244618142736,-0.039419099519541034,-0.015222219964144839
0.92,-10.087798195247913,0.15636554354945864,0.43291216116205783,-0.048968752449890456,-0.040164,-0.00814437463280026
0.9225,-10.06493186525053,-0.0011718344389543972,0.35043419808045373,-0.05077112721242059,-0.036794656160903355,-0.00336438160903315
0.925,-9.902458577043172,-0.0681957149912377,0.15813858539110884,-0.05057678247570492,-0.029562502230364697,-0.006096344097498846
0.9275,-9.827535970393814,-0.15516169594289042,0.29408997616180704,-0.05106691707792979,-0.028389376632956553,-0.005214302986317684
0.93,-10.028544395745087,-0.18039612793968543,0.5627699959901089,-0.05360100725644956,-0.03587821235481227,-0.009153029025798254
0.9325,-10.039044614505423,-0.012266623681800232,0.47977970883085597,-0.054456464302129366,-0.03711,-0.01531576629650461
0.935,-9.643744203735128,0.06328926660257302,-0.08313545600288055,-0.0524891570532387,-0.03721226526619396,-0.010186825453671344
0.9375,-9.721873782892867,0.09618472075400208,0.14981457791039118,-0.05081373249976319,-0.03711,-0.00822598285497774
0.9400000000000001,-9.916332634157436,0.10241936274699266,0.4484789593217839,-0.0520269896599413,-0.03711,-0.008832859748034494
0.9425,-10.172470924639176,0.0083656837863164,0.7070574151077792,-0.05379891626054358,-0.03539927342080599,-0.007024311696344883
0.9450000000000001,-10.070091170783268,-0.17772341314752946,0.41963521804900084,-0.05566018166266222,-0.03504364255646328,-0.007897128745795389
0.9475,-9.741221486770153,-0.006218288632908516,-0.12480652695856853,-0.05628970297184455,-0.03723380186489667,-0.010832610095278888
0.9500000000000001,-9.848591358569749,0.04042038717482192,0.22079024789638002,-0.05543263437533452,-0.032862022363772496,-0.01383263082111131
0.9525,-10.086746722972848,0.15024872880618073,0.6803919078417635,-0.053305695327715334,-0.028519177116104848,-0.011816040126404453
0.9550000000000001,-10.219989,0.212817,0.883548,-0.052076,-0.02761001594319529,-0.009163
0.9575,-10.137862283448523,-0.006638387992778938,0.5688385257748294,-0.05542948976279355,-0.033173025984346856,-0.006755424072245596
0.96,-9.958687970978646,-0.2745901763107231,0.23081144266134912,-0.053854493161229845,-0.034161124313541485,-0.0046407910068059196
0.9625,-9.957418004710922,-0.26108325129669246,0.41127436312158194,-0.05444266433499883,-0.03376539295741138,-0.010029778919819234
0.965,-10.022886885584978,0.008385145219061002,0.40025617123736346,-0.057223723466538236,-0.033903,-0.016432914588348498
0.9675,-10.035867,0.069345,0.376614,-0.057727,-0.03281916216890594,-0.01741
0.97,-9.974497459848692,0.07685278395476615,0.48074661943457664,-0.05464121287887239,-0.03387711994266144,-0.011739163112208422
0.9725,-9.974132989119575,0.0893392427892313,0.5399039676643214,-0.054469400358961986,-0.035125,-0.003922981348532537
0.975,-10.11228857798807,-0.08682767308150852,0.488023918043738,-0.05978337300994031,-0.040500059514910466,-0.004580666147117257
0.9775,-9.917565510044199,-0.32121156759208375,0.08902448521363908,-0.05692076109029673,-0.03771265295937688,-0.009440076173437242
0.98,-9.750004124634815,-0.171791694655863,0.07780984240159974,-0.0533817343254052,-0.031477146026099814,-0.014411487328983338
0.9825,-9.684410726355893,0.04104301632276844,0.1920855537482295,-0.05598164133459552,-0.028447477695220078,-0.016756522304779923
0.985,-9.840703363809068,0.12070930892212034,0.2499155226749614,-0.06184686928101452,-0.032414582471587586,-0.011114970795549744
0.9875,-9.916895486812763,0.0324539432525936,0.23349960515186505,-0.056178536639753904,-0.02474,-0.00500350834294493
0.99,-9.870502751464821,-0.05460689107266406,0.25549107797001147,-0.05410083630911189,-0.02474,0.00015269582468279645
0.9925,-9.91422337069519,-0.21870958916221528,0.42532092755793893,-0.05415887693404639,-0.02474,-0.0017620530481285371
0.995,-10.093090982648585,-0.30401431761593845,0.6654761016976392,-0.05799655714046542,-0.03063516675707348,-0.009989812710530708
0.9975,-10.160217440923399,-0.21435256738719477,0.5097129742707127,-0.06029960528856243,-0.03925697678908725,-0.015064654522560396
1.0,-9.99248871850613,-0.06006153010033445,0.16002466220735787,-0.05592002675585284,-0.03767697435897436,-0.014534848940914159
1.0025,-9.867579912565255,0.09735112858079037,0.27827398806845954,-0.054774991802840726,-0.029510237290275805,-0.012843154318319797
1.0050000000000001,-10.070446190385166,0.11306170180974204,0.6111174075638153,-0.05936981482134591,-0.030224067378190538,-0.007292449967517041
1.0075,-10.245235761536604,-0.03752786494253288,0.616279793188142,-0.06371562206291602,-0.03762567943738676,-0.00487601087114334
1.01,-10.17934844833431,-0.18531721451134792,0.4096249760589553,-0.06338909128883677,-0.03746780172849843,-0.004827199711916928
1.0125,-9.84358549334915,-0.292101188855956,0.1457203605216393,-0.061392,-0.03240335665678728,-0.005345
1.0150000000000001,-9.857844506138175,-0.0992931612326558,0.42323932627795074,-0.05985644820712556,-0.036756039541757816,-0.01585946849811056
1.0175,-10.061267771243623,0.07826515708120971,0.5194835159808926,-0.06036992255641578,-0.04148169348706978,-0.017224203254817928
1.02,-9.905050277337784,0.054414551884541196,0.0275869788263306,-0.05678636713263355,-0.02977823883110673,-0.00912822771946557
1.0225,-9.733208363310812,-0.008676116988416208,-0.18481195126769456,-0.054574400025740044,-0.026878,-0.006712993246460759
1.025,-10.06532862833779,-0.08611838960401508,0.6923597394229158,-0.056062001144725974,-0.021752331900479187,-0.004788947903282413
1.0275,-10.293862672226584,-0.24450448449636514,1.1014451433234735,-0.0570510506472518,-0.025419243846707917,-0.0037735962781022233
1.03,-10.227299295754639,-0.293137856442292,0.7829807810169426,-0.05906018844552061,-0.03603613795318819,-0.0075210896981437285
1.0325,-9.669133785538664,-0.047731328967135334,-0.22623516848405087,-0.0602051165294719,-0.03703611169620863,-0.019422989403352808
1.035,-9.730149404203567,0.14058770389953132,0.10595922746859485,-0.055971246001322014,-0.03588124790482489,-0.01509335275611382
1.0375,-9.982548125409853,0.20447427508196464,0.7231670201639675,-0.05965634573770536,-0.035277,-0.007643025081966827
1.04,-10.142946258736494,0.030290315939739687,0.7359233331366762,-0.06609399833109872,-0.04213670807476945,-0.004221878088177306
1.0425,-9.885966426943707,-0.2198765003598355,-0.016963162405099486,-0.06484198317817765,-0.04594666846198494,-0.006618799466047557
1.045,-9.608202839271428,-0.25939248824524597,-0.33636786552610587,-0.05877155996422198,-0.042960155745649764,-0.009303708277768701
1.0475,-9.819915827555148,-0.04791775295855216,0.2919705264405607,-0.05689844291737349,-0.03893243695178072,-0.012571057358856524
1.05,-10.100001578333035,0.061757944143186305,0.6731399453954696,-0.061772054864433816,-0.02950384245968464,-0.012193592155472763
1.0525,-9.948929581433045,0.06471989726032251,0.3561843278209002,-0.06205635776714514,-0.03366618561049086,-0.006896514979030086
1.055,-9.932844596025731,0.0004387001572576793,0.21793571703597914,-0.06347746683821773,-0.03768571388134372,-0.005618243164164857
1.0575,-10.18372049875373,-0.08966990136498845,0.4976217255193165,-0.06345082421364974,-0.03953087305637979,-0.006846882848664759
1.06,-10.305405602916018,-0.1943804965186961,0.70194459473161,-0.06214103049279139,-0.03692861383399845,-0.00876287802883445
1.0625,-10.018672720535823,-0.09956080054073982,0.40848103453361195,-0.0613278901314981,-0.03412304350497727,-0.014105018925894065
1.065,-9.862877775837704,0.1767074726967422,0.37059645723679147,-0.0641679322840153,-0.04106211121371085,-0.014519969150052554
1.0675000000000001,-9.993754676571793,0.20912583029089757,0.54614730359713,-0.0679848772349079,-0.044566815602127094,-0.011666163853612641
1.07,-9.968616753040367,0.1062240310291569,0.3946947979530417,-0.06859714046624968,-0.04862820089675912,-0.006682404009422309
1.0725,-9.824514003109472,-0.06913812949007556,0.11639859052894258,-0.06769943001069774,-0.04782988665636512,-0.004245846703910623
1.075,-9.919476196655514,-0.15963562895365438,0.24961110606783962,-0.06737598299092212,-0.044801783086478746,-0.00753543755375053
1.0775000000000001,-10.146126705152296,-0.2070257387309669,0.6353973592385984,-0.06691405043147206,-0.04355281624365475,-0.009069853857868078
1.08,-10.09762158991105,-0.16773619524777392,0.5918595803303606,-0.06665398340533672,-0.040082828513341676,-0.013445742846251763
1.0825,-9.940043184097629,0.061848764534149794,0.3311048524853304,-0.06946390300868345,-0.03833053931002113,-0.019000658953297382
1.085,-9.966189791260259,0.13851667784645255,0.3580637494447102,-0.0721468631965234,-0.041285736098503084,-0.012629586991791586
1.0875000000000001,-10.049397841347954,0.028720967519279578,0.5187851541859605,-0.06594986983353594,-0.04316745130328876,-0.0039637193991063574
1.09,-9.955415550224457,-0.14835407037563658,0.4320212529134153,-0.06637047278057732,-0.0386123529180025,-0.007426989262483108
1.0925,-9.825861049839043,-0.16367375979282844,0.17634117229322427,-0.06950981112031876,-0.037415,-0.011968580028685298
1.095,-9.94647604239023,-0.1726108303874146,0.38753373142521214,-0.06837597697581596,-0.04552549966658827,-0.015707577060342766
1.0975,-10.119786566898677,-0.015883111159544328,0.6082002985168266,-0.06726430175963574,-0.045048408310294455,-0.016448772424784514
1.1,-10.082033979237188,0.11824377054841262,0.5909309882193595,-0.067042,-0.04041138395396054,-0.016493
1.1025,-9.80295461824106,0.03182769470153213,0.21179191418575163,-0.07072560180823559,-0.050244,-0.007538420265704806
1.105,-9.934087446364893,-0.023188034005409884,0.12135530710910794,-0.0667783923630899,-0.050244,-0.005131769728884898
1.1075,-10.111013745893793,-0.17904999704255684,0.39994599408511367,-0.0669931078200243,-0.04883477239724367,-0.006576071931901031
1.11,-10.151035778275942,-0.13719794627403814,0.6827701292804655,-0.06409300590833512,-0.037242168824506594,-0.013088331275231877
1.1125,-9.909021479838204,-0.060988052706906166,0.455863633727437,-0.06678573571873063,-0.03449954001244555,-0.01456843833229621
1.115,-9.806311,-0.037661,0.341942,-0.068264,-0.0486568703016759,-0.014661
1.1175,-10.065663799845655,0.061845637501906414,0.3955133631364313,-0.07124270849466476,-0.046599273999619134,-0.016975984279725784
1.12,-10.016693122772482,0.024220880428733146,0.4609085006974113,-0.06636047629954248,-0.03721593741425265,-0.009957837938261896
1.1225,-9.713650776582911,-0.012987402023039076,0.2681062837460505,-0.07028285120814366,-0.048106,-0.009722388406107748
1.125,-9.872837703027056,-0.07410929874095902,0.35005026504152154,-0.07405806188052505,-0.048106,-0.012553796410393786
1.1275,-9.939259472078074,-0.10478278001485108,0.36328437297549826,-0.07462277620451904,-0.04643720924154031,-0.014211464699268048
1.1300000000000001,-9.874095262178844,-0.09879854443619364,0.25257212168027493,-0.0693565376641559,-0.04422871486581087,-0.014805995167073328
1.1325,-9.826741900803041,0.053857182437641496,0.3159343600000064,-0.07261925124257575,-0.03748138714183863,-0.019262631741506515
1.135,-9.977248117179082,0.1638160319683043,0.5897549011093512,-0.07741174641521395,-0.037512984627575297,-0.016016004133121996
1.1375,-10.121979385608116,0.03764848889937977,0.6506008078329631,-0.07620853205143335,-0.04406435354488603,-0.008500671605520921
1.1400000000000001,-10.035957197647052,-0.15085125260985094,0.4051347590588099,-0.07658774802400972,-0.045902999539015554,-0.007664359471788799
1.1425,-9.94103253309351,-0.13063273628309194,0.46955536641118956,-0.0783064602839453,-0.03897554906490197,-0.012919353891972683
1.145,-10.002257484348847,-0.14970309665883874,0.5578800972736984,-0.07702428286293765,-0.04538587651152866,-0.013261305181468832
1.1475,-10.08280465825987,-0.09636458146005697,0.4772817410697926,-0.07671124945362717,-0.05030575531680436,-0.015293126019283692
1.1500000000000001,-9.756934628483236,-0.003345850747681886,-0.20161205428440604,-0.07585841794445754,-0.051465,-0.015535417944457541
1.1525,-9.633241871252187,0.00819299485123311,-0.003263027334911628,-0.0739782939729514,-0.04036540632935519,-0.013547325390612505
1.155,-10.176529387453698,0.06119148306309463,1.0220403548503083,-0.06893869894941404,-0.042455,-0.009803384451326877
1.1575,-10.391224161340862,-0.056433438732008234,1.1758283176461999,-0.07448181796319907,-0.042455,-0.007955465855347076
1.16,-10.125646617475743,-0.2737833555817199,0.5296104218685679,-0.08032037481457883,-0.04650183334712697,-0.008594669922011716
1.1625,-9.725327490287333,-0.2617081542151388,-0.07567128439800819,-0.0775476701496077,-0.049786,-0.014024166753740543
1.165,-9.742699935224623,-0.07974471636363491,0.36035013321543274,-0.07240358029006011,-0.04517500788114599,-0.015138766848248983
1.1675,-10.021942715498124,0.036722351752412036,0.7404292924016886,-0.07462693835845893,-0.04587413851479619,-0.015422006578926372
1.17,-10.004073460141894,0.045614544510164806,0.46732410908251965,-0.07843981040733347,-0.04574132328736552,-0.016315728491032258
1.1725,-9.90435,0.01913,0.150048,-0.080787,-0.045314253763132785,-0.016799
1.175,-9.87644069258312,-0.19211766647291895,0.34589612332016334,-0.07734502380841655,-0.043542501441525175,-0.009546379446640121
1.1775,-10.211543337872067,-0.225178555379073,0.8882351055383855,-0.0781264860587623,-0.046404154082139125,-0.014465308164278254
1.18,-10.24006351912635,-0.14790324922758336,0.7891565953543362,-0.0807894028537265,-0.04589556375926671,-0.02065212394738927
1.1825,-9.744141,0.123745,-0.108202,-0.078496,-0.04790635761034885,-0.018021
1.185,-9.744141,0.123745,-0.108202,-0.078496,-0.04715332302312817,-0.018021
1.1875,-10.204981345065896,0.07859779476052717,0.7806843222436515,-0.07958394455159112,-0.04507841481838637,-0.0111655956284153
1.19,-10.311311840073046,-0.22899501988586146,0.789708154110945,-0.08182917189682715,-0.045130775101574955,-0.00984409519287829
1.1925000000000001,-9.950374016615164,-0.28844283522839204,0.17696423787049342,-0.07754936124876739,-0.04676462136049959,-0.012939455090371496
1.195,-9.78678552,-0.22554282825292532,0.1031766682529326,-0.07509809530679154,-0.05380013448243584,-0.017155044384075058
1.1975,-10.011960148409692,-0.0232815243655545,0.4840011439002174,-0.07650387235308227,-0.05408871302470616,-0.01841040533461262
1.2,-10.143297314375575,0.08908587459343262,0.5947083398741955,-0.07905340664314202,-0.053361640042957965,-0.01750430220926668
1.2025000000000001,-10.025502114709212,0.06675936213312884,0.36350975451618434,-0.07793027540212784,-0.04890079980697796,-0.013309716238554429
1.205,-9.738177631367336,-0.1370901713440554,0.12472304015839467,-0.07520238482180291,-0.05357487011413967,-0.005873117642673914
1.2075,-9.892974270850624,-0.20192523387966824,0.310210599585064,-0.07794426562240667,-0.055894,-0.008300175352697128
1.21,-10.144176676460601,-0.20982850253575874,0.5700437271951468,-0.08085194984242423,-0.05478836202666676,-0.013528394482424117
1.2125000000000001,-10.152387545022375,-0.10258300731706527,0.5994976973618473,-0.08056087887008455,-0.05017087887008454,-0.017798741338974456
1.215,-9.854534786400684,0.11377726852451012,0.3087667286607509,-0.0802194188882132,-0.056505,-0.015458867507602508
1.2175,-9.975769610388033,0.10462757878360286,0.43457671638973494,-0.08294640524996962,-0.056505,-0.01623755093784212
1.22,-10.008393543033181,-0.10614743120121722,0.43801793468493055,-0.07913686327914762,-0.05586512816560125,-0.005923303473972569
1.2225,-10.123267038840787,-0.14583754900700024,0.5265579684383533,-0.0799169910550989,-0.05313531935220709,-0.009043176175342366
1.225,-10.140478673090737,-0.17078617697954146,0.551376471997501,-0.07942447371544584,-0.049890188942682996,-0.012501496298610155
1.2275,-10.10916932823655,-0.1679659604020953,0.5231065819249264,-0.07920331275585502,-0.05792813980109082,-0.015226240547535064
1.23,-10.052525927770292,-0.11701958738530674,0.4238955485466802,-0.08082983343599613,-0.059983577516843106,-0.01813726963105548
1.2325,-10.001016642573575,-0.0069947589276828925,0.3363898382270961,-0.08232158583581552,-0.05984924966996314,-0.01802131196473262
1.235,-9.749963260380596,-0.022872197572715428,0.0653240490915474,-0.08124819699820457,-0.05335933604308764,-0.011717715863554457
1.2375,-9.83393688066142,-0.0015013494330701135,0.2429262225039417,-0.07689966848818888,-0.053211377543307105,-0.012546078677165392
1.24,-10.10031712409333,-0.06803352465711196,0.6272005572805859,-0.07864187848868884,-0.05062257320857517,-0.01067802490583917
1.2425,-10.109680062739118,-0.1294114334413715,0.5931066727168762,-0.07660237032094065,-0.05112696167778833,-0.008458331998728995
1.245,-10.000388160515156,-0.19150251812846722,0.43906758776001875,-0.07933958086077625,-0.05382117346592776,-0.01143192041734618
1.2475,-9.953731065044597,-0.13715547829230185,0.36661649103103894,-0.0832879425330004,-0.055589,-0.01782279509573092
1.25,-10.329026506456067,0.004718982103176984,0.8227891094228575,-0.07842943612996216,-0.0517610304486217,-0.016932971593297697
1.2525,-10.243194537416372,-0.06304329758212576,0.7561565789081751,-0.0793910453738514,-0.052337870047444585,-0.015009123367965928
1.2550000000000001,-10.160865321367115,0.042637040763709624,0.43656624081082185,-0.08544771750147359,-0.05639595193871565,-0.018714479010017982
1.2575,-9.975390810633792,0.0055752199634175464,0.19301219916341433,-0.08544258598489061,-0.05315137700834978,-0.016450029130815013
1.26,-9.975900465227069,-0.09736999986766959,0.3277293128330839,-0.08216434181954886,-0.05060251916090225,-0.012530016421052618
1.2625,-10.130888705141976,-0.18115896559222253,0.7547016391660164,-0.0804283798925556,-0.05339575021744675,-0.011884389025326087
1.2650000000000001,-10.201327102726502,-0.11030659773073026,0.6754174246231774,-0.08655576237087256,-0.05681,-0.02001392233700304
1.2675,-9.888951720958806,0.032995136113567906,0.18528042015359528,-0.08447942419362331,-0.052136045529439054,-0.01850938753548971
1.27,-9.762767544389108,0.04357118541307897,0.1761630310914591,-0.07926155676983938,-0.048968599292529655,-0.012639362941587112
1.2725,-9.820026813968253,-0.03320367784904303,0.33182995630709156,-0.078343,-0.05225792584386129,-0.011606
1.2750000000000001,-10.230404322169692,-0.17120629539394225,0.682342649709083,-0.08858251699393936,-0.057578609042424116,-0.016268099672727257
1.2775,-10.145306342513937,-0.2247726414787896,0.5326612854618133,-0.08800039843878786,-0.05515226772848477,-0.015976404894545444
1.28,-10.117765,-0.242109,0.484218,-0.087812,-0.051002282243109716,-0.015882
1.2825,-9.676916760877603,0.050714817065244895,0.06242212339340454,-0.08435087746330247,-0.052110685497570905,-0.020735161606853687
1.285,-9.885830040977897,0.13388716644412835,0.34173783578121664,-0.08836650231625125,-0.05277949984015042,-0.020065799504779835
1.2875,-10.094281624714416,0.06445570440976868,0.6707233351676837,-0.08788451765139396,-0.0490414887605942,-0.01506142594275851
1.29,-10.053745940748254,-0.12331331682942519,0.6051740561065274,-0.08761221689283454,-0.045776135244134424,-0.009610267368421008
1.2925,-10.109086066340467,-0.16526218890927685,0.6636706568399562,-0.09103018502208628,-0.05101086862385313,-0.01447468008154934
1.295,-10.270342994841798,-0.11427166268153743,0.852182727867822,-0.09177931206939285,-0.05519979013961173,-0.02096913682610485
1.2975,-10.164751645256535,-0.021420243038268408,0.6247494432183702,-0.08639724977366948,-0.055131,-0.019878517606351277
1.3,-9.92416108749044,0.044951133124331306,0.3518828160422056,-0.08323,-0.05710788048631294,-0.018326
1.3025,-9.872740898128468,0.0314687856293924,0.4627372414991969,-0.08852317952410303,-0.055435364611022095,-0.014881747557637805
1.305,-9.988215314050949,-0.012707117424988998,0.5289108661124177,-0.09183851777112823,-0.055304471288313686,-0.010882880520824954
1.3075,-10.11768374127543,-0.14167263727451296,0.5425165337469919,-0.09319384300126413,-0.05202775391933767,-0.012101273372400518
1.31,-10.08707856014439,-0.13750215182295872,0.5590950487640256,-0.09467514537863925,-0.047953,-0.015521227214941596
1.3125,-9.880964158048148,-0.09820248969016517,0.4472908428155025,-0.09134240634783547,-0.05475039306920004,-0.016782379790564614
1.315,-9.959463027442512,-0.07790111650221354,0.5345865211227446,-0.09410845995465826,-0.05777567576379136,-0.020066891572924468
1.3175000000000001,-10.091921452357733,0.07601023778098036,0.6324217311143046,-0.0916303436824482,-0.05658399208034405,-0.02069135160210414
1.32,-9.952819184928632,0.06913741952425843,0.5126555144433814,-0.08914921042816368,-0.050983817164605004,-0.013622503862987398
1.3225,-9.85177409915047,-0.03848688141108724,0.44696071085193234,-0.08984589026157908,-0.05235152474202067,-0.010851997101031935
1.325,-9.89957,-0.050813,0.491989,-0.090103,-0.05612131771134681,-0.012523
1.3275000000000001,-9.954856214545462,-0.19154362072728734,0.485168004727272,-0.09212023218181839,-0.05693304981818185,-0.01288993327272731
1.33,-9.739786106614865,-0.14751514650976233,0.2180500731040676,-0.09184136191020215,-0.057116,-0.02211078377699112
1.3325,-9.739609395889277,0.09153996046432518,0.26242431615878,-0.09411859657439729,-0.05612495080769542,-0.024129
1.335,-9.878579500667566,0.13190149125786751,0.5366920013351341,-0.09625671666055921,-0.054712721590058175,-0.018642977522504697
1.3375000000000001,-9.95513383404816,0.05265106708996708,0.6149224525218524,-0.097128,-0.052542524308134504,-0.014355
1.34,-9.945002,-0.18275906930638153,0.4779703868328208,-0.09776643706560079,-0.04778486736891588,-0.010649889480366626
1.3425,-9.974782794107938,-0.24957300288254003,0.6316887569142877,-0.09833213812063493,-0.047037,-0.015108748431746095
1.345,-10.075793915189308,-0.21404733995545733,0.6018905745211596,-0.09587697407572388,-0.06041178129175925,-0.020229147795100173
1.3475,-10.111872616867007,-0.09453177648018313,0.5486080519405383,-0.10304043082800482,-0.0620683557800512,-0.026267297324168597
1.35,-9.87848391504154,0.12619504904601211,0.36635916247219036,-0.09662481346131285,-0.04931352901790874,-0.020621483741074143
1.3525,-9.654122374268299,-0.029855633060863,0.18705263712358583,-0.09547758635898272,-0.05093041990411968,-0.011422680009750424
1.355,-9.825686492787828,-0.1288857576012808,0.4087335574315423,-0.09943146934507602,-0.059222716768614826,-0.014399628038430683
1.3575,-10.239422093336447,-0.08452041672804397,0.8527665036003147,-0.09838443244751986,-0.051144653458426954,-0.019207099148586825
1.36,-9.855240319172514,-0.3237375749073493,0.4055729098721894,-0.0933437561405751,-0.05849,-0.010603359948882295
1.3625,-9.651249061942138,-0.3366965583657793,0.08078293231894416,-0.09346883930989038,-0.058571937614569004,-0.02302523258851026
1.365,-10.026008352950337,-0.1789823860923746,0.5355255880045512,-0.09356494673695562,-0.0597233422799976,-0.028972586310429503
1.3675,-10.188855264941509,0.029660438671027592,0.7393258151988786,-0.09235823217594766,-0.054218447215723296,-0.025068427711745802
1.37,-9.911576120645915,0.06969365615463852,0.426788798109917,-0.09257639724763352,-0.04976907498210165,-0.016268186063160994
1.3725,-9.73632331552505,0.026625676994219475,0.23160718859826762,-0.0990234867003856,-0.05178558725915231,-0.015196724816955779
1.375,-10.04825006918239,-0.1402430471698113,0.7163113546470998,-0.09753192557651992,-0.053298,-0.013004687281621245
1.3775,-10.2440907453183,-0.2799887647165654,1.0247394514151273,-0.09436678718352126,-0.058401826859135385,-0.01166266264860921
1.3800000000000001,-10.022830479251825,-0.22780646862242293,0.5999100651641102,-0.09665032269771073,-0.05872087077687222,-0.019631925631354845
1.3825,-9.745692429754518,0.03433498958209641,0.1703727484229422,-0.09963009741108853,-0.056645353883367215,-0.024887885398155833
1.385,-9.858772180099239,0.034652268628826505,0.31279353404816734,-0.09534582488200409,-0.057945965344305954,-0.012557855539150368
1.3875,-10.129074860374399,-0.16852654261768266,0.8314729260750271,-0.0931852486096969,-0.06560851441998888,-0.009797843988407622
1.3900000000000001,-10.232742370799857,-0.24202353304565524,0.8135945823530648,-0.09801472386696905,-0.05249979047800568,-0.01852182223864653
1.3925,-10.029209519745216,-0.21262694751592257,0.5092035235668705,-0.0975580020382165,-0.052131598216560625,-0.017734928152866147
1.395,-9.907303409697265,-0.25309401716796937,0.4625855030859382,-0.09905558934570316,-0.06353024431640636,-0.01599655653320312
1.3975,-10.091061095533261,-0.14176854582778475,0.5843831852981284,-0.1009966827220929,-0.0725112944867987,-0.021915115801299956
1.4000000000000001,-10.017418467384172,-0.10106140442208766,0.37188111925594586,-0.10379900133364547,-0.05694394553111693,-0.02191416083294319
1.4025,-9.802083847291229,0.0009884945093088238,0.18266708766024636,-0.09846029500874799,-0.05316462707809767,-0.018241465716557857
1.405,-9.993580286745292,0.03194931929461019,0.6298602650325222,-0.1007681166449907,-0.057777715498732576,-0.014080348929791642
1.4075,-10.474664399003482,-0.05123067988041746,1.1663574195117041,-0.10399104283673806,-0.06343263311077889,-0.01449176505563858
1.41,-10.407498742102725,-0.2533394524408457,0.888039558075037,-0.10335054385689563,-0.05653206514021972,-0.013705772865551137
1.4125,-9.897574945505644,-0.37596958057675633,0.12655576288855785,-0.09980196033416325,-0.06319095267089767,-0.013807734243714377
1.415,-9.78359838986822,-0.25019865592044266,0.05904562352656342,-0.09907581461718815,-0.06968038666666672,-0.022122663879052654
1.4175,-10.172299364443354,0.015837561153609167,0.7308506545570008,-0.10024506888916045,-0.06615107010631806,-0.02393553568617875
1.42,-10.248384014692968,0.030039065121055197,0.8641901345518775,-0.09961759921115926,-0.05723291186788541,-0.013379468327721938
1.4225,-9.910427146316888,-0.1191950336525186,0.4542348817597739,-0.10005681328314327,-0.060860440301141655,-0.010121719924714894
1.425,-10.016435486796032,-0.29858296904874904,0.5185430294604889,-0.10358450231897783,-0.066126,-0.016228635896829283
1.4275,-10.340396507458351,-0.3128189611106368,0.8694847840580953,-0.09941971757368646,-0.06989257382315252,-0.01537486357966679
1.43,-10.252417096969552,-0.22024839128821858,0.7493730171794746,-0.09951761964728138,-0.06696127056081047,-0.021238109987184818
1.4325,-10.050868071427871,-0.05997865957282389,0.4116156086488826,-0.09878483591072708,-0.05968305028077701,-0.022862099649627883
1.435,-9.890896948841599,-0.024938953298771153,0.32263752264335277,-0.09901470536872246,-0.061569593512342535,-0.016370111856379925
1.4375,-10.106993048191248,-0.030504699595244114,0.7576323814824184,-0.10041635302302049,-0.06879524664811536,-0.013923949911459652
1.44,-10.357552049820793,-0.04425125748480174,0.9888702753927535,-0.10128567627378225,-0.06616244228625576,-0.0144702202889398
1.4425000000000001,-10.080454049869596,-0.31641135526801023,0.4874859587928059,-0.10128611393529692,-0.0621093418058908,-0.011161846875905119
1.445,-9.876083101069161,-0.4625975184851626,0.1929086486779833,-0.09997429295462414,-0.07266021284840128,-0.01970976370396066
1.4475,-10.124805868325714,-0.16057370078138666,0.5886849460377072,-0.10070592113598074,-0.07317215772803849,-0.026029454395507436
1.45,-10.180245988699038,0.029914408169750904,0.7137683398076777,-0.10252748142732253,-0.07306034084081695,-0.02495098469363434
1.4525000000000001,-10.04035655446922,0.11396554272125796,0.6133869640843261,-0.10577456757538635,-0.06845348028928604,-0.022121886781073723
1.455,-9.953441436854895,0.07373083167976885,0.48051704474624396,-0.10225728348820566,-0.06499099674052895,-0.015346610064331401
1.4575,-10.148297807189676,-0.3445837491560667,0.7649292656837802,-0.10081663151053759,-0.07639117380744594,-0.011353682933803833
1.46,-10.122656628657074,-0.2659086242345678,0.6741949480623319,-0.1054497232306411,-0.07684638221720004,-0.02196669653146188
1.4625000000000001,-9.947064114761499,-0.17158854574758628,0.46952368923515025,-0.1075451290591175,-0.07036995676222162,-0.021871280730343758
1.465,-9.665547958455534,-0.08277872072263276,0.053510436330128364,-0.10347381412681521,-0.07759281764080811,-0.020730175387885172
1.4675,-10.11724652703531,0.12917200627771971,0.7857852030684308,-0.10560676255829446,-0.07607930795469685,-0.02096258332920905
1.47,-10.130669836722184,0.1372261916855429,0.8102451568820783,-0.10476846062624917,-0.07478343288474351,-0.016313999520319835
1.4725,-10.058056480096392,-0.0018414001927608281,0.6934181590361539,-0.10879084219759004,-0.07078890627469903,-0.013830429146987944
1.475,-9.948570304442857,-0.20025876521739605,0.408484703064851,-0.10551206053694427,-0.07824078127821389,-0.016640880256593164
1.4775,-10.064705953854416,-0.3289541255394632,0.6653354209302764,-0.10626873848662123,-0.07858056865061852,-0.0194732777673349
1.48,-9.976334740105496,-0.20932122786995386,0.6157389929490749,-0.10388789674882518,-0.0744343340212909,-0.026307072922221106
1.4825,-9.80222158099869,0.010980764492865641,0.4301197943863107,-0.10541671653694151,-0.072235,-0.028221594577894967
1.485,-9.72883482573279,0.08540814915167305,0.38130168568002276,-0.10779060603821862,-0.07206230609738545,-0.02151495358119421
1.4875,-9.91322497269086,0.008954002563807253,0.604304354767089,-0.10618583712944939,-0.07624322314295541,-0.015319837129449397
1.49,-10.095328566414619,-0.15339042380907303,0.7169269174228105,-0.10672246198487711,-0.0780244486326402,-0.014876730992438558
1.4925,-10.087805571578691,-0.26336947910212133,0.7161701702121354,-0.10618798074494339,-0.07483401570794287,-0.019521842955105853
1.495,-10.019127943211176,-0.22507051665597555,0.731087410380211,-0.104458,-0.07147962726981207,-0.01965231862574421
1.4975,-10.012553,-0.215208,0.732305,-0.104458,-0.07916976183528278,-0.018937
1.5,-10.149903725633417,-0.005140407212965076,0.8525468098607624,-0.11137868363387354,-0.07578879867610135,-0.026221804610819445
1.5025,-9.869134155216504,0.04387852880494859,0.37328600948125024,-0.1129436955414433,-0.074067,-0.020876569811134206
1.5050000000000001,-9.744141,0.041846,0.171569,-0.112857,-0.07576452384684695,-0.018021
1.5075,-9.936898321683339,-0.14875662932000575,0.7118961616700163,-0.11043396295666659,-0.07003595778666648,-0.02077441839666675
1.51,-10.011356,-0.222382,0.920612,-0.109498,-0.06953513760000002,-0.021838
1.5125,-9.852899970493704,-0.30936463956526433,0.514692075407577,-0.11199527117585839,-0.07385542247658677,-0.02269975030639377
1.5150000000000001,-9.76200789966612,-0.09253111796847074,0.16641197596990093,-0.10657282266635258,-0.076053,-0.03120149524570952
1.5175,-9.828338544941694,-0.022933118143712967,0.841907490305702,-0.10591186838008192,-0.06754407771824787,-0.016583637809643895
1.52,-9.788280433253561,-0.03098219396194799,0.7175341221586676,-0.10721131824099563,-0.07168593563001076,-0.018326820045470895
1.5225,-9.81303307539787,-0.02048074986478416,0.46663373773364003,-0.11430115752303448,-0.07130261629532128,-0.022830038023214008
1.5250000000000001,-9.761071628610349,-0.16158303197629026,0.31028576927391655,-0.11344180152267963,-0.07273497648661657,-0.018322968536623952
1.5275,-9.677669304657734,-0.3229908420646457,0.2150291579353543,-0.10476432263487731,-0.074067,-0.01599062176723628
1.53,-9.847018023875425,-0.20336539249959634,0.7301459587413794,-0.10569194677797407,-0.07284764323647454,-0.025772299239043308
1.5325,-9.893750727833941,0.013496567125598727,0.8530887126023282,-0.11151997067198306,-0.0689872403471327,-0.03050921635276184
1.5350000000000001,-9.667145021614187,-0.02133085228876623,0.31229539936565087,-0.10875587801183398,-0.0757578633467463,-0.01969728248993998
1.5375,-9.662900232573149,-0.16950260645013165,0.1888576408200992,-0.10569922206864779,-0.07641097092835704,-0.01693300267219574
1.54,-10.209718854925239,-0.16735010918905657,0.7469126195209825,-0.11068815671246211,-0.071624,-0.02378628450820675
1.5425,-10.32111175398535,-0.22446671562102496,1.0967503441262154,-0.11233945511390163,-0.06170286054898181,-0.024324564617242212
1.545,-9.871419702254565,-0.15174821925454968,0.6067906979182067,-0.11304008346363634,-0.0752023682363629,-0.022574107290909164
1.5475,-9.746175433034058,-0.0472035536282277,0.48946848464177417,-0.11818769971276183,-0.079565,-0.024437838004103513
1.55,-9.74175,-0.015543,0.501554,-0.120188,-0.07769090483852158,-0.025351
1.5525,-9.895653507112232,-0.071890251008827,0.5053383856242118,-0.11427929382093319,-0.07383710257250947,-0.01213800751576298
1.555,-9.821173169141854,-0.27824942294291655,0.3249780272553655,-0.11409564636108203,-0.07576689940756187,-0.011512033584329905
1.5575,-10.039370014252098,-0.1498652341064475,0.7518886808067234,-0.12154980127731069,-0.067959,-0.02833276138935533
1.56,-9.983685971111644,-0.2657515542280937,0.7709518680144062,-0.11578200387995186,-0.067959,-0.018721444120047812
1.5625,-9.976088,-0.281564,0.773553,-0.114995,-0.07753282858507082,-0.01741
1.565,-9.693193110423136,-0.08920153762711969,0.16206437378688676,-0.11779411915135711,-0.07553547821737593,-0.023836686822330273
1.5675000000000001,-9.72216845813441,-0.039794058305082466,0.3641504594381983,-0.11798427220101933,-0.07183432931610745,-0.02098998381415182
1.57,-9.59707691081665,-0.19249366153387842,0.2764622117339903,-0.11244925099316325,-0.07850026842510907,-0.015316961163455385
1.5725,-9.843118214922281,-0.22047391523316062,0.540460658445597,-0.11204018766839378,-0.079871,-0.017296129119170993
1.575,-10.157781246663495,-0.12091109627167204,0.8952125287817556,-0.1132688990263595,-0.06542569026359572,-0.022800136903348256
1.5775000000000001,-10.047819236786793,-0.1461325220695204,0.6365843726829874,-0.11335705485183405,-0.06439715129585145,-0.01820914115969855
1.58,-9.693480320484499,-0.3290102757046424,0.16598898713252636,-0.11546673127416734,-0.0729018668856281,-0.01833873127416734
1.5825,-10.150144863352327,-0.1365089597454891,0.8765582489287759,-0.11187833170180436,-0.07280196354415949,-0.025244396450142422
1.585,-10.181992994330484,-0.13948540197150994,1.0060334857606819,-0.11142175801139602,-0.06656726806837615,-0.02113822063247869
1.5875000000000001,-9.86699003667482,-0.05469554034230101,0.3125909911980439,-0.11794730904645506,-0.06985252078239629,-0.02118798973105143
1.59,-9.956461639133023,-0.10564498412740533,0.31010553417564257,-0.12334366792308218,-0.07355610812132438,-0.022775439421132675
1.5925,-10.028963374862414,-0.2211587872880561,0.4246332185334833,-0.12033920786066482,-0.07307014461587401,-0.017938352476538823
1.595,-10.203259280884811,-0.3496964957065889,1.0059436275346614,-0.11246149905787976,-0.07242645068653294,-0.015577
1.5975000000000001,-10.087677776527483,-0.20435619312687708,0.9672935206405595,-0.110414,-0.06515645001715774,-0.015577
1.6,-10.034025549253732,-0.020308774626859857,0.7171740492537231,-0.11835491492537359,-0.07518442238806047,-0.022131288059701867
1.6025,-9.885555029236754,-0.05673251615916225,0.31795650202525017,-0.11683217626558648,-0.0824557128456835,-0.020647101326344168
1.605,-10.001223714348873,-0.05610945105316441,0.4153772706375004,-0.11485735128201137,-0.08639349102202847,-0.020130463958900904
1.6075,-10.147058,-0.037064,0.614538,-0.114232,-0.07530418656969781,-0.020617
1.61,-10.107171612373197,-0.11940877143394354,0.7467407559674468,-0.11743677180964328,-0.06759313202567328,-0.01995947294301812
1.6125,-10.001176089024387,-0.14619548768531623,0.74391951652319,-0.12110878622668583,-0.07541419313725514,-0.020482952773792487
1.615,-10.070817928353929,-0.09810515281265453,0.7381791680672264,-0.121868,-0.08540684769154717,-0.022814229045971322
1.6175,-10.149406445172728,-0.12623792269999806,0.6512331762500083,-0.12020142097272736,-0.08183887403181858,-0.020117369922727474
1.62,-9.99062985759003,-0.17489063311439523,0.539525936774509,-0.11934283821755588,-0.07957125375167891,-0.021403865974850722
1.6225,-10.301009124560352,-0.01668936101263,1.044818113231132,-0.12284017517533037,-0.0739464050819383,-0.026573042809985178
1.625,-10.29511862185022,-0.08774986296622614,1.10777825010279,-0.1216169904845815,-0.07300592017621145,-0.020177499089574155
1.6275,-10.009970345936301,-0.2785223916988371,0.6765718197780036,-0.11830927177606186,-0.08610244836872552,-0.015561854054054145
1.6300000000000001,-9.784014775954784,-0.23892567955955377,0.3569276943296277,-0.12018606940587669,-0.09046530586822094,-0.02635233912500743
1.6325,-9.88035003330154,-0.11343243975975664,0.4425586225755188,-0.12490074074545145,-0.08537338673025954,-0.02786071289171528
1.635,-9.899657022513662,-0.042070071931854566,0.5098393487656704,-0.12512145451944712,-0.083536,-0.02355243005464478
1.6375,-9.887341723663758,-0.06155917600996574,0.6937371571572629,-0.12321601522216287,-0.07673748675327755,-0.016513089588894816
1.6400000000000001,-9.97695991960373,-0.08684517850151399,0.7573247664732784,-0.1250211807628879,-0.07778189507267015,-0.01679860681260012
1.6425,-10.097720010866617,-0.25948707142211014,0.7852632590058406,-0.12501926348790077,-0.08152312341876286,-0.017570325197282192
1.645,-10.005161704962795,-0.4123767190747335,0.6154205044128096,-0.12225111823034615,-0.08633028140731158,-0.019050659864121654
1.6475,-9.926055030406852,-0.29115972893647835,0.5753209509350438,-0.121659444111349,-0.08605912341184875,-0.02713109714489629
1.6500000000000001,-10.01516769274424,-0.030986251430321243,0.7635316957205746,-0.12249416508597426,-0.08031044965687374,-0.031076071848253464
1.6525,-10.092307713859585,0.022491082987898134,0.8935569479436356,-0.12494227155006875,-0.07903821978800364,-0.023191194138919548
1.655,-10.164217175134006,-0.026549810038287394,0.8640399447824566,-0.12470569312913328,-0.08366759436129487,-0.01663043014270795
1.6575,-10.057285375543593,-0.1820545617420631,0.7427072877332276,-0.12950250796625143,-0.08275268570188833,-0.018329221705102428
1.6600000000000001,-10.017358392426797,-0.2728402648215028,0.7928928654472602,-0.12864183870036078,-0.08078091764781375,-0.01977975871961498
1.6625,-9.865484667609707,-0.20611539246373278,0.7846757659423345,-0.12313917889604539,-0.08933437467043899,-0.024696770468909956
1.665,-9.965097178486728,-0.19404095745500494,0.7907123522687053,-0.1265128252693674,-0.09434655911394699,-0.026528449004996114
1.6675,-9.611723972094152,0.012492026032516456,-0.0832285888570759,-0.12603561428779425,-0.08837029333656882,-0.02686634172288285
1.67,-9.6550753761223,0.001844056083475187,0.2521700602475032,-0.12428692742538225,-0.0850675715505946,-0.019288910691579928
1.6725,-9.783383626551414,-0.0595298197468399,0.621175001136169,-0.1260592836801484,-0.080415767557888,-0.015424
1.675,-10.092223862356121,-0.17278465167768994,1.1387477129071912,-0.13046315953955429,-0.0786433030614746,-0.01816762968405603
1.6775,-10.056993342509891,-0.3915495268608402,0.9140592388637231,-0.13291764676015821,-0.08101321321826684,-0.02254602798993169
1.68,-9.496835830385114,-0.2204848106541084,-0.08017638758935819,-0.13020500293367068,-0.09131814600758663,-0.0241890652810667
1.6825,-9.650373996919592,-0.010219114530545165,0.43704316012987043,-0.1320028623062567,-0.08556461013389555,-0.029160252886472674
1.685,-10.224361671086585,-0.08940856776205552,1.3133214855169042,-0.12685377241544735,-0.075442,-0.019473026087790796
1.6875,-9.96010869776925,-0.19616198009114896,1.0223800019189253,-0.126661990405373,-0.075442,-0.017552690813144638
1.69,-9.736579786906331,-0.1811208128814648,0.527523643107147,-0.131220213749307,-0.08110550255443802,-0.02244147794441348
1.6925000000000001,-9.942472542752755,-0.18907525139726072,0.7069388907416898,-0.13543986015971585,-0.08373749216138635,-0.022563772867059788
1.695,-9.971591748389791,-0.3228911502312262,0.746200150690538,-0.1305086686779058,-0.08499136116081218,-0.020808575188684127
1.6975,-9.961152514313774,-0.34736547448072636,0.8271713008887802,-0.12961495017922908,-0.07698666013258035,-0.025136713528111997
1.7,-9.89069094588708,-0.16931910590870847,0.7094998321001046,-0.13230498793542902,-0.07086,-0.03146576882675517
1.7025000000000001,-9.838455632116533,-0.08155621470119859,0.6386149720119589,-0.12913665494521864,-0.07971205581673406,-0.023949537380477004
1.705,-10.02566394269638,-0.14490336807074128,0.7919015625401975,-0.12998080785943975,-0.08887514598070752,-0.019320412645843003
1.7075,-10.204672818669872,-0.212817,0.8716716541960292,-0.129962,-0.07867235314491874,-0.024893
1.71,-9.908026695913414,-0.212817,0.5863341367071597,-0.129962,-0.06750246508719199,-0.024893
1.7125000000000001,-9.870589011018405,-0.19683238698147534,0.6169941227291599,-0.1276319888277417,-0.08673551076395045,-0.028092123746967512
1.715,-9.902489945577845,-0.14341761901650812,0.6971156541807233,-0.13521258708325962,-0.08512470344044021,-0.03254542273033922
1.7175,-9.864734528790752,-0.023699489409325036,0.49645654682183876,-0.13434234957991228,-0.07439980111917086,-0.02816063725468308
1.72,-9.78948609788991,-0.026165972788990105,0.6584468685596292,-0.13190363469724772,-0.070402,-0.019373538788990938
1.7225000000000001,-9.775226,-0.037064,0.716762,-0.131489,-0.0738664047783333,-0.017715
1.725,-10.017220713237577,-0.2663733518224035,0.9407043739760301,-0.13659889177252788,-0.07130049319719793,-0.01821366536863353
1.7275,-9.77915681719888,-0.4457932741650081,0.38896124358388784,-0.13274533288162607,-0.07910620254125164,-0.020175411507373484
1.73,-9.626818717355533,-0.3744168267097726,0.15051517105633228,-0.1300457129847248,-0.07625293496484287,-0.025760947191465235
1.7325,-9.946795,0.011956,0.909852,-0.129809,-0.06970656954917188,-0.029932
1.735,-9.946795,0.011956,0.909852,-0.129809,-0.06441806582931411,-0.029932
1.7375,-9.757509541684659,-0.0223970568754513,0.5683821549315922,-0.13296846983441338,-0.067776016990641,-0.020805281209502882
1.74,-9.661502113127282,-0.14274628740163817,0.12242795769287032,-0.13823045780157378,-0.08150240898190958,-0.018607486025797006
1.7425,-9.987396068481734,-0.24192097843757135,0.520414987942311,-0.1368772620925368,-0.07092043572657612,-0.02087648066031162
1.745,-10.21608963559526,-0.3181884880094899,1.237278523035595,-0.13025898175177839,-0.058796,-0.018403940003161954
1.7475,-10.09404578880864,-0.30357855193809585,1.2033146261311574,-0.1330538690002459,-0.06159804890198982,-0.023431398133137115
1.75,-9.903308347255656,-0.07921569451131441,0.49507923712084734,-0.1449291995666827,-0.08012008738565238,-0.03292915021665865
1.7525,-10.007295133836893,0.0028387418337279396,0.49653339803958635,-0.1420838481013461,-0.082772,-0.024149651182898094
1.7550000000000001,-10.272335258931841,-0.09658942519783928,0.9749763315953699,-0.13672209739531638,-0.06667135339716122,-0.016458891355404025
1.7575,-10.411418019991865,-0.20713063849621866,1.4656258807877078,-0.14129413657742712,-0.063377,-0.019273552298803915
1.76,-10.014384587673739,-0.44413958871982434,0.6253518870665684,-0.1496894807973665,-0.07889945836137531,-0.020951715844915897
1.7625,-9.978463636491101,-0.42082980304803747,0.41938634984150575,-0.1451989623872227,-0.09051663723482056,-0.02700384798829543
1.7650000000000001,-10.069588577245439,-0.23624856570875286,0.5476128066006747,-0.14069443691539865,-0.08938808778233884,-0.03133904482653161
1.7675,-10.247675734959433,-0.05951089038663251,1.1539618719427476,-0.138361,-0.07103720712171753,-0.033139
1.77,-9.942436213815647,-0.2759691926018513,0.7816970452589778,-0.14257291477466658,-0.07778371145775767,-0.02366639618315107
1.7725,-10.063012910821655,-0.3054122474732847,0.511121538760385,-0.1442662503633342,-0.09210533847779627,-0.024284491923533595
1.7750000000000001,-10.264714385549762,-0.27303550252908876,0.8270713573498151,-0.13789660560436917,-0.09115474743528848,-0.02494996790548567
1.7775,-10.057388,-0.371832,1.044357,-0.130725,-0.07371171590137386,-0.020159
1.78,-10.057388,-0.371832,1.044357,-0.130725,-0.0755366118015478,-0.020159
1.7825,-9.82486109861778,-0.17643850070625983,0.5753247504918351,-0.14111480980470292,-0.09178354202311659,-0.030096982488640775
1.7850000000000001,-9.983157452135327,-0.08631899822409972,0.46735653906977215,-0.14076180904862545,-0.09562053649048612,-0.024534834714586992
1.7875,-10.169387477804417,-0.06493951767337736,0.9117258786833031,-0.13454689004474252,-0.0804940160914024,-0.021449588766378976
1.79,-9.904789326819907,-0.07539318172115086,0.9432966326025156,-0.1403878402310271,-0.0613701021878246,-0.022563553956335948
1.7925,-9.938116089464101,-0.07210485040766253,0.8655619900039583,-0.142026,-0.07935153647114682,-0.022907
1.795,-10.041315900683472,-0.21727504717086193,0.6273774603025305,-0.1445345230700279,-0.09792876076190432,-0.021736501893557473
1.7975,-10.177033389658403,-0.2599270812225751,0.7101617928227479,-0.14395455902193433,-0.09895031518158874,-0.022980007781373796
1.8,-10.02372640106349,-0.16391168529871653,0.9765219114638745,-0.14519078593994378,-0.07845696787613347,-0.02766888959962473
1.8025,-9.777133124105355,-0.15939704475825378,0.9338948078496361,-0.14888794678867315,-0.07579058250525526,-0.02441523694324229
1.805,-9.85145918525475,-0.13765695177271814,0.4055752404320429,-0.14852145418173285,-0.10183972968302349,-0.020412177929091325
1.8075,-10.283017165555044,-0.21087437373467516,0.5714029170568691,-0.1480677599235547,-0.1052402395859213,-0.021343520828157395
1.81,-10.480447929104084,-0.29778556253939226,1.2993436689269897,-0.14345534606095442,-0.07766151246003362,-0.02021744129729725
1.8125,-10.222171202446532,-0.3123017491088788,1.2684465534672715,-0.1438487260207388,-0.09632014039209333,-0.02115335490926766
1.815,-10.062074624034604,-0.3067035343284908,0.853561379869147,-0.15171381276255935,-0.106749,-0.026242838700232744
1.8175000000000001,-10.145901289152775,-0.2806853170913929,0.6745593937558328,-0.1492497606004,-0.10802729358238833,-0.027535242948632414
1.82,-10.147066086856322,-0.2839334808319393,0.8139615730369019,-0.1421253921842376,-0.0978098456450709,-0.021894560844688608
1.8225,-9.851556507552017,-0.2856320969964981,0.7059677679022192,-0.14750381088786652,-0.08909475712147226,-0.025556568899265282
1.825,-10.157162805507102,-0.3269537532925901,1.0632266762480194,-0.1545413593490351,-0.10119049853738905,-0.030504597651582692
1.8275000000000001,-10.000171040464664,-0.4395349125272703,0.5992849406637925,-0.15084758907539092,-0.10090915080132754,-0.0254373083641533
1.83,-10.073711466436354,-0.40611376678182354,0.6464928075437871,-0.14315596983435847,-0.10143606952673928,-0.023839624131566522
1.8325,-10.122988140269413,-0.31919214391442097,1.0120787129794002,-0.14589187298573694,-0.09226027473217108,-0.03201303479239309
1.835,-10.126750603326336,-0.16242569437429633,0.9360862903956123,-0.14634317358953658,-0.0925558924366219,-0.030722699447763704
1.8375000000000001,-10.017196874190859,-0.1800852735269847,0.6306503724481168,-0.14628040381742746,-0.10011034224066437,-0.026583505228215717
1.84,-9.967712534978515,-0.18359945352976892,0.5847248579005551,-0.14420915911602197,-0.09915109176181688,-0.0270046550030694
1.8425,-10.099906629742051,-0.20056313186075855,1.007277600010027,-0.141873,-0.08878252194340078,-0.022201654034560342
1.845,-10.199454407000964,-0.437283114001926,1.3334811270588232,-0.14264037463837992,-0.09524736588235275,-0.022214409951783923
1.8475000000000001,-10.15938857837654,-0.42500273700991736,0.8793285181487196,-0.14712300714320375,-0.11057611486309737,-0.030454145732978527
1.85,-9.979468619555549,-0.19941607866665992,0.27749314399998504,-0.1451997684444442,-0.11123525688888873,-0.032722625777777736
1.8525,-9.944407564505445,-0.07816027057264484,0.6118786415901722,-0.13929072501656406,-0.09569843513487894,-0.02792000147657347
1.855,-10.151011564827202,-0.08740258567655174,1.2600506158576483,-0.1371662975120601,-0.08678946561012259,-0.019077282992487215
1.8575,-10.478923301767047,-0.2543009233595839,1.5718878435292638,-0.1433767011562231,-0.09939904363592215,-0.019054907710580254
1.86,-10.052012816142401,-0.4361556607715182,0.3995516975666955,-0.14805405495548962,-0.107818,-0.022521054955489637
1.8625,-9.804639985748828,-0.4198759080444939,0.3004728973077577,-0.14406405713364492,-0.1136488638400775,-0.024142200999516396
1.865,-9.895993881219686,-0.19299045854501912,0.8606745195294091,-0.1463437491860744,-0.09995999861704691,-0.030400740840336105
1.8675,-10.345623675279215,-0.061949757209304915,1.5698481546653835,-0.15194113887675986,-0.10517472383483603,-0.029354381154880618
1.87,-9.98884721279478,-0.2978951080540142,0.5395101392138709,-0.1514207648227632,-0.11230758731130955,-0.022021741577043626
1.8725,-9.751155868574868,-0.2797561592235347,0.10380620380032834,-0.14630431067277538,-0.11616926489992774,-0.021538794829997578
1.875,-9.673002,-0.273792,-0.039455,-0.144622,-0.1026772927573659,-0.02138
1.8775,-10.075871839532134,-0.5362079116342156,1.216266368211976,-0.14574741086864057,-0.10609514232618993,-0.022280034084737423
1.8800000000000001,-9.989079026010558,-0.5085493752984993,1.101699296523594,-0.14752960372823393,-0.10937715990982592,-0.028811628569652158
1.8825,-9.689108990526185,-0.24444263193890034,0.3510293279560742,-0.14556596673905245,-0.11171071849659954,-0.03368661884739292
1.885,-9.606736617129533,-0.09185183812055481,0.6584915756838083,-0.1392929387198321,-0.10377035969220001,-0.024788068695347977
1.8875,-9.794618531118964,-0.1378148464523544,1.0647270410096135,-0.13914319898051467,-0.10740829640713627,-0.022866220060840253
1.8900000000000001,-9.89290735658673,-0.30825423007757213,0.7793402902961633,-0.14983879780677015,-0.102014,-0.02822174154442882
1.8925,-9.620304710681703,-0.27067964051480853,0.20540145257168085,-0.1509683463540198,-0.102014,-0.02916272388575461
1.895,-9.700664136455144,-0.28240530590809654,0.7754686006126995,-0.151342,-0.09991606844638948,-0.029474
1.8975,-9.831953079818032,-0.23417275318277914,1.2942471728740805,-0.14915387722502035,-0.09427583983103177,-0.03089692463363117
1.9000000000000001,-9.872842289805595,-0.04162492701120807,1.129715374837972,-0.15225571149043812,-0.09857264270586426,-0.0317972305990201
1.9025,-9.665154055899238,-0.030880662359710556,0.46528805974810605,-0.15753842165056867,-0.10017868563883091,-0.028194655121652746
1.905,-9.727651894900122,-0.01431873600939905,0.7133102644559427,-0.14604688354876594,-0.097738,-0.019486524869565123
1.9075,-9.768052,0.005978,0.81779,-0.143553,-0.08752618286762959,-0.018326
1.9100000000000001,-10.006271768676168,-0.38210463644817705,1.2449249772228363,-0.15128523935252694,-0.09316628059197675,-0.024810498120014422
1.9125,-9.586424552264958,-0.4338574627374559,0.3263478494235652,-0.15357324551063486,-0.09562589180061701,-0.03211468173404798
1.915,-9.83325341128312,-0.1614463431329186,0.8852413260262721,-0.14695933289103885,-0.084147,-0.030358513715733594
1.9175,-10.055996965999142,-0.18197570437437352,1.4303570461556057,-0.14480092552783475,-0.08521958961217381,-0.025778856898344707
1.92,-10.127762121688688,-0.23430446373133468,1.6928977073052447,-0.14625251525831223,-0.08766408272480077,-0.025015046588751633
1.9225,-9.994723890659417,-0.30296222047422783,1.3212346307985854,-0.15246334592898478,-0.09717188829066958,-0.02790882009673263
1.925,-9.787033109820328,-0.2600108024284169,0.6282195058823457,-0.15276338882599053,-0.104,-0.029037784986463158
1.9275,-9.822756164705883,-0.3914857170132038,0.7894027822713057,-0.145509224547419,-0.10345953140936374,-0.02259605307082837
1.93,-9.877810529602229,-0.4180058304039662,1.1600733039219895,-0.14603414043646484,-0.0996575297446217,-0.026276175960377388
1.9325,-9.795114390057908,-0.21494280889960304,0.9960198581853037,-0.148593,-0.0978469760907337,-0.032223
1.935,-9.53238447102367,-0.10352256528684106,0.5297233033714132,-0.14773263192837788,-0.09951536807162212,-0.027060791570267237
1.9375,-9.490237457591958,-0.16626174603047955,0.4440316838745711,-0.14655607165084178,-0.099724,-0.018386102609111943
1.94,-9.765749006988646,-0.21459516917990212,0.6940848183079331,-0.15118520949108574,-0.10047911655105345,-0.01888051184440831
1.9425000000000001,-10.062022820546455,-0.3101836994535597,1.0084428461202286,-0.15665304874316954,-0.09090755147540883,-0.02621879825136655
1.945,-10.096663854815533,-0.34479789178640696,1.143413343126216,-0.1539729250873785,-0.08498505106796121,-0.026556147786407663
1.9475,-9.953482233667296,-0.3542340372967866,1.0268453214839308,-0.15072735615311908,-0.09152296142722122,-0.026375356247637066
1.95,-9.95275934505337,-0.05268091486671827,0.7942899472717516,-0.1576191423459956,-0.09662557439322575,-0.0357674617329597
1.9525000000000001,-10.054061453887535,-0.057166236381418316,0.7830757055256717,-0.15551811344743266,-0.08784002200488954,-0.03156602924205358
1.955,-10.114015693235988,-0.08752769073010011,0.9592503144135732,-0.14763201122939207,-0.08188156419218075,-0.021210514036740086
1.9575,-10.08515845969983,-0.35131034685548657,1.1592627083127582,-0.15139142343258305,-0.079412,-0.01738533873154205
1.96,-10.149798402181643,-0.4644546460146089,1.0251215668402704,-0.1607002382724674,-0.08400188146713233,-0.027255076725944585
1.9625000000000001,-10.127845881668907,-0.3060383775235427,0.8568872284522281,-0.15874200519515463,-0.09377675230148035,-0.030726225222072686
1.965,-10.082710541652757,-0.10946565935396413,0.9944038075962359,-0.1562631037900403,-0.09108263173082091,-0.0308341876231494
1.9675,-9.86197575523656,-0.06944071756678452,0.9023010993176684,-0.16092628739620218,-0.08248629392339868,-0.02862507405857738
1.97,-9.74765353924027,-0.21055975027732232,0.7064204888930343,-0.16216349844791425,-0.09622793131670912,-0.0246331480027966
1.9725000000000001,-10.0181188862041,-0.2180702035918352,0.721728176000003,-0.15421441828571375,-0.09664109126530591,-0.02408630987755103
1.975,-10.339757792841917,-0.31634039642095857,1.3093475376866859,-0.15030225449158563,-0.095448,-0.024002085067551547
1.9775,-10.017100491213078,-0.4491331502953337,1.0502194170625532,-0.15527564579866632,-0.0874401572848522,-0.025950487364242648
1.98,-9.915727410570165,-0.3068116976076352,0.7135246419641631,-0.1584070677309751,-0.1043921754200603,-0.030547005608564076
1.9825000000000002,-10.183112823271872,-0.1913140261748867,1.191025680490196,-0.156992,-0.1078149776847113,-0.027489
1.985,-10.35017075393219,-0.038799551457459835,1.381202809418211,-0.156992,-0.10486199803926223,-0.027489
1.9875,-10.05680717262028,-0.2145959751180891,0.9931041441517808,-0.15610724175806578,-0.10102765969097743,-0.02450140112080692
1.99,-9.653933014494084,-0.34400354254278215,0.3246514253910623,-0.15991615935683937,-0.1033934995199265,-0.024746414719191468
1.9925,-9.93682209216915,-0.3091257640397071,0.944180291768922,-0.1541743723661377,-0.09810645450168083,-0.023185279221449216
1.995,-10.096512286944835,-0.34302071520100835,1.3123874311172978,-0.15685890369055205,-0.0932515437970835,-0.025949191157895173
1.9975,-9.998163848197217,-0.2941693364250425,0.9710141588538401,-0.1623305669004472,-0.10094976787244068,-0.03148506717109909
2.0,-9.708274783890326,-0.35502388509060956,0.6044117284655213,-0.1639321809837609,-0.10613156936926335,-0.0318620264179807
2.0025,-9.683970452721173,-0.20336993465102252,0.6789181528241272,-0.15699807884113495,-0.09901190775529754,-0.02628523652340485
2.005,-9.907224999600135,-0.25402432764036653,1.0485076127834154,-0.15565613254160188,-0.09709502094576808,-0.02225939762480563
2.0075,-10.149013999202895,-0.3058725934935915,1.2813825591301462,-0.1575285455132056,-0.09986256533923747,-0.024617770555116023
2.0100000000000002,-10.179842385088751,-0.3353804652372681,0.9376187950388085,-0.15788267740573148,-0.10751388719805173,-0.028229820299339015
2.0125,-9.966644125885031,-0.3687459198217772,0.9280238797811048,-0.15609594981839298,-0.10152726625986705,-0.027353080120102697
2.015,-9.97514384262095,-0.28496140173761025,0.9504878521342449,-0.15369197927066675,-0.09795990396629359,-0.027740538828999003
2.0175,-9.979041696969523,-0.2866218836342754,1.0108686965267424,-0.1536475511673376,-0.09761806849913754,-0.02531228690626781
2.02,-9.972319704566134,-0.3594757879247396,1.0846303383656268,-0.15573366761022184,-0.10156036582982314,-0.022200029194046705
2.0225,-10.018723544811094,-0.20386887062649783,1.0303179833381155,-0.15483065719751316,-0.10144141283596378,-0.028421853907221437
2.025,-9.80825447639682,-0.4592927437171999,0.8604913880045703,-0.15482258782212086,-0.10355886992018216,-0.018649722782212594
2.0275,-9.737461104377608,-0.5463527159743469,0.79704382594314,-0.1566025501547878,-0.10583460478606341,-0.030202173946206504
2.0300000000000002,-9.797226418701673,-0.4135400835171429,0.9084584973338938,-0.1570734250226591,-0.10225336381849177,-0.035668148657525114
2.0325,-10.064116712195915,-0.1640057645287561,1.1488818580332465,-0.15767987098023784,-0.101709,-0.03200860410046412
2.035,-10.035082616556172,-0.2615141227014315,0.9540866528566129,-0.15674574162135327,-0.1088804994810671,-0.02204645587088785
2.0375,-9.968935109944132,-0.3280495568715108,0.9906618429050292,-0.15833585407821235,-0.09884124670391026,-0.025624371620111858
2.04,-9.98691288413323,-0.2832975936731203,0.9713202266460103,-0.15684940417660725,-0.095753,-0.028958159981409805
2.0425,-9.957255604238238,-0.4249115180260915,1.1007301027896823,-0.1571049642311552,-0.10181264818841859,-0.024441520365976008
2.045,-10.017198548999467,-0.2965174379033152,1.01118736966177,-0.15663269961395432,-0.10663308965468377,-0.028128031584912238
2.0475,-10.024339799908038,-0.21720346334981153,0.751347844653431,-0.1594046930451773,-0.10435569112771634,-0.030258048469939056
2.05,-10.065674781802356,-0.13537978978248172,0.9265925907022621,-0.15828929101305197,-0.09478405779987635,-0.029117280472343212
2.0525,-10.099529090756466,-0.08846720200446541,1.1821981766613654,-0.1567118064028087,-0.09372667290775616,-0.02462745827641197
2.055,-10.127883579955308,-0.19263942233799355,1.298241787806123,-0.16373551591893418,-0.09828002412884376,-0.023478043467673616
2.0575,-10.0627170713705,-0.25493300429243787,0.9207876682676177,-0.17139062218587375,-0.10088019358116469,-0.029842598607187697
2.06,-10.001194,-0.229555,0.60856,-0.172569,-0.09569348357002642,-0.034361
2.0625,-9.78185517107836,-0.30573590265655554,0.8249536974769877,-0.17012714537129775,-0.09260023947155054,-0.024752791577240425
2.065,-10.026408379728139,-0.19751057680927403,1.098805220804115,-0.17241813915009294,-0.0979463917298611,-0.029029713383888878
2.0675,-9.985992398896858,-0.22889735720116428,1.0814418959247163,-0.1746813199552786,-0.08781871049287243,-0.025744858362061307
2.07,-10.021616219630106,-0.11484383559053943,1.1206827926533578,-0.1669511086540923,-0.08862775007507773,-0.01935218349020319
2.0725000000000002,-9.997512348446557,-0.29888130834647375,1.1566485078264088,-0.1727185006677659,-0.09009407957272797,-0.02042680908014415
2.075,-10.295520502171847,-0.4523343152509751,1.566573041505833,-0.17139464502895718,-0.09556496722973026,-0.023666351351351655
2.0775,-10.140280723085613,-0.6052693175993793,1.312056535993698,-0.16539630895208138,-0.096364,-0.0240166891060487
2.08,-9.793693151173057,-0.6087925565116812,0.8222646650296872,-0.1647805094716832,-0.10426574225742608,-0.02655292405861397
2.0825,-9.587343932380719,-0.3666074986542665,0.3000896241742075,-0.16946489998531936,-0.1088383988646929,-0.033563386195253314
2.085,-9.94324080303154,-0.12342076966561738,0.9084082469968298,-0.1687402799842272,-0.10413913598107262,-0.034264668110410144
2.0875,-10.171428689806236,-0.19567336507400485,1.5711684552412972,-0.1644073117101939,-0.09421609098567871,-0.023228530075822068
2.09,-9.995351624636669,-0.31430513298452184,1.0980634765245156,-0.16701794822216953,-0.09686915070783192,-0.02298104946500072
2.0925000000000002,-9.928896615260628,-0.35673806955116383,0.7332147696621705,-0.17505285135135243,-0.10712227375965351,-0.032170720743244285
2.095,-10.199989268570212,-0.374223,1.3548299559608947,-0.16675089310990077,-0.1079850629075079,-0.026563965845483217
2.0975,-10.279391753706218,-0.2832149029796123,1.4849595484369993,-0.16354095297438628,-0.09913396899111353,-0.029226767945635435
2.1,-10.22994329541415,-0.2683206689635503,1.2975901841752535,-0.17252084562087186,-0.1007320221356271,-0.03462935359977209
2.1025,-10.215123237158931,-0.31402218579465696,1.0831853976183745,-0.174150652320675,-0.10964741382090976,-0.03359670039381142
2.105,-10.222381,-0.350311,1.003108,-0.172111,-0.11221026899931619,-0.031001
2.1075,-10.372776338495365,-0.45489653418981124,1.4603479134953548,-0.16659063157407428,-0.09613643361111164,-0.029014361388888958
2.11,-10.16031624733213,-0.45034833222504084,1.440928150925595,-0.17188619730429547,-0.09404314597943064,-0.03499363167090156
2.1125,-10.059445519782221,-0.5413594005081604,1.3427121666061776,-0.16655831477314012,-0.10799307629763966,-0.03170010076225069
2.115,-9.854137224463896,-0.46952668023333033,0.8473812080550741,-0.16715441859292993,-0.1270658225597947,-0.032732635202427404
2.1175,-9.919592785924634,-0.2972940044288771,0.9033291176852212,-0.1701437960938049,-0.12762675138490262,-0.039925614542060894
2.12,-9.836700410813435,-0.11498305865561792,1.3139752067413797,-0.17182749375547984,-0.10936495122259986,-0.04068501093034572
2.1225,-9.581905864061309,-0.2126206268398578,1.0163505817216527,-0.16681721008471145,-0.105527,-0.022321101260185116
2.125,-9.499014418368473,-0.5228276990837841,0.5797794948669831,-0.17060889248261396,-0.13028161320234022,-0.01899007826470913
2.1275,-10.066328747327882,-0.6206607725154969,1.2020920071516947,-0.17200450379119087,-0.13394458970309958,-0.031194846238172622
2.13,-10.140613752104226,-0.47552701654878604,1.455414882125527,-0.15723491962261862,-0.10111905127518382,-0.029128126571306878
2.1325,-9.678182098574501,-0.4678961353898599,1.0483071169980174,-0.1553833650690853,-0.10813657706494569,-0.028152885151865665
2.1350000000000002,-9.532410593661838,-0.3263347501835546,0.6358189043864351,-0.16521322177777933,-0.12330877526570233,-0.03610581285024276
2.1375,-9.775474927478957,-0.23183984497731186,0.761081322683101,-0.1641198430330522,-0.12929046539209357,-0.03304275255994772
2.14,-9.84725391045378,-0.37340882759889193,0.8855043551551857,-0.1576306943596635,-0.11359275064649735,-0.021453862798878835
2.1425,-9.660731393266476,-0.4926470369340981,1.144065479684809,-0.16534345265043002,-0.1085361039255014,-0.028178792908309623
2.145,-9.6352869004298,-0.5188401549474692,0.97830008583572,-0.172895428199618,-0.10777120428844317,-0.03400943130372497
2.1475,-9.572650960450652,-0.4359649142177101,0.8593494724785798,-0.16902071687718193,-0.12035649600126923,-0.0343812633894002
2.15,-9.497777296681445,-0.2987617653288662,0.6411976243680462,-0.1655542136336409,-0.11754017385887187,-0.03243766325625983
2.1525,-9.647716005943098,-0.27405956115454827,1.085355774486314,-0.16651968564736458,-0.1171153187579112,-0.02791888723250714
2.1550000000000002,-9.699622595620754,-0.32819019621932277,0.9700502468255637,-0.17381264429408008,-0.11219029242798792,-0.029812985005027694
2.1575,-9.601110580630086,-0.5517623354772824,0.8611683158179542,-0.1730010467864641,-0.1133404126581093,-0.026425292844806856
2.16,-9.471262245782208,-0.8478156535532247,0.7369152358379882,-0.1687592962503029,-0.11081708749939392,-0.022751405908319727
2.1625,-9.649143131118125,-0.6171028653892714,0.8456201153529022,-0.16371033795779755,-0.11567212408440473,-0.03226692156196978
2.165,-10.083479554049832,-0.4351516438319871,1.4825901315441214,-0.16138834586111445,-0.1129118477891442,-0.03723122061379231
2.1675,-10.006389842273123,-0.3735865403353014,1.3747149792333744,-0.15862074208579302,-0.112094,-0.03183215413459273
2.17,-9.949782,-0.357484,1.290053,-0.157603,-0.1167072808297152,-0.029627
2.1725,-9.818052004657433,-0.3392847759144565,1.0040576336190261,-0.16214211423999975,-0.11770217971326732,-0.03040188232554451
2.1750000000000003,-10.013280588896887,-0.46149658338110944,1.5406037962035413,-0.1611801712750712,-0.11020102936962631,-0.026349373638967787
2.1775,-10.08223127130947,-0.39377183048209113,1.5311510751503448,-0.1596601722354812,-0.11250179763882297,-0.026168734714399428
2.18,-10.034745520921375,-0.36069905955690656,1.1870690841013878,-0.16676145700391978,-0.11633288560505502,-0.034414620263937414
2.1825,-10.009340627546326,-0.17488867906524946,0.9155467621904835,-0.1672303330815527,-0.11747852471615715,-0.035736431068098234
2.185,-10.139228317658494,-0.18270970065248004,1.273978142998624,-0.16194389340583057,-0.11735365431744564,-0.023180876765386105
2.1875,-10.181281147130548,-0.29422823516501384,1.4457879952853194,-0.1673028550642172,-0.11832058429523655,-0.02559185701511949
2.19,-10.033049744272569,-0.31557433815721175,1.0006394780360526,-0.1727380690282476,-0.11611609179951224,-0.03030468929105349
2.1925,-9.926675195848938,-0.286569633244886,1.1930349433722094,-0.16430058673585107,-0.11155369316572158,-0.02469038767946953
2.195,-9.879395602910028,-0.41331921607573807,1.0870751438215538,-0.16421476661816628,-0.11241021159516416,-0.02040723461645475
2.1975000000000002,-10.145619246506824,-0.4591413475421476,1.4149046928663764,-0.1676261956922353,-0.11804159133222612,-0.027905499363573477
2.2,-10.265326399813816,-0.21882387614612467,1.401221398580376,-0.17160908131254382,-0.11112024237840244,-0.040678550081452824
2.2025,-9.82417472032429,-0.2741325447700148,0.865623646682159,-0.17206847074897647,-0.10998674890583614,-0.027258780216744747
2.205,-9.614308435811417,-0.32435721771144316,0.7344941657427173,-0.17228016196162046,-0.11480391874911178,-0.022292570376688022
2.2075,-10.047596740793502,-0.4048485905717113,1.326136505860038,-0.1794049987333663,-0.11318189608181362,-0.02989559300147867
2.21,-10.285494989267294,-0.5207983738433617,1.6048462377253747,-0.17845814887924927,-0.1080904829119016,-0.030075246158214466
2.2125,-9.665795492373874,-0.5610437000391149,0.7058569728588128,-0.16903229198279227,-0.11031844567852939,-0.028140005631599213
2.215,-9.667839060513622,-0.3763673357580603,0.8803195972467637,-0.170598116266458,-0.1143891787354971,-0.03711666915917039
2.2175000000000002,-10.07816265434419,-0.2707209764987444,1.5542500305503695,-0.17175587676807988,-0.11016619467996613,-0.03586615895594312
2.22,-10.097640251149588,-0.309918056680323,1.4936956726928754,-0.16774227448188925,-0.11450856820157555,-0.027441355754329863
2.2225,-9.684369371632727,-0.3639687504130549,0.43775168340500176,-0.17468499929388748,-0.115606,-0.03663126220485633
2.225,-9.979594876248964,-0.24412950740998737,1.0334499624337359,-0.16921019172481142,-0.115606,-0.037749196985766155
2.2275,-10.188177517663112,-0.38984131423802515,1.6013544474055132,-0.1674574985699382,-0.10613086533986021,-0.026000740528047316
2.23,-10.077488587400277,-0.5019104360935345,1.0665430272352205,-0.1706696040715268,-0.12323188602475908,-0.025074540440165032
2.2325,-10.338699988323551,-0.2576679632741669,1.1265077381894064,-0.17961035727206978,-0.12304031676118578,-0.0458655460326124
2.235,-10.257374322424257,-0.03653602311689241,1.131710081298706,-0.17565705997114048,-0.11352166955267014,-0.041936812784993616
2.2375000000000003,-9.855825193915326,-0.24670403025616267,1.224947191928903,-0.16921863477260987,-0.11068059276529128,-0.012157703815997362
2.24,-9.933483401196034,-0.4390483875922798,1.1820218998682661,-0.18236064113748152,-0.12156265200627381,-0.026639344129640547
2.2425,-10.24289342324854,-0.4558188090770376,1.3948801782667146,-0.18489748523982583,-0.12043994991438864,-0.03471172990735316
2.245,-9.960600421227287,-0.6913247206906464,1.1283080943183752,-0.16956601914811714,-0.10768621241005939,-0.019096630152810105
2.2475,-9.90177052588858,-0.5868639166863171,1.1777101420334508,-0.1735156848538083,-0.1179947074263027,-0.03258390898808836
2.25,-10.096530041510718,-0.1646066335488261,1.3301433684926844,-0.17914714494726097,-0.1160301418849949,-0.04692596053079279
2.2525,-10.02808082293299,-0.19016567432178438,1.2372622458206568,-0.17405145866623517,-0.11610696255098735,-0.030795420123017614
2.255,-9.705690591339346,-0.3484275938381374,0.8656178641173891,-0.17013347075248472,-0.12115468426881183,-0.020759856857548713
2.2575,-9.920675545970793,-0.3767131366053295,1.348989670564681,-0.17747242650380654,-0.11447967421319852,-0.029806608667511985
2.2600000000000002,-9.648829913918869,-0.5414748184090461,1.069993317709749,-0.18421621339992672,-0.12213732003898563,-0.027616162850530375
2.2625,-9.731484785291185,-0.43729299559307355,0.7799787153241053,-0.18336527921018747,-0.1437365057948203,-0.03300538079839789
2.265,-9.91564647773359,-0.4193551294376869,1.1273755899098759,-0.18389989443601854,-0.14190361075022645,-0.03873361540706854
2.2675,-10.072334712873326,-0.39133466387857446,1.424281532446008,-0.17956505750379423,-0.12893326742323338,-0.03445917224051329
2.27,-9.538858733940474,-0.42685826759412027,0.7405352762567148,-0.17753588669774115,-0.12536687988526357,-0.024497440602366388
2.2725,-9.371036649275363,-0.5024511030434772,0.5261158952173923,-0.18795244956521723,-0.1397742005797099,-0.03568167420289835
2.275,-9.815138118315122,-0.37843504543002104,0.9979579152410855,-0.18368091808048853,-0.12802002459228062,-0.03960461546403853
2.2775,-10.044822156112302,-0.3242130123110164,1.4269274587472793,-0.17183822561555143,-0.12265654777537806,-0.026583780561555935
2.2800000000000002,-9.970686191264528,-0.5191444443122735,1.5087664656330388,-0.17680973763427724,-0.11985045821376249,-0.02964755783617278
2.2825,-9.73257292387171,-0.18505200927187462,1.0425901555200507,-0.180511,-0.11922482061019628,-0.039830589418069995
2.285,-9.628475612049693,-0.36114677106546256,1.2241517335117058,-0.1804571130052556,-0.1239841943334929,-0.022017943497372197
2.2875,-9.701851508695656,-0.4719586595317765,1.2278953953177258,-0.18026548361204014,-0.1293404237458196,-0.022113758193979937
2.29,-9.885806126452637,-0.5089694962770837,1.2847106826063588,-0.18601129994622817,-0.1326772154167326,-0.03098339936106297
2.2925,-9.93874734331672,-0.4080053977005518,1.3842522764607095,-0.18186141157370114,-0.116217,-0.029789087968867412
2.295,-9.735892595155327,-0.5809026724571535,1.2781175141858432,-0.17464587425957553,-0.116217,-0.020496014263672004
2.2975,-9.633590891898022,-0.5839940870884491,1.2146684387850202,-0.1792339226880702,-0.11999351404469605,-0.02750374009442825
2.3000000000000003,-9.851697386511594,-0.4725593309856774,1.369798830812793,-0.18279115758528555,-0.1220834149033172,-0.03602165527432881
2.3025,-10.02912851364412,-0.4122597977938326,1.5441059310833942,-0.18210375348653934,-0.11897276769533746,-0.03447230555482488
2.305,-9.967958451941943,-0.4133345186178219,1.480585547164223,-0.1805478135360519,-0.11597643835061104,-0.026012521483529318
2.3075,-9.949003889649662,-0.3847104843639819,1.4788475471808322,-0.18600414656948064,-0.11728666255349134,-0.03214260276510741
2.31,-9.810277131551883,-0.5104555016693144,1.4079158368137026,-0.18564896973659148,-0.113608008060933,-0.029756050967946493
2.3125,-9.712648550614947,-0.5425120662251656,1.2051057814569537,-0.18279285619678334,-0.12094344843897824,-0.026437849574266793
2.315,-9.75711134593845,-0.3699150410850306,1.4543658929327246,-0.19138733383773235,-0.127365,-0.03872825138547585
2.3175,-9.760879,-0.341344,1.510043,-0.193339,-0.11930983985942532,-0.041081
2.32,-9.546289438440594,-0.38133119640241353,1.1464335558644736,-0.19168917396137,-0.11805711068373012,-0.03397440861476546
2.3225000000000002,-9.249460292308454,-0.4368640143647479,0.6123611774295854,-0.18913622494981605,-0.12150358286413843,-0.024880028944921855
2.325,-9.689921143295063,-0.3671444748403506,1.184774545338516,-0.18809766717752238,-0.11320205108556693,-0.03249979259259287
2.3275,-10.034245287938573,-0.405732144926176,1.7732960514589529,-0.18762558580035432,-0.102931,-0.03153877372711133
2.33,-10.070539,-0.560736,1.843615,-0.186467,-0.10446584880397825,-0.02642
2.3325,-9.723022756789858,-0.5072718765880551,1.2327876136055285,-0.18569841968790332,-0.11296574668543946,-0.029919695515663553
2.335,-9.53275718524936,-0.46899219557335264,0.8913700828103355,-0.18210038871496184,-0.11057951535493277,-0.029190650789952755
2.3375,-9.787548661089833,-0.4017220628655237,1.0933749774537682,-0.179641741484076,-0.1061084425022401,-0.02818211672232631
2.34,-9.945504357429714,-0.49467268042837037,1.4330078672556665,-0.1881916735207489,-0.09424027186077732,-0.028366521820615775
2.3425000000000002,-9.955761,-0.511717,1.472979,-0.189521,-0.0922479873978595,-0.028405
2.345,-9.779075537741,-0.45427735372400097,1.3117452206427036,-0.1890917085444234,-0.10152735492438672,-0.02866235011342158
2.3475,-9.803204960337004,-0.39107245925622597,1.3971601380382972,-0.18984317548682167,-0.108887,-0.03085402544229173
2.35,-9.987312748959985,-0.26017121865952425,1.417375615715843,-0.1897988594574869,-0.11548214102907224,-0.02879414852207743
2.3525,-9.690636170511908,-0.4704341876197253,1.0168510821325725,-0.18978593711724465,-0.116523,-0.02544131635763147
2.355,-9.535371831029543,-0.5496209317845931,0.8173942627867672,-0.19114160900909602,-0.11231316602108996,-0.029345994432906655
2.3575,-9.894142987524926,-0.4126793239697413,1.1694893997499498,-0.18576404587783785,-0.10762541667726733,-0.03255161634828383
2.36,-10.248218192972969,-0.46074480851350164,1.7509925527026804,-0.1861781335135131,-0.1048806010810812,-0.026622413918919365
2.3625000000000003,-10.143850396571596,-0.4724753904889785,1.4866623767753793,-0.18933421036416806,-0.11307313757800876,-0.030508078710799223
2.365,-10.048277514315881,-0.45293333766078003,1.250293167030249,-0.19073693200189162,-0.11278016425914208,-0.032914512540983695
2.3675,-9.765998194133548,-0.7924864884555372,1.2355540605489568,-0.18894009355182304,-0.1161623012044239,-0.02973915696845611
2.37,-9.69323936266011,-0.576349959666794,1.2569537168646738,-0.1890496334453093,-0.10818092386726717,-0.03848659761300051
2.3725,-9.89992658411672,-0.44132017725340683,1.2045823156105284,-0.18817099038376148,-0.10542298076752295,-0.03721229226768152
