time,acc_x_g,acc_y_g,acc_z_g,gyro_x_rad_s,gyro_y_rad_s,gyro_z_rad_s
0.0,0.298302,-0.920612,-0.039455,0.007789,-0.002596,-1.890017
0.0025,-7.6172165405343515,5.89066661740458,-1.0158905427480915,-0.004736954885496183,-0.000153,-0.0053095993129771
0.005,-7.5903011007544485,5.413456564298932,-0.7190752948327401,-0.06339198479715302,0.0138152608113879,-0.06207733412099645
0.0075,-7.989343139694657,5.223418445343511,-0.5111761729770994,-0.0970081882442748,0.022144,-0.18149547419847328
0.01,-8.812723784256368,6.020710526080526,-0.8614153549712407,-0.09934894123253903,0.00018292078882498324,-0.2770864185045193
0.0125,-9.360898492175574,6.003578566412215,-0.5703534122137395,-0.13132837404580153,-0.030225618511450364,-0.34561626908396953
0.015,-9.598960669513108,5.413214526441948,-0.7835450503370776,-0.1300499647940075,-0.05448185048689139,-0.34182989378277157
0.0175,-9.377997570078518,6.043878200142756,-1.0315913271948578,-0.09950300114204137,-0.10178006192719499,-0.37005260479657376
0.02,-9.074925454541985,6.2537548163740455,-0.7711047802671755,-0.10263598446564885,-0.14615,-0.38484915683206106
0.0225,-8.918606028331743,6.204224462612011,-0.6836666485796046,-0.103672099828408,-0.1358254793898952,-0.41337343481410865
0.025,-9.530778296153848,5.942334346153847,-0.06888535384615146,-0.1096618692307692,-0.18619420384615393,-0.4513919961538462
0.0275,-8.979624092676659,6.912999386638116,-0.6840488340328339,-0.16509434738044254,-0.18972049030692362,-0.5080461500642398
0.03,-7.989782981655634,6.4481624400662225,-0.5075910976158898,-0.19582579284768217,-0.16393939887417217,-0.5306236982119206
0.0325,-8.181994421526715,5.96911137854962,-0.6858223862977134,-0.2195753149236642,-0.17486,-0.6168609648091604
0.035,-8.95331854168529,6.413832999512687,-0.0011121367309613328,-0.2733131742131981,-0.23463806944162469,-0.5870277010355329
0.0375,-7.229192468094218,5.128968955460387,-1.5210641374732299,-0.30231268779443254,-0.21910384668094218,-0.6620567734475374
0.04,-8.172396130038166,6.1652942584351145,-0.5438800635114563,-0.32697181538167935,-0.2142607364885497,-0.6900195971755725
0.0425,-7.2860516515267175,4.9899418386641345,-1.5814695952671767,-0.3408705046183204,-0.20597820561068703,-0.7583525234351147
0.045,-8.232539246064984,4.7367113072202125,-1.0376933064981864,-0.399964,-0.23611438072202165,-0.745103
0.0475,-7.201675480571975,6.392220018989513,-1.0947617024213514,-0.395841,-0.18520126848427074,-0.83154
0.05,-7.1423122307692255,4.207684476923071,-2.359801723076931,-0.42778200000000005,-0.18133546153846147,-0.852262984615385
0.0525,-8.440059583664118,4.673323501679388,-0.1715521512977092,-0.4351548346564886,-0.1704306664122137,-0.8696424563358779
0.055,-8.035441425616161,4.8416385271649816,-0.7328059416565654,-0.4739797965252525,-0.16127632767676767,-0.8715186053602694
0.0575,-8.378345320838898,4.4153746825548055,-0.2853380032030449,-0.5015295397140134,-0.15209491630123936,-0.9091986094947567
0.06,-8.312233368571428,4.745901884526166,-0.23483158234795454,-0.4858938512588402,-0.11832232362093345,-0.9587537744554456
0.0625,-8.87586989436117,4.611952256245539,-0.11755729264810849,-0.5009823211991434,-0.16320988151320484,-0.9828734682369736
0.065,-9.383118479352465,2.911421395761591,0.34016747449595064,-0.47907220400294337,-0.09168552644591617,-0.9736761055776307
0.0675,-9.254146784022886,3.525498898798856,0.31002475081031383,-0.4752392738226881,-0.07248807542421364,-0.9613039515729263
0.07,-9.66575484864711,2.4367865933571973,1.1562105990264884,-0.4918923428203289,-0.085674,-0.963801311181102
0.0725,-9.077490369837943,1.5592678482745426,0.25780282619638545,-0.46106876160152555,-0.07295918734032492,-0.9262832296663488
0.075,-9.181905837375744,1.6455720604373856,0.0264790477137119,-0.44310666361829026,-0.06982407912524836,-0.881738325049702
0.0775,-10.315915588592057,1.684392173068592,1.0376811584115526,-0.4192439846570397,-0.01929068267148015,-0.8880263289891697
0.08,-8.908779559117002,2.372908770551876,0.2552885739955937,-0.3707260295364238,-0.06326865086092723,-0.8664767375275937
0.0825,-8.24415023870352,0.7137574642135214,-0.24987412415635402,-0.3394154939942801,-0.022699213612964904,-0.7742881612583409
0.085,-8.651170964907966,1.117492769631908,-0.2931759714110699,-0.30190885601226986,0.016035,-0.7971548027607365
0.08750000000000001,-8.666757816845102,1.6505657897216213,-0.4547783303355004,-0.2685607957173451,-0.03472465267665973,-0.7574817243397571
0.09,-9.094589298646314,-0.9922898594089621,0.339569091935159,-0.1855167969494758,0.024338700171591926,-0.6993463607626308
0.0925,-9.252215508560534,0.291792985319354,0.6331397486749306,-0.17159114017159202,0.030751044957101924,-0.6150503885224022
0.095,-10.03966737956122,-0.01003199937721097,1.1168049716065154,-0.11825577800424628,0.016188,-0.617191503014862
0.0975,-9.003599557251896,0.09402065984732819,-0.2857904757252072,-0.06263985007633568,0.078802,-0.5570572760305342
0.1,-7.9308103204819105,-0.2601097069879515,-1.0787912592771263,-0.032114630843373626,0.09149778843373496,-0.5339069455421689
0.10250000000000001,-9.084490828789338,0.6277410608961136,0.9376223506196484,0.013170960343183881,0.09725852518589104,-0.4934615450142991
0.105,-8.326243775342467,0.25985396018263585,0.4532352500913184,0.00853679260273994,0.13367155570776237,-0.4470405812328766
0.1075,-9.398369856984738,-0.194562481717553,0.7697815562213753,0.01736722183206107,0.17370845141221383,-0.38082658576335887
0.11,-8.465235312139374,0.49905297967944273,-0.1858469964320556,0.0020314573379790887,0.15447109126132405,-0.3381496468292683
0.1125,-9.076780003050523,0.2311308934223053,0.5926892873212622,-0.049785334413727275,0.16064513746425169,-0.2945286617731172
0.115,-9.354875050508472,0.8463038155932197,0.7074869318643993,-0.07351657220338995,0.1420223928813557,-0.23569435796610133
0.11750000000000001,-9.693327,0.163797,0.187709,-0.093921,0.1330424644576872,-0.143859
0.12,-10.153071212307694,0.28209208639053474,-0.49988466319526215,-0.05756266792899422,0.09073408544378718,-0.06450958272189374
0.1225,-10.691486107175574,0.2542024067175582,-0.0130802116030517,-0.020398734961832036,0.028002641832061127,-0.010072345038167983
0.125,-9.88986293814433,0.03517584407216495,0.40742007474226805,-0.0060735502577319595,-0.027895747422680413,0.002266664948453608
0.1275,-9.83962175351145,0.09022078160305383,0.38962463213740334,-0.008086309923664138,-0.019680263053435072,-0.0009245944274809009
0.13,-9.629338518769238,0.0071342280615385644,0.26728907175385586,-0.007931262030769257,-0.004698739446153938,-0.003754624984615284
0.1325,-9.93199651413588,-0.06467712543504323,0.3012888049582894,-0.005726791084624598,0.001129747508939066,-0.0006797141358759921
0.135,-9.816302169713019,-0.020672017660046386,0.08667722657836274,-0.006233722207505538,0.0015981070640177166,0.0017511070640177167
0.1375,-9.948479107875883,-0.021858029594270016,0.27265712267301845,-0.007158570644391468,-0.006563041527446445,-0.00123339904534596
0.14,-9.973758405386572,-0.015435776065766797,0.4822224785124307,-0.01005713002153064,-0.009642898641612831,-0.001222
0.14250000000000002,-10.029926545649587,-0.051770550464832504,0.48507076872466737,-0.009248370107270608,-0.0054126298927293925,-0.0019405797377829445
0.145,-9.857524984107327,-0.021174683302371978,0.24283156412796236,-0.007949297997935964,-0.004581,-0.0018262731062951894
0.1475,-9.987217381120377,0.0023561133253872267,0.4221391675327751,-0.007943976114421943,-0.0062773394517283134,-0.0009100574970202385
0.15,-9.841277946303503,-0.04391929805447514,0.26413827003891305,-0.008385948638132313,-0.004216422568093362,0.0001863673151750512
0.1525,-10.05419488,-0.050430519999999625,0.45260638000000103,-0.008200980000000038,-0.008066560000000047,-0.0003235800000000102
0.155,-9.92425021620513,0.02780590441025651,0.3224910143589747,-0.008870930529914535,-0.006045299692307693,-0.0005346308376068412
0.1575,-9.928152410393325,-0.010292220214541419,0.35524394226460093,-0.0074467093682956,-0.006206676138259828,-0.0011964249344457543
0.16,-10.003586,-0.066356,0.402319,-0.007178,-0.006077481430274115,0.000611
0.1625,-9.905563186174016,-0.04312429296781953,0.3020932917759215,-0.008522007389749724,-0.006872,0.0006819435041714973
0.165,-9.584199329944504,0.12497334810210112,0.3576922108324111,-0.0041041398446167885,0.009784900421753878,0.008990629655938867
0.1675,-9.943787359189518,-0.2509399451728377,0.3232025551847571,-0.0074777891775924706,0.005702185411203722,0.010695892348032823
0.17,-9.93124127726425,-0.08907310109846697,0.23766630694300714,-0.01117384186528499,0.005665485056994389,0.007610375502590755
0.17250000000000001,-10.070969888820018,-0.046768937592375666,0.33418519246722106,-0.0069477346364720674,0.005530447580452954,0.0001962870560191144
0.17500000000000002,-9.962337,-0.037064,0.200861,-0.010079,-0.0024470275496688175,0.002138
0.1775,-9.999413639542418,0.006592958322211078,0.3769015735367005,-0.0072147158436605754,-0.00733,-0.0008933734985700559
0.18,-9.899922262311998,-0.03138175032367954,0.25831628181065974,-0.010629882803601848,-0.004392868941348253,0.001840475930883431
0.1825,-9.870365995382176,-0.09057081425943544,0.2260837992641926,-0.010935070510624801,-0.006713116143355532,0.0004349447002854427
0.185,-9.907145139460832,-0.09554099133523627,0.3652487573866158,-0.011443062848081192,-0.008363467681573103,0.0003077387630827784
0.1875,-9.9725,-0.034672,0.395744,-0.008094,-0.005219297966283115,-0.002291
0.19,-9.93991410404884,-0.012708044236060183,0.33849303738217323,-0.008783959312983316,-0.004734,-0.0016471182840862826
0.1925,-9.879674243542775,0.021510954552923955,0.23090250911068172,-0.010104377061382307,-0.004734,0.00047828679072016076
0.195,-9.95231476847216,-0.05704000531634062,0.36894847503262057,-0.00873457299954483,-0.005162738810499169,0.002024763999393108
0.1975,-9.994922773669064,-0.10284308273381286,0.4700425269064744,-0.007681833237410069,-0.006109,0.00020150604316545293
0.2,-9.941377906337305,-0.06363137024702048,0.3387437044590002,-0.007178,-0.0046288225396574675,-0.002443
0.2025,-9.853405254788731,0.002455063028169502,0.2206510432394368,-0.007780876830985936,-0.001888468802816924,-0.002189255563380273
0.20500000000000002,-9.861368875343983,0.040815608635761336,0.2980044150775233,-0.00992961670744059,-0.00427961670744059,-0.0007239469700038879
0.20750000000000002,-9.93360287466435,-0.0019238682514614094,0.4146254301974409,-0.009598801829094929,-0.003971,0.0002607487442742045
0.21,-9.950434581503712,-0.050439762233454276,0.3859117391154637,-0.009472098205654715,-0.003971,8.169625651556587e-06
0.2125,-9.819158661626576,0.003762984650630093,0.21716010299459998,-0.009451567730322371,-0.002476725887743409,0.0001740750450008179
0.215,-9.776591040274914,-0.032138431890034305,0.18484831334315172,-0.008403163318605794,-0.0045726767697594475,0.00030448214040255256
0.2175,-9.943521748387719,-0.05598806945695365,0.45759720768693557,-0.00637667352679109,-0.006462140686333534,-0.001408144438290186
0.22,-9.985549444491678,-0.019868523500820474,0.42898066806282714,-0.006010171724622959,-0.003284324401031489,-0.0011315921325310608
0.2225,-9.849799475730007,0.03515551213499637,0.2607898325898751,-0.0062413746001467405,-0.0014067972853998687,0.0012482113426265638
0.225,-9.777225794622462,0.015934602236674922,0.23395048864213236,-0.008756008899111675,-0.008094,0.002647208978426392
0.2275,-9.898889784216868,-0.06016480867469884,0.4034436562650608,-0.009247811204819283,-0.006853058433734921,0.0005837683132530021
0.23,-10.014308284121581,-0.05256797907374462,0.4792473670781471,-0.010909768456523583,-0.0016309996782660104,-0.0012009038625010546
0.2325,-9.9240453443084,-0.00718943238199524,0.346982291087503,-0.011759,0.0010684107414302957,-0.000458
0.23500000000000001,-9.777063832214356,0.012949323134856753,0.22489917376890933,-0.011535991332475053,0.0009468267299645864,-0.0003241363437399399
0.23750000000000002,-9.834730619103603,0.00016127031594377096,0.32291014959588693,-0.010363675606171907,-0.0010586564290962777,-6.312894930198645e-05
0.24,-9.972168764457358,-0.03624462259776975,0.46102320306894934,-0.0077007298979111065,-0.0024461548672844438,-0.0006416300643945312
0.2425,-9.949076080443106,-0.03313285068753769,0.40335068527874834,-0.007890536722456341,2.798440939192487e-05,-0.0012446021432871784
0.245,-9.80312732933154,-0.01498966253935608,0.24479342178308686,-0.010680153098647258,0.002309241354323232,-0.000954247037417925
0.2475,-9.799190241157845,-0.006542849201323255,0.2538822835160678,-0.010254202490548208,0.003005254820415881,-0.0008581413846880934
0.25,-9.932989362203472,-0.016148085973571084,0.44619304943480337,-0.006927508199331317,0.0012630779334500877,0.0007912540996656585
0.2525,-9.99494512706074,-0.04592925143588551,0.4887096947730974,-0.0061127198510588805,0.0005513850034908088,0.0002453439702117761
0.255,-9.939338060029723,-0.05008299779116149,0.3550546507532262,-0.007681315970277668,0.0021764935721548724,-0.0002981776018772045
0.2575,-9.838985310136573,-0.03081158896880076,0.2279666898634256,-0.007227918451321894,0.003944699491291821,-0.0024184878686881305
0.26,-9.858962508113088,-0.0033227060578145534,0.24544613942820864,-0.008943536817026691,0.004906456067344349,-0.0019452262547649342
0.2625,-9.89558033344652,-0.020129661848168837,0.3200945438273107,-0.010132703468348278,0.005459373756973073,-0.002540070288624778
0.265,-9.951326360294283,-0.02621053794809608,0.41993094918910234,-0.007673394731991256,0.004293724149082377,-0.00033847608375777013
0.2675,-9.928495364315124,-0.013220760381828718,0.3343959577872331,-0.009555336653248977,0.006392293101782628,-0.0017755346612995904
0.27,-9.851508600208712,-0.014447918883381025,0.2620387648525964,-0.008692114343856005,0.006254557171928003,0.0005873669188625425
0.2725,-9.851510724582823,-0.029618566597866137,0.29988546732901905,-0.007590105083085525,0.004496510008745832,0.0001463083925135523
0.275,-9.856716151730662,-0.044781043081290044,0.3238304058345817,-0.007325488780257048,0.0032691240558227527,-0.00110541553260272
0.2775,-9.866670896405797,-0.05308330542028958,0.31513863884057913,-0.008514806637681168,0.003604034144927572,-0.0035336151884058087
0.28,-9.867546587962403,-0.013100229383462805,0.2819272973458659,-0.008229355462800679,0.005175355462800678,-0.0035870721746056834
0.28250000000000003,-9.900252743277292,0.03624317073123637,0.2985998305397804,-0.006309233735017288,0.0037583315002815824,-0.001712442941034491
0.28500000000000003,-9.977907763095487,0.031200626022041607,0.37020430281715155,-0.005665630253398753,0.006205374357654282,-3.8061668409600496e-05
0.28750000000000003,-9.98268044929879,-0.051425857665797645,0.3678474981697194,-0.0093535658664131,0.004161565866413101,0.001164195816496265
0.29,-10.054307239655543,-0.07645430294940815,0.4221795702045208,-0.008936189192680303,0.005227203702906337,0.00015689278794402738
0.2925,-10.077449611193222,-0.04334118184984758,0.42659272555424854,-0.008248574714050388,0.0068891493245469455,-0.0005078913532595705
0.295,-10.016243340443095,0.004126852032312276,0.3293640020219157,-0.00639264863472766,0.007010149055426706,-0.002669094959609687
0.2975,-9.870817322144221,-0.00529409852913069,0.19268129138490972,-0.007532225649474675,0.004874021934097454,-0.0030725225167144354
0.3,-9.833287007285245,-0.023532432055079662,0.18004894195820945,-0.009606705884236646,0.00043903146265311763,-0.0009938276358978527
0.3025,-9.98113110207892,-0.01369941052935532,0.3414269440808456,-0.008792475495668941,0.0019630490086621198,-0.00027923443695860586
0.305,-10.056928384391515,-0.008284334210214465,0.40414933862779956,-0.006352958549591187,0.005492059717976062,-0.00046394028202393755
0.3075,-10.026735531513324,-0.02791632434101035,0.3516264025997833,-0.006056676068973828,0.005803,-0.0003624749403111037
0.31,-9.876947387009615,-0.09299261954807689,0.16860420176923094,-0.01019303097115384,0.003851764086538466,-0.0009186024711538465
0.3125,-9.96345133453301,-0.05468604389639507,0.28750522337601037,-0.009856546285916572,0.001471875154876394,-0.0019483440910968196
0.315,-10.033492501484687,-0.006625692922879536,0.3729021662722463,-0.009233870713484046,0.0009193528555395244,-0.0029346589257655932
0.3175,-10.03536827405969,0.03991078461464696,0.35740539387750175,-0.0075004360110272,0.0033691685484837633,-0.002910234491190212
0.32,-9.901125799632103,0.022368392503733972,0.2189758998160521,-0.005567139878940342,0.004689772024211932,-0.00016231943400675844
0.3225,-9.855879919865677,0.0016910455073155563,0.19621888144878896,-0.008389981098584808,0.0032136944878867627,0.000183784255217073
0.325,-9.999490024369143,-0.06820684162460958,0.28863450314828215,-0.009078514395577964,-6.45870704157609e-05,-0.0009114493631338638
0.3275,-10.089766100262372,-0.08291133685615634,0.3792006657859609,-0.005430819424626018,0.0010480419746835522,-0.001506041974683552
0.33,-10.0538858,-0.016843726152415542,0.33076769572490616,-0.0053647804460966305,0.0033393326301115476,-0.005829275037174779
0.3325,-10.042731869906774,0.0029567663393413064,0.31714913879428214,-0.005484080024860164,0.003512,-0.0051662974518334286
0.335,-10.036138729613233,0.017341161684754143,0.30995643981832954,-0.005790376308266006,0.003512,-0.004018313018119224
0.3375,-10.018007976918803,0.007045294388443297,0.3102694448607034,-0.005990704881339819,0.003751953662989112,0.0006362528454639179
0.34,-10.051841385563932,-0.018825794555123676,0.3311660606302089,-0.00942215090721489,0.0022264041685847937,-0.000253442958965006
0.3425,-10.045947547741502,-0.08780828724439098,0.40533511117022725,-0.005956,-0.00140918421604193,-0.00186718421604193
0.34500000000000003,-10.01608793953465,-0.09627964982737021,0.3830643771628709,-0.005094920230172599,-0.002138,-0.0024237276557418
0.34750000000000003,-9.9291451385994,-0.05206901403252423,0.2715858946697629,-0.0032188605243943136,-0.0021062516959840668,-0.0023336088284102463
0.35000000000000003,-9.884858160920409,0.05561238591726501,0.22006802293474287,-0.003791089173896616,0.00031139542311087263,-0.003409752118697336
0.3525,-9.954092972666983,0.05194552387494135,0.3104732137280903,-0.0007131335386073266,0.0008294251160587784,-0.0015714879109427022
0.355,-10.023088008494735,-0.02515973770844818,0.372093612647082,0.0014328879562910842,-0.00211320475730462,0.000552821053131673
0.3575,-10.039872809643997,-0.10653573024306386,0.37258264032408595,0.00019964886815616124,-0.00168,0.0004646390866683487
0.36,-9.995216,-0.13032,0.321616,-0.000916,-0.0012401291193252359,-0.004123
0.3625,-9.918610018708659,-0.01179628381431888,0.2572953133758711,-0.0019315134344084716,-0.002052544915998357,-0.005138513434408472
0.365,-9.954616017457738,0.14454998335016386,0.317000830805707,-0.004221024281009863,-0.002596,-0.0024276976772777507
0.3675,-9.973696,0.162004,0.33955,-0.004581,-0.0016079738447488613,-0.00168
0.37,-9.943208883328495,0.10228552615384645,0.3115741023318821,-0.0049019896468311544,-0.0005038132946299004,-0.0006720325108853461
0.3725,-9.862831445738758,-0.08838803863906708,0.24372779806804665,-0.007224290411610746,-0.000394109540804183,0.0012211057435165382
0.375,-9.89048397970789,-0.15315122746318688,0.29877078780079014,-0.009316,-0.0010835849395426792,-0.0007197292589488807
0.3775,-9.9415121453278,-0.12404834270539407,0.36318784165975104,-0.009011697095435683,-0.000611,-0.002408442290456433
0.38,-9.975370231792281,-0.020255922140320348,0.3576983832436271,-0.007185692497829687,-0.0014136108373451225,-0.004398818341093841
0.3825,-9.969031919306556,0.02409295726040796,0.31665304273959205,-0.0058854419435966365,-0.0028840612184104454,-0.006332346570626291
0.385,-9.888681020405645,0.048786127306369165,0.2822517018953862,-0.0053606623271260645,-0.0017530799573004395,-0.0030633445949472017
0.3875,-9.871583169444014,-0.0018501674152085132,0.3090389903515566,-0.0029913066129781617,-0.000897700727892203,-0.0005655584481957527
0.39,-9.93662140879545,-0.06913151639871437,0.34578939813010173,-0.001369087529062556,0.00029035867425179535,-0.0009660290972050606
0.3925,-9.966069469367937,-0.07870615562279498,0.3746275828403996,-0.0007607437373676943,-0.001262305311247992,-0.003097561573880298
0.395,-9.986305840211312,-0.07711931100683644,0.4000427505624613,-0.0006870504288377919,-0.0026570609602237488,-0.004062639235550024
0.3975,-9.99789464151535,-0.049897213027432205,0.410624414239059,-0.0012036015251469618,-0.0031631504866100387,-0.0035008945917701017
0.4,-9.999942480992816,0.05450749939582067,0.3548396231221419,-0.0010726151371652504,-0.000679545836054844,-0.005593252318745936
0.4025,-9.84177151493989,0.06193259493058183,0.24849744416660208,-0.002598731417048002,0.001840194251144006,-0.0026274327712712
0.405,-9.804821267977973,-0.005160653883503397,0.25433199332040646,-0.0017293234096021003,-0.0007680297711936991,0.000725765745753545
0.40750000000000003,-10.000183293370787,-0.11394684028089899,0.4316807515168551,-0.005221427514044913,-0.00017952990168533035,2.8628342696598852e-05
0.41000000000000003,-9.996244173730908,-0.11883282594424238,0.44211276256484644,-0.004663380736969738,0.00336,-0.0033048788606061183
0.41250000000000003,-9.91272,-0.117169,0.371234,-0.006109,0.001133573589350872,-0.005345
0.41500000000000004,-9.846989678024988,0.010892543306105257,0.3111696356655443,-0.004878176746756344,7.974233541563802e-06,-0.004331715396443998
0.4175,-9.796870232288754,0.14118524896856752,0.2835119191585976,-0.003669778281343366,-0.00012140304051631546,-0.002008587216445612
0.42,-9.903751564766855,0.05886410327121552,0.44021014395904967,-0.0041350914628489185,-0.00014090853715108137,0.002736908537151081
0.4225,-9.9406566886286,-0.0719488623133221,0.41976286758418846,-0.0027269430551488867,-0.0015490569448511136,0.0022361537140068574
0.425,-9.933045,-0.131516,0.375418,-0.001374,-0.0027525786070834333,0.001222
0.4275,-9.834756248504227,-0.11923006662708405,0.23361596123316106,-0.0011778977666133859,-0.0008306517287052187,-0.0006088584060287376
0.43,-9.730983638267606,-0.04918693758843829,0.08502659370141202,-0.0005130122949038884,0.001527,-0.0036296428678033324
0.4325,-9.767102631717753,0.021274616065743976,0.13861277438057895,1.640146035044546e-05,0.001527,-0.0043858774835875865
0.435,-9.954360622528291,0.03027416820611622,0.4136802354346255,-0.0018523535949915688,0.009621,0.00016612578858655677
0.4375,-9.91985086494771,-0.02532936620988099,0.3622278306887847,-0.001892500901550667,0.009714107645149657,0.0003648923548503426
0.44,-9.880663452434515,-0.0693447795044443,0.31750632080862107,-0.0016895643955006682,0.00953525315503815,0.00011437751907496219
0.4425,-9.873080323927097,-0.10629842920048614,0.32117808566707196,-0.0017629773608748523,0.00784391628675576,-0.001665360301336588
0.445,-9.94600866327234,-0.07549973458887818,0.3753139422172054,-0.0011862948265209086,0.0058930864044676795,-0.0049113253659695865
0.4475,-9.979619695169836,-0.002823435989886273,0.38957911626250397,0.0004457691150928971,0.00615176875893153,-0.005879115976695603
0.45,-9.935713540250507,0.0909308739675016,0.3635806729519296,0.001719443263371691,0.010368428232904557,-0.0023179118821936157
0.4525,-9.875124703424152,0.05924848586793528,0.33599578151576365,0.000153,0.013743942567519311,0.0016065675954788886
0.455,-9.835031330122385,-0.04601291386831996,0.24386446514639817,0.000338018940356316,0.009932216796281935,0.0017955851154143965
0.4575,-9.88255871518192,-0.1710138509623748,0.271772381731033,0.000848461274059361,0.007792814280392416,-3.2845096237444e-05
0.46,-9.946033873124286,-0.16590281489585604,0.37748813644007034,0.0015869715907530406,0.008797729497215221,-0.002394442716105916
0.4625,-9.97224613605985,-0.019423873566083178,0.38307223144638336,0.0019245216708229053,0.008755820947630982,-0.004354954763092264
0.465,-9.93897208744274,0.0993307470257464,0.3050563106555038,0.00018892122255570422,0.012708821690096343,-0.002745603329647731
0.4675,-9.865405347411492,0.041782785011489784,0.258102759613795,0.0019420048551723784,0.01078407136551715,0.0007097828137931427
0.47000000000000003,-9.843375,-0.068747,0.303682,0.001069,0.007702208196071351,0.00168
0.47250000000000003,-9.889919698289829,-0.06495847804617674,0.31829487039331833,0.0006541692493328347,0.006664592662721889,0.0010439020396797241
0.47500000000000003,-9.940227140586412,-0.05625586239711969,0.3164047072016433,0.0010664594650206696,0.007087491152263402,-0.001563250925925915
0.47750000000000004,-9.838686133262604,0.0419119485779011,0.21439794454166033,0.0036553244057694933,0.00736024304446299,-0.0029873344284181884
0.48,-9.791366230180662,0.1105302780305497,0.19198356608513528,0.0036449380941304486,0.008543801101031227,-0.002733350475304359
0.4825,-9.80633498992578,0.0939275878871856,0.2742416155368637,-0.00025283992083126674,0.010165950123701186,0.0009376101533893799
0.485,-9.797028726597395,-0.07149249663862688,0.14500717450107278,-0.0010449359261091827,0.0023747001154544364,0.005956524143163424
0.4875,-9.992067147498808,-0.11760932029537902,0.289451844163886,0.001921198666031462,0.002949316579323371,0.0003867583611244143
0.49,-9.968985645777858,-0.06678300925261867,0.2732388529214751,0.0010603891212497775,0.008514664533996097,-0.003720029083377713
0.4925,-9.90089191594896,-0.014625713005376963,0.1688953485595055,0.0016045085370355442,0.007789,-0.0037213284616001998
0.495,-9.829459832257443,0.05579995314661731,0.22724821166840534,0.0041744075050156445,0.007789,-0.001022682099349977
0.4975,-10.069495905825855,0.13124544751879708,0.41829443372301717,-2.9413257336890442e-05,0.009961745956827549,-0.0006694275284986702
0.5,-10.132149046695401,0.008309813218390805,0.43690383979885056,-0.00047938290229885064,0.012208782327586208,0.002291
0.5025000000000001,-9.99049173868772,-0.1058294924538377,0.31425079860178284,-0.0016329602369063384,0.010926681867378904,0.0018798327302287214
0.505,-9.892008532083935,-0.06608381087938477,0.1889893544513857,-0.002446554547493189,0.00846847261252602,-0.0002764654172673424
0.5075000000000001,-10.006000994524086,-0.011080367964971007,0.2959657331919847,-2.7762719520535136e-05,0.004785343120534718,-0.0010383244065451862
0.51,-10.033608880177264,-0.03810692730964435,0.4015423418129076,0.0019315220143421102,0.006119761756506329,0.0016372837708484404
0.5125,-9.999999,0.039455,0.326997,0.000611,0.007865598657557168,0.001527
0.515,-9.928933978173392,-0.015075136163005216,0.2624402372289243,0.0003861917027566886,0.008659224674390707,0.0019763223427886603
0.5175,-9.76183341467118,-0.14012794631528103,0.12050797072533719,0.0005491413394583428,0.004887,0.0027793793907156953
0.52,-9.845501854591756,-0.07927155445169431,0.2553196064364173,0.0025140185484640934,0.006578962903071813,0.0001760671685500266
0.5225,-9.99574356111409,0.015438610851881276,0.42320194088801,0.00042025935904907777,0.010098680806432841,-0.002475688721594281
0.525,-9.804686899483391,0.08832700000000093,0.15270006066420166,0.0034392722755228495,0.007901157785977832,-0.0005268586961869829
0.5275,-9.78548624955877,0.08627810370680386,0.0990992553772574,0.0022484862752600943,0.00732709380365898,0.0007741139997608335
0.53,-9.792132625020797,0.0367206317664587,0.12852285218237613,0.001036340004708462,0.00799948707839601,0.002840147073687548
0.5325,-9.825063568422738,-0.07618732702001546,0.2572693657774212,0.000611,0.009422491298638968,0.005300568313851095
0.535,-9.911888011913533,-0.12838189747317919,0.3285347548182555,0.000611,0.004166178779823794,0.004018602299439535
0.5375,-9.86774671737174,-0.09463339279928143,0.28285524500450226,0.0012495215121511895,0.010416931413141328,-0.0018356869486948935
0.54,-9.728062836884654,0.006446319881695079,0.1331409917186981,0.0027849598816956766,0.008303048439040376,0.0005066139730529307
0.5425,-9.776267867986029,-0.04250116077299129,0.18098865777880896,0.0015606508591385385,0.004606743850989569,0.0017136508591385385
0.545,-9.991236787965716,-0.09378009083274354,0.5018646925910193,0.0017555219973264457,0.00240812346622641,6.309016906497667e-05
0.5475,-10.026837580574414,-0.0724410784856405,0.4301450006266334,0.0038040356657963324,0.008226814516971262,-0.0025613713838120245
0.55,-9.877433204245166,0.039452249115590754,0.24853601033319705,0.00461837628959272,0.010537,-0.0010632144631838912
0.5525,-9.848217016036395,0.06477941081331304,0.30550390234495933,0.002326583219730235,0.009882212495809735,-0.0017484889807646278
0.555,-9.978798999875492,0.08779301353340295,0.410569058293561,-0.0002293678569718757,0.005920237251177191,-0.0012371313815946903
0.5575,-10.133053640851267,0.044486556164515294,0.4721545011860362,0.001069,0.0045518893065518715,-0.001833
0.56,-9.77504314855903,-0.04188138711325268,0.03052458654456902,0.005419824298795303,0.0020949520385540763,0.0033876093397591837
0.5625,-9.846728180643222,-0.08140464875262998,0.16437183528704538,0.004449132732191163,0.001833,0.0013544616170724374
0.5650000000000001,-9.93076263256169,-0.09210830926441875,0.28891904062271506,0.0039909971541994445,0.003835336122051965,-0.0001063418479022311
0.5675,-9.968582529688614,-0.056676440128,0.3194039788849227,0.0048217398350769245,0.008340570633846153,0.00014636077292307868
0.5700000000000001,-9.844088387804312,-0.05203049264085296,0.16341336397866676,0.004591041595177331,0.008140320723394392,0.00011672087178293854
0.5725,-9.828857788926396,-0.019260964350679203,0.12602525991561295,0.004360111673699045,0.009295096146272882,-0.0003259038537271181
0.5750000000000001,-9.812724256614135,0.02976910169532013,0.2349278845152826,0.006637177972779372,0.010530418338108855,0.0018198972659980949
0.5775,-9.789866738543493,0.03527,0.25827428784421,0.0061101765703709425,0.010039070121509633,0.0019327554936831072
0.58,-9.77876923186288,0.03527,0.2275046954920742,0.0015992831157963221,0.013131555065582955,0.001546300349239565
0.5825,-10.022226948119133,0.03787701004208399,0.34312796574296023,0.0034919074393007293,0.01237,0.0023849693752023204
0.585,-10.071436867601165,-0.07779137796697796,0.5369218851213957,0.0012888455292975384,0.01237,0.0009592590482356955
0.5875,-10.030199339036143,-0.06844596219277035,0.4709097187228875,0.0011308083373493924,0.012275004337349436,-0.0001177709879518655
0.59,-9.898303226311713,-0.09115127835430531,0.19394835496611768,0.004736126660212838,0.01042629396902242,0.0002637060309775806
0.5925,-9.991144411640844,-0.1216711447145229,0.30920521632219977,0.007031097406301846,0.010079,0.0012011336479507292
0.595,-10.083513498806916,-0.14721357170338756,0.42682111203600914,0.009079559310116064,0.010079,0.0018082693371238977
0.5975,-10.16245618851547,-0.03889740632437831,0.5270114576674578,0.008424768516831015,0.011732842584155075,-0.0005604629663379695
0.6,-10.06502773759092,0.022470376356805957,0.3658896976420762,0.009161647574134749,0.011626793861402003,0.0010502595156262227
0.6025,-9.958360102975465,0.03953245510951631,0.273915203657692,0.008538023755834682,0.007466692682226158,0.002602466010771914
0.605,-10.057401372283119,0.09616625562480408,0.4146636648293131,0.0020771670466645767,0.0054077645881615965,-0.0005482354118384037
0.6075,-10.115622275392367,0.09056550943124239,0.5254799560211172,0.0026627242380609954,0.006261,0.0007913314086873572
0.61,-9.968796310960562,-0.036164949847568344,0.35766167087345935,0.004276,0.006398431241229129,0.002902
0.6125,-9.810119146815854,-0.035698443494821784,0.06516505223187623,0.004766651970003622,0.006785320319009649,0.002673057635995691
0.615,-9.78443746789782,-0.08289333789860114,0.07907693802671623,0.006937767840012495,0.007025,0.0023888483493477016
0.6175,-9.843379224354566,-0.21667801162509132,0.19014781507386824,0.007527799951562088,0.007547210133204234,0.0038101322450956837
0.62,-9.908760755656209,-0.19495061131398933,0.2411574180042461,0.008009673948258229,0.009774,0.002331785877172299
0.6225,-9.955887029058404,-0.0843610210603619,0.26972558123667634,0.01117368801763185,0.010095979086567942,-0.002420444736133194
0.625,-9.874689371627367,0.042718262466177034,0.08600652686509472,0.010126480943177425,0.011316476072671049,-0.0008086147661383842
0.6275000000000001,-9.84906422170279,0.12322558891629565,0.21904778443779557,0.012625665807687564,0.011468125551431046,0.001117025941803359
0.63,-9.85055,0.071736,0.324008,0.008705,0.014046650450507615,0.000611
0.6325000000000001,-9.906487182790597,0.058574249222721655,0.3567068267173817,0.0070764229807460804,0.014760709398621336,0.001766897504159942
0.635,-9.854342797435528,-0.027178317373448238,0.3060185448949374,0.002843824632282707,0.015928380487106025,0.003688744957020056
0.6375000000000001,-9.818429926197183,-0.0668168311657187,0.21616080076715385,0.004189147401857997,0.014774649961042817,0.003125018411747063
0.64,-9.831299740283475,-0.11186670926914277,0.1984248349608051,0.005675761247921457,0.013545121282761892,0.0032765301227333996
0.6425,-9.901959,-0.163797,0.292922,0.006872,0.012184074846273533,0.004581
0.645,-9.908436422602394,-0.14794489322621265,0.2874673583490862,0.007960647246376833,0.011233205614366757,0.003100576609955861
0.6475,-9.918511754422555,-0.09816032021705899,0.27210192166096514,0.010613828392119861,0.014812852745074876,-0.0002299756470449854
0.65,-9.848169627585124,-0.038524635556252684,0.2482377172916989,0.011133184371567574,0.016668483963596433,0.0017210360740624521
0.6525,-9.763252333151227,-0.015559329237645619,0.23220644337720098,0.012362015555003863,0.014882555401043263,0.0008224912639683282
0.655,-9.897067752453193,0.03504288108497442,0.31044507504560753,0.008618007786845884,0.011108905204032687,-0.002308055861737887
0.6575,-9.976630621881798,0.08046578729078183,0.3338090593096921,0.007918771328605191,0.013572898080378324,-0.0020410012671395585
0.66,-9.885409970479088,-0.016578746309885893,0.3516174456978043,0.009060787463547527,0.0099001698830316,0.002011830116968401
0.6625,-9.813167286478526,0.03151556770551993,0.30445306517791454,0.010604989742331275,0.01249212230674845,-0.00019509521472393335
0.665,-9.83158442414057,0.0945025239140942,0.2885807107629838,0.011742361533775874,0.01315428835611087,0.0019383675657946755
0.6675,-9.808095518731088,-0.07896730188384275,0.2622811110102521,0.0118986802635432,0.0109842906393363,0.005194248023426092
0.67,-9.850626430012328,-0.14194825289663582,0.20083059293772487,0.010900383849269222,0.007927428819627833,0.0028527060914479976
0.6725,-9.926435914419159,-0.10096924381270066,0.24925233790539786,0.010848436111044885,0.006508948561896796,0.0017106184582389946
0.675,-9.868567459026382,-0.15249569181169303,0.13183510793166747,0.01417166250701736,0.012102648520330564,0.0020068386077471308
0.6775,-9.685663090423173,-0.11905228592680983,-0.02609161485755134,0.012090927514602454,0.01909,-0.0021153198760281286
0.68,-9.730582146296475,0.13330521835704923,0.13167613571364156,0.010363287563102234,0.018842298687471302,-0.0007706274254243918
0.6825,-9.9081058684538,0.18956912010760227,0.3705455314666663,0.0110478261871345,0.019042608762573097,0.0006430439134502905
0.685,-9.994399393537602,0.16472489477305852,0.4941649131443534,0.011645648569555937,0.02015516931017539,0.0024396548812060425
0.6875,-9.907797924194721,-0.018216218575926375,0.3778666177040445,0.01072078590457738,0.022369673891983532,0.005651
0.6900000000000001,-9.845873475275916,-0.13773635160969483,0.1682981688008217,0.011105778668982465,0.018649533644904022,0.004795117644272461
0.6925,-9.896056337545588,-0.15225750336126173,0.23951796013799964,0.014232977703302126,0.015903413819615568,0.0024416569344504657
0.6950000000000001,-9.88183292962136,-0.09567459410726382,0.4292322750253702,0.01602219606214376,0.015392791418533957,0.0013234572441251998
0.6975,-9.864096919057815,0.0561489862241255,0.3184214608041869,0.013994262412562443,0.019857431115869628,0.0007406061384725271
0.7000000000000001,-9.797569088816209,-0.01187003020102459,0.18737470575941123,0.01124107217613272,0.021420491320995477,0.0029891538927888364
0.7025,-9.791980469988024,-0.12027958369021934,0.1576082382499011,0.010637213534530936,0.018527077486626707,0.004822379487425135
0.705,-9.983160362491015,-0.07773962976766535,0.3297697666874224,0.01025378215089821,0.011111280114970179,0.002137522615568905
0.7075,-10.069153762284076,0.052095939933195834,0.5061957334054378,0.013959838632097968,0.018665802328614606,-0.0011970602767615542
0.71,-9.839834677595041,0.10095054179735893,0.22901858599650465,0.012176909184030565,0.018920983063464288,0.0012221531604898652
0.7125,-9.629501901312707,0.038231927285512814,0.02116666090014558,0.012776835021097045,0.012722051429910836,0.000916
0.715,-9.8225381077596,0.019603568362394425,0.23785074019533714,0.013304980526095023,0.012458264634190145,0.0024554433219485627
0.7175,-9.946856747740345,-0.004638928118325447,0.31005865360723045,0.013791325949055033,0.016280947378800408,0.004612259326212023
0.72,-9.899654088284082,-0.1076260612223208,0.23955626019164317,0.01181021728963687,0.02139548746275867,0.004919178310653076
0.7225,-9.820060166207384,-0.08436093878203527,0.13569599741359062,0.010138965370326847,0.021307826174465035,0.0011620346296731532
0.725,-9.868753435070937,-0.030126799886501913,0.17185036875557289,0.011618754114308865,0.019939309055533004,6.725550060802825e-05
0.7275,-9.807966503013487,-0.014521221525344257,0.2307672013300259,0.013132441097504293,0.02279289687180281,1.8279259029623684e-05
0.73,-9.78756145136878,0.03114815622074065,0.19967320878313463,0.015118737597271727,0.022048442046194393,0.001135774221050992
0.7325,-9.839449834819083,0.11650522548052518,0.2693724926941703,0.015195089504494115,0.021991,0.0010713903664439166
0.735,-9.849922303351002,0.09880823988937552,0.34088361175385995,0.014641076948605673,0.021991,0.003285628117077656
0.7375,-9.838593,-0.013152,0.282162,0.01405,0.02194246097218317,0.006414
0.74,-9.871449414301782,-0.030978240475247346,0.2599662475912874,0.013022962971881198,0.020029153121584167,0.004628013889901008
0.7425,-9.948993263417767,-0.06861137260078415,0.2091091631537642,0.01118525691045317,0.01781153355690331,0.0006995269782376546
0.745,-9.89517981674463,-0.01679954270167078,0.20599448309307886,0.015835229479713595,0.016834572028639624,0.0021788743675417673
0.7475,-9.833480966590477,0.021850578311111216,0.19293543723174633,0.01587975909841261,0.017619565739682607,0.002041435073015881
0.75,-9.845422536444515,-0.0066417221788668615,0.217086599344467,0.013737992508194163,0.02008844232870298,0.003455761979085375
0.7525000000000001,-9.907925020745154,-0.0927022085704093,0.2924883207761051,0.01585906578740637,0.02091062773003211,0.005850459897631129
0.755,-10.01379266534921,-0.12043772409719987,0.45368036331831324,0.01834313377212745,0.02075286622787255,0.002416999079497906
0.7575000000000001,-9.911629510774446,-0.10947259541716471,0.2989957467544842,0.01625354041117763,0.02242706232734525,0.001527
0.76,-9.715919210588025,-0.047769946913314876,0.06245389455942783,0.01588553499910635,0.01968598540840034,0.000541662008936531
0.7625000000000001,-9.761843917028992,0.10891077057971255,0.042244867608704266,0.016160747826086844,0.016367252173913157,-0.0037025070289853734
0.765,-9.908354246455618,0.15387085947361862,0.2593787699764121,0.014898309879577928,0.021499149373060248,0.0003721448119180744
0.7675000000000001,-9.883841911160768,0.10484423622842816,0.2554877784630663,0.019868468995655014,0.02845711178150237,0.002459533534450711
0.77,-9.75365702167697,-0.11806900596587075,0.1158326264555988,0.014918193351471532,0.026604985545387018,0.005246751451892173
0.7725,-9.87550694125574,-0.1572999281894214,0.1493614898150539,0.013090481908351997,0.02001874245729777,-0.0006610357450817809
0.775,-9.954645697668587,-0.14120141729756766,0.2733897700676884,0.014783583003259023,0.02384145249435971,-0.0028920093757833507
0.7775,-9.805208280759977,-0.00863288681596358,0.14801213814413522,0.019381492202501432,0.029126374882668202,3.406101488978141e-05
0.78,-9.782637407354004,0.13059743509733393,0.20338515861572193,0.016376229416005587,0.031918,-5.072135544346079e-05
0.7825,-9.79316,0.137494,0.223577,0.015577,0.029750569243518436,-0.000305
0.785,-9.907682054712867,0.05837864193007147,0.3125181209302358,0.017784339262774958,0.02691113950324311,0.0020318493466224548
0.7875,-10.158715355043915,-0.15270964609541823,0.49471616634227666,0.02274539919297417,0.023724866935675278,0.006855202516021908
0.79,-9.932468396505659,-0.170626672775385,0.27219418869440404,0.019615249577554596,0.02512179370636061,0.0011026921472979253
0.7925,-9.845519552201802,-0.07662042644564564,0.244358423303303,0.01944724091291291,0.02559090574414417,-0.00013085920480479797
0.795,-9.890601,-0.077116,0.272597,0.0197,0.0221422243070294,-0.000764
0.7975,-9.890268804077506,-0.034917668879529754,0.259416992451559,0.01955863609098568,0.02239958837405214,-0.0004809016343723776
0.8,-9.895607520232302,0.10810481362423269,0.22517011756396288,0.019115197943807886,0.033598,0.0028571696280019886
0.8025,-9.937603702806681,-0.004035833190135018,0.3151839334192513,0.019707585126491643,0.03278207167859987,0.007870034561654735
0.805,-10.120619004610983,-0.06736748785998534,0.5480670739506808,0.0208537612792363,0.026921891567223435,0.007360344875099433
0.8075,-9.972543473059666,-0.19893120458233876,0.29818704129833085,0.018077437460620512,0.02672885557040572,0.003254466252983301
0.81,-9.726983237377283,-0.18292480729037955,0.011124529462389572,0.019583204924183386,0.027947,0.0003757384285285675
0.8125,-9.718859052475473,-0.042748832991102007,0.057227596167008885,0.019927185945699293,0.027423715947980834,-0.0017324312114989733
0.8150000000000001,-9.988303707344283,0.16781435455335655,0.40660837716803866,0.021743223326895225,0.028102245618058963,-0.0007814243626267168
0.8175,-10.128404952558776,0.18579238105911883,0.528526904254736,0.022654430878794804,0.030403509376854605,0.001492938269801428
0.8200000000000001,-10.076843595200902,0.09125970584798639,0.38765664763272284,0.024368944534452038,0.03219799623366147,0.007454098263676056
0.8225,-10.048936975779684,-0.10205344203624317,0.2664635781497369,0.02077392227944684,0.032158621158798265,0.009849018311874092
0.8250000000000001,-9.91480458611644,-0.27915351797824733,0.1475304551983387,0.023255040738963537,0.028255623800383912,0.005178504798464341
0.8275,-9.852834452686407,-0.2496020978951107,0.22464656927577623,0.02382924829111668,0.030091832964680723,-0.0005702493185872624
0.8300000000000001,-9.928548720456856,0.03917189337564143,0.3298527947588895,0.02564866344543143,0.03339314748096449,-0.004209642918781668
0.8325,-10.03875581409091,0.24960420852272722,0.5142913433522723,0.02423652914772726,0.03346074985795452,-0.001698977926136323
0.835,-10.084506408544438,0.1778583576493224,0.41491744206245273,0.02287938715132107,0.030307460285028027,0.004681320211368984
0.8375,-9.927400770117448,-0.024799494176051932,0.20844678614844162,0.022017039084634947,0.030058960915365054,0.010700228066351809
0.84,-9.835653981132428,-0.16257804303540707,0.034411905712057024,0.022706333068164074,0.030105090934331613,0.006419323375448469
0.8425,-9.845738245591651,-0.20717791384074005,0.11567767526680428,0.02401302256831241,0.030403766281224334,0.0036566968124779045
0.845,-10.005414018982718,-0.07721153420919194,0.3977421251306421,0.024220975850601987,0.029993303965926765,-0.0031662106937505132
0.8475,-10.059779,0.083692,0.33417,0.026573,0.031428613452136205,-0.003054
0.85,-10.01511221661327,0.08765566540595442,0.2678556820973685,0.02489833032742054,0.0335617959052903,-0.0010679595842776218
0.8525,-9.879296191490008,0.07957998962812746,0.08996614426511758,0.020116318563116638,0.034252502696686116,0.005598483238047188
0.855,-9.831979197904126,-0.07960101627647681,0.20362560374581945,0.021652121382385713,0.036031847580824984,0.009635573779264262
0.8575,-9.840518886500735,-0.1212633161932652,0.18484204568081836,0.02183178108345515,0.03536144831625198,0.004144273030746743
0.86,-9.88250739399881,-0.08750478150148747,0.12058206191076767,0.021279215157644242,0.03415627353718027,0.003379721389649028
0.8625,-9.87843546476598,-0.01309042285578127,0.09587516231884309,0.024294746162984104,0.030748165597529187,0.0018605037301021653
0.865,-9.822664116603416,0.11803379206831136,0.2194554158633773,0.026346467476280822,0.038173115578747585,0.004326449013282709
0.8675,-9.775986879727041,0.09075481416789172,0.13218525358197347,0.02728127337608096,0.04071455355491503,0.005531605153244325
0.87,-9.765156235292725,0.04867233799921164,0.08143170238320512,0.02736574955253302,0.040812877614823585,0.006058520555884093
0.8725,-9.797283214926079,-0.027319450875223375,0.13240173535777755,0.02602428331164988,0.03710369245416906,0.005900397031342397
0.875,-10.114390152561539,-0.06637180438375229,0.4502192832912934,0.02491945290075672,0.03159232782464991,0.0035350419239801685
0.8775000000000001,-9.962182410357444,-0.13155115371084242,0.3257979843901138,0.026101973954059773,0.03553555290013519,0.0010982930008597725
0.88,-9.766610384499838,0.0061791567886048445,0.033588002330851484,0.02779989120103593,0.03647901546131433,-0.0015127288442861795
0.8825000000000001,-9.760189967598198,0.0718923413568214,0.10989526809807926,0.02568351263032603,0.033445,-0.002014551402046994
0.885,-10.125591785010242,0.03816128515130747,0.491840786065986,0.025934918589306057,0.03574008374061436,0.006392002329920415
0.8875000000000001,-10.052014366316552,-0.03623783684050915,0.4049816983425375,0.024177419452370764,0.03927367360815988,0.0070150311335073585
0.89,-9.955178666862512,-0.0929121445755353,0.28409877976150955,0.021973701824212266,0.039700954800600145,0.005616403648424529
0.8925000000000001,-9.89811741686092,-0.13322855908609182,0.1905986367549595,0.02181135655629161,0.03526418464900659,0.0030411846490065878
0.895,-9.748029013961098,-0.09219339395275017,0.03312559096418817,0.028463417133316665,0.03302569638534098,0.002246242310710413
0.8975,-9.822197181953726,-0.00498942732005472,0.15608648926092325,0.030955547017994932,0.029777789832904765,0.002431886754498733
0.9,-9.881115562210798,0.22765747612468076,0.31118526725578544,0.02581038136246782,0.038139105205655596,0.0011455953406169553
0.9025,-10.060551892000005,0.07088069200000438,0.4634087788571505,0.02581370800000001,0.039401,0.006984495999999875
0.905,-9.772542721213393,-0.19612412762565634,0.03850923586607499,0.025085340650262206,0.03666284540540531,0.011239526705929719
0.9075,-9.816363992865524,-0.23624634168505265,0.06884962172259762,0.025124969368692802,0.030647548950950346,0.0032822294297113795
0.91,-9.821177588133667,-0.07563816714375712,0.19949984824085581,0.02669959293190424,0.038728182818411075,0.002017713417402331
0.9125,-9.696376034156666,0.003262063514465171,0.10371091714890399,0.03196141519642439,0.0366793430251706,0.005749824982357148
0.915,-9.876913045153733,0.16682824288921444,0.24268670793557678,0.029813810248901885,0.03395229548072236,0.0029937483650562023
0.9175,-9.8292227305498,0.1375437351475382,0.12989926000474744,0.02862063801281544,0.03745081152124039,0.008446545358753225
0.92,-9.65665603745906,-0.20064504358832919,-0.0089464366838089,0.029127464953722024,0.03897046283996521,0.01376698398227997
0.9225,-9.914953863957777,-0.13364410490765188,0.1446771793139745,0.032233721160949885,0.03564488253298148,0.004579105435356258
0.925,-10.133471913403506,-0.1375871309473687,0.5112398981988274,0.03181714114619884,0.03953096561403512,0.0025005645847953418
0.9275,-9.953263939617262,-0.12470161835647378,0.3202854073846168,0.031491252923076946,0.041386,0.002494095249530993
0.93,-9.761946501563214,0.11612619767489876,0.04218503689565384,0.028408597861030095,0.041386,-0.0026577506774981318
0.9325,-9.744085456178803,0.2309767048690223,0.04080753297764938,0.030464883181927423,0.04074541022831051,0.002955945907233818
0.935,-10.055265868938806,-0.014371684015857464,0.3747357866314558,0.03391367917217105,0.040126893685601225,0.009795222950242146
0.9375,-10.06816981717011,-0.1306491757368228,0.3609557019689373,0.03226032322367617,0.039251107496636906,0.009091698300110064
0.9400000000000001,-10.01282524812435,-0.19403114387564746,0.2924985354196888,0.0319170667357514,0.038026,0.007963808373056944
0.9425,-9.947930751860309,-0.1610582280322361,0.26059074913812375,0.03555382248936646,0.038728806411461834,0.005145964347436746
0.9450000000000001,-9.86872204046263,-0.01731068797152832,0.11874576501778997,0.03447703316725977,0.04279548939501785,0.0015592606049822997
0.9475,-9.709355821496791,0.05922504275124757,-0.04218385231646571,0.03327372212401994,0.04433368019957233,0.004670041924447605
0.9500000000000001,-9.992674698785464,0.17750116580138736,0.38060388387716637,0.03351041662300583,0.048135306787330856,0.005852737937604405
0.9525,-10.06848648973894,0.021724523726646572,0.515458344662569,0.032625308447635844,0.049938,0.0088742916205197
0.9550000000000001,-10.031682,-0.105213,0.485414,0.031154,0.047942310706401606,0.010537
0.9575,-9.975833068697845,-0.09814350647108296,0.3767457513959303,0.031386293495250704,0.044099808584826324,0.009505110058915418
0.96,-9.714726071935281,-0.05389448926571291,-0.0787160991350375,0.03346276855631608,0.045692814044804166,0.004259148083385197
0.9625,-9.754366547903615,-0.0009450448192749143,0.12170599725301168,0.03573298212048192,0.035242697831325345,0.003087139277108377
0.965,-9.834634236460735,0.17611241452362103,0.14712484566913994,0.03453276000632013,0.03965932394375095,-0.0006902201801232627
0.9675,-9.985652,0.203252,0.297704,0.03375,0.04336274877271644,0.000764
0.97,-9.985652,0.203252,0.297704,0.03375,0.05118320671523488,0.000764
0.9725,-10.055291532876602,-0.11755082627046376,0.29383624171688316,0.03253545764204155,0.046884,0.005198684209657392
0.975,-10.165104534494994,-0.12570530609477254,0.4493702893479466,0.03357824188283527,0.04705494318378932,0.0026508295513679595
0.9775,-10.095011771436829,-0.1101333055425732,0.38033257604480114,0.036049592422016156,0.047495,0.003734876531374176
0.98,-9.978749028890764,0.014056585687100193,0.24217577373238686,0.037303640317957354,0.047495,0.001902425879802494
0.9825,-9.873229835893756,0.1300758131738046,0.20057112041158318,0.03571260588338519,0.04753183390922863,0.0034454990476191355
0.985,-10.033226123618089,0.07157653011725325,0.29256929949748695,0.036734668475711885,0.044210548676716935,0.00893803999999997
0.9875,-9.955042834464887,-0.12785631614408285,0.1090098507903636,0.034013043430940686,0.04533976294376809,0.007591934749935055
0.99,-9.94245603538776,-0.13461214965973337,0.14848498662017562,0.03637233154021882,0.05032645298304676,0.00462356490801972
0.9925,-9.940648105536829,-0.05822880570994575,0.15857018612301077,0.038594351954441886,0.05054060796051623,0.003927458690964284
0.995,-10.01965834694609,-0.0020658967957480207,0.36037687784054634,0.037134944355353076,0.045920344841306006,0.002468847277145029
0.9975,-9.829110835842938,0.15944390907360864,0.12887292467305808,0.03911830125937268,0.052851741236797464,0.0033482587632025335
1.0,-9.684568316052568,0.03865519067967427,-0.10158637700556311,0.03666488873659598,0.04897886640328953,0.007221133596710473
1.0025,-9.87971187004621,-0.039975105126198285,0.15220182543902883,0.036907277454674654,0.047977351013153265,0.008705
1.0050000000000001,-10.042157585702633,-0.11372139182276624,0.30713112762057415,0.03852057637686949,0.046578,0.00798732216907932
1.0075,-10.071137,-0.182927,0.364658,0.037415,0.047126753296886245,0.006109
1.01,-9.87437991915329,-0.0139993418097214,0.16155425903698317,0.04140626598743898,0.04841392575017445,0.006109
1.0125,-9.913572182827474,0.1493978139936078,0.19191250592651612,0.03898987597444096,0.047395705862619826,0.006109
1.0150000000000001,-10.086007233834229,0.15392862892641662,0.35973168703706904,0.035860976843110196,0.04746843159038016,0.006388431590380159
1.0175,-10.217511951246872,0.09717560427433332,0.4987056547343324,0.03399966198977788,0.049847188684179686,0.007781492984666814
1.02,-9.994021,0.002391,0.327594,0.037568,0.0560833358372839,0.013134
1.0225,-9.985804772075287,-0.017956512077742865,0.312894983560096,0.037010516265223364,0.04415565994341258,0.012297667024234366
1.025,-9.922060420340049,-0.1731297097607069,0.13917947367758782,0.033424145528967136,0.039248,0.0044908236775819625
1.0275,-9.916142152193192,-0.09374973569244663,-0.018362484593397885,0.03739347290290813,0.040523041340562276,0.0022895544406112394
1.03,-9.793899371500158,0.17211323967428738,-0.008136039473847223,0.04262576076417159,0.04948,0.004711995402442853
1.0325,-9.830821,0.162004,0.145265,0.039706,0.049812667191011205,0.005498
1.035,-9.818442866152521,0.0840364413512117,0.10613901576926524,0.03941540219139434,0.05000421136452723,0.006915527066384357
1.0375,-9.789374423340686,-0.1594436013715375,-0.014435548077391783,0.03902749451383813,0.0437850458731327,0.010868595787410932
1.04,-9.883052785365068,-0.10768791784175014,0.056874119469283974,0.04334143318752006,0.04836798967192026,0.005192
1.0425,-9.869373520360401,-0.11200519694131722,0.17051161880260585,0.04092128763485474,0.050480772832246563,0.004720296972139924
1.045,-9.90391488445898,0.02846968034127922,0.3063118434351414,0.042317999515190316,0.053302965176620656,0.0013697809616458308
1.0475,-9.754744306219019,0.08425423086803042,0.010459240224628002,0.03818948377487497,0.05389851622512502,0.0012574551727508702
1.05,-9.699747370928195,0.12366793695271242,-0.13798589527145344,0.04149572889667258,0.05288103537653245,0.007800922241681345
1.0525,-9.75844507962747,-0.01645588940628538,0.01707149193946042,0.04428484789755532,0.05500509824447033,0.010954231469150201
1.055,-10.013295012546958,-0.14664391655349257,0.3656929763224819,0.04247344497024852,0.05627776076770497,0.00684319233228335
1.0575,-10.087135668517668,-0.20743346964644616,0.37488788400906903,0.042302,0.05921014855335718,0.004254198880960093
1.06,-9.85789103811871,-0.1576201576256882,0.06990634031786569,0.042302,0.06050853936749922,0.003994860833603627
1.0625,-9.662021286360114,0.0574122473521054,-0.11161994988375097,0.046999509687419276,0.05777926517695686,0.0025106610694910878
1.065,-9.698708,0.17934,0.022716,0.04383,0.05143958061904751,0.000305
1.0675000000000001,-9.71206521745318,0.14287553680762066,0.02037606497349429,0.04335669607256433,0.05673735206502568,0.0030697995099550255
1.07,-9.79737377210497,-0.08728527667225347,0.05673772897822819,0.04166941650474601,0.059584755466219816,0.01593895618090442
1.0725,-9.854973942362168,-0.19137784520876552,0.19119395025144184,0.04344274728027681,0.053568049656286046,0.011151793813148755
1.075,-9.906368893995326,-0.10284458304183239,0.2052723342629164,0.04245958505682274,0.053633369549447925,0.004312873909889585
1.0775000000000001,-9.818494102339711,-0.025309370744025377,0.13066657921382588,0.043371,0.05262395322414629,0.003971
1.08,-9.638240677148893,0.11126074569248441,-0.1678358365903502,0.042978983224549405,0.05583008642312055,0.004323738080857315
1.0825,-9.918903085402249,0.13872875061920847,0.09489898662116589,0.042636470872745046,0.054329889283276527,0.0070781247196490486
1.085,-10.011096070158397,-0.010049331728263028,0.24641864564590035,0.045600791847940844,0.05898178448433647,0.013039539908482884
1.0875000000000001,-9.849541989345205,-0.12756371077212542,0.1185124775873896,0.04632075423609439,0.061239,0.013938937995774699
1.09,-9.730769854972722,-0.1670278842323604,-0.08091094540135602,0.04350915863317545,0.05975280075535033,0.007083892788202072
1.0925,-9.750316648329393,-0.14926201917652399,-0.0660514278277286,0.04376814435399914,0.05687435586370081,0.004761997595835279
1.095,-9.944980052003483,0.04386247376869945,0.2329703733966593,0.047621983674503335,0.052918650075199795,0.0034041314018839423
1.0975,-9.926083450157428,0.1776113343521428,0.22652082807460278,0.043385534855897356,0.05970361850326947,0.004844395432307935
1.1,-9.778894987657138,0.053581610468556,0.11121443419429314,0.04705930093714338,0.061697,0.012815367497143442
1.1025,-9.805868947071955,-0.09354027641890449,0.1287049862360484,0.049075628743766336,0.05555577943481348,0.014593457639515556
1.105,-9.890331079461985,-0.16588500105306345,0.12419226313458546,0.04860151898302307,0.049899810756991736,0.012636391414746215
1.1075,-10.045432,-0.139885,0.08497300841904326,0.045968,0.048952178741615775,0.006567
1.11,-10.045432,-0.139885,-0.18980681798787402,0.045968,0.060332125237943596,0.006567
1.1125,-9.68684466245848,0.04281274684385928,-0.1530393854331512,0.04898735665729621,0.06320931495016603,0.004931433375926436
1.115,-9.999962427982052,0.19031302609871342,0.3863707892671242,0.049327,0.06358230985821119,0.00591360917499252
1.1175,-10.22684409353822,0.24233020144475695,0.6310905348784206,0.04911400045940598,0.06565158240316832,0.007249795174653305
1.12,-10.122577018319204,0.06358806773543793,0.43993575299484333,0.04746534829306924,0.06552450745029703,0.013718989997624038
1.1225,-9.838952444874622,-0.23610784562083573,-0.04848496462750253,0.047578069722592244,0.05333108725863108,0.011061074001211176
1.125,-9.845138410579345,-0.21286623677581865,-0.14940780100755666,0.043884566750629725,0.051687755667506295,0.0035565667506297226
1.1275,-9.805180480000002,-0.11897508444445187,-0.0967642933333301,0.04502652444444434,0.05307225333333304,0.0007875111111111895
1.1300000000000001,-9.663748161407398,0.17363837757037742,-0.2031103944148146,0.04953205801481497,0.06418974634074097,0.00021722456296329124
1.1325,-9.673702487902979,0.20677438146478677,-0.043566171755860944,0.04954488442566502,0.06651969995618154,0.0065720388231613296
1.135,-9.926041526298897,-0.014362320150453328,0.18776493501504535,0.04805680156469409,0.06226102362086254,0.011609982698094296
1.1375,-9.96755487971198,-0.1555243266023087,0.1383986654375703,0.048722597863586,0.062131774901091924,0.009821689808514045
1.1400000000000001,-9.89367028974411,-0.17941265776867923,-0.02171280589560877,0.04852640753326508,0.06513528667349047,0.00669435860798345
1.1425,-9.814160307540831,-0.13128004299915647,-0.13442369475263827,0.04878612305638352,0.06776121249731777,0.0035921523948027013
1.145,-9.86598435230148,0.10697221030058371,0.27378753117093035,0.05085348387617763,0.064294,0.005675253378196554
1.1475,-9.846901014633602,0.15867006755442079,0.12066553653775894,0.04970512228370945,0.06279609263695082,0.0076811119687425055
1.1500000000000001,-9.822057850396474,0.1242290577151211,-0.017221566508082445,0.050675447659324614,0.06197619695741554,0.010484895318649226
1.1525,-9.804498812216542,0.04556201603806683,-0.11174579302795559,0.05211906533729918,0.06127792767162393,0.013356396340273555
1.155,-9.908492193261957,-0.11552774517249703,0.0878706983773537,0.052658136226504934,0.06750937905305766,0.008304727546990132
1.1575,-9.809733900890253,-0.12183449253559209,0.018458206530907878,0.05439833890791132,0.071166,0.0063476125211749945
1.16,-9.698600487409962,-0.0776491240463556,-0.08565742313184979,0.05469641986219862,0.06955248443470108,0.005142947278421619
1.1625,-9.635463137772437,0.053525601468999304,-0.10493848891028859,0.05279696288982538,0.06375721830222725,0.0027239861770016484
1.165,-9.880457069451559,0.14087835009957286,0.06214064780148759,0.05231039300142247,0.058616938852536826,0.0012930953279596264
1.1675,-10.023582971218437,0.10588812075508787,0.17671873497425922,0.05203148451090954,0.0638565765138514,0.007410962897769025
1.17,-9.894222919558274,0.01634819200127182,0.09506535867800128,0.051390897205052855,0.06689,0.010655097878763837
1.1725,-9.883140417580028,-0.010958362476828586,0.08356898360153012,0.05014396023235671,0.06602415008280771,0.009197650797181883
1.175,-9.905222549386528,-0.07932863804322153,0.02202221359930236,0.04709837535027314,0.06158632126969058,0.0070866456107021745
1.1775,-9.93100043195064,-0.1364516893402946,-0.043429795671570556,0.04998513370669196,0.065821,0.008841466255339358
1.18,-9.884391801063124,-0.03877204908084407,-0.15548940912513565,0.05543205554817262,0.065821,0.004914075526024461
1.1825,-9.907550370791137,0.0014382273227345824,-0.11225175273514348,0.056102172503618035,0.07127564180897275,0.005319021090207749
1.185,-10.076805532664604,0.010201579586388565,0.29634339570240326,0.05617049799857371,0.07411979784169233,0.013109704159733955
1.1875,-10.082798038722773,-0.09786943844172066,0.4083573363260208,0.05256963611523147,0.06685263939417598,0.008347113201655086
1.19,-10.013536461408453,-0.1369662745070415,0.25819206647887905,0.05270795521126757,0.064446,0.007525892394366163
1.1925000000000001,-9.915112,-0.169775,0.01076,0.054367,0.06355226925872741,0.00901
1.195,-9.835083925713368,-0.10722622939993079,-0.10205889520269085,0.054440701356527295,0.0573439417108204,0.006943462291732986
1.1975,-9.605715186640797,0.11171167815183206,-0.4025121676303642,0.05518124121270921,0.06135225424205677,0.0009490200000000187
1.2,-9.822928096671648,0.2593204859076257,0.054640208828385835,0.05848357812573769,0.06572366716500111,0.006013558958218502
1.2025000000000001,-9.96651303007904,0.17638172588931528,0.1948010455335768,0.05768114351778686,0.06801677486165932,0.011098339604743535
1.205,-9.90986846382748,-0.0022728421613197464,-0.013331534163005879,0.05653388654418397,0.0626408309619902,0.011281651283657513
1.2075,-9.897151755575178,-0.14219442826253048,-0.14014539280668342,0.053330048811455866,0.06221909762291174,0.008559928854415293
1.21,-9.716634217153631,-0.1544769843826601,-0.20516386511781395,0.058090323421300535,0.065821,0.005792611140433747
1.2125000000000001,-9.786300249304272,0.06772306212122428,-0.08499314148113114,0.05651263783240556,0.07198420930735966,-0.0007445743661103959
1.215,-10.044087467851714,0.3299112134365337,0.27721895175635003,0.057530497311197186,0.074067,0.0005685088403446737
1.2175,-10.030450562178105,0.2361461429154837,0.21322487761769598,0.057727,0.07441704460578559,0.000916
1.22,-9.98837667321611,0.11199872946114714,0.1056705003365487,0.057727,0.07479571357156362,0.000916
1.2225,-9.836636207302174,-0.22139933391530986,-0.17227634042138384,0.05656431601125528,0.06352735098208771,0.01077161502710883
1.225,-9.866007775803403,-0.19926150094517386,-0.06438452627597774,0.058589991304348166,0.06793822381852603,0.00672
1.2275,-9.806183429578589,-0.0835925411551513,-0.02289119938487206,0.060017430413065516,0.06918,0.006196366053525652
1.23,-9.74892769602911,0.05347980372092887,-0.04263799891472814,0.0594031075715868,0.06965686998576175,0.00544554262933081
1.2325,-9.725464506134166,0.22171976667471155,-0.11053733102799244,0.05658159729729724,0.0714096019980694,0.005055062630308716
1.235,-9.769864908204397,0.11047049286187856,-0.12404652869482893,0.05948040682803372,0.07278851989875006,0.010860683515266801
1.2375,-9.738162,-0.125538,-0.173362,0.06353,0.06952469486178602,0.016035
1.24,-9.738162,-0.125538,-0.173362,0.06353,0.06850393498605911,0.016035
1.2425,-10.037190267812312,-0.18936993575868705,0.23058326791895356,0.05897419392138921,0.073762,0.003979126508226758
1.245,-9.934530779597802,-0.05663018234003092,0.16182597982632246,0.06641438697440617,0.073762,0.0012953853747713663
1.2475,-9.800625026192138,0.19082483518768045,-0.11840559979245627,0.06470578488528567,0.06780817567247673,0.0014029959562221709
1.25,-9.923603821645724,0.3361641844345359,0.07927584110255367,0.059642697203080665,0.06936637576003243,0.003220471017430077
1.2525,-9.971241042058894,0.09790592498957168,0.24018705583739655,0.05927990013138573,0.07344811828734842,0.004501219231779659
1.2550000000000001,-9.862238248272659,-0.14868326571760937,-0.02917112110983544,0.059527071999381724,0.06899254146688287,0.015392179015380363
1.2575,-9.814773154755366,-0.14650919727434203,-0.23874908782496576,0.06035464875504607,0.06601263469078,0.005071648755046068
1.26,-9.709001246601002,-0.14701545308574196,-0.3227596153237529,0.06229416725658002,0.06963261771677702,0.007011167256580017
1.2625,-9.652713215028898,0.05995569855490676,-0.20636739219653694,0.06572961705202311,0.0743138722543352,0.005735202312138879
1.2650000000000001,-9.725767555059445,0.17869725451723642,-0.09088944693627643,0.06591876783962593,0.07866744951698776,0.0047434031537582685
1.2675,-9.742605381182909,0.18212730763169688,-0.05596612330099885,0.0658394843734766,0.08360649649704038,0.00721318744466007
1.27,-9.968924296824671,-0.046785003791995405,0.2833453195029967,0.06944421473538887,0.07719506791532427,0.015159966672802604
1.2725,-10.152913055948911,-0.1061261755979945,0.416815227476724,0.06796042640486993,0.074526,0.011593527004058312
1.2750000000000001,-10.133757850685795,-0.11675733185412267,0.33556626733901307,0.06822979630466383,0.07456314274649024,0.00754080706793594
1.2775,-9.742818490666652,-0.0918286233297367,-0.10631359230642567,0.0727640682274087,0.07463710116098143,0.005132795317773862
1.28,-9.488408692861027,0.12339401685315639,-0.500083673488892,0.07167654222097271,0.07362838962796361,0.006440618776122191
1.2825,-9.786326181708242,0.26895735009099103,-0.07905921635457211,0.06998985646022896,0.07389883014969174,0.008688904655121704
1.285,-10.005229679024401,-0.09015048943087023,0.21452003609758313,0.06805477138211392,0.08141488943089402,0.016397228617886082
1.2875,-9.912078420480016,-0.21106492937034443,-0.00617740394343691,0.06737406046593508,0.08172962583181737,0.011293115826535794
1.29,-9.842258624062849,-0.21573588893378026,-0.11943117858585794,0.0670044793714927,0.08090776336700334,0.0063108291582491165
1.2925,-9.801262905955747,-0.05726343727239975,-0.05840951471889874,0.06799780281465354,0.07850560388828443,0.003765769299963722
1.295,-9.873030209122701,0.176787394220857,0.04439079574846916,0.07296615139263825,0.07439843098772989,0.00466120880981593
1.2975,-9.812488330800146,0.23372207214258398,-0.07661912550627151,0.066126,0.08004501568449005,0.005664155403868206
1.3,-9.703390506132878,0.16135275068917274,-0.31079319744463274,0.0666372673842342,0.08248986239739821,0.010592954622889993
1.3025,-9.695303953781776,0.052347372543486856,-0.22368329950127877,0.06834463781048533,0.08445773336090501,0.01596826194380246
1.305,-9.864266178278143,-0.15941607630965288,0.10275575104818245,0.06947719561543739,0.08575890688284965,0.011122296341630864
1.3075,-9.762326908317325,-0.13642839925827868,-0.1230456643159019,0.07249307146423443,0.08533197378780596,0.00844893570811325
1.31,-9.666103597442607,-0.06123966861082591,-0.3317055818318592,0.07550608655645227,0.08243549457651012,0.007636
1.3125,-9.668786731165184,0.05129566822648573,-0.35970897496490406,0.07637308165652784,0.07828520917173608,0.007476018717828732
1.315,-9.842247497317535,0.20859077024935618,0.04171902135696738,0.0738180434860409,0.08359320773423884,0.0068612472007289465
1.3175000000000001,-9.927935947212523,0.23519579531503876,0.17793005814167692,0.07357459475970056,0.093657358504806,0.011005065475258547
1.32,-9.797468332191563,-0.08382442986362351,-0.024314644858868185,0.06706737589597205,0.09079647803361852,0.01591848937519808
1.3225,-9.84453121319285,-0.13715801577266915,-0.13797466485312845,0.06512183932311622,0.08168966554278416,0.010288124022988492
1.325,-10.140738030459765,-0.11114030747126483,0.017133897701146678,0.06282096494252878,0.08156244367816091,0.006453891379310413
1.3275000000000001,-9.832977286854733,-0.07971023815682335,-0.0850681896143313,0.0692916199948235,0.08627834541030362,0.006399867957545618
1.33,-9.591853796156434,0.20756846656520936,-0.25195136588921974,0.07149839836489105,0.090713,0.006154724084232949
1.3325,-9.628370347927413,0.17817985398280656,-0.13020929157593011,0.06813993295128942,0.08987424653295122,0.008941798853868239
1.335,-9.790878451525911,0.004716632279631618,-0.02799290988830818,0.07059978785054234,0.08303584152028927,0.013069447595018097
1.3375000000000001,-9.929404683557772,-0.07540877306778386,-0.03271224653161814,0.073609,0.08482009618648939,0.011912
1.34,-9.970314461125305,-0.07750960051442501,0.0875871285184844,0.07371368084271089,0.09611105485743303,0.010864734451307088
1.3425,-9.92677770698537,-0.047213160201936506,-0.0032114412198652395,0.0741531241829796,0.09645469084277751,0.007114760020605793
1.345,-9.917446289420875,0.014237059109532308,-0.09875495918051282,0.0749162105984836,0.08528039582513307,0.005803
1.3475,-9.989435740813203,0.15187829035485287,-0.10882631677181555,0.07617714941350401,0.08722981095120723,0.005913851838343854
1.35,-10.111760131827221,0.1609997404343284,0.09085331251293238,0.07982246928645287,0.09457591227428226,0.01044400878211769
1.3525,-10.086935149691975,0.027695578324245927,0.22256563136518526,0.0776937230117885,0.09909577640765614,0.013501339586766357
1.355,-9.9679428248537,-0.10431237117900213,-0.19776700493975702,0.07314053763339075,0.0888986826419967,0.007608679380378768
1.3575,-9.941869298984894,-0.07040368990488455,-0.1372867291439567,0.07376526183678357,0.09094180334105971,0.006329148749100759
1.36,-9.85768421458543,-0.011312109807444098,-0.11999278282694664,0.07707271622183093,0.09188769537508347,0.007876660457996789
1.3625,-9.75807267557435,0.05853524439364545,-0.15567962087095744,0.08013877698022619,0.090561,0.009202115373185455
1.365,-9.781319500630772,0.0868099660480984,-0.19206041385037856,0.07513845036531579,0.09179124898726802,0.007605888754264783
1.3675,-9.850972310385796,0.09890977167179224,-0.18985442864686905,0.07654716442927043,0.09595834015249803,0.010224695577557619
1.37,-9.963255185899701,-0.041194152565295884,-0.017846128844729484,0.07817289701009443,0.09553963844896655,0.013294244826149514
1.3725,-10.097741231961237,-0.08017961385342187,0.12964712729739503,0.07557551730102956,0.09622081771532401,0.009913747672925417
1.375,-10.047214724264121,-0.07465616937151949,0.04537368743038982,0.07229723389021481,0.09499,0.007591116945107399
1.3775,-9.771883901831991,-0.0796607578734194,-0.1876212976616748,0.07518481415880314,0.09419374436363655,0.00868097706789417
1.3800000000000001,-9.823503205594417,0.0184740983393687,-0.31018813595047606,0.07819473916887715,0.08866754729362601,0.006366767501004575
1.3825,-10.0694402020655,0.16018830326996325,-0.06677238085611438,0.07933929285416413,0.09178302447197388,0.0038158557193673386
1.385,-10.173361,0.196078,0.274988,0.080023,0.10205056489181262,0.010385
1.3875,-10.135492510259882,0.17574863358499923,0.22296867023763145,0.0792720115234842,0.10024537558610841,0.01021946580306766
1.3900000000000001,-9.756888491402666,-0.02750161162839762,-0.2971135258428297,0.07176373070015063,0.09019127923388649,0.00856447737741389
1.3925,-9.734040949218357,-0.034093220770114056,-0.335384354309427,0.07264444978556649,0.08620334604565373,0.008868123606179508
1.395,-9.83114133129993,0.07276276052841442,-0.28890175126397355,0.0824501595622606,0.087659,0.011628295023841157
1.3975,-9.840919568623983,0.13672228675585166,-0.4070523120783615,0.07964123869087439,0.0880096591447682,0.010629590668896334
1.4000000000000001,-10.014161346052424,0.18140591635074677,-0.051718886616101786,0.07878612383385565,0.09477878946761222,0.012058533624526553
1.4025,-10.177857626149269,0.07043985715984483,0.2645473850636862,0.08400755376264704,0.1022470685251751,0.019385580149982186
1.405,-10.183407632539156,-0.29113144094921656,0.2460164646606518,0.07830740634076887,0.08894630532510668,0.01642968727100129
1.4075,-10.184865025447568,-0.23548649817134937,-0.07949199715862079,0.07897821292056632,0.08116376557715373,0.004730063028557749
1.41,-9.841503399098237,-0.008417503707482902,-0.5861665947964544,0.08300153422130149,0.08858944893810239,0.004274573956822895
1.4125,-9.49209089966007,0.08007867138671236,-0.7683281231508422,0.08729978382370153,0.09061230404407462,0.009019973789708076
1.415,-9.746415767875275,0.2079214132845451,-0.2192151669875029,0.08057951048922116,0.09445507868268249,0.007943514457083757
1.4175,-10.15228382722417,0.2525817116132959,0.25448040872991207,0.07657821578247731,0.10261473677341386,0.008621094346827712
1.42,-9.946635579985761,-0.15126549714555979,-0.2335964677083624,0.07809174890524827,0.09753718770838357,0.014111333925433636
1.4225,-9.980864459386424,-0.12633606100099926,-0.23357579612576643,0.07690247495014071,0.09734247466386765,0.008996086649172008
1.425,-10.057428668228447,-0.05724881590724626,-0.15880615864306372,0.07598542747268475,0.09994002540197533,0.004259258762345447
1.4275,-9.852255117073172,-0.12139468580231123,-0.07814993879332288,0.07861495240051349,0.096669,0.0063272979717586796
1.43,-9.639331842513085,0.05914051589528223,-0.4365640261103527,0.07763901169230765,0.09739878450261774,0.0028190033250101295
1.4325,-9.797683071603531,0.2831656494983832,-0.30194555174784266,0.07901134078190794,0.099724,0.0016963552748711524
1.435,-10.067778761027183,0.3056640433890717,0.01722506893556025,0.08036450385036062,0.0985974466228104,0.01172426538162813
1.4375,-10.004889510135135,-0.03189505743243243,-0.1158357195945946,0.07883132094594594,0.0954141418918919,0.017870405405405406
1.44,-10.089282749091765,-0.2596159163717738,-0.12384750148191855,0.07637635309694896,0.095753,0.011868035419955339
1.4425000000000001,-10.103418,-0.322214,-0.090866,0.07758,0.09523806160666093,0.007483
1.445,-10.050270637241374,-0.208879420728048,-0.14208032412513466,0.07983702061924974,0.09080747647971836,0.005613926448515712
1.4475,-9.865191086021962,0.18275378223639216,-0.31677792562522156,0.08678723014287398,0.09118922298736573,-9.144378320932961e-05
1.45,-9.851164851594667,0.26143878152604244,-0.3253628820185726,0.08167773538958419,0.09957111232943083,0.007243900863948143
1.4525000000000001,-10.042447476661339,0.09328455859288923,-0.21673817728172978,0.08132182132395278,0.0955268155420528,0.016589775209465994
1.455,-10.112106355433324,-0.13423832560282073,-0.01778203099455783,0.08375463836264797,0.08989327643108395,0.017614207470418964
1.4575,-10.171857565394207,-0.1703270164838773,-0.03968793428101148,0.07882172686279129,0.09534462380795486,0.0036188615391856867
1.46,-9.80358612316399,-0.00863776707395672,-0.508852926971059,0.08480107907395497,0.09896844012861741,0.00467326927331182
1.4625000000000001,-9.610983962035387,0.11384657165885413,-0.5941457490676937,0.08589734899554909,0.0953830269216886,0.009343193961265314
1.465,-9.945646807592324,0.20430558478400665,-0.07681649621951105,0.08558261887259902,0.09321895332653886,0.007501580525284254
1.4675,-10.139308353302676,0.196200427043978,0.21079711905671195,0.08651444378257278,0.10045338712887635,0.009652650706284727
1.47,-10.006674755119366,-0.001353684106724387,-0.06054557314089319,0.08409905788110471,0.10098373464190989,0.015015438633172137
1.4725,-9.841595115644544,-0.05025848384624803,-0.2873560463082365,0.08328631538746763,0.09324227270794726,0.011771346908911238
1.475,-9.837673814996851,-0.06380580371770549,-0.4467004822306233,0.0832170113421552,0.08864637466918701,0.009880973629489658
1.4775,-9.847770690235688,-0.031344174545452415,-0.4360059104377112,0.08821252296296292,0.0863551380471383,0.01111525158249154
1.48,-9.752239901768707,0.12366333777777659,-0.38455344562358484,0.08511972798185943,0.10027085269841267,0.009121623219954647
1.4825,-9.81510768090348,0.2693885424954734,-0.07983673606958554,0.08272990943350653,0.10355411443411033,0.009888255547771316
1.485,-10.046287689472589,0.11277046372125192,0.11437321617690095,0.08134365437912662,0.10172996136504608,0.014624831520165579
1.4875,-9.886794609855967,-0.14904877947863318,-0.24714972727056927,0.08278998576359961,0.09195402356862294,0.01689993138912024
1.49,-9.807503418427613,-0.11466170939597342,-0.4474622414157884,0.08481030057845956,0.098197,0.01128037907957816
1.4925,-9.837604534946568,-0.02850326774638331,-0.25652949962005167,0.08739849854191391,0.09729964759914533,0.006575584540489152
1.495,-9.856191145291536,0.13861641619845713,-0.07632471139189104,0.0900932839658609,0.09115601089893922,0.007268274129376967
1.4975,-9.817406108325944,0.2405866813637926,-0.3294065997136082,0.0864646189839754,0.09380417456529169,0.00636415202182082
1.5,-9.709764763998708,0.21710973842181702,-0.5224505418751009,0.0848624446506374,0.10075798499273843,0.013601683072454414
1.5025,-9.557885651723886,-0.03428723742681376,-0.6417571802481694,0.08683853169979522,0.10298681595470437,0.019168582821346977
1.5050000000000001,-9.72021566480126,-0.08108957973708428,-0.33702352319247464,0.08440683733333303,0.1002114954366199,0.012278113402190633
1.5075,-9.888601734158783,0.027066075274105393,-0.09352843419660978,0.07884499041587927,0.10435569446124783,0.0073587409451799516
1.51,-9.634680363674004,0.06791226069010842,-0.4330857673348678,0.0830962814656589,0.10366544115675318,0.01349932997042393
1.5125,-9.577782777355608,0.09323450757610335,-0.5151001576867339,0.08393281383993285,0.10018229916838334,0.013317392248416913
1.5150000000000001,-9.706972463756848,0.12249009831521908,-0.3885082371991064,0.08482169929242596,0.10079941677914903,0.01264078771795099
1.5175,-9.824292492475653,0.05806858276782022,-0.16644832176505425,0.08698108550198397,0.10805950360466512,0.016088389265360176
1.52,-9.88626093083867,-0.07223964442292706,-0.021362780537247838,0.08859985697017023,0.1063185211525847,0.016059425981571094
1.5225,-10.050341038045634,-0.11462594067136496,0.0019221152168240711,0.08734406190419301,0.10257697534822599,0.009672781235216936
1.5250000000000001,-9.96812505221316,-0.1367818316536318,-0.2946276987180691,0.09030836463758797,0.10365934748044826,0.004918418108522379
1.5275,-9.71099436202707,-0.1066529303510156,-0.5932766253312595,0.09549176932071417,0.1035253131568228,0.008246968654606108
1.53,-9.631985860484015,0.14988413097516695,-0.5456656510957669,0.09639076963580093,0.10490376159009765,0.0011702106228675862
1.5325,-9.877222642287592,0.350279856154389,-0.1383271471405118,0.08965209622970118,0.1100184533772652,0.004519717279359601
1.5350000000000001,-9.970175955049703,0.17432237858888627,-0.0326542870759889,0.08664863117430854,0.11133,0.015210170454901762
1.5375,-9.901015439845477,-0.0749266472248526,-0.2126177103752763,0.08535552073478392,0.11115176590980756,0.01864407472406149
1.54,-9.962789991721856,-0.1421375250047313,-0.22250163867549683,0.08371453732261114,0.10938429863765371,0.00968025450331113
1.5425,-10.015500125624072,-0.13191920666743057,-0.1706336082461958,0.08575524011440332,0.1078159216153758,0.004059454817526578
1.545,-9.858739498636838,0.028598272110722835,-0.22874939934658078,0.09259649845980536,0.11044228551380045,0.005491641973123127
1.5475,-9.839185212711048,0.16682907107756437,-0.3355075877007547,0.08996857106383017,0.115148,0.0040185282635561235
1.55,-9.72024903651462,0.13328310474184335,-0.35664046210133654,0.093462,0.11602056851606694,0.011912
1.5525,-9.590687043066286,-0.0233157067811155,-0.4000400609489742,0.09387616740581782,0.11716767752503578,0.01225518941821648
1.555,-9.663917012779764,-0.10265140947713429,-0.43262795513657654,0.09897082535351957,0.11562798260340254,0.014637988275324027
1.5575,-9.947080217735987,-0.10502482556850799,-0.16309910485145546,0.09953082415444399,0.11538894990096553,0.008286570735865494
1.56,-9.866446026263622,-0.031089416355099278,-0.31782389257497623,0.0985936305114947,0.11908965859836126,0.0056919370519449095
1.5625,-9.796746,0.13032,-0.4077,0.097891,0.11728352902467686,0.003818
1.565,-9.894191797186956,0.3987065653516082,-0.169868074717,0.09356650689536913,0.11592117138936568,0.00919719698113165
1.5675000000000001,-9.854991985312589,0.21917988167266422,-0.28154550041758997,0.0922131870160289,0.114079,0.01585524571360997
1.57,-9.785987,-0.030488,-0.463295,0.092699,0.11347603602692542,0.019395
1.5725,-9.793401305153171,-0.03619412706720536,-0.4652212601899788,0.09244826941819044,0.11156212642127762,0.018819365385894044
1.575,-9.809560303181826,-0.12745312409090886,-0.37288182772728157,0.09125747454545435,0.11584333590909086,0.008734716818181904
1.5775000000000001,-9.745161756320474,0.05077811163569132,-0.41204800185066914,0.09480338782050518,0.11815327931205728,0.005147967286380259
1.58,-9.758969252435719,0.2098755020975546,-0.46500675744428543,0.096517,0.11973,0.005163373638772246
1.5825,-9.840279602554736,0.2286683988290773,-0.3648922003386963,0.09677179110681024,0.11987746441514457,0.01320355559211326
1.585,-9.901135157195963,0.007240797397852965,-0.3985036704726803,0.09876943685627307,0.12119289092773596,0.016671781855471902
1.5875000000000001,-9.84261301125828,-0.01108547378716404,-0.41124143665485446,0.09622282344062812,0.12069380867087645,0.014892662267056607
1.59,-9.867230242516557,-0.17327400292315318,-0.32483767610041303,0.09129081804404728,0.12291353408593877,0.01069948872016004
1.5925,-9.924924562348409,-0.11457137228103757,-0.36240209749759306,0.09679821358036574,0.11993365114533193,0.005599825572665963
1.595,-9.79627635337671,0.05950586733361007,-0.394410933666805,0.096669,0.11905288955052822,0.0026477448910643036
1.5975000000000001,-9.740407035626694,0.23589407665765724,-0.47704612990467427,0.09642705994586305,0.12370052685889177,0.0018078768977291028
1.6,-9.791507818903037,0.3134278275383477,-0.4491239193927447,0.09370063104799216,0.1271260072314722,0.010297790156709393
1.6025,-9.838593,-0.031086,-0.257054,0.093462,0.12027150846227298,0.017562
1.605,-9.923055190347094,-0.0632754831810695,-0.24110149998589714,0.0941169783812583,0.11328751236856534,0.014432923579095902
1.6075,-10.167479695457637,-0.15520777321065804,-0.2084864435060461,0.09672874915254218,0.12068446700242105,0.00473021906053257
1.61,-9.815863134282472,-0.004443025071826229,-0.460942752245369,0.10383773898305113,0.129602017698144,0.008866127786925101
1.6125,-9.54847067738525,0.11659205993751545,-0.5796220837779326,0.09963800365296795,0.109956,0.009615551261715824
1.615,-9.843375,0.133907,-0.360473,0.095906,0.11217903819718307,0.005192
1.6175,-9.853560727242554,0.11901282321132849,-0.3996784134114047,0.09647052529038534,0.12006790553440684,0.007106756622742043
1.62,-9.879966136593906,-0.05145656585272836,-0.592503551657471,0.09806287518829447,0.12153405456464374,0.014716580235068211
1.6225,-9.877173517663895,-0.15593707371632318,-0.5257641057544564,0.09652267544219317,0.1208142906603101,0.01076819156138242
1.625,-10.01577854086936,-0.04310261061894638,-0.23795066761162298,0.09980080350815025,0.123853,0.007900678124261753
1.6275,-10.025107,-0.007174,-0.113582,0.102625,0.1235396416056614,0.007636
1.6300000000000001,-10.025955350978561,0.047698410603600375,-0.23831750946920777,0.10280574181472987,0.11859822906415605,0.007961051378846663
1.6325,-10.015821273680206,0.20875741391303848,-0.6480192758660037,0.1033738185032074,0.113468,0.009494914868139852
1.635,-9.935954001075904,0.0902385985250223,-0.6365770534503941,0.10288218548327878,0.11516663406816188,0.012764654523106378
1.6375,-10.070499583123453,0.17655741318112336,-0.3286343640814522,0.10099814969989424,0.122004258067553,0.009612679628103906
1.6400000000000001,-10.11533004569781,0.0844055774835488,0.0316275439497381,0.0948447905312154,0.13033160498263716,0.015544551270040742
1.6425,-9.890714762795708,-0.16382919938825974,-0.4064881937259082,0.09543667236645735,0.12157655705060928,0.017674241276690126
1.645,-9.80201701187287,-0.19566200253942934,-0.6532189120615043,0.09966953957676151,0.10521349169216143,0.005982293730680786
1.6475,-9.76676610598732,0.04500495597557483,-0.6236249611927723,0.09910360525475453,0.11500462315097416,0.001317878788447867
1.6500000000000001,-9.766974769631515,0.31267901134052234,-0.35359222695360987,0.1036918117534941,0.127671,0.009388663929479353
1.6525,-9.835294468291343,0.10690852512354805,-0.15555966752653475,0.10059100711982506,0.12671779999675883,0.014775348651057188
1.655,-9.94702222474601,-0.010912916535689501,-0.2022821684161068,0.1021481972745686,0.11244653026978839,0.011920924799481456
1.6575,-9.866192672190737,-0.0533849668196126,-0.6074877452091713,0.10513646177237965,0.10838618610886182,0.011997464579397222
1.6600000000000001,-9.520323016097835,-0.06659665142714771,-0.990069923212951,0.105985,0.11526683129328198,0.011148
1.6625,-9.402362553593067,0.05501676972466866,-0.842101713401097,0.10585242958985483,0.12269907128984361,0.010927001073917385
1.665,-9.678220699961116,0.14567664651328763,-0.34052080171743304,0.10371384959818532,0.1254452082566429,0.008913645184705173
1.6675,-9.796048836604042,0.25999979393103567,-0.31680810951723953,0.1019634632104637,0.1248075115719382,0.012729711239001138
1.67,-9.762225005122962,0.06080292030661917,-0.49913775441712055,0.1031954188438199,0.1209925811561801,0.018326
1.6725,-9.786338250434786,-0.21113677482491872,-0.45024292547121,0.101862,0.12218896701292586,0.018326
1.675,-9.862389456906165,-0.3059176024852609,-0.4133162778078678,0.10299668057989493,0.12083205674685364,0.015350927768041837
1.6775,-9.853528796739026,-0.13798996864447804,-0.3267276223637215,0.107512,0.12361186579835985,0.00331179517607334
1.68,-9.668837106694577,0.21705129103147877,-0.8097534605717106,0.10842329517030347,0.1274302142942266,0.0010513332571059288
1.6825,-9.853028195529317,0.40339795357277236,-0.47336890203206566,0.11168499048204152,0.1294732450850673,0.007351665548205321
1.685,-9.931932790920728,0.22661767299550897,0.10522220468800556,0.10952220234519887,0.13664242802752014,0.0184666692431948
1.6875,-9.857448408454049,0.041693912847304684,0.092731930657801,0.1067609168843505,0.1336670182854429,0.02068377392543339
1.69,-9.700650895704904,-0.07937664924245763,-0.5602562606506628,0.10042281323834416,0.12555431202089784,0.012951221074962566
1.6925000000000001,-9.76171669862837,-0.1691638672315937,-0.9570365348892681,0.10115468636265783,0.11970346085936703,0.008265228787552611
1.695,-9.83691887467423,-0.02494615341976568,-0.569045235439215,0.11287313005834683,0.141721,0.01108821499837915
1.6975,-9.858223065304136,0.2567869337504349,-0.31671628449542366,0.11154558049356965,0.14220401393117835,0.007580564328583032
1.7,-9.85624405748503,0.3027206329656502,-0.35824235341947674,0.10606818083832323,0.14443904935392385,0.013590668515600205
1.7025000000000001,-9.91410369223986,0.13641753012716784,-0.3561549566565633,0.11267804317867985,0.13696470050151352,0.022803678241065925
1.705,-10.073316032136676,-0.21040007203079208,-0.14729757922039532,0.1111926873339744,0.13700865643888469,0.01328318660250154
1.7075,-9.996138617298136,-0.13668989291925432,-0.32128585331103854,0.11041091571906356,0.142332,0.007902172259913987
1.71,-9.825115046055895,-0.06912109417910614,-0.5721017929755441,0.11183697771355987,0.1396610347411878,0.006268933928231208
1.7125000000000001,-9.559014756894095,0.057651678339708204,-0.7994325608539967,0.11151030593988552,0.1300934745944653,0.0044878884303433285
1.715,-9.768698473422228,0.2646301031333359,-0.5761335367999914,0.11234126728888895,0.12847687937777816,0.002780265133333427
1.7175,-9.923626299957979,0.3200473429305083,-0.34562699440977646,0.11419690613026223,0.139933823823827,0.006182186867948123
1.72,-9.71339542021944,0.0429918758073331,-0.6187805936378462,0.11369836131974166,0.14491764003112592,0.01590177080071579
1.7225000000000001,-9.591621028295705,-0.15699185847396943,-0.748402912289034,0.11478636738768731,0.13519782421678161,0.013136492008556605
1.725,-9.748249695322839,-0.1056715409844068,-0.6084848637662187,0.11738896602726323,0.1365866769080076,0.005491701852909943
1.7275,-9.955490340810416,-0.018971850318375744,-0.5023711627641123,0.12180927876025095,0.138965112301013,0.005032326497829261
1.73,-9.752764226029262,0.16601215354041124,-0.6412851647914868,0.12427989335419772,0.13883505332290116,0.007126764077928158
1.7325,-9.701644780344283,0.20601272788732508,-0.7116618493896738,0.1152771417840375,0.14376490309859138,0.009503283380281675
1.735,-9.82420749776326,0.14767458869062083,-0.6006211043478182,0.116657074722292,0.14807790050766523,0.010610887710480146
1.7375,-9.897389437637234,0.019690576348446096,-0.42179442541766277,0.11640708221957052,0.14715005656324565,0.01322418494033404
1.74,-9.962965664441219,-0.06555263992666745,-0.4739370978168209,0.12065181261630128,0.1410033595111145,0.008074458941257372
1.7425,-10.001660115084114,0.010505211635034567,-0.41533441927902837,0.11847646855059256,0.14289156566503677,0.0026520457180740334
1.745,-10.01932262919367,0.13673492294688527,-0.29689668691140625,0.11728164630811298,0.14674019672826732,0.004775787943979539
1.7475,-9.871696520952456,0.1653654790475436,-0.7314144427176739,0.12090343401539803,0.1409854452099372,0.008157455931423151
1.75,-9.865726653782046,0.17133534621795382,-0.6309137721247717,0.12014107540280974,0.13653696618779268,0.009174488927692674
1.7525,-10.048883022807775,0.1855280902807842,-0.4647735606911471,0.11948692371490292,0.143553,0.013897
1.7550000000000001,-10.048655801266866,-0.07209941750666984,-0.42914996707765307,0.11406094919285746,0.14277554740243986,0.012828082226710637
1.7575,-10.021868512623717,-0.13857455831863721,-0.6446794301830628,0.11002733269152583,0.14054694370169515,0.008731222616949107
1.76,-9.780316218491047,-0.022614490129286693,-0.8206142283265554,0.11664080852928681,0.14511860862883155,0.008912704364188168
1.7625,-9.700244525128802,0.011889174871192737,-0.7896977400000093,0.11747909740046848,0.1472300360655737,0.009272067728337422
1.7650000000000001,-9.917473082772222,0.08576631748122761,-0.37674399193053276,0.11415825758135183,0.150273,0.003137601023154248
1.7675,-10.05978985655056,0.09739108268581095,-0.2989666596672824,0.11688215448952737,0.15014039508318364,0.009324855291442457
1.77,-9.874156334936826,-0.05074418446420189,-0.7529456765184837,0.12055466966775855,0.1464748872625175,0.012750895292466015
1.7725,-9.849156351999994,-0.010572130381193225,-0.7211436727964039,0.1208557837518759,0.14111756290145072,0.004509065648824456
1.7750000000000001,-10.217599,0.161406,-0.352702,0.123089,0.1414572274352017,0.00168
1.7775,-10.196806359592713,0.161406,-0.38540944226911134,0.12264139540363608,0.14180714792727261,0.0017595944145455042
1.78,-9.91900202498543,0.16467010005513127,-0.8206461440592252,0.11588349175080727,0.139566712521068,0.003068644920847451
1.7825,-10.003187362554105,0.17229441855315158,-0.6817627437235475,0.11498756863804849,0.1425539741193352,0.004393502312567116
1.7850000000000001,-10.161838760314414,0.09048863649066526,-0.4021632729813305,0.11960711636363648,0.139277,0.013987271495037598
1.7875,-10.216402,-0.003587,-0.214012,0.121409,0.13924882711755748,0.012065
1.79,-10.216402,-0.003587,-0.214012,0.121409,0.1387354206458851,0.012065
1.7925,-9.735477941581488,-0.08056930377049173,-1.1951323957762712,0.11938111630665375,0.12972964208293178,0.01050697195756996
1.795,-9.782454994166807,0.0634564724808757,-1.1462456173786395,0.11899913030766508,0.13221160874977708,0.004263769084118971
1.7975,-10.057192625669856,0.2905572720463151,-0.5677235617942473,0.11440307418304596,0.153022,-0.0008482403521036182
1.8,-10.319821,0.499761,0.137494,0.11469,0.15152225783451378,0.009927
1.8025,-10.298194096187228,0.47427463758167043,0.0875567627108785,0.11468397697708435,0.14480996900048768,0.010077260643588475
1.805,-9.786774740381103,-0.1575057195132096,-1.0692026979599742,0.11402752594395521,0.12263446996957536,0.012438303289031356
1.8075,-9.833723469591545,-0.1883757561450158,-0.8269510057824634,0.11308297319871574,0.1342063776594768,0.008009074492887036
1.81,-9.62484982955765,-0.08421836815083242,-0.7412022625670792,0.12534074903553288,0.133779,0.013339839912980253
1.8125,-9.607813214846956,-0.0046238783863023335,-0.8154309193151167,0.120486620382315,0.13331677823384544,0.005755196552128533
1.815,-9.71082727803576,0.17903944604158376,-0.9102195298924008,0.11815613783350856,0.1271196289750018,0.007143940260496514
1.8175000000000001,-9.590542240190791,0.10975581969762328,-1.032905927402379,0.1204995375988358,0.136223,0.016538677733042326
1.82,-9.401512870068716,-0.06102922663433202,-1.0785163130050945,0.12062924260975019,0.136223,0.017444917319104237
1.8225,-9.963926491259517,-0.1100144359850412,-0.40788266104714765,0.11442349360758647,0.13628300460798717,0.007751565035394687
1.825,-9.821438135868519,-0.22267164911678017,-0.6925530511285248,0.11373435829244348,0.13217637983316982,0.009162240333660395
1.8275000000000001,-9.529356146150603,-0.1342253596129519,-1.09359413586875,0.11601658617945798,0.13178230252058418,0.0035384960298091295
1.83,-9.507572036220779,0.030101629172514757,-1.0679470972490206,0.11799358524840571,0.1333933049712623,-0.00019731435320037767
1.8325,-9.846050490362945,0.3066331062368658,-0.5442836642024796,0.120493,0.13940104445081183,0.00504
1.835,-10.178344990532713,0.0826505662315564,-0.1948663979954211,0.12117556379764814,0.13601178724015472,0.006892521139610031
1.8375000000000001,-10.149301610266237,-0.17396955327415278,-0.32471559784123977,0.12325963621971649,0.1329485059726559,0.01322865718397641
1.84,-9.90519879304237,0.002067784294651466,-0.784045806894261,0.11732702195009911,0.14142372013306934,0.006342181009109037
1.8425,-9.69033479491667,-0.04806837736110911,-0.8650833817731431,0.1205790505231482,0.14156631987037027,0.01003306810648147
1.845,-9.783595,0.097441,-0.502152,0.124311,0.14059720208224852,0.009316
1.8475000000000001,-9.708284961673135,0.11900437681027928,-0.6141514889608679,0.12011816604003558,0.14808731527696467,0.009891518682999739
1.85,-9.571572346782599,0.10383850491699151,-0.8150663614861802,0.11928885533596875,0.14978937900395237,0.011318080664031747
1.8525,-9.336010107134086,-0.017940159045898386,-1.14419305966027,0.12920898813155043,0.14421568255872771,0.014474560852909242
1.855,-9.846878454119333,0.026279792810925788,-0.46750844363288,0.12650143999041463,0.13963263920440921,0.010640219995207322
1.8575,-9.75979834412729,0.013267293671185856,-0.7843937904490161,0.12556585509015908,0.13997528981968183,0.011563540879198532
1.86,-9.527086740898103,-0.01332452309683363,-1.134688949756143,0.12687159075368964,0.1403513606029518,0.011880261557887918
1.8625,-9.289202192727569,0.03602479411433092,-1.2791804215915399,0.1302252058856728,0.14530460061275507,0.007730019656534751
1.865,-9.510564761551237,0.24677309890510285,-0.6853438408933343,0.1291921010948964,0.15085648208659194,0.010054082725147134
1.8675,-9.879568853666129,0.09167443490948567,-0.24493730562205263,0.12170324413527456,0.15495350097219032,0.01740450087358456
1.87,-9.846249646480238,-0.012146786531088319,-0.6621535874370412,0.12491092867113487,0.1468119113381092,0.01382766201063077
1.8725,-9.686692501731395,-0.09257390901263614,-1.0569409297707149,0.12643873839962566,0.15006525279363608,0.010717379204492214
1.875,-9.760285131792829,-0.08350479920318725,-0.848152180557769,0.1272073705179283,0.15348,0.00902860764940239
1.8775,-9.84978791286479,0.004274936620286373,-0.6182943644999405,0.1315344470448331,0.15345294700440007,0.007588899897728775
1.8800000000000001,-9.808076184870844,0.08964191387454568,-0.702616137269389,0.1238239881918818,0.15326877210332113,0.00225438309963102
1.8825,-9.72118903234901,0.2304681651506952,-1.0383826710871331,0.12120285899378452,0.1557097844259412,0.0031938654720303165
1.885,-9.760485273995094,0.11729132130171656,-0.9441404565821745,0.12409413525429275,0.15842569820441538,0.013192698204415387
1.8875,-9.776858761030432,-0.02442063999999948,-0.7579363394847926,0.12708301611241235,0.16157417227166285,0.015513803091335241
1.8900000000000001,-9.96735846028748,-0.09760597564567502,-0.6000072748066017,0.12561821448171104,0.1614461430735072,0.003954844646487892
1.8925,-9.85478460168287,-0.06421174145181309,-0.7310852092943134,0.13039088130740364,0.15846851708481743,0.0040358315817849676
1.895,-9.731674086831616,-0.005070217747183567,-0.8463503324212966,0.13547829706941375,0.1543830380514104,0.005577350357177251
1.8975,-9.65348676553787,0.20652892386606347,-1.0250755798005298,0.1341495245452388,0.15402649105675606,0.005522448306815413
1.9000000000000001,-9.915445656603769,0.10126136976526354,-0.7127729166590085,0.1264776190520015,0.15794970846755663,0.014311797146802698
1.9025,-9.905487264121476,-0.07333372099783332,-0.8762751679031141,0.12602446744757775,0.15539483496746193,0.014471302415039664
1.905,-9.880479250421907,-0.12938849181658962,-0.9467435474765148,0.12600748366502149,0.15416035402324477,0.010570294825664642
1.9075,-9.775671426792716,-0.11462869020982361,-0.7851123967350726,0.12550034924602244,0.15953889451694722,0.0058000270048419855
1.9100000000000001,-9.796775168315984,0.027425723346508238,-0.8242762861615898,0.1382557028509881,0.15224427731418258,0.009098312876122169
1.9125,-9.769882060027639,0.020480886563266583,-1.0537139972819496,0.13387430474508574,0.15299380187346445,0.005517803961916305
1.915,-9.784927404971711,0.07670830940439413,-1.206932695798505,0.13298356403966663,0.15837889354261736,0.004177955622072163
1.9175,-9.84942732132612,0.19240361589466137,-1.2311870619421688,0.136330364044204,0.16697163657653397,0.006156605934634168
1.92,-10.019188967938929,0.11278108264631664,-0.47745528335878884,0.1375752066157762,0.17743229699745555,0.017803550941475777
1.9225,-10.131345579170802,-0.09256846059229176,-0.13649780436328737,0.13292212704837086,0.1728580014412622,0.01873344047383906
1.925,-10.065344628802485,-0.1295698031510245,-0.676796153477518,0.129248041478464,0.160505,0.009158960546336779
1.9275,-9.681884287880276,-0.2843522331300981,-1.348685557944413,0.1284650410990577,0.16022365551983533,0.00854423799192336
1.93,-9.499227479885981,-0.07687882202866933,-1.5645972285184837,0.13772196866576902,0.15489816144746232,0.005501217135165172
1.9325,-9.956509895672603,0.17672238876268942,-0.7601754706471816,0.139583,0.161164301884518,0.005309035266497597
1.935,-10.268735708464474,0.1543494961738574,-0.13771154861673807,0.139583,0.16662591244289351,0.008484370901015297
1.9375,-10.100079337362248,0.12206035430738238,-0.6358529084014694,0.13474594809811588,0.16186924908164474,0.01202517893115298
1.94,-9.794952,0.003587,-1.164515,0.128893,0.1544928679548186,0.011454
1.9425000000000001,-9.872098762324041,-0.02122611621433353,-0.9402943570640228,0.13131325802790134,0.15267597932466703,0.010589514321496424
1.945,-9.997029990457143,-0.04682164618095086,-0.5811580025809534,0.13441437481904753,0.15360342459047632,0.008110887999999896
1.9475,-9.966418708943126,0.013546376914753074,-0.6569904070842877,0.13124890699531083,0.15940616212576653,0.004265148327521953
1.95,-9.621560370075384,0.043939520231478145,-1.2323363643493455,0.13429318460367015,0.1597382384527527,0.007413057153734797
1.9525000000000001,-9.552837507656681,0.03348061066688123,-1.4288065642377603,0.13333530670098964,0.15380069053817091,0.011304692246802401
1.955,-9.884637455631898,0.034488613498511816,-0.7793271431002953,0.13732935976188573,0.15818107439144088,0.012335470037808733
1.9575,-9.995650356983287,-0.09858769758472874,-0.3368827596849763,0.13618517242959413,0.16753,0.012631357088305454
1.96,-9.577604628291407,-0.18513132963663564,-1.1159539882771299,0.128893,0.16045997141837662,0.010843
1.9625000000000001,-9.496402433043896,-0.05442543769065934,-1.3547030286786947,0.12932381126496192,0.15010905857779908,0.010644677258859132
1.965,-9.702968983885786,0.23535464393675923,-0.8747761787455093,0.13842250584395716,0.16085684163182115,0.011345714411015494
1.9675,-9.723070286571057,0.13120742513689615,-0.8161758897001313,0.1381999663624511,0.16233280453715773,0.014419185554106907
1.97,-9.70907312303407,0.010777748361006659,-0.9198425282177969,0.13693510198442055,0.160963,0.013899915206546556
1.9725000000000001,-9.787453096756762,-0.22036031864862785,-1.0612636341891883,0.1327340990540547,0.16075456581081038,0.012444659391891431
1.975,-9.78739205397477,-0.032526082217656134,-1.0217179221120545,0.13549980556174823,0.16406937459665624,0.007862001396303811
1.9775,-9.732791369001351,0.052246836128241325,-0.9678002930942132,0.13316749349219997,0.173486,0.005361542046431673
1.98,-9.709854261482743,0.1519537482224924,-0.8690313553325224,0.13361735653105966,0.1724634576077954,0.00828796685992688
1.9825000000000002,-9.87583008026492,0.20599390493849476,-0.7143335815326262,0.13600547269631025,0.16761525197729352,0.013245347644276047
1.985,-10.05678457817779,0.04281366007894626,-0.6352940876614694,0.135154,0.15990657450181608,0.01069
1.9875,-9.827458211610711,-0.082728433377771,-0.9788867880741772,0.13561544108592916,0.16485051906435594,0.010722967785722957
1.99,-9.71739831143192,-0.042810103998124883,-1.1070557991000711,0.1427149109725803,0.168752,0.010405795800328112
1.9925,-9.799559743012049,-0.10296110660643373,-0.9002950154216859,0.1395870988152606,0.16823467251004054,0.006941143694779176
1.995,-9.732126296293151,0.004258173455873422,-0.9760854064522253,0.1431582421774477,0.16631336701307903,0.0050584374596440934
1.9975,-9.660230214742997,0.008599124803903827,-1.0660777184311792,0.13943,0.17122023197076747,0.003512
2.0,-9.621036546975233,0.29669484863987006,-0.9556234557856274,0.13943,0.17616126853430775,0.003512
2.0025,-9.51583322369752,0.09004555260496938,-1.0813210474048538,0.140804,0.15348,0.018076436965381932
2.005,-9.628315932512013,-0.21970010591056643,-1.2786151058253912,0.14178317979651375,0.15556871744459308,0.010249906358546054
2.0075,-9.944366716537113,-0.09460230353311365,-1.0223469492093713,0.14586333552245973,0.16450459906526052,0.001098122363481828
2.0100000000000002,-9.880612550924669,-0.01722920139712758,-0.7913126629409173,0.1540017182473105,0.182280067887104,0.007154161116482515
2.0125,-9.729777481929546,0.3280434453386407,-0.9493706284428739,0.15580414211446805,0.17760178605348464,0.01068843839040183
2.015,-9.923601643020403,0.15578235877839186,-0.9620314668776144,0.14028381751274924,0.17018247177097837,0.009343178852573124
2.0175,-10.005215738259382,0.07398939307166896,-1.0951032640955691,0.1413130934470995,0.17354277235494894,0.011580658122867217
2.02,-9.904339940693221,-0.08004239562737528,-1.1888684775018157,0.1531511416466025,0.17846257852791472,0.018534901588430096
2.0225,-9.88893667192775,-0.31591042875858577,-0.8965244806309498,0.14413599389283563,0.182649,0.010447663874774438
2.025,-10.028727963786602,0.03286780396600509,-0.7848259379131076,0.14532152955618485,0.1815503298866857,0.0013103179886683313
2.0275,-9.702503771800306,0.049663658902952,-1.292440857243288,0.15152565794655393,0.17686337516174477,0.007396794646038358
2.0300000000000002,-9.42328760037729,0.09391877468149012,-1.625045611407522,0.15230915495164152,0.16826829352090233,0.006868110254974896
2.0325,-9.641415968023097,0.1975240172087616,-1.2146234904827626,0.14265792065337562,0.17563676373769013,0.0004336761470105859
2.035,-9.987683898990886,0.2777972020580137,-0.6410276736452101,0.14765079609218248,0.18476340378225242,0.013680622319883965
2.0375,-9.922412230702088,-0.10326837035450392,-0.7595711132225753,0.14127552466120488,0.18341464972054203,0.019688197703085733
2.04,-9.921470757400888,-0.1865674151001778,-1.2396972903599073,0.14701342217160956,0.16513640395347423,0.008076262120455467
2.0425,-9.83286531767564,-0.2625298562419631,-1.394939570059537,0.15173875364610598,0.16681744118123365,0.00503207045487018
2.045,-9.699852987259668,-0.012780184517540039,-1.3856868029280094,0.16205646397682702,0.17077902978456316,0.003210150812865993
2.0475,-9.813021932259316,0.30611783976423734,-1.2614466741847101,0.16077224424361508,0.1781200146954813,-0.000859389548134175
2.05,-10.063366,0.402917,-0.733501,0.158214,0.1774350992966756,0.008094
2.0525,-10.056357362380542,0.3724600364053866,-0.7596604949425589,0.1580224127848247,0.1713509280901001,0.0081750542738591
2.055,-9.931017799591258,-0.17016826140682823,-1.240324461872614,0.154243,0.1677406956653999,0.008495494990493947
2.0575,-9.980929315946964,0.06357701508521754,-1.0922332348626869,0.1543354253219698,0.1774444657433712,0.003391812826704804
2.06,-9.937568398560106,-0.07145913796066838,-1.0310716883063733,0.15817120891531888,0.174924593174754,0.00772299449730412
2.0625,-10.148421511561766,0.1163823780140967,-0.9432981852355632,0.16447969382960306,0.1654832824285891,0.006082806479535056
2.065,-10.39655468930882,0.243189171008246,-0.5437973712111528,0.15844921466074835,0.1739819369181991,0.008120672162333295
2.0675,-10.139586910670886,0.11276027223774754,-0.9142362057451324,0.15434990699684858,0.1740887849617295,0.019018779108509878
2.07,-9.832477312183379,-0.2069573355226777,-1.3611310710713922,0.1485704973110063,0.163738133623801,0.013315565182897716
2.0725000000000002,-9.929363261421063,-0.2215559826243396,-1.024105071881052,0.14946895407234084,0.16415034028795603,0.0039810563595932035
2.075,-9.996015860808836,0.019079973038027012,-0.9093798984111887,0.15739080524795387,0.17080612648050017,0.008786875493500268
2.0775,-9.6742030481302,-0.09610674803969181,-1.175706700392235,0.15837968963874524,0.16342125937594287,0.008995246729654276
2.08,-9.50001205449781,0.0342879859214011,-1.492734641816603,0.15253114148471597,0.16405731500436685,0.002002797484715959
2.0825,-9.717396349873663,0.32363540568761423,-1.249763876208254,0.1574861391582844,0.1683149658903999,0.00844195012472847
2.085,-9.892428466342638,0.11581535471473703,-0.9269371368568486,0.1589028600917357,0.1630320059354632,0.01630184023497213
2.0875,-9.727542895853285,-0.1299026565167568,-1.1352485207740541,0.15069912113815667,0.166669702461061,0.007026127570629249
2.09,-9.639111639221284,-0.09375141531063537,-1.1709216842007217,0.1503139963949425,0.17272030708136205,0.004658888724113571
2.0925000000000002,-9.618692343764831,-0.06409476143643542,-1.300247141921986,0.1586355892220593,0.17135397831381355,0.009751716546963975
2.095,-9.773284345504164,-0.04569823852311161,-1.0191299750535505,0.15924361095805165,0.16344831699359733,0.004618192910058673
2.0975,-9.84905565227148,0.17141634264505928,-0.9290443583135068,0.16010443636276317,0.16739932844204267,-0.0021039976600594258
2.1,-9.90345695152315,0.3051578705937122,-0.9653662159620953,0.1638912192570716,0.1736230232359338,0.008150042430836444
2.1025,-9.659911711864407,0.0627155291226311,-1.4863359484346925,0.157645537771685,0.1654830987587242,0.015346334965104567
2.105,-9.750719359925204,0.022675203456174138,-1.1907093107752276,0.15944128804051427,0.185398,0.008218499228671624
2.1075,-9.896733846006967,0.07488669668821545,-0.7301290652013777,0.1529867280556933,0.18511934768771796,0.0056052288811528515
2.11,-9.801166981906638,-0.01867037700589566,-1.0210925614237087,0.157726776455017,0.17440208076551644,0.015153105820068024
2.1125,-9.735527871064757,-0.13963067761340495,-1.1850002651467202,0.1575368014067425,0.16574986713558107,0.013670918894009948
2.115,-9.7075847696898,0.06590960219441258,-1.3698789122366635,0.15969863915158294,0.16751724448449215,0.007426964755602127
2.1175,-9.516349455804864,0.16902962575608543,-1.3615781336585306,0.16093622868292642,0.18189538907317074,0.013126175414634317
2.12,-9.419891695632705,0.03400115018933527,-1.2138883814799488,0.15427353373303845,0.17989773940044143,0.01444818141685063
2.1225,-9.716481964581037,0.028396201911149832,-0.964218905757527,0.14604829031452568,0.1718736632989196,0.011370804350539955
2.125,-9.669277307458415,-0.1985423441244858,-1.5209508824897155,0.14716040666547428,0.17068804083944433,0.0065927602098610864
2.1275,-9.490864114435901,-0.16363796938085073,-1.7458243998437355,0.15175525078252636,0.16907124485852926,0.0057502356008051125
2.13,-9.372178527796438,0.07342725901679793,-1.4672488747228138,0.1506715105512801,0.18542067378671248,0.0032026182943300056
2.1325,-9.671169642694679,0.24296242642624816,-0.8939639116053466,0.14946584603055285,0.19060068267468175,0.006741110593537564
2.1350000000000002,-9.840014273539705,0.1251351761395948,-0.8279908651742545,0.15338659167231708,0.18064475980436778,0.013211166311343333
2.1375,-9.789499869226919,-0.03825456207415154,-1.0453793826821696,0.15418731607847502,0.1742366334796861,0.013567238081476155
2.14,-9.491453646741146,-0.09430643846921648,-1.8247079231281098,0.14827852836700758,0.17566750197290276,0.00411368105538379
2.1425,-9.51673009550742,-0.05678380644925276,-1.5973776855370332,0.15282506146408237,0.184176,0.0025056873797036803
2.145,-9.757719098484166,0.0726976782349322,-0.9460104321634338,0.1572272120286005,0.18357035955056178,0.006567
2.1475,-9.663589787321682,0.09065885334949464,-1.3063069475258333,0.1530953654918974,0.18219752343753987,0.005434678292714071
2.15,-9.56635773416448,0.10888250853019138,-1.6564976642607108,0.15529295839894985,0.1806398320209975,0.0088055950131227
2.1525,-9.633532249854827,-0.035382877833730994,-1.4817044517627689,0.15745294966877996,0.181433127181371,0.013520096389168611
2.1550000000000002,-9.755317123339562,-0.12863716004206335,-1.224198490484564,0.1571097559258955,0.18431672027182336,0.012963913227084338
2.1575,-10.007622351456401,-0.08108667942027473,-0.9798042936374365,0.152411,0.19120112600142614,0.004581
2.16,-9.924593786397304,0.08757868430214437,-1.0082829689556314,0.15302098326413302,0.19409297216544152,0.005357457863302662
2.1625,-9.683912724797844,0.16073986846360608,-1.4555739692722343,0.1557842091644205,0.179594,0.008844761994609143
2.165,-9.680167291916977,0.06241220344408636,-1.3839394596385441,0.15678421512429963,0.18184576188461854,0.008028991230368536
2.1675,-9.72889086703507,0.1545617284590872,-1.3379210947644373,0.1588700934608573,0.19114080602196237,0.006843433241232676
2.17,-9.812887,0.032281,-1.10593,0.156534,0.1984297195373228,0.012828
2.1725,-9.812887,0.032281,-1.10593,0.156534,0.19262567995681706,0.012828
2.1750000000000003,-9.999159078128486,-0.1830873093414602,-1.0600091510655585,0.15062946524595458,0.187536,0.003787249735619046
2.1775,-9.812831775115411,-0.24790108240722433,-1.2929689262701642,0.15467398488453576,0.18735329449964938,0.0015349572848145875
2.18,-9.661276965100745,0.025053448561012263,-1.3809494995611762,0.16132425899922298,0.18449214221557964,0.0013866901369043755
2.1825,-9.8361444760553,0.07817490530730217,-1.1764898713482226,0.163865,0.1850348985802758,0.0010473402572656898
2.185,-10.093124346981936,0.15628914238117736,-1.0560714911216809,0.16198701230513302,0.18235319380228143,0.005203393398289016
2.1875,-9.991359892805407,0.09330749154997585,-1.4177984497827139,0.15889028488652826,0.18555,0.007126263399323998
2.19,-9.75231222524215,0.008624350761743296,-1.4261446918828644,0.15351137137665283,0.18638490979475938,0.004068033899570011
2.1925,-9.840435007423544,-0.03177800490684906,-1.1473754194024819,0.15587698349384863,0.18982358728998258,0.005889327831282872
2.195,-9.938343161238256,-0.11177478354576639,-0.8773873468561633,0.16069803088999435,0.1864963458074708,0.006743153508647402
2.1975000000000002,-9.883556780641262,-0.06030854559363696,-1.369974429047641,0.162854950161905,0.18331580211428533,0.004266693149206314
2.2,-9.815401005047615,0.08943642923810588,-1.607277164285731,0.16526917157142876,0.17937615228571402,0.003885544095238068
2.2025,-9.890532505392075,0.08894634691129422,-1.1531000042771915,0.16679799480191662,0.18888359836391336,0.007794303391375491
2.205,-9.824680475832187,-0.004206981054834056,-1.0773591134197678,0.1664503427522343,0.19731610972219937,0.007749277230050703
2.2075,-9.604939196114257,0.035217299047847546,-1.349422861974209,0.16059889472339395,0.181274,0.006785409974689624
2.21,-9.525944,-0.080105,-1.517217,0.154854,0.1818303003150092,0.004429
2.2125,-9.526758098780178,-0.08018095264290669,-1.5167707851710217,0.15491706094235685,0.18421540961492378,0.00445082894044438
2.215,-9.704296481134994,-0.14395049322868453,-1.3496199958657382,0.1680560319971024,0.19689974753441172,0.0080619621878775
2.2175000000000002,-9.653014063439699,-0.2003054368174631,-1.2707559047737471,0.16358818138160974,0.20136222995712214,0.004562389080512482
2.22,-9.641904863448126,0.0732022150125119,-1.4896058600500475,0.1587221383057306,0.19272457125223308,0.002972163359943585
2.2225,-9.675991,0.076518,-1.502869,0.157909,0.19098338792452832,0.004734
2.225,-9.694386309729904,0.0412883438951137,-1.4591663154477896,0.15896269688832745,0.1929772526930977,0.003908013536565973
2.2275,-9.768414398918742,-0.11243895980543821,-1.2751162901905801,0.16352067168806314,0.200098587260984,0.0003095178980942545
2.23,-9.416533162832312,-0.11543811626186108,-1.6479899492353056,0.16135010849852485,0.2023970765552986,0.0005653701076469163
2.2325,-9.179893468941648,0.05158772017062026,-2.1237016632280716,0.1636681234493887,0.195782,0.0027995685635230205
2.235,-9.653844962489915,0.12276328736656714,-1.1196799749879212,0.1713929775616838,0.19746968395097525,0.008113822606031029
2.2375000000000003,-9.76842333630104,-0.13726468907755537,-0.8312492427490549,0.1671089593620917,0.20497779499770433,0.012871089972463435
2.24,-9.673185645613815,-0.10144062794643771,-1.5300231731795624,0.15908007594128068,0.19593657003064957,0.004277227823842093
2.2425,-9.750854691385694,-0.039419627248056574,-1.7156770618313373,0.15768527559108697,0.1899270364050392,-0.0008164273643399691
2.245,-9.873577465135385,-0.017803315976247763,-1.4051860517838504,0.16813032320190027,0.19599904832779122,0.006039181251781489
2.2475,-9.746980690202513,-0.02622581369737123,-1.449249144591566,0.1685073042002274,0.20148153236860075,0.006219799881683453
2.25,-9.977100074815658,0.18385465979257837,-1.1914435497871831,0.16514516258018105,0.20234981122234877,0.003946701037108087
2.2525,-10.012954071450684,0.14760869206732172,-1.2457349548409185,0.16374247096425487,0.20147363715022773,0.009039516992998273
2.255,-9.865029020714681,-0.15941195173039077,-1.6187630038439276,0.16628196329658343,0.18522420057549427,0.011312703604660707
2.2575,-9.77388673951772,-0.21374337740428767,-1.6350469235461291,0.15628230642553154,0.19252460617021203,0.0007606622127659818
2.2600000000000002,-9.879135376557757,0.15676367516006925,-1.2992216224313515,0.1619044561384694,0.20055522973508805,0.0019037610921508318
2.2625,-9.667149551724954,-0.0029162224184605848,-1.4924584863299466,0.1657291538443425,0.19419129523136533,0.00854740157776915
2.265,-9.724298316877555,0.06121166975286971,-1.798839141383668,0.1659423857506197,0.1790652444245389,-8.390598096458761e-05
2.2675,-9.817072,0.264825,-1.801769,0.162948,0.19472823476926635,-0.000458
2.27,-9.832450279344263,0.18822536921889782,-1.6789370045130139,0.16230162121504338,0.20294915776277717,0.0026998127290261526
2.2725,-9.911781110354067,-0.2057012158086123,-1.0506058986411413,0.15898667475598086,0.19411867892822998,0.018822986602871062
2.275,-9.884859423096456,-0.2240498048223331,-1.5457945296954152,0.16150829809644646,0.17905022246192867,0.0047010102791878484
2.2775,-9.60360902655771,-0.2744633833606056,-2.007985048755652,0.16860437253405863,0.1866289003088101,0.0038353214895548056
2.2800000000000002,-9.446005388748423,-0.012111533182714629,-1.9730599899143377,0.17599445905629402,0.18791492554563685,0.0027186296010198543
2.2825,-9.625921056778344,0.13865913299551202,-1.5983581446243653,0.17208585921266883,0.18944308034389323,-0.0007912897828048352
2.285,-9.853755347204936,0.230983457435888,-1.4434925241268304,0.16808719695459784,0.19554557391040764,0.007083513002364525
2.2875,-9.685146597554661,0.056788303362313775,-1.7829897339760243,0.16877638071949216,0.19000192513519845,0.014949737314836559
2.29,-9.62446838366462,-0.32708581046940544,-1.852657921748132,0.1701859726578181,0.185245,0.012364528028488048
2.2925,-9.812954050353055,-0.17655737523855078,-1.4103776795324428,0.1729177814408396,0.18568553439885485,0.0033844558301526326
2.295,-9.664802276906979,-0.062314187713536764,-1.4778438916297805,0.18112649029740663,0.1938191395860103,0.008226425467523125
2.2975,-9.406443244042363,-0.09024724459471196,-1.74301211719081,0.18027093117962187,0.1835579541197479,0.010381324047137758
2.3000000000000003,-9.651633968028156,0.19393557033009123,-1.6863083092158586,0.17330615188234316,0.18081831351610647,0.0037316758852216055
2.3025,-9.839073043516644,0.024726705732623325,-1.3900196592130496,0.17002635424635157,0.18681237639696485,0.009176316730881526
2.305,-9.908788800215211,-0.05765453110093821,-1.1938697893487658,0.17198294047378165,0.1889937529462774,0.00910222314301764
2.3075,-9.934796787728468,-0.046277792952758225,-1.4155814085919909,0.17552496468217804,0.18006794248980595,0.007423026150155831
2.31,-9.75809217729669,-0.21745271544154662,-1.5096421783227492,0.17900651040660756,0.18489643794472688,0.005655833904066047
2.3125,-9.45682750106383,-0.047642352127659576,-1.710158240425532,0.18800085638297873,0.1877344436170213,0.004429
2.315,-9.580396467105185,0.12881081000241817,-1.4490823791148861,0.1840767421330116,0.18371732442079822,0.00301357232406301
2.3175,-9.663192867635454,0.0574580134544353,-1.5967280350140807,0.1762731874224868,0.18458720091450034,0.0054360977763856675
2.32,-9.623238478713363,-0.028892105138231036,-1.777391493508525,0.17815695502943069,0.18490480168856657,0.007552680047565199
2.3225000000000002,-9.585400272355555,-0.11138255469556275,-1.876265191554815,0.18296087791254623,0.183966335827476,0.008286625721433665
2.325,-9.776700120000006,0.01281124650484763,-1.380251600194158,0.18368611873786417,0.19061387067961177,0.0022320212621363645
2.3275,-9.84018494008347,-0.07905327367346959,-1.1787599563451223,0.18504275954545468,0.19182413998144668,0.008192063775510123
2.33,-9.554160742587781,-0.06853908923520735,-1.8172596948148179,0.18626640203944186,0.18443572923520918,0.006520906108706061
2.3325,-9.52105519076181,-0.004784055731071921,-1.9165258831157077,0.18031394617695118,0.182933178439032,0.00490514080771925
2.335,-9.774697818616447,-0.06234109490311955,-1.4843577040043638,0.1781957426939538,0.18928860483697757,0.005777390238891903
2.3375,-9.539311400663456,-0.05703090551097352,-1.5289659506260034,0.1783689700588551,0.1944599477367576,0.0020327310647406185
2.34,-9.554739325448903,0.0861791050615221,-1.5225937054638847,0.17502744054788677,0.19531664947672547,-0.001223520997324588
2.3425000000000002,-9.778069449240606,0.04279028918591876,-1.5834733409768948,0.1772181327837872,0.20244261031082858,0.006318452578846494
2.345,-9.754746751106975,-0.18815507918367153,-1.5632588795918607,0.18396754645640062,0.18865822419295145,0.010055102683981843
2.3475,-9.594215973061822,-0.1597278105114946,-1.8667102423563586,0.18244197156848452,0.208152,-0.0006333481793940718
2.35,-9.645572087843982,0.08894686365527889,-1.7388827109689255,0.17869968119941426,0.2085646025129115,-0.0005728714561008348
2.3525,-9.613680763820241,-0.056491831875435675,-1.4620167782902913,0.1815391535558468,0.2104163620257458,0.007820262887535772
2.355,-9.98351787832194,-0.163852350384163,-1.2223810145745926,0.18517386737685604,0.19479917121219262,0.0024658401037002684
2.3575,-10.065068941670114,-0.041762513125688946,-1.3658701062222516,0.17966699979154027,0.1953759545897463,-0.005272000208459724
2.36,-9.575390731426333,0.12398664343011499,-2.081060853837502,0.18284421620757868,0.20632,-0.00036494044774960737
2.3625000000000003,-9.148434617954848,-0.005825090817132183,-2.2825243698434563,0.17966050554765248,0.2060381713292226,0.0038007882724821864
2.365,-9.622997708809903,0.0011098961782841383,-1.6103095920340822,0.17573766788051176,0.19325621716453187,-0.0039189319867242245
2.3675,-10.121928820891098,0.14007584280850158,-1.1559264702215741,0.17531710072311643,0.20444692468392922,-0.002604105285747394
2.37,-9.828439928541906,0.014903832064294343,-1.7110248609598153,0.17549765264753184,0.2050900781079218,0.006863541033295006
2.3725,-9.805409780574053,0.02497947163872964,-1.6884746582257937,0.18150338874244176,0.20178022167929577,0.005515199908151521
2.375,-10.124262756716535,0.02899022033367275,-1.1153427342367042,0.178002914701966,0.20567143291297876,0.0015169511239915407
2.3775,-9.964240082654552,-0.037368570366221925,-1.2952148618054393,0.17377469693958483,0.205973696641008,0.006678075665966949
2.38,-9.447252118014523,-0.06292976397095146,-1.9871895259273669,0.17158913499273631,0.193492,0.0031401444067798425
2.3825,-9.530128,0.102822,-1.848398,0.16585,0.19359948744879787,-0.001069
2.3850000000000002,-9.548594793285242,0.046691402462697484,-1.7918501102837652,0.1674491837037044,0.20096431463203504,0.0012232273015883215
2.3875,-9.630804061875125,-0.22264295798204697,-1.538039835521823,0.17498975337479836,0.20523105878829753,0.011839166321123274
2.39,-9.440253349883571,-0.34220463804574774,-2.1038751694552436,0.17404313314550934,0.20324385989414515,0.0008622732350783626
2.3925,-9.653127736930104,-0.06893149618544799,-1.851105305226994,0.1745368937689166,0.197615,-0.003294850747057312
2.395,-9.819464,-0.199665,-1.691774,0.173791,0.19795322907182583,-0.000611
2.3975,-9.816667589818188,-0.1941139483636473,-1.6922226690909081,0.17381499999999994,0.19974021890909036,-0.0007256239999997747
2.4,-9.50480982487467,0.07077424658411641,-1.8811259725279275,0.17837737802476572,0.21429634205980078,-0.0024180107762008293
2.4025,-9.253023567421534,-0.010382015334234695,-2.15002112987723,0.18370263743519788,0.21083396518417552,0.005464728403820053
2.4050000000000002,-9.635377998458837,-0.09915637627050844,-1.853738599102525,0.18312027837424827,0.19883228792716684,0.0026911051341240665
2.4075,-10.122147086473325,0.06778411272215593,-1.2546773290645656,0.1849225953320854,0.2040577100000011,-0.0019704582226374085
