time,acc_x_g,acc_y_g,acc_z_g,gyro_x_rad_s,gyro_y_rad_s,gyro_z_rad_s
0.0,-9.006455,-1.510043,-3.632233,-0.008858,-0.005345,-0.002749
0.0025,-8.753289108903719,-1.8535714159389896,-3.4481958197140132,-0.003600040190657768,-0.012525370753098189,-0.0018309827645376546
0.005,-8.96611482793893,-2.2512067041221373,-3.160142854427481,0.07033023251908398,-0.051459238625954196,0.01069959396946565
0.0075,-9.47230862627264,-2.4476338564346998,-2.82057469448999,0.08302379077216396,-0.12516703645376548,0.030541794966634884
0.01,-9.999381134545455,-2.2124382363636363,-1.9567971163636366,0.12369444727272727,-0.18953155272727273,0.08263116363636364
0.0125,-9.904880480916031,-2.572208073282442,-1.6389797490458016,0.17776706946564888,-0.23901622767175576,0.11837400629770992
0.015,-10.088000712183032,-2.354386476835081,-1.6033893972545261,0.2275876628026692,-0.28811173593898953,0.1556974555195424
0.0175,-10.216161676451014,-2.724026952236603,-1.2041952717929785,0.27643646025878005,-0.35399567497227363,0.20744822166358598
0.02,-9.571160900819828,-3.4758138002287877,-2.3974963215633944,0.3390073577502383,-0.36347907222116305,0.2155635598093422
0.0225,-10.359664775845825,-3.1452115307066366,-1.9663057188294062,0.357253418729479,-0.3823276222412563,0.24260886769450393
0.025,-10.72903480286533,-2.753134698567335,-1.667533841833808,0.3550758957020057,-0.3914673765042979,0.22705052550143262
0.0275,-9.539149514032832,-3.1646074995574587,-2.496851770963598,0.405462,-0.39680830481084944,0.219911
0.03,-10.145885662219044,-2.262292374574085,-2.1712663571939874,0.35446319851109526,-0.425773,0.27998552735862564
0.0325,-9.69413568305344,-2.627660601068703,-2.590722092977092,0.36157578290076337,-0.4438888838167939,0.2870029241221374
0.035,-9.842311969770769,-2.5449711163610322,-2.452636254613184,0.3132935348424068,-0.39981093375358157,0.31893553237822353
0.0375,-10.103601919083973,-2.162894696183207,-2.0660828912213725,0.3111053568702291,-0.4049655408396946,0.34478215458015266
0.04,-11.104312142345085,-3.170610203851288,-1.5475146134604425,0.3170038475500477,-0.36417770783603426,0.37848185391801714
0.0425,-9.806915080686382,-1.4908992983031588,-2.636311432640607,0.21414420141086704,-0.392175,0.39282570432793157
0.045,-8.925971157175567,-1.8049173251908393,-3.3892456097709953,0.2324939488549619,-0.3959331776335878,0.43124500610687017
0.0475,-10.004408667786256,-1.8124296818320627,-3.095640456488551,0.21828488488549608,-0.33984885465648856,0.46859798992366414
0.05,-8.245179824236644,-0.8877535166030504,-3.180692197328229,0.2054216274809159,-0.3980414419847329,0.4781811870229011
0.0525,-9.179993458379426,-1.4302069966825628,-2.9442360480838663,0.21256871599618704,-0.41454909113441335,0.46521791035271676
0.055,-10.180801059980935,-1.8530796617731162,-1.5223269066920868,0.18930062890371782,-0.33884400903717826,0.4924455408960915
0.0575,-11.623734733191489,-3.5243750903879825,0.29621303679599253,0.12212018272841102,-0.3754957492615769,0.5284486603254067
0.06,-8.52659276552613,-1.277150787831058,-3.5951624382820317,0.17946429443092357,-0.3882755133571943,0.5028005739441659
0.0625,-6.647261384541984,-1.3506143578244276,-4.237802971374046,0.2007636784351145,-0.41001390648854963,0.502885483778626
0.065,-7.727876623679691,-0.6546529936701615,-3.580524440838898,0.20738687855100077,-0.42273338116301223,0.4588988592564347
0.0675,-9.089580648732138,0.1516208579599685,-2.396002354089601,0.23402718856053428,-0.4230273826501433,0.45613665128694025
0.07,-11.272587528618457,0.3932043472584213,-0.8242668721259916,0.2201465656979241,-0.4093389629778094,0.4203922551467434
0.0725,-9.721478975023855,0.16384875111532327,-1.9967437264442136,0.20861462570066788,-0.4113256972354623,0.3966078104480462
0.075,-7.635036866158248,-1.0207488358436563,-2.9590688770257363,0.17998909799809362,-0.3883523529075307,0.3933724146806485
0.0775,-8.745473414922692,0.9758155582842887,-2.534967879760599,0.25443219541147133,-0.4331779378154613,0.30932742118703244
0.08,-8.976610986106875,0.3044594719847377,-2.2051084565648824,0.18919193694656525,-0.4068454781679388,0.2943789202290075
0.0825,-9.639067002786252,0.6844055433587859,-1.2115336904580467,0.24238079286259534,-0.4245711094274802,0.20177471507633565
0.085,-8.15448604179388,0.8211026867175576,-3.2879470335496617,0.24458301748091665,-0.4304797954580156,0.1832777092748091
0.08750000000000001,-10.126736540345792,-0.3760681345821545,-0.8066849219020293,0.2618776031700294,-0.3956686804034579,0.16617581671469686
0.09,-8.752271669742635,1.4006071343756163,-2.1143017193517495,0.2096646240228791,-0.396103498112488,0.08340352198284047
0.0925,-10.506933,1.914753,0.088474,0.287107,-0.3874981143946615,-0.015424
0.095,-10.471251813244274,1.4606048428244294,-0.8537754614122185,0.3311678569465649,-0.38054022935114507,-0.013975716564885493
0.0975,-8.83178568488552,1.5134681346183194,-1.3339849605725111,0.3089423183206109,-0.43624027106870167,-0.10099434519083968
0.1,-10.214604636641232,1.4792046706106943,-0.8401449538167675,0.35369582709923636,-0.37164874580152657,-0.14160955419847335
0.10250000000000001,-9.228189850557417,1.8914239832639383,-0.8927781565077161,0.36238965157823994,-0.3585788189388857,-0.15994048631296193
0.105,-10.608213413091613,1.2686533458396831,-0.41418012996181364,0.31894785862595404,-0.3530382401908396,-0.16708817015267136
0.1075,-9.741313485152677,2.873346092862594,-0.2013537701526691,0.3298606478244275,-0.33068846832061055,-0.16650308614503828
0.11,-9.36518290508232,1.909231774201861,-0.5807976250823187,0.27261608512526847,-0.36532595570508236,-0.14845146216177524
0.1125,-9.911181748091595,1.69876605343512,-0.7125025984732926,0.2303829557251908,-0.3051430885496181,-0.1537452641221375
0.115,-9.42899535324267,2.1413479893199834,-0.9492311118969184,0.1809261862848962,-0.28184821935576215,-0.12767038408017192
0.11750000000000001,-10.07200639561488,1.8012246072831326,-0.20536176358436237,0.1266646056816014,-0.236863,-0.09177624991420401
0.12,-9.509920650371788,1.4083814413727376,-0.4732013294566215,0.08118761330791247,-0.169362,-0.06775748728312678
0.1225,-9.591893796297713,0.916908649847331,-0.33877858251907694,0.0409606580152672,-0.09357990732824435,-0.030660046145038176
0.125,-9.712290348033372,0.8788130619785459,0.06932947318235995,0.014675678188319427,-0.0549353694874851,-0.016857234803337305
0.1275,-10.465621667494032,0.1508758964200478,1.1894307438663454,-0.009114588735083539,-0.016799,-0.0063754028639618505
0.13,-9.479995412729437,-0.05609060486293056,-0.13935998703218339,-0.0023992145887962507,-0.006724339928486181,-0.0013732200238379395
0.1325,-9.97359188638855,-0.09914257516090627,0.25663734669844585,-0.006041327294398083,0.0030003468414781386,0.0011663268176399814
0.135,-9.87677193806913,0.012652075613824948,0.16790169187128212,-0.008040546841477937,-0.004759419928486687,0.000153
0.1375,-9.819257525148986,0.05017764719904512,0.2695389070321834,-0.009398527532777277,-0.005894929201430359,-0.001123696305125115
0.14,-9.842312327771165,-0.026995993420739293,0.24577423461264786,-0.008919590226459958,-0.0060022193087009255,-0.00023864185935634611
0.14250000000000002,-9.953080978632737,-0.07057192515102899,0.26740876044513834,-0.007665805850556201,-0.002211381621621606,0.0015519062639110966
0.145,-9.898046204576884,0.017088008152560837,0.2899819935160998,-0.00893359966626933,-0.010092978688915124,-0.0019075988557805002
0.1475,-9.974047408915373,-0.0420690987365925,0.3979702726102493,-0.00898266140643637,-0.005186329296781847,-0.00209232905840289
0.15,-10.017177151382267,-0.055929517254528854,0.4381543180171583,-0.008276182840800768,-0.00918765529075303,-0.0009928951382268385
0.1525,-9.982747993230033,-0.02684092915375445,0.4360898869606649,-0.0069417571871275814,-0.009032416305125081,-0.0008323655780691275
0.155,-9.94021098908224,0.004182007437425623,0.3520873271513713,-0.009620847103694881,-0.005651,-0.0012217378307509041
0.1575,-9.879557315323677,0.0025276879323163914,0.2545957227945134,-0.008331559071913856,-0.006137456900397381,-0.0033581855403153446
0.16,-10.278954286293208,0.3865843715375448,1.016830317949941,-0.01358340924910622,0.014113134970202543,0.005814522574493626
0.1625,-9.881274218831933,-0.09971593778308144,0.26817655756851966,-0.009206713230035782,0.008453410011918655,0.004734
0.165,-9.996348695494634,-0.20011316414779878,0.39630848181167777,-0.010941479666269332,0.006117786460071621,0.005303395995232123
0.1675,-10.07609245411764,-0.039706764705880304,0.3541758117646975,-0.008705,0.004167567058823603,0.000458
0.17,-10.039412371630126,0.06619315736892337,0.41061012697807947,-0.007981223794089765,-0.005512853765490862,-0.0019071841372734894
0.17250000000000001,-9.903624794296809,0.039193996638002764,0.2534130321109551,-0.009745762429958378,-0.005184205525658789,-0.002273847511789146
0.17500000000000002,-9.795555000835678,0.04804234380072333,0.12941726349538035,-0.00837354008838891,-0.005118918505423889,0.0007120801767778173
0.1775,-9.933962858792297,0.021225004070310242,0.3280038979887584,-0.00841053752959464,-0.007636,0.0007335491809159319
0.18,-10.089668,-0.058584,0.563128,-0.00901,-0.007267547783662336,0.001833
0.1825,-10.033584922761957,-0.0727465009284543,0.47588694689865074,-0.008394980722477963,-0.005742981702426471,0.001217743812124526
0.185,-9.848722983308932,-0.1072532862664716,0.19251679761347001,-0.006361425373352856,-0.0027143144216691052,-0.0010267870863835983
0.1875,-9.863294263579188,0.030824273870783306,0.2619718879359634,-0.0065876249285305895,-0.00533065122927387,-0.0026148627787307035
0.19,-9.999663882740673,0.053957582491970656,0.4347083887078975,-0.008391959370830933,-0.0069285621378572,0.0004094784913118683
0.1925,-9.977245800402173,0.009472435654686116,0.3485390449508836,-0.009183889786201318,-0.005507944893100659,0.0015814335559921418
0.195,-9.867561732042732,-0.059814634127549546,0.23423200606021374,-0.010380954075752674,-0.006652815202330856,0.00040527719650371597
0.1975,-9.904739289490115,-0.11636656038848431,0.31157234249046195,-0.009743737176552183,-0.007779964467568503,-0.001902866777662162
0.2,-9.98142439527035,-0.013866508636748256,0.3698586840933828,-0.006501136385629618,-0.004148609677029144,-0.0048266410426998875
0.2025,-9.877164840007257,0.04489725305673189,0.2549846274924392,-0.007760011043909527,-0.0023081793201886924,-0.003954624591750328
0.20500000000000002,-9.802150530216313,0.04826059889876471,0.18526495314087926,-0.008212985639896166,-0.0037929989711319428,-0.002023478974278279
0.20750000000000002,-9.870242695540371,-0.03441452076942658,0.3209537088332106,-0.007714347405720065,-0.010507595059478694,0.0010603535003796737
0.21,-9.950790455486997,-0.04593669426713949,0.38366341870921983,-0.007806721406619385,-0.006392000319148954,0.0011176380189125304
0.2125,-9.975192857181357,-0.04721467736207986,0.37558748528852265,-0.00845560453392517,-0.0015556787412809188,0.0008057619847812311
0.215,-9.929989302595674,-0.05838172432612316,0.3239795109484193,-0.00999680928452579,7.26372712147596e-06,3.034975041598005e-05
0.2175,-9.867882380896969,-0.026308516237575783,0.33369841136484846,-0.009095438627878788,-0.0058751078448484855,-0.0028506768678787887
0.22,-9.87426902489603,-0.0017501543100189058,0.3352094494234404,-0.009332094735349716,-0.004313985236294895,-0.0009272399149338368
0.2225,-9.859703709058106,-0.020281885426429308,0.2808438239175257,-0.00926468435332708,-0.002462843111527645,-0.0003843193861293371
0.225,-9.893675154365015,-0.045194815200903654,0.3109405540261419,-0.00876471323220914,-0.0023507717928029736,-0.0014962963046635475
0.2275,-9.959222725148562,-0.030493291575944718,0.3853592827430474,-0.011132261174233425,-0.004204888048490615,-0.0021222611742334253
0.23,-9.934676557528993,-0.018505144170414285,0.37645255752899387,-0.011233781017751474,-0.0038389901917159673,-0.00216201464615384
0.2325,-9.873155522194976,-0.051809762061659645,0.31243144169027465,-0.010125709986906319,-0.00218436149506011,-0.0006964622164028027
0.23500000000000001,-9.89677772407431,-0.08180117605589071,0.33804042752937513,-0.01010925607494443,-0.0021067693426484613,-0.0007899089711019466
0.23750000000000002,-9.983640882871088,-0.057769198238304544,0.4192856498512079,-0.009751773884061406,-0.0029767358647780195,-0.0026182261159385938
0.24,-9.945292926527756,-0.029489027822490816,0.32630558063305287,-0.008128025112136157,-0.004033671977095596,-0.0032726627962462265
0.2425,-9.863206390194119,-0.017727182368941254,0.22930771371847017,-0.007431447732186447,-0.002430104172962932,-0.001774168290131356
0.245,-9.988002351285122,-0.026596175808383166,0.46448250125840634,-0.00890473751819438,-0.0020756492934131754,-0.0012441622220175066
0.2475,-9.98742517564256,-0.06470908790419158,0.43041175062920317,-0.009568368759097189,-0.0011903246467065876,0.0005994188889912467
0.25,-9.986848,-0.102822,0.396341,-0.010232,-0.00030500000000000015,0.0024430000000000007
0.2525,-9.87531413197778,-0.06947328035309333,0.24107896228597525,-0.010718017782512745,0.0011286725941709146,-0.002455780126322197
0.255,-9.833835811820128,-0.018722593732208036,0.2837877613049505,-0.008281648792039303,0.00029809748834865816,-0.0019503512079606983
0.2575,-9.866450138529387,0.00022988089529965604,0.35405360301085953,-0.008936372043438614,0.00044739132222498834,-0.0009459252888999394
0.26,-9.846184449344275,-0.007564681810494929,0.30286913405952065,-0.008670816238083395,0.0015091799187598477,4.9800324960627e-05
0.2625,-9.825918760159164,-0.015359244516289512,0.25168466510818177,-0.008405260432728176,0.0025709685152947074,0.0010455259388211934
0.265,-9.917519782296363,-0.05468555365611538,0.3943951581121332,-0.010934065938644317,0.0007672655089917847,6.579477256083089e-05
0.2675,-9.96198508102483,-0.06962610956507975,0.41776408723074426,-0.010881368809109601,0.0014517113015973479,-1.8978396330981279e-06
0.27,-9.903636827417152,-0.050986030082845885,0.309851624751461,-0.010845471276803109,0.0017429544883040646,-0.0018141531140350863
0.2725,-9.891066072054546,-0.03766744071363632,0.2600482073727284,-0.009602830827272722,-0.001069,-0.0021367002818181934
0.275,-9.98523088654315,-0.03588027883959047,0.3606631653827407,-0.009686285519258904,0.0003506973183813038,-0.0019758819600194854
0.2775,-9.919252807972438,-0.04833335482283499,0.24542633826771137,-0.008335813612204663,0.0029172406397637947,-0.002862672824803223
0.28,-9.874713913396205,-0.079753854285041,0.199665,-0.008823035826948026,0.0018472485818696075,-0.002391606377460791
0.28250000000000003,-9.913566054855657,-0.09724664111689524,0.2519982653951748,-0.00956495768575485,0.0009720423142451513,-0.0020306482489351827
0.28500000000000003,-10.006247669034842,-0.05467548008740957,0.39279726598519005,-0.008612333451499312,0.001069,-0.0019504290494111692
0.28750000000000003,-9.95281716540777,-0.03209755247478299,0.320464793838453,-0.008094,0.0044169439518336705,-0.001374
0.29,-9.883483520126333,-0.031007091510637037,0.2304546465812519,-0.006669593573684528,0.0018833404493176769,-0.0006513119456528185
0.2925,-9.940635629812288,-0.030259760066742154,0.31823672286276083,-0.0061922012466479985,0.002360107917287405,-0.0010331008354686822
0.295,-9.968913,-0.02989,0.361669,-0.005956,0.0021489154559090604,-0.001222
0.2975,-9.955750883031973,-0.04327527959765273,0.30790471897976385,-0.00646875159382109,0.0021539451802179265,-0.0010510828020596366
0.3,-9.922202900255874,-0.06867899781344496,0.2207634821586415,-0.00708162968132124,0.0025852598743893985,-0.0011992588043731062
0.3025,-9.962117283463568,-0.07213495854511323,0.3088331026493008,-0.008093830233485845,0.0014764078892408805,-0.001934629449724274
0.305,-10.068348879818652,-0.06775098522020728,0.4470268476813473,-0.011496219689119166,0.001069,-0.0019599198704663224
0.3075,-9.960846083142648,-0.08319274601522207,0.20863744532285908,-0.009219550120304464,0.0016198153007611063,-0.0002488895654308952
0.31,-9.914718060627111,-0.0612087720284612,0.17097811215147127,-0.009404496565364205,-0.0004919074867341996,-0.0006415372624216102
0.3125,-9.9491443053699,-0.019671207075362986,0.28207923611431207,-0.01019384305139433,-0.00046020523162018916,-0.0014886353998617193
0.315,-10.015492219751412,-0.020616302915254292,0.3671792246553671,-0.008873005785310733,0.0017230678870056482,-0.0013060028926553666
0.3175,-9.992912853024523,-0.06242016752043594,0.2562184393460489,-0.007943211989100819,0.000458,-0.00045507040871934425
0.32,-9.944478394505646,-0.05046113076745797,0.16969063214565608,-0.009012685982945395,8.981519705000265e-05,0.00033531637704539924
0.3225,-10.010766647360386,-0.05507208685576531,0.3106205372856573,-0.012106335749296895,-0.0021816968003214128,-0.000458
0.325,-10.055066191212653,-0.03785825534856463,0.4009499186174568,-0.009279760421792616,-0.0015616768834211944,-0.0006388426010544899
0.3275,-10.014138686678812,-0.0240450701465347,0.26810895330217793,-0.00901,0.0005297811770297044,-0.0019134534019801966
0.33,-10.01523114134038,-0.03446558996877269,0.2263230004323813,-0.008783827432140266,0.0006584198798942986,-0.0015895309728561062
0.3325,-10.07101015111039,-0.06237007058364513,0.34219331549341636,-0.00712699986343685,-8.295600065029522e-05,-0.0007269118647374402
0.335,-10.076015828548174,-0.08294132169479322,0.4125234517534404,-0.008292532505086768,-0.00015617993058054578,-0.000611
0.3375,-10.014591266619485,-0.05123423131241631,0.3494259036722495,-0.007556676291578201,-0.004887,-0.0009671790044821992
0.34,-9.974294,-0.037064,0.326399,-0.00733,-0.006128141859799833,-0.001985
0.3425,-9.927649339902796,0.02512772419257294,0.24140381699403846,-0.010242961320495219,-0.0032258455680879835,-0.001985
0.34500000000000003,-9.893265453960634,0.016521997426788042,0.21053367861737854,-0.010607046529044645,-0.0003605937205952651,-0.002233318233317334
0.34750000000000003,-9.891747527265627,-0.017565345859375858,0.22529055449218885,-0.010856767929687514,0.0006217464062499585,-0.0023899959374999976
0.35000000000000003,-9.966692880074925,-0.07231041020838264,0.3098014869585585,-0.010041890798407829,-0.0035857138375088482,-0.0013700941699835855
0.3525,-10.018531,-0.101626,0.352702,-0.007941,-0.005651823376194458,0.0
0.355,-9.99149173186015,-0.04985962577486278,0.30185994937835103,-0.007409832860228826,-0.0015823905624450067,0.0006494620049603869
0.3575,-9.943882443149032,0.025794423072042112,0.22204141733237445,-0.006585243497609881,-0.0009132527704217502,0.0015707774914336505
0.36,-9.926381040348577,0.0016637346334448556,0.22522365187021445,-0.006653111058843437,-0.002606836749439477,0.0011644592816955055
0.3625,-9.912580326180256,-0.022679312446351758,0.23904955879827997,-0.006852092703862621,-0.004011742489270468,0.0006428669527897369
0.365,-9.914875674852665,-0.02257151768652034,0.2153403533981194,-0.009380568830721012,-0.0005485294764890286,-0.001502039354231984
0.3675,-9.885041542617923,-0.02163489446226422,0.24851168980660288,-0.008011637316037731,-0.001462653235849047,-0.0006463394528301795
0.37,-10.008316458332803,-0.011864404483963146,0.46379144298507446,-0.009848749145760557,-0.002940625427119722,-0.0020236254271197222
0.3725,-10.032315621296274,-0.023996395145561265,0.4469419485324071,-0.011614389720857791,-0.0030161936168683337,-0.001374
0.375,-9.873203582191781,-0.013611589041095891,0.249136198630137,-0.012089786529680365,-0.004429,-0.00013636301369863014
0.3775,-9.884498926197953,-0.03351496849146771,0.2991255163959048,-0.01256294596587031,-0.007866950361774754,-0.0005378919317406208
0.38,-9.953543852784193,-0.07842684267111057,0.3330228610022615,-0.011337918378764435,-0.0065777042209260745,-0.004447960754672063
0.3825,-9.907283440585644,-0.07357650778716818,0.24348512985596932,-0.013244476931317705,-0.003623318562075935,-0.004638304570884419
0.385,-9.877755558912135,-0.06988399569037657,0.21126050832635992,-0.013626132845188281,-0.003931951966527209,-0.00447766121338912
0.3875,-9.89286663602649,-0.061319388344370764,0.29136624028898345,-0.011203721685731464,-0.006714981962673093,-0.004303431595424446
0.39,-9.921478677624387,-0.04849624334228397,0.3639484896983097,-0.009822899680935093,-0.005731103648712669,-0.0027396521434212414
0.3925,-9.86558599487899,-0.04611982821933826,0.27641337457734017,-0.012822134890681663,-0.003233065983865299,-0.0021770186881796233
0.395,-9.794558299131271,-0.033250653697707765,0.20628081072287255,-0.014379468100657143,-0.0033108575444782966,-0.005000802801731044
0.3975,-9.797344,-0.013749,0.235533,-0.013134,-0.002033652175904648,-0.004734
0.4,-9.858440145878694,-0.02877256003110435,0.28026971150855406,-0.01014894634525658,-0.0015805639191290876,-0.0010664888024882998
0.4025,-9.908963168651107,-0.040205989204069405,0.32652202363614635,-0.007221260672651089,-0.0020986964883303446,0.0005845679712746445
0.405,-9.951610474583209,-0.020287799564574396,0.370744272874637,-0.004294923497603994,-0.004581,-0.002901213857895032
0.40750000000000003,-9.892645676987517,-0.025850469500088805,0.3125214127432993,-0.00600026303733067,-0.004581,-0.0013857011276104658
0.41000000000000003,-9.900303482435433,-0.009756841366159666,0.23605777723147578,-0.01164075353125753,-0.003281125990827893,-0.001482435626357725
0.41250000000000003,-9.942667294243302,7.719688631439674e-05,0.31738189475018214,-0.010481574656046329,-0.0025079182476466224,-0.0025454380883417954
0.41500000000000004,-9.977242141440568,-0.05012759017386311,0.37407686881608565,-0.010914747761088141,-0.0028294881182732304,-0.00236251188172677
0.4175,-9.914156653504369,-0.07960904156142873,0.32032605391131325,-0.013353238836669227,-0.001306931801393362,-0.0023648477673338456
0.42,-9.904430034323473,-0.03964604475509243,0.3484266872138697,-0.014075230448593596,-0.0026545532710960107,-0.0033537482056255996
0.4225,-9.927257473847288,-0.02577646981586017,0.39244342133562465,-0.013365400495948952,-0.0024739074834274804,-0.0037381757476061942
0.425,-9.937116638313,-0.07829157970429006,0.3584757804152869,-0.012386798464894556,-0.0004527185586167812,-0.0027289867819342358
0.4275,-9.90083582081566,-0.09707287931639871,0.2663521327149851,-0.012436241879903685,-0.0012387654159869543,-0.0025315779041404467
0.43,-9.898886454673875,-0.07979444652972986,0.2190921071567562,-0.009639262962162162,0.00016400856216215756,-0.0031887370378378384
0.4325,-9.987121372712934,-0.049899902283911654,0.388039069280757,-0.010191943722397474,0.001374,-0.003016186044164038
0.435,-9.95640151004292,-0.048009389985693963,0.3889647082689561,-0.011244276623748214,0.0024931352217453396,-0.0030416629470672377
0.4375,-9.830094333200769,-0.04259487810697952,0.27516046974216213,-0.010806380194869755,0.005521479883343275,-0.002355569894611255
0.44,-9.793310818674033,-0.04939338190247419,0.24523832303867407,-0.010723417869325007,0.0015243530650972871,-0.0019499351957722808
0.4425,-9.877631391491713,-0.06746198612058615,0.2881517303314918,-0.011108164407878934,0.003255397638722078,-0.003296233230843144
0.445,-9.912509511215365,-0.06618136272355159,0.2875095336460956,-0.010672328907430728,0.004123,-0.0034678984445843802
0.4475,-9.874594296170212,-0.06651624327294851,0.25104203184924007,-0.01122783572036476,0.005465509257142873,-0.003308195754407302
0.45,-9.82203246525224,-0.09290677105139086,0.22462551390853355,-0.011845941159830252,0.0074090567656765645,-0.003263784818481839
0.4525,-9.82536600746782,-0.07493870330807136,0.22937983209431068,-0.007881831863346542,0.007651936638999172,-0.0025013086635390473
0.455,-9.864190477727597,-0.04649365383725541,0.33492417275017894,-0.0066585744204104395,0.009639785566912296,-0.002405428866175406
0.4575,-9.910259229367632,-0.04791388017148973,0.435444661736335,-0.008149939292604503,0.009141442615219687,-0.0020624966773848154
0.46,-9.934722314160727,-0.04709260380427747,0.4399619304504206,-0.008949110434219065,0.007549576911860026,-0.004326067044718078
0.4625,-9.879660773951946,-0.029879303893951253,0.27251484990886177,-0.010762131101905575,0.008036676354598158,-0.004304614913007466
0.465,-9.896473814477886,-0.013202824213556709,0.21420539818895623,-0.011531087589636222,0.007792871824129814,-0.003806574017272955
0.4675,-9.967159737880142,-0.026695670787309424,0.33044365220211824,-0.011500159623971794,0.007669944460634532,-0.0035311492361927324
0.47000000000000003,-9.970378294241245,-0.049732185214007886,0.45436317474708093,-0.011666990116731528,0.008336360019455289,-0.004246004941634236
0.47250000000000003,-9.906503230501318,-0.06281477137922792,0.3644376864763714,-0.01306290600143923,0.009071156776205262,-0.00289949444950823
0.47500000000000003,-9.91494535697148,-0.07114861220306658,0.3580465212838661,-0.012668981520616459,0.004030408469055306,-0.0009423572733772906
0.47750000000000004,-10.05038460312847,-0.06342773417482583,0.47913788788014755,-0.010360658869883226,0.000458,-0.0023964417223074977
0.48,-10.086572470434014,-0.03959576506643073,0.4169144171833497,-0.009895918051372911,0.0022256658281664937,-0.005255249034543843
0.4825,-9.874093385950532,-0.004431300899882418,0.18113616470200405,-0.010394747213191953,0.0031219731825677596,-0.003962939590106036
0.485,-9.884864403247978,-0.022912439410906062,0.20717762295342942,-0.010996,0.0009700229375083022,-0.003512
0.4875,-9.974070402837437,-0.047015537418719104,0.33630449324137834,-0.009097275152709378,0.003943284768472869,-0.0038041482955664995
0.49,-9.999666829858247,-0.04868915055412379,0.34768434605670173,-0.008301343737113392,0.008247,-0.0038676476675257748
0.4925,-9.938425,-0.034075,0.215806,-0.010079,0.009946000607559152,-0.003512
0.495,-9.902119499286696,-0.033821026280630814,0.2254536036942984,-0.012543564370400315,0.009691870560452901,-0.00403098977436312
0.4975,-9.961549120869565,-0.005848457608695734,0.33545995524574646,-0.013205005604914942,0.00510317036862004,-0.004004091720226846
0.5,-10.065018225865812,-0.10142807794658866,0.32616086354628665,-0.010389210248183447,0.007789,-0.003802248089081816
0.5025000000000001,-9.977472470168914,-0.10527328539775417,0.2664166701632524,-0.011900180854958985,0.007789,-0.0036508541775974296
0.505,-9.8989957194165,-0.10783052937332241,0.22095193940016358,-0.013270593880266074,0.007618721834519777,-0.003558522427354418
0.5075000000000001,-9.973004527286731,-0.05540168626350018,0.33221512357630967,-0.012341614990686627,0.006637141383335453,-0.00492179283745197
0.51,-10.064670423838095,0.025518215450793635,0.3621648344857141,-0.012044391590476199,0.007636,-0.006656638085714286
0.5125,-10.039454,0.022716,0.328192,-0.013744,0.00718634456431538,-0.006567
0.515,-9.98280575228199,-0.019154139442091413,0.27893301242106894,-0.01286313921509071,0.004840975455199408,-0.004742242087762749
0.5175,-9.906582277547658,-0.07648844100729596,0.23262664476347247,-0.01110003557542954,0.003383301266180236,-0.0023066548081901533
0.52,-9.919842991698472,-0.054651731316810254,0.2515080464993266,-0.00899456534009025,0.006157414525298936,-0.001729714701084792
0.5225,-9.813171767100709,-0.039102439999999475,0.14177254400000386,-0.009092540084309039,0.008247,-0.002798070819672014
0.525,-9.8639717,-0.04198272199710563,0.20625376859623834,-0.011704077134587572,0.004692845730824856,-0.005256507091172229
0.5275,-9.981975361868933,-0.020945589141009576,0.31991037479812956,-0.013190294084102069,0.0019459585240206015,-0.006527328879837063
0.53,-10.054068117519158,0.03276894816730567,0.33058923477330676,-0.011309675919540187,0.0028393570881226206,-0.0067834561174968085
0.5325,-10.00524440032262,0.004014622882222374,0.19386472153244222,-0.009245083150278709,0.004164352518087997,-0.004100423627090596
0.535,-9.823997631503428,-0.1226695848014379,0.21747515648276974,-0.010767749920769953,0.006426979528508242,-0.005001103831235108
0.5375,-9.892857672979147,-0.05228609333592636,0.3021787720410239,-0.011702003460846731,0.006582943294609438,-0.004533722218441651
0.54,-10.117526038454955,0.039279350042921934,0.46503327090129787,-0.01381901339055809,0.004312858197424611,-0.005882135107296344
0.5425,-10.17460423750865,-0.023648093803566042,0.4625318869150923,-0.014268252387543257,0.002749,-0.004865209528879442
0.545,-10.068313703539877,-0.05962352207181411,0.341969816904986,-0.013739394064188105,0.0018175887448363217,-0.0044724128122021235
0.5475,-9.918490518595986,-0.06618762713040659,0.19717025929799345,-0.013028263903414092,0.000458,-0.004804015053969792
0.55,-9.82133106781086,-0.12742196217162796,0.15962371628721866,-0.012217,0.0002629905429071439,-0.002138
0.5525,-9.943484664607984,-0.07962226868045555,0.30206366237614224,-0.011717386044572719,-0.0009006860670194045,-0.002887420933140924
0.555,-10.012618171525743,-0.026952623541444096,0.31428906725650607,-0.010247284152693579,0.00032128415269357986,-0.005311387251754065
0.5575,-9.89558778751717,-0.03362490119523176,0.17089621439962085,-0.012366413701744686,0.0011730575321702093,-0.005546942467829791
0.56,-9.940767718663698,-0.013864034387529658,0.2813548428507819,-0.015061645701559087,-0.0005978886414254277,-0.0069604858797326806
0.5625,-9.950949695911481,-0.05749540139684532,0.29602603201757827,-0.015942600565016087,-0.0017555334693557247,-0.004653173663972377
0.5650000000000001,-9.857937947889905,-0.018903907522937517,0.09388948422017916,-0.012082319633027527,-0.0005699763302749901,-0.0033554396330274837
0.5675,-9.844720229839751,-0.07250970701745993,0.1615605457833067,-0.01167818805070557,0.0037443484620903887,-0.0013830983305429278
0.5700000000000001,-9.92431198283985,-0.10549368677884127,0.33278234038494375,-0.011454,0.004240443060162259,-0.001069
0.5725,-9.929645178681948,-0.09197519593123163,0.3788247585386817,-0.011630126590257882,0.005592162951289397,-0.002831035014326668
0.5750000000000001,-9.908862401373803,-0.035311941246006735,0.3380463414696483,-0.013082476773163002,0.006018306517571913,-0.004805395463258742
0.5775,-9.925988839641457,-0.06978738468507446,0.3371744336550621,-0.014137032960384145,0.005793164043217272,-0.004027766706682679
0.58,-9.914554412664163,-0.12444092030955037,0.3501319993262779,-0.012518388519403685,0.0032294149265961053,-0.00504
0.5825,-9.835190340365079,-0.03614391110393664,0.19829548058114663,-0.011549637879051285,0.002057367559915527,-0.0030580556811125796
0.585,-9.891937657579518,-0.06106109805275424,0.23168625273855462,-0.014486196144297908,0.002712025302560083,-0.0033672362141194713
0.5875,-9.976431814041893,-0.04920767443754838,0.4012826421256803,-0.01425333743211792,0.005585135744763409,-0.003444516834755625
0.59,-10.055833503179729,-0.04756716725986951,0.5266190747908096,-0.014073970781378902,0.008022244327637014,-0.0036794821261048744
0.5925,-10.037485991453774,-0.11273566670211542,0.3603284615105725,-0.015063398375830846,0.007636,-0.004150800812084578
0.595,-10.084768573623396,0.005217472995720916,0.47898650569187,-0.012937942574893028,0.0029015188159771895,-0.007210254486447942
0.5975,-10.021057484778886,-0.04321871058963446,0.3601316875463609,-0.011224595318592465,0.0015689846457441583,-0.006163797577270553
0.6,-9.88529910486304,-0.011791958682274395,0.23052602085193802,-0.01235567208881377,0.0026898629902256236,-0.006931872330155644
0.6025,-9.783287659530767,-0.0566589659341195,0.1182432816304591,-0.014167446758827727,0.006486986052610846,-0.005724274340785174
0.605,-9.808833012943946,-0.09045772915685375,0.19356299388600862,-0.014145557368503698,0.006724444151358164,-0.006232627407756294
0.6075,-9.912300363793396,-0.051157704453851816,0.405051308827872,-0.013784777534776842,0.0048325329527035416,-0.008128578279908037
0.61,-9.924914308173575,-0.011670351696891332,0.4274752925388606,-0.015147356988341961,0.0069504383419688965,-0.007309843361398963
0.6125,-9.828969233629428,-0.01768841374105936,0.27967084443046447,-0.015729311532112232,0.008649405958651038,-0.007107858360191789
0.615,-9.695165948290239,-0.07969136712154007,0.07386354033944541,-0.014831062576603249,0.006866475019933971,-0.006216593516345821
0.6175,-9.81293620350534,-0.015845391964842186,0.3186179143050877,-0.015952000185812873,0.0025507382849970814,-0.005855674164469483
0.62,-9.89141110751722,0.03595257807451487,0.33163085318409535,-0.014769381361928615,0.008267833650594863,-0.002686044198497187
0.6225,-9.893158336947101,-0.04399732274062115,0.2544837903425777,-0.014780090673502657,0.008478567131204831,-0.0030238888277792316
0.625,-9.95159802172462,-0.13655216669700831,0.31814445227258936,-0.014574003823047516,0.007530744037866376,-0.005033672067479823
0.6275000000000001,-9.953187548032078,-0.1555969949273476,0.34238977672904636,-0.01378852992212014,0.007831293437173148,-0.007634371005463331
0.63,-9.874229975774467,-0.036854639090180843,0.2990229744289604,-0.012096225333974048,0.011310118827486792,-0.008688179657216076
0.6325000000000001,-9.8252329831715,0.017363841393441812,0.2749002016834793,-0.012007160208070675,0.012637679583858651,-0.006919951664564971
0.635,-9.815210780467336,0.018478888469242852,0.2650835611254184,-0.01343402342393894,0.008706246180257516,-0.0074021465140676965
0.6375000000000001,-9.796212342938494,-0.017499571184512196,0.22147692961275406,-0.013923555011389553,0.008583662984054661,-0.002901285478359791
0.64,-9.84923670231093,-0.056452893685223306,0.2664424297703506,-0.015547162087291098,0.010345673769388006,-0.004103588390044494
0.6425,-9.951360969657326,-0.10770351132138911,0.3983370771672457,-0.016799099045328822,0.011501162411927359,-0.005451343282433548
0.645,-10.020736814584202,-0.09388359802595683,0.42155441356833784,-0.017672819089889442,0.012918839432783219,-0.007422665303637255
0.6475,-9.988825820673677,-0.03642308578595344,0.29913332938844067,-0.017713206192068814,0.013865484863831828,-0.007993866975633115
0.65,-9.859865349094536,-0.024478675537139297,0.1511539691375069,-0.01828552699508903,0.013592,-0.006004184008594225
0.6525,-9.88226345675624,-0.02826746826634923,0.23949392302020722,-0.01740435151486336,0.013645143248513672,-0.0052768995005945465
0.655,-9.994342739384376,0.02546146653039156,0.540114084776759,-0.01789857798099339,0.02090439097483707,-0.0053394454461777345
0.6575,-9.888314414402009,-0.08019144931683589,0.2898434171059736,-0.020004378805809554,0.015448737349829716,-0.003520685329029964
0.66,-9.866937178277642,-0.14075544185729044,0.1978212138360196,-0.02101240297483927,0.01136291725692512,-0.00497018651639025
0.6625,-9.978547564677802,-0.13739961610350498,0.33958087408616733,-0.018880009923376524,0.009468,-0.008807398015324696
0.665,-10.068484541927912,-0.10774919872589993,0.4630265817937938,-0.015318007862531397,0.01282852335289189,-0.009304928549874244
0.6675,-9.922491271545924,-0.025556962605676553,0.22733366791043152,-0.012729528130762802,0.014362902315890302,-0.007675121762663165
0.67,-9.812698124308389,-0.014666539841270778,0.09574150095238046,-0.01257218053773894,0.015974003223194068,-0.006411547382572062
0.6725,-9.82403405390971,-0.06815257929349755,0.12431330824571829,-0.014745344174350366,0.014828403410370053,-0.00561343593342115
0.675,-9.945655145875635,-0.09218579758883261,0.2848823633883279,-0.016407170241116775,0.01594042170050776,-0.007038147335025437
0.6775,-9.989238,-0.096844,0.39933,-0.017257,0.020281002757666602,-0.009163
0.68,-9.907559015851904,-0.06443062949377443,0.2379085700939951,-0.016055085420105926,0.013501746886778935,-0.00832883230688486
0.6825,-10.014031079687008,-0.10899373367240796,0.3425860625697789,-0.016208176815687772,0.01281383620401737,-0.007794013019705139
0.685,-10.110210386086958,-0.12854317008695346,0.42609104695652056,-0.016515386434782637,0.013113891130434928,-0.007703731826087017
0.6875,-10.079646402501421,-0.05358198430926663,0.3716497876065947,-0.01741,0.01794870142126208,-0.009153597157475837
0.6900000000000001,-9.943185666448677,-0.055865654516710314,0.2777549699868269,-0.01272097148880113,0.01704488035932449,-0.007534645265301245
0.6925,-10.009631273788477,-0.13056962991016902,0.3701028787088275,-0.015981365902503302,0.017907704304707152,-0.008014410544975448
0.6950000000000001,-10.007513240519351,-0.09995826641888828,0.30323128681002465,-0.016624722174795055,0.018326,-0.00965291673780742
0.6975,-9.906042816944861,-0.04199615406692537,0.11098108715449675,-0.01598409567597501,0.01681859245312869,-0.010893904324024994
0.7000000000000001,-9.898672615061992,0.007723853002883668,0.2029758875119592,-0.015254981601524834,0.014109915157292884,-0.010391963298379592
0.7025,-9.985612875369329,0.003540047128962359,0.2936669078702486,-0.016798547281425807,0.013795645875611162,-0.008482849644077585
0.705,-9.981129844266546,-0.04978293636597113,0.256892882590737,-0.019129600634846554,0.012733515159295166,-0.006396085475551388
0.7075,-9.848348286057185,-0.05508736330347373,0.10880575512087327,-0.018955335339305445,0.011301,-0.007595037246287899
0.71,-9.843973,-0.115973,0.07891,-0.0197,0.011504271219826194,-0.008247
0.7125,-9.887725916856018,-0.08014530549501414,0.12134190837004516,-0.018814264224437723,0.013277483097611911,-0.008710996290285197
0.715,-9.988330761075376,0.005116066432605964,0.23147521561993628,-0.016955117554627985,0.017257,-0.00954891632212133
0.7175,-9.900167,-0.04902,0.224773,-0.019853,0.01704822321276259,-0.007178
0.72,-9.926953783912271,-0.05797915412805016,0.27300774033250375,-0.01911319083126996,0.016076847881146127,-0.0067155246551114664
0.7225,-10.077114,-0.108202,0.5434,-0.014966,0.011904630699432818,-0.004123
0.725,-10.036555686653275,-0.06330661107272076,0.37886891583768867,-0.014966,0.00874928048212134,-0.006795055026114858
0.7275,-9.961188439902108,-0.018171736341675893,0.15592132330622868,-0.015006477420067894,0.008399,-0.009455606688245004
0.73,-9.93203050153699,-0.05161490829594328,0.18002313794749217,-0.015097639885441529,0.008185817680190945,-0.007170483169451055
0.7325,-10.063212635986526,-0.01708809654578309,0.2871420300368098,-0.016102366156497277,0.009144732312994555,-0.008971000755071668
0.735,-9.928485023873716,-0.06943275936356826,0.0648883981809075,-0.019642301854171873,0.014911848223502928,-0.009219422004510126
0.7375,-9.978805756385198,-0.025571474411151256,0.0872800066335565,-0.021166161945201076,0.010917705191475818,-0.011502282230411779
0.74,-10.068003651161163,0.005817303050531165,0.29559115973392447,-0.020509904941066637,0.015772102761115642,-0.010120327450110883
0.7425,-9.925598453527272,-0.07215336320000261,0.32689913280000027,-0.021532938181818274,0.01736865105454545,-0.007132678690909116
0.745,-9.889211611910598,-0.16327981557317992,0.3417128549675559,-0.025241608565248746,0.016520320865176654,-0.00909869574621484
0.7475,-10.02290718206097,-0.049888248804917046,0.33826491095398065,-0.021394606111046616,0.011643718103628097,-0.012384209885243903
0.75,-9.88851938003376,-0.08523503761755485,0.1222411801302146,-0.017470549312756208,0.01073169037858693,-0.011180124668435014
0.7525000000000001,-9.861040547631648,0.00876487273486947,0.11142905046626736,-0.019861283822779272,0.015114489260032777,-0.011263386842959768
0.755,-9.987228302068633,0.020987978990410695,0.34409568657861433,-0.019740607053856822,0.0174778790905253,-0.008918610204450873
0.7575000000000001,-10.09114492892971,-0.04263174876722443,0.48532165670081423,-0.021322228258566084,0.015267931699046038,-0.007116159957612123
0.76,-10.0751991922547,-0.14499705847053257,0.445191173635645,-0.024895459728235106,0.011926649082003485,-0.008193990418707548
0.7625000000000001,-9.945385273221653,-0.14249857101237942,0.3104329216071833,-0.024043043966982258,0.014308477008982825,-0.011519552294246274
0.765,-9.887443421667976,-0.10384899214386682,0.2096359294141663,-0.023342843580964345,0.010438943194597091,-0.011252632869483251
0.7675000000000001,-9.905752296413795,-0.05712761710344382,0.16234957020689808,-0.021093714758620524,0.004520102206896617,-0.010774749103448483
0.77,-9.907211084171477,-0.0025841677395523864,0.1606339299930728,-0.018173,0.01056933857615646,-0.011802470339413495
0.7725,-9.85172446936734,-0.03158667216959281,0.1082352271613123,-0.018384848565750237,0.017044569751573407,-0.008305617542232517
0.775,-9.791965,-0.017336,0.07054,-0.01909,0.013153467525035637,-0.00901
0.7775,-9.790739743799904,-0.05072692178932134,0.10668838879589498,-0.019324699849286513,0.01386851533750198,-0.00994931184223183
0.78,-9.797008485935175,-0.07731139844417724,0.13599409143817487,-0.01929812193997597,0.01607986201200483,-0.011217898909964016
0.7825,-9.848687432233502,-0.05398300626903543,0.15604437879441477,-0.018021,0.01735641156091372,-0.012238929555837592
0.785,-9.887979481595833,-0.05031005918787625,0.273208925014798,-0.01807142917011957,0.015883547148099905,-0.010330929385580718
0.7875,-9.907937,0.009565,0.264228,-0.018326,0.016677872973615362,-0.01237
0.79,-9.87708834730418,0.023539319259971547,0.28927662434406604,-0.019336484026910166,0.01880203356078808,-0.011292473820278683
0.7925,-9.90397397798864,-0.0056315373024126356,0.4795166808424008,-0.02156717117841929,0.018250931528632285,-0.009356482371036454
0.795,-9.985794576425196,-0.12546183621732446,0.5585273351905468,-0.024173067193700826,0.016448932806299176,-0.009284940346456716
0.7975,-9.927956076970775,-0.18428678732439868,0.26619134496044095,-0.02490662325205879,0.013008515068625898,-0.010642098004198281
0.8,-9.798599625870763,-0.14702919233024403,-0.03051975834408467,-0.021682795918845917,0.008962398076697662,-0.011375814330948702
0.8025,-9.797411001926818,-0.09794921135710985,0.07885534308475975,-0.018825556424270484,0.015021987475683167,-0.0104859181472904
0.805,-9.912713594802481,-0.08438237172706488,0.3788180364609883,-0.02155089205354233,0.019476569585373887,-0.012260682481227561
0.8075,-9.960904463315261,-0.06647163759141778,0.38735589157688355,-0.022357582969200606,0.01914971794670667,-0.012217322445495445
0.81,-9.918392619037917,-0.08829819579755749,0.19059787115950744,-0.022276228552178052,0.016193935994985944,-0.01093706319335628
0.8125,-9.86964594676806,-0.12903860456273764,0.14324025855513306,-0.023131399239543726,0.019629920152091255,-0.009492220532319393
0.8150000000000001,-9.906946681834333,-0.13191454128211466,0.3116019452581049,-0.021620615183673468,0.024016832470588285,-0.009075384816326533
0.8175,-9.887433711028038,-0.18797633894971075,0.32106496959056496,-0.02175940717846017,0.0232402987672452,-0.010124952594570543
0.8200000000000001,-9.871239947473509,-0.13514738177483135,0.2066338409370837,-0.020801034701986684,0.017990881817880718,-0.012064364728476837
0.8225,-9.792499072071106,-0.05961282966516511,0.015125006165833232,-0.018543406009984168,0.01786660508949229,-0.011260176880555202
0.8250000000000001,-9.673028609997619,-0.0735698065698642,-0.10694583132587124,-0.01957427807664849,0.021656065222566093,-0.010583573339681093
0.8275,-9.756551259030598,-0.06988746876328501,0.12356795108534854,-0.021630259784219005,0.02414422250885671,-0.012175517462157809
0.8300000000000001,-10.063736742928455,-0.08913888629427576,0.5265281162681306,-0.02163662303779402,0.02899259452341351,-0.011404623037794017
0.8325,-10.071298851604142,-0.17820349076098582,0.5755529260878867,-0.016682906861974475,0.03111766395141119,-0.008888401829224736
0.835,-9.913023756474805,-0.13854791006448594,0.3275305165798934,-0.0158415680757901,0.027598388908526433,-0.01236843671045292
0.8375,-9.797702962664209,-0.06197089343166505,0.1514968723669042,-0.020298031528001907,0.02123208598755462,-0.013769980248905231
0.84,-9.830503224647044,0.006998015056233524,0.12073926599984039,-0.022390603685092162,0.019960001946239005,-0.010691958136715333
0.8425,-9.882748706269515,-0.056495084150854954,0.15252520044198986,-0.02258063540715837,0.026878,-0.009595480480422755
0.845,-9.83729202840502,-0.12504931519217172,0.2245807529539888,-0.02390161135506278,0.028193232540446662,-0.009975990725278171
0.8475,-9.871147287100897,-0.09394246217113703,0.3213116886430418,-0.02189863641762454,0.028097447717113592,-0.01141404462643678
0.85,-10.077612525321886,-0.10028415708154652,0.43037021802575476,-0.023992718454935575,0.02111654334763962,-0.010853092703862696
0.8525,-9.857451472713,-0.105481519588939,0.04121991632286448,-0.024022562085201787,0.020951037324364742,-0.010125460642750366
0.855,-9.732158173469408,-0.16182738575056338,-0.02645248530497011,-0.018208178228163466,0.02506844196636481,-0.011492967800297061
0.8575,-9.831870611849938,-0.10716538163001206,0.18378521914618706,-0.020049504010349318,0.025299047296248385,-0.011876305200517471
0.86,-10.003289327763467,-0.09250142748688439,0.4324851321125388,-0.022959794754411005,0.02431475406771584,-0.0124717589508822
0.8625,-9.916654846283175,-0.09743872371776664,0.05774922733540311,-0.02383881379049778,0.027225264683101994,-0.013364541210919064
0.865,-9.772923443484036,-0.10221394119876862,-0.10061842536608878,-0.023998048276694633,0.02755469053660892,-0.011086209689141074
0.8675,-9.783530247868859,-0.1207771600000008,0.022339064262307667,-0.022660596721311387,0.027489,-0.01011130163934431
0.87,-10.174226607046153,-0.11855503997732536,0.6943315300977848,-0.021896530279181824,0.028831027118900274,-0.012190959627757568
0.8725,-10.077102186937502,-0.10700678504605766,0.5068930594888712,-0.02121593912041191,0.03079800491473385,-0.013098414506117454
0.875,-9.96584703212659,-0.093598565092304,0.29380170894269964,-0.020778208583073603,0.03149252984895709,-0.013851005034763846
0.8775000000000001,-9.833381018454801,-0.055286186700029855,0.05149901810447499,-0.020873333687832285,0.025127966406005595,-0.013470166556146378
0.88,-9.89253020750958,-0.0021122036040044853,0.1581325808626874,-0.018631,0.023671,-0.012781082753676919
0.8825000000000001,-9.991002834691338,-0.07607534887130611,0.23987362987945257,-0.020710209346158685,0.025750209346158685,-0.010796954350420085
0.885,-9.819022890058479,-0.0763994467476378,-0.050533069959515245,-0.024508358758434556,0.03004386242015296,-0.011742734107062532
0.8875000000000001,-9.813032961195114,-0.03733748762549916,-0.05857895969517045,-0.02450142090238295,0.0288091315108261,-0.012540909955243758
0.89,-9.906398162354677,-0.03023530568514137,0.0843517823030618,-0.02384851875629839,0.02688287244438985,-0.013478875664249738
0.8925000000000001,-10.133819982304678,0.018632194948268014,0.4256673822047914,-0.02244685790938268,0.03347636894755646,-0.01281152677845146
0.895,-10.118224072253176,-0.047622611591824356,0.5182100091358209,-0.020464,0.0391188884792045,-0.009621
0.8975,-10.037198640123693,-0.09302934337773557,0.4180054050523313,-0.02106628131303518,0.035116267021884154,-0.009577899419600381
0.9,-10.063367393311117,-0.11051192256605717,0.3624299850749792,-0.022705743465841473,0.021075,-0.009908952178052873
0.9025,-10.010758,-0.221186,0.141081,-0.023213,0.021328047423312874,-0.012065
0.905,-9.784137263560451,-0.03755025857436746,-0.04347285759167218,-0.02197424413409175,0.03365211019726495,-0.01602256979789421
0.9075,-9.813343334769455,-0.018585030061721127,0.1010423105748502,-0.023330806815926405,0.037237674142563196,-0.014375405755778791
0.91,-9.917578423522208,0.011630047905215303,0.24528235816232952,-0.023028462938663636,0.03576179278471823,-0.013456384312081886
0.9125,-10.145909894021099,-0.005865901383351725,0.5181532170222698,-0.022478828511137146,0.031765,-0.01367016159437279
0.915,-10.087791136892447,-0.0633711888396014,0.3940892560650422,-0.021797153234889687,0.03167537732528248,-0.01061306407604467
0.9175,-9.952470911550689,-0.11556435903920839,0.1469663731261067,-0.021803439547862933,0.028158525100671215,-0.011085222168844874
0.92,-9.932491402428676,-0.127756680019073,0.09908832258762243,-0.022332520982277667,0.023635037971866814,-0.014813
0.9225,-10.13106743047385,-0.05436669896390961,0.406917298816595,-0.02121456124723792,0.025982789025288455,-0.014813
0.925,-10.194629720984278,-0.0034968508544096465,0.49471119485076037,-0.024794475620870508,0.028711,-0.01592155502392348
0.9275,-9.888335796135529,-0.0663679425190275,0.1373797090940354,-0.02732394523938129,0.02758591393076357,-0.013962016690400208
0.93,-9.804375325379812,-0.08855186761983314,0.0035624336120576028,-0.0286634525097162,0.022268420727829356,-0.013213250764338701
0.9325,-9.844048216663843,-0.10887917168501265,0.09076152697713707,-0.027773870042337015,0.018479,-0.012333778086367488
0.935,-9.966251029733494,-0.11640964423529356,0.32061056639615615,-0.025022038223289314,0.0248399559663866,-0.011835994189675911
0.9375,-9.963994010804322,-0.09007188235294118,0.2122497406962785,-0.024830072028811528,0.026954731092436974,-0.013758803121248499
0.9400000000000001,-9.849043830517429,-0.05917357706097674,-0.044392871848440735,-0.02325130762617411,0.02652609629676797,-0.014728345607387361
0.9425,-9.825791249653166,-0.028278738336162946,-0.11664196918748385,-0.024288497569730793,0.023318124278438025,-0.014813
0.9450000000000001,-10.100887299212012,-0.05755972848030199,0.32116552630394835,-0.028526206754221402,0.025347320375234704,-0.015360309268292708
0.9475,-10.238522,-0.106408,0.547585,-0.028863,0.032175430817790555,-0.016035
0.9500000000000001,-10.01161582097677,-0.14409310667734376,0.3209447405284113,-0.02662599061649308,0.03185332746196942,-0.015831675868694946
0.9525,-9.789070539919067,-0.14186324900450842,0.031190493828188136,-0.024323829316684017,0.027071786995028314,-0.01588975151346977
0.9550000000000001,-9.942856939842223,-0.055170351919674024,0.05729770818073345,-0.023540087430074026,0.026986962601004128,-0.017060889839827915
0.9575,-9.978803557749853,-0.030484154926600025,0.12971057159835644,-0.02284072857310631,0.030578752009395232,-0.016297211354080993
0.96,-9.89957,-0.023912,0.170971,-0.024893,0.03592672700824867,-0.013592
0.9625,-9.858590182068964,-0.11052595482758876,0.1895976234482764,-0.029650921379310486,0.035373779999999896,-0.015257428275862118
0.965,-9.955472347919988,-0.1746853802952727,0.23378269910941726,-0.030129382800333386,0.029566820000000067,-0.01581676215739969
0.9675,-10.028598575673469,-0.2039776231068427,0.2334080880240086,-0.02635087047779101,0.029865813579832066,-0.016542730084033636
0.97,-9.971496094151442,-0.18718823232107268,0.22424080923960668,-0.022393311322109612,0.035888,-0.017429811106678374
0.9725,-9.838550947833925,-0.13594626167496918,0.21727543384104178,-0.024253948412811414,0.035336339814946605,-0.017931519003558747
0.975,-9.753834971373617,-0.08148285779772416,0.1466476359031894,-0.02634987453117485,0.02938708353902878,-0.01847091668536625
0.9775,-9.8202681726363,-0.05086224404451126,0.1424903228756697,-0.027642,0.023471629842286477,-0.017193329994395934
0.98,-9.826723006351935,-0.05463130964234351,0.08375774027658614,-0.025960313552694413,0.033021802174534653,-0.011115882632332125
0.9825,-9.710174089703488,-0.20871843046594724,-0.0024953584992953998,-0.024289728076380003,0.036499,-0.010576308131513504
0.985,-9.809052540147196,-0.2623346797807706,0.07196547499843288,-0.023173071415596627,0.033504387488255585,-0.012733298653304088
0.9875,-10.04817658308759,-0.23093824741020713,0.36493155304348635,-0.023269335551354815,0.03190543589161955,-0.014661
0.99,-10.029541497979652,-0.13770227378034172,0.49330533131779275,-0.022504985378514794,0.035931949489705996,-0.013613236853320523
0.9925,-9.919893,-0.051411,0.400526,-0.019853,0.034912366488537475,-0.01237
0.995,-9.935921939771283,-0.03645065621346905,0.3640868411689966,-0.022009676238881802,0.029985809453621365,-0.013407313900889442
0.9975,-10.027604005116562,-0.033053872617470205,0.2032584241864964,-0.029364308143495423,0.024271668805411352,-0.01537054544268613
1.0,-9.923696114808653,-0.16680209175184216,0.10809803898264797,-0.02498051937247445,0.02709272284288091,-0.01116608081768481
1.0025,-9.745042979202085,-0.20726598786788264,-0.05563204506215018,-0.025562879588019324,0.030580798574641764,-0.011806205232626916
1.0050000000000001,-9.77981506053572,-0.15866285817668851,0.0021533649530166843,-0.027642,0.03283264145676688,-0.012981
1.0075,-9.969323165637228,-0.11011882048007915,0.22947519392725302,-0.025583125211581126,0.03185983240781982,-0.013828655362534095
1.01,-10.052921560038634,-0.13125409215067624,0.2341720388699283,-0.023689864613651006,0.03633906937540248,-0.014912264462330972
1.0125,-9.843226154619915,-0.11176171886030917,0.01592242263237116,-0.027590206690506283,0.042455,-0.015177879201753348
1.0150000000000001,-9.77981986512081,-0.08851089478670338,0.07079888217208835,-0.02864405123993281,0.039715876153416534,-0.013209812097918572
1.0175,-9.988713174991261,-0.1505327480508583,0.4050497320471388,-0.0247087202052956,0.0356436599790038,-0.01062972870173809
1.02,-10.119531797882438,-0.19148926726542567,0.4759609374078107,-0.02514573257393212,0.03601112591456738,-0.013302488382621415
1.0225,-9.858986988594603,-0.07527481751683002,0.02173389933663833,-0.024947054178898736,0.03853746049468815,-0.01734986455275316
1.025,-9.673486054236758,0.012370732620656638,-0.18232776623172586,-0.02551400377299158,0.03631353412985402,-0.016971810092752868
1.0275,-9.891627171149851,-0.05939003358885786,0.0817624190940994,-0.030136174773519445,0.032223,-0.015257588013937397
1.03,-9.995089128197705,-0.12540836915798825,0.270237692864962,-0.030543,0.03572725176345988,-0.01596352297969992
1.0325,-9.898033486184934,-0.17024377975279276,0.18659581259330305,-0.029402795564535334,0.04362659732826224,-0.01596065534109818
1.035,-9.684070777865001,-0.13382450999762877,-0.13066667435941798,-0.026449911327055552,0.048691719012423994,-0.017171667360924164
1.0375,-9.84604079600002,-0.0821366619512202,0.045798312097586585,-0.025819682731707434,0.04415005112195109,-0.017426117853658322
1.04,-10.194939608293629,-0.07825824856406921,0.488338961931748,-0.024045486452028246,0.042455,-0.012420406477784874
1.0425,-10.209174083782479,-0.0963183612483414,0.521280217298902,-0.021546999787781823,0.04321614225793866,-0.01125142520714673
1.045,-9.951373604315778,-0.16185150366135798,0.2794841588906458,-0.026350570285852998,0.04393790846369078,-0.01558161278676544
1.0475,-9.939023,-0.095648,0.280966,-0.033292,0.0366597113645619,-0.019242
1.05,-9.959647766531358,-0.14165641408334184,0.21010250633750063,-0.02917138139342211,0.030593147162621043,-0.016134728025846964
1.0525,-10.056070302394714,-0.13348246820809315,0.17026026807596978,-0.02323247058629233,0.029260379785301376,-0.016004173047068502
1.055,-10.074938501295724,0.012100810343450848,0.2157981758291505,-0.02369945014582829,0.03676122778229323,-0.02041861707227669
1.0575,-9.868728999799412,0.06568244677650191,0.014950999856711639,-0.025823151876790885,0.040576849169054345,-0.017847528323781975
1.06,-9.697220595051109,-0.11965450526089277,-0.16428812038012608,-0.030593656130536113,0.03357535162273633,-0.01461229172673487
1.0625,-9.932130197776583,-0.11141179917518379,0.14517873934612394,-0.029827796425796426,0.037978104835335605,-0.017675103819257666
1.065,-10.076161587207292,-0.12615539784378366,0.3345184946094591,-0.027240082929435888,0.0427198320037717,-0.01651693894075132
1.0675000000000001,-10.005382563432608,-0.1621888130212784,0.27185468618437997,-0.02437348314893616,0.04507622388652467,-0.014084512851063944
1.07,-9.863708800651384,-0.08418910230983438,0.04249797043068643,-0.03113575318620092,0.041369815710306374,-0.018389328956503026
1.0725,-9.926835307660882,-0.05911719405185335,0.1593496741661314,-0.028504764336833074,0.039997028189415036,-0.015186907003785433
1.075,-10.005005465533602,-0.12751869868476487,0.3511526734970895,-0.02904864394931235,0.04048029102156024,-0.014135869941745179
1.0775000000000001,-9.959454659090742,-0.06050895537564978,0.22654524435048326,-0.029337063748723816,0.041923019756170875,-0.017598167009789372
1.08,-9.86508630532663,-0.08279066874372153,0.053938567280842564,-0.03021199932998329,0.042741982021217206,-0.018705632629815717
1.0825,-9.819826454693683,-0.12443326861553246,-0.04003678290400277,-0.029753562373371893,0.03953944578871194,-0.017893460144717797
1.085,-9.945192301794018,-0.04520724332226022,0.15344646458471436,-0.027248322524916956,0.034819,-0.01942130352159464
1.0875000000000001,-9.942737824808349,-0.019119022160282665,0.27310206466898446,-0.029051386620209455,0.03859906708478574,-0.02060340213704979
1.09,-9.789648096430973,-0.05921517656565683,-0.013569663838398832,-0.031132409023568928,0.04204757696969684,-0.019443951784511797
1.0925,-9.82349693699043,-0.10786143117527199,-0.1092959685736638,-0.028772215518594057,0.03856356831633451,-0.02005263319002041
1.095,-10.06002811590265,-0.20208942774185834,0.43342834244339284,-0.02776790510231263,0.037364251870686455,-0.020843371953020953
1.0975,-9.997802628813574,-0.20373826203389261,0.13314768474580285,-0.030000548813559107,0.03721485084745802,-0.021774114237288016
1.1,-9.813889867907637,-0.17982305862418582,-0.17376711341806267,-0.03093107985203749,0.036499,-0.020460380681343537
1.1025,-9.799919811081908,-0.11956240537265436,-0.20685807793235556,-0.030070887148581454,0.036719858329860564,-0.019395
1.105,-10.24469073073914,-0.08421353686218157,0.4878637759274983,-0.026089925970433997,0.04420168822126816,-0.019277173218884124
1.1075,-10.128349313248336,-0.060085940740741944,0.38859384002429287,-0.025809,0.04586065105039467,-0.019242
1.11,-9.963640032668431,-0.03328814363680217,0.14788154372372814,-0.030754762611285874,0.044826379129034796,-0.021262177313048525
1.1125,-9.889531525505822,-0.011100203484102135,0.04023260557769215,-0.035495164346535366,0.043340580735879985,-0.023537574986329187
1.115,-9.930805360375677,0.006661395564118393,0.1884483740878987,-0.032889050465984344,0.04240997795544852,-0.021808914735701422
1.1175,-9.820051638692899,-0.09234689618020112,0.13869247912437146,-0.034120827258883234,0.043677,-0.016794722563451644
1.12,-9.628167,-0.159015,-0.068149,-0.034667,0.043540853961031065,-0.02138
1.1225,-9.787018462136384,-0.14821908588317365,0.0696253188317514,-0.033353413986502135,0.041730987577379496,-0.020526491575517752
1.125,-10.010326689384323,-0.15616590233259284,0.17860507338940018,-0.03310139384322437,0.038404210250714055,-0.019868857743573467
1.1275,-9.926875108373098,-0.14628049285782688,-0.07072489406010442,-0.03598275628339688,0.0399217585400761,-0.021727548788167857
1.1300000000000001,-9.768391095979503,-0.05506880459530536,-0.23427077044911826,-0.03448680895684868,0.04717916876791307,-0.02208779764310291
1.1325,-9.81092020728806,-0.06027972728806,0.10513416580798202,-0.03059391966276345,0.04867655310538634,-0.018270774782201255
1.135,-10.031506345640212,-0.12694762922856684,0.5260398366915862,-0.0307065304405917,0.04740905814537936,-0.017097385614760627
1.1375,-10.123808240799065,-0.14841287670975167,0.40345318669801244,-0.03462401898942403,0.047495,-0.020593422796709678
1.1400000000000001,-9.842084886678059,-0.15237868577853447,-0.17841475708631657,-0.037000977736494495,0.04225523411390807,-0.0237439100268884
1.1425,-9.691540177673309,-0.08573341393619432,-0.4442280040681116,-0.03236099745262642,0.035583,-0.024602898815063518
1.145,-9.949755993198085,-0.05951734021405746,-0.024455577281146834,-0.03265067608306712,0.040921648760383456,-0.02459678389776359
1.1475,-10.187916238311256,-0.06237103357615864,0.35137451476820897,-0.03270314920529811,0.052436196556291184,-0.02348564417218551
1.1500000000000001,-10.069643721445843,-0.1657351379498881,0.3207450898274529,-0.03038176055898204,0.05841497656335382,-0.01893221755015985
1.1525,-9.943016525108769,-0.28844418814436823,0.19963941295418952,-0.03200753284724761,0.052925464177906945,-0.01999566423623804
1.155,-10.12077950396961,-0.2709546518809112,0.28344717912854783,-0.03143773921848346,0.0462240183780431,-0.02496003320204683
1.1575,-10.125960885004483,-0.20331186377779698,0.2469574339496649,-0.02800696503706122,0.047027317716054375,-0.024882233298036984
1.16,-9.834794375183828,-0.08562518653035248,-0.007733020030450871,-0.024814561618446626,0.050653191490102084,-0.024484251163802467
1.1625,-9.610694516333059,0.05933678691337172,-0.05411037093355219,-0.03105900686291026,0.052976231421362305,-0.024597327132043715
1.165,-9.756584436927534,0.0038376888411876323,0.07623481482696227,-0.037288149924032316,0.04697067046907014,-0.02296664331363788
1.1675,-9.997871661312297,-0.1743599293797059,0.16203597807577186,-0.035397988970957375,0.04796960982430962,-0.01931657673718174
1.17,-10.036891229245088,-0.1386424270845619,0.3333496535009126,-0.032543101471641085,0.059101,-0.020984929412139117
1.1725,-10.021490384395678,-0.08029470436839027,0.33780529661398,-0.03287597654121666,0.054914617046048414,-0.01958238891642981
1.175,-9.95342944279279,-0.13114805968468685,0.13253439842341852,-0.034507613063063096,0.04399589054054037,-0.020178044144144154
1.1775,-9.834704983506617,-0.23467921390359148,-0.16030202992438447,-0.035736,0.037535858431001885,-0.020617
1.18,-9.808958235810087,-0.17557581491695273,0.04547837638043957,-0.0317393012817299,0.050529894544030035,-0.01974580417424007
1.1825,-9.9366447910467,-0.22468571250391936,0.26401742064244116,-0.030484854750861747,0.05253684469131942,-0.018993300557818834
1.185,-9.961522125546814,-0.20955179450603525,0.13025425977538543,-0.029500753485075953,0.05010656687526269,-0.020716327785718615
1.1875,-9.894736768305625,-0.18461320481075344,-0.06451867515623158,-0.02911774543096333,0.04965889140431553,-0.021545299728805565
1.19,-9.788520139585817,-0.026786748358957117,-0.1403798929651749,-0.030293839968622487,0.05637657432067781,-0.021109936755569523
1.1925000000000001,-9.789831270856604,-0.08087543725761154,0.042537999238581814,-0.03222023233762168,0.05378063310950725,-0.020020891710072118
1.195,-9.809587724622121,-0.11884009321428565,0.1782979630368668,-0.0342284560023042,0.0525544560023042,-0.02013530368894017
1.1975,-9.875666133175114,-0.11631227607142856,0.1956296679585254,-0.03644218355990784,0.05476818355990784,-0.023271971412442406
1.2,-9.784999396701364,-0.18680423692553838,0.010435615052040076,-0.028178348374699815,0.055283,-0.020418135020016055
1.2025000000000001,-9.938539269534694,-0.2162061036087297,0.27368048478635565,-0.030119854871795478,0.051277145128204527,-0.019410247825261254
1.205,-9.980965758031095,-0.2691656373731936,0.24847360350320932,-0.033141385924725444,0.05048532870880605,-0.022311935343057893
1.2075,-9.866831725807895,-0.26287539331054693,-0.032332381822043704,-0.03217293465173831,0.05118842877548616,-0.024857360273423702
1.21,-9.742323314404379,-0.17392594519639454,-0.2308442953573761,-0.03014460953638116,0.051802867656149394,-0.025792789684481645
1.2125000000000001,-9.859386761114282,-0.11680468236497459,0.0779146027288476,-0.032859412620807424,0.051779078271745355,-0.026401462922114906
1.215,-9.985754749280133,-0.04888218726184432,0.2373038562959226,-0.033803957958437214,0.05391309663175405,-0.024605865562759614
1.2175,-10.004408156720167,-0.016512804494068063,0.1691795151291003,-0.03322505369155618,0.05430945888346122,-0.022869300823447354
1.22,-9.999203926093848,-0.014973805830690936,0.18561149579581493,-0.033139,0.051665783601775525,-0.024587
1.2225,-9.94968185659155,-0.007676582463152372,0.07425329946157659,-0.033597337819466395,0.04919545005725442,-0.024194261512973603
1.225,-9.858069156124543,-0.05395735369053756,-0.09177217357357524,-0.03651666571835008,0.050075811790738334,-0.022901444760549974
1.2275,-9.82096831540913,-0.13089603145561224,-0.05602896622498829,-0.036924708374266105,0.056338214438720585,-0.021194691251946774
1.23,-10.078736854459299,-0.1989646227739312,0.23900148916686653,-0.03386833971830985,0.05434125544521365,-0.019194305242301268
1.2325,-9.998679991780858,-0.273784237574598,0.11255659047028291,-0.035492894084506996,0.05510597248507995,-0.018907692800190983
1.235,-9.917078985525412,-0.2527865948389113,-0.07438066495267794,-0.03525235384297185,0.054711985054490445,-0.01958055868268242
1.2375,-9.849572858754655,-0.18452858807876485,-0.15989402426822483,-0.03308341713677483,0.05656356945183621,-0.020644015753060147
1.24,-9.822387409745563,-0.14324270559761756,0.01418399836663686,-0.030665665845848324,0.06294193879607794,-0.02132687697654213
1.2425,-9.933046154382975,-0.038873617361701744,0.2516669228936111,-0.033733141531914784,0.063072,-0.0237394076595744
1.245,-10.046571876937067,-0.024010392378711328,0.41572398413355705,-0.03492250945685392,0.06191988791598079,-0.024299855088956757
1.2475,-9.987428757612149,-0.07411414727931048,0.2767713338543037,-0.03365326222383019,0.0562312752773755,-0.0211813053786781
1.25,-9.692317552598045,-0.3592924014347067,-0.3765160451649441,-0.03515866369342584,0.04704444287130115,-0.0219313700504979
1.2525,-9.778700736989945,-0.30130920197083516,-0.20552526309500577,-0.03636762644202178,0.05104990520741886,-0.02253609885884184
1.2550000000000001,-9.942592638322242,-0.21992725140132385,0.05123347618688214,-0.03231461620590863,0.058192810753099455,-0.022345879466158
1.2575,-9.866243995679799,-0.17541359888560173,0.003593530102086795,-0.03719691369907471,0.060018,-0.029836620837706537
1.26,-9.803104838708366,-0.11244310633977134,-0.11527173598756246,-0.03843668001435149,0.06019662717215811,-0.029675319985648506
1.2625,-9.783887652207518,-0.059633882164188357,-0.1541950863332964,-0.03786125628293717,0.06057750343131513,-0.02796021283522667
1.2650000000000001,-9.761424639197045,-0.13368447995773897,-0.03530745395315744,-0.03546182844162711,0.061740693340377045,-0.02132313686916709
1.2675,-9.824341045606623,-0.13221289152315543,0.031655666784060135,-0.03668415158302522,0.06606375363502977,-0.020947084784879957
1.27,-9.912569505380874,-0.15362582030788896,0.12337943230757042,-0.037397292446358775,0.06784241510728245,-0.021508709212730327
1.2725,-9.986848,-0.181731,0.199665,-0.037568,0.0655646083759792,-0.022449
1.2750000000000001,-9.999205326670186,-0.1697625276170315,0.19543068037874373,-0.03728105733824274,0.05999588300894264,-0.022570426617569823
1.2775,-10.027351133265414,-0.025130082136682153,0.053617287708152064,-0.03564592408385665,0.060022500893047524,-0.024005043491649877
1.28,-9.843729823595341,-0.07957418164698302,-0.07892515959273448,-0.03993095587195571,0.059999349818359526,-0.022189834503543178
1.2825,-9.863544523243418,-0.17910418086900193,-0.03332351586496683,-0.039949192731384316,0.05890730379583268,-0.01938655295105801
1.285,-9.911797619387823,-0.28791178120323774,0.07870415715726699,-0.036705875398146966,0.05708689384308679,-0.018937966328133906
1.2875,-10.011143979415282,-0.23030494748665276,0.08215626656576519,-0.038728300278817816,0.05704163011232398,-0.02390134603680393
1.29,-10.012514773900707,-0.14889218481323963,0.13117629336169806,-0.03833699777777772,0.062614,-0.02312359911111109
1.2925,-9.836032403651059,-0.23051582061326273,-0.06959142269550717,-0.03745661202757306,0.06176234198241029,-0.0223233118706917
1.295,-9.781154288056298,-0.31286454849308815,-0.1262635266343085,-0.04105865992720217,0.05994458031545737,-0.023626890691579548
1.2975,-9.799638245166555,-0.22102181481620775,-0.16705993588838836,-0.039723874096715975,0.061161987437887005,-0.026560304864017472
1.3,-9.940935479759805,-0.19358440416813621,-0.05690855937830918,-0.038332,0.06205692596255745,-0.025514946332273733
1.3025,-10.001542102982944,-0.07389625193661582,0.10038639369057625,-0.03944110465223175,0.063683,-0.028167936542881345
1.305,-9.937581235424357,-0.036230903507138965,0.13127031279961773,-0.0419142858463019,0.06671243833146144,-0.02562169071073326
1.3075,-9.88189019728822,-0.061715769696678385,0.03771665467552608,-0.04195285406163129,0.06426553059576968,-0.023976
1.31,-9.932847079477373,-0.15683125184101043,0.026274143892956084,-0.04148546609051558,0.05560621356316405,-0.02412005820070839
1.3125,-10.01689117817372,-0.19237443652561248,0.15534283741648108,-0.03942458574610245,0.05949842093541203,-0.024282
1.315,-9.936681226732077,-0.26124728562484867,0.15693896726933512,-0.03619460384956783,0.06971101385968997,-0.020475277931947516
1.3175000000000001,-9.760879,-0.430416,-0.018532,-0.036957,0.06823267636068159,-0.01573
1.32,-9.84158263044903,-0.37418098431243196,-0.003292658484562427,-0.03747797550982235,0.05629414149672632,-0.018526428503274565
1.3225,-10.114961734396122,-0.06592092040702549,-0.014284576833435161,-0.03883194563779526,0.067195,-0.02867548837310718
1.325,-9.98326,0.004782,-0.125538,-0.037415,0.0703901081232045,-0.025045
1.3275000000000001,-9.937779834983429,-0.04741696329863499,-0.018038524301925027,-0.04111221943682022,0.07111715408423998,-0.0236587048130618
1.33,-9.982834736665607,-0.12330284925902307,0.138349364391569,-0.045968,0.06607110490578086,-0.021838
1.3325,-10.089632460578274,-0.16957448763258864,0.11027747793929618,-0.0431192693354632,0.0651266754888179,-0.02023584402875396
1.335,-10.006625687544489,-0.2630458281565834,0.014556966092525127,-0.0365158186476868,0.06718916778647673,-0.017130796597864695
1.3375000000000001,-9.78520768794965,-0.33415450148404113,-0.01603707505640875,-0.03880570400094992,0.07221144399857511,-0.02119611539831425
1.34,-9.812252190516313,-0.3632513569760285,-0.14448327388290744,-0.04138800640000008,0.06414058515363422,-0.024758592383497206
1.3425,-9.920374719567832,-0.24016940197421532,-0.134243358241866,-0.04136248244076115,0.05925653906445681,-0.027357568338858176
1.345,-9.868635319771428,-0.0849680514285728,-0.021260671542859155,-0.03859996137142858,0.06695016114285707,-0.027563077257142837
1.3475,-9.877739961163782,-0.040886098235701294,0.13329789098921271,-0.03895175781519116,0.07157983381798433,-0.026815318187602
1.35,-9.941268088961992,-0.1888707739522559,0.17606879468809877,-0.04196841993177409,0.06879928455165617,-0.022609616154970893
1.3525,-9.988720867121463,-0.3879925713525051,-0.16454539343475774,-0.04085552506299005,0.06037156191585476,-0.02739420248157842
1.355,-9.812935393971218,-0.24415010748695315,-0.3409596761189312,-0.03455036334651273,0.067806,-0.030474885826348254
1.3575,-9.61595480480191,-0.1337956121432013,-0.2942351870596675,-0.0361223416849641,0.067806,-0.031093591374701614
1.36,-9.665680780476347,-0.034202094009460275,-0.1543010731356384,-0.039208208075709884,0.067806,-0.032813604037854945
1.3625,-9.745207867576307,0.05766299179746214,-0.06792666232353017,-0.03984571390488202,0.06871184052370066,-0.03218553792885866
1.365,-9.5845525276681,0.1402756168812591,-0.3416614293562195,-0.03382301442060094,0.07268245024320452,-0.02286198483547941
1.3675,-9.703543790135328,0.04090652402508864,-0.15534380951950566,-0.03572549914084962,0.07106198036874624,-0.018480409506295113
1.37,-9.902470133474806,-0.06313770891687151,0.1414194658216753,-0.03987836839345517,0.0681170477257508,-0.01764973676616208
1.3725,-9.844528713822449,-0.471810549384067,-0.18471450811597473,-0.041911940307971116,0.0664781844384056,-0.020875619057971223
1.375,-9.79361356481088,-0.3404248202294943,-0.32880744241393967,-0.04239134211644709,0.06664901147471314,-0.025252677433064172
1.3775,-9.81766438809021,-0.2233470397312859,-0.18599925604607478,-0.04218887650671787,0.06827972275431857,-0.027882901516314774
1.3800000000000001,-9.898329049916933,-0.18844771076191574,0.1810121811867995,-0.041919349181106215,0.070555,-0.028509665767861504
1.3825,-10.029292,-0.025108,0.135103,-0.043524,0.07092444461909993,-0.030238
1.385,-9.90607597775076,-0.13401163680972686,-0.049196405505167906,-0.0418301263805471,0.07029948274285715,-0.02729517923404254
1.3875,-9.904361747623016,-0.15560785809603528,-0.05554373120458163,-0.038171652353151564,0.0717786260693434,-0.02566172157750504
1.3900000000000001,-9.999385038361241,-0.11533256568268856,0.13269831708700283,-0.03742726231638001,0.07485038730742273,-0.026198674220733693
1.3925,-9.812426492934117,-0.20121686729072866,-0.17797553496275773,-0.04324555542954931,0.0739280231211046,-0.02655600689233781
1.395,-9.718357584666615,-0.18206602909583258,-0.5428524231243511,-0.044423744472237674,0.06901129174539947,-0.028566627763881164
1.3975,-9.902866844314095,-0.08513534688741706,-0.23257350113529535,-0.04081973246925261,0.07252466915799405,-0.027560328514664254
1.4000000000000001,-10.010625390866446,-0.09554629164842092,0.26587588445420335,-0.04134633062245864,0.08480437159837378,-0.023976
1.4025,-10.150533281526918,-0.13792595795106394,0.6438827799412751,-0.04324638912887447,0.08793688357585637,-0.024059447647634593
1.405,-10.162473407646411,-0.256326879990261,0.5673007582807641,-0.044452554111773956,0.0822672966224276,-0.02349428762206253
1.4075,-9.85392039392472,-0.33439720554783087,-0.3052433158523061,-0.03816091770798377,0.06191989888276209,-0.023253412817070156
1.41,-9.74266110829978,-0.3039947042921065,-0.557307995273253,-0.03768732483221463,0.062387566372642644,-0.02892295019495035
1.4125,-9.769875379193707,-0.22218334375964702,-0.3201819428791919,-0.039384053475440134,0.07327791912264477,-0.029847752672227248
1.415,-9.963932046146208,-0.0743643585453664,0.0899310655330762,-0.03805544782921691,0.07999427367506501,-0.026170430820404544
1.4175,-9.939515866111371,-0.13447070412728185,-0.06728768847917396,-0.04301040821712679,0.073151,-0.023760605035095916
1.42,-9.898907528130774,-0.1340989397393963,-0.21777717604359167,-0.04276732261865287,0.0776738233688697,-0.022184452534154745
1.4225,-9.875061251492745,-0.22458237558259753,-0.17984055040710883,-0.03941742297613465,0.082925,-0.019000391314927423
1.425,-9.859124372785502,-0.33465933529909314,-0.04071213285799894,-0.037898065595166314,0.08170764476132913,-0.019436990912386903
1.4275,-9.984794492302512,-0.30847960196224605,0.16426339828784478,-0.04450379985090777,0.07570330847180473,-0.02816198275820607
1.43,-9.89726901237693,-0.27486686935929255,-0.08334528503948808,-0.04281485612064164,0.07570396544482567,-0.028899013474826513
1.4325,-9.75434025214057,-0.23718681303514266,-0.3257707318849892,-0.038383985942491906,0.07395968063897747,-0.027555596549520774
1.435,-9.870351190589348,-0.15497546557366496,-0.11608032296237208,-0.03883548423824457,0.07708991076175567,-0.030718911072100435
1.4375,-10.05897177722063,-0.0504773191260745,0.19128116583094557,-0.038267190544412605,0.083078,-0.030626238419293222
1.44,-9.885922554491518,-0.1401956112971768,-0.0466964498565928,-0.03627300338882473,0.078538479601121,-0.0233690312015824
1.4425000000000001,-9.760315109922248,-0.25641794314152155,-0.3004141862519445,-0.04266840099533493,0.07122710432348343,-0.026012188304821725
1.445,-9.927992141332723,-0.15283292957036004,-0.20518398153561937,-0.04553612194604556,0.07030146035815854,-0.030104416118668768
1.4475,-9.998869376023462,-0.08536376526946135,-0.1285574943956988,-0.042063488891604536,0.07667848651105956,-0.026488576228766932
1.45,-9.826672261106538,-0.14023235733569867,-0.24387266245008987,-0.04165824450218643,0.08323,-0.02396755102351225
1.4525000000000001,-9.656244258558894,-0.18268018769772235,-0.3162746525131439,-0.04317232625659077,0.08301642544815444,-0.024999326256590775
1.455,-9.92458230340994,-0.18600949791360358,0.08075391086472748,-0.04345416742004254,0.07917870399115523,-0.027336
1.4575,-9.987263733323745,-0.1408177731416252,0.004416947701889967,-0.039591794536304785,0.07493862790797982,-0.025914606570812338
1.46,-9.812704164036443,-0.2619080126419038,-0.2804393519831792,-0.042372795599158956,0.07683111946741404,-0.02517056213034335
1.4625000000000001,-9.870510159448706,-0.28586550479988937,-0.16039649498243244,-0.04518868284367021,0.082161,-0.025905610542860516
1.465,-10.121315990582392,-0.2349063354472623,0.18179447078953145,-0.040954035125203916,0.08166761448818895,-0.02464278976803572
1.4675,-10.10252279023622,-0.25430262740157045,0.07401997270340394,-0.04171012041994758,0.07903608902887128,-0.02707420892388469
1.47,-9.959739352487311,-0.10699581562484818,-0.31066541594392,-0.045320641936991375,0.08058282834904508,-0.03352986194182582
1.4725,-9.833065422937095,-0.0972375441792791,-0.25215994735070857,-0.04298557992492347,0.08467701077920625,-0.029546579924923468
1.475,-9.92786286059211,-0.10812037276316355,0.020228073815798844,-0.04131381881578961,0.08094,-0.024156615460526203
1.4775,-10.055187390289833,-0.2637278490568476,0.15568122186068728,-0.046670112922337983,0.08182450537710172,-0.02549633940752615
1.48,-10.047557895730124,-0.3449086514530951,-0.03644837813803303,-0.05199564341399456,0.08390680039575635,-0.03304051444033854
1.4825,-9.82387782246537,-0.19920680153087492,-0.42357846880019107,-0.045841875125616494,0.08288814001878385,-0.029324345339281778
1.485,-9.975237493772884,-0.1594197497287029,-0.000631440602497646,-0.044655109413249294,0.08288223399684552,-0.026269679290220883
1.4875,-10.212131561527332,-0.12869267011254176,0.45809636607717175,-0.04556188866559484,0.08654458773311907,-0.025937795594855234
1.49,-9.82408304995709,-0.2993540473247476,-0.39805999570813455,-0.04283941178826899,0.08152644463519335,-0.02297765173104434
1.4925,-9.732184,-0.2691538900781053,-0.7489185054511138,-0.04443018889307832,0.08065959518987338,-0.026178647659574387
1.495,-9.891788626499698,-0.24939721894176614,-0.46968176493422453,-0.04446434460864113,0.081245,-0.02839711634314345
1.4975,-10.087276,-0.254663,-0.041846,-0.043371,0.08617428400541303,-0.029322
1.5,-9.936538731338656,-0.20567306123556311,-0.18558509193085806,-0.04350878420277498,0.09182041957987754,-0.029665559956592515
1.5025,-9.791671237793931,-0.14484589293557287,-0.3183491001754854,-0.043677,0.08796229357733786,-0.030085
1.5050000000000001,-9.964884842124794,-0.1534520889454668,-0.14254428557597648,-0.04148166794908044,0.08565586185132809,-0.02781871615275795
1.5075,-10.098485024890318,-0.20948594094407116,-0.010000067669691338,-0.04029153852762155,0.087048,-0.026418286500516912
1.51,-10.090864,-0.270803,-0.015543,-0.04215,0.09221430210112914,-0.0281
1.5125,-9.948980173221964,-0.28533489023866276,-0.07472733730309965,-0.042892527923627646,0.0962926120525061,-0.028504854510739835
1.5150000000000001,-9.846335406472498,-0.32116551673139315,-0.09200460695792365,-0.04470686544768077,0.08589241813376416,-0.02933509755124059
1.5175,-9.957486584356335,-0.19753228365073605,-0.033020584148194025,-0.046495474093037836,0.07869583458424391,-0.03291470880216483
1.52,-9.93269717700342,0.007701264724900028,-0.1839998851352211,-0.04619376721790487,0.08458801390736718,-0.03286471303077398
1.5225,-9.841438369658194,0.03044469260187624,-0.3671371502007052,-0.04455832346916435,0.08727165914608946,-0.025336883634594506
1.5250000000000001,-9.858278681753541,-0.17151585881066916,-0.3618430109244341,-0.04753199132609237,0.08157284015003513,-0.021421335813081324
1.5275,-9.818171862792944,-0.40389671591525095,-0.4455535244932438,-0.05202957211130973,0.08350328844523891,-0.028281599019658384
1.53,-9.889714588487166,-0.24048401669033243,-0.24134270979792,-0.044143395346805,0.0992348757837248,-0.029510238995084634
1.5325,-9.986713118048424,-0.17277549371685247,0.19496073455670393,-0.04200602852600281,0.1034135265465137,-0.027566310552824828
1.5350000000000001,-10.036294619862224,-0.16092732733866671,0.34127619641142976,-0.04287909086388489,0.09997136745902235,-0.025502411240794873
1.5375,-10.019691504221102,-0.27082072080402897,-0.1579055157789387,-0.05146780321608104,0.07699334693467169,-0.027924797085427507
1.54,-9.958870460161913,-0.311145536360437,-0.4676405945512185,-0.04881513047518475,0.076205,-0.02893105478352694
1.5425,-9.919893,-0.334768,-0.656384,-0.046884,0.08050331336695195,-0.029474
1.545,-9.919893,-0.2927183147795093,-0.3559517575551389,-0.04808534024643314,0.08880603681258092,-0.03385593019779484
1.5475,-9.950132479813618,-0.22368190947717367,-0.012274502978992801,-0.05059682061285749,0.09329806675406742,-0.03843106040120039
1.55,-10.015646311938873,-0.13120395651861952,-0.07433702951289957,-0.052132988801337043,0.0945254184336197,-0.03628151583094545
1.5525,-9.995053944085612,0.11978062755291255,-0.3121843771890603,-0.04707301779310346,0.09007550099881093,-0.02941502481331751
1.555,-9.986848,0.200861,-0.357484,-0.045815,0.09357910761014257,-0.025809
1.5575,-9.985544051255694,-0.03220697299850933,-0.22296184432658128,-0.048412431010396294,0.09362995775727115,-0.025742276201378336
1.56,-10.000721229791882,-0.33303693655139666,-0.027606716011710795,-0.051907564311149804,0.09339158686713626,-0.026271658779773707
1.5625,-9.865474178951185,-0.296151842677622,-0.23222449818753021,-0.05181708542774287,0.09465293088448526,-0.028842978250362493
1.565,-9.739354689188115,-0.16460090007445866,-0.40508835249426295,-0.050566166843564395,0.093157,-0.029716269078811943
1.5675000000000001,-9.843375,-0.06516,-0.234338,-0.04948,0.09370924956839576,-0.027794
1.57,-9.859734694419474,-0.12335784416243654,-0.2214646311287691,-0.0503478053942632,0.09518776054638024,-0.026971955152117044
1.5725,-9.927121542801075,-0.4446773749982478,-0.24831784527041337,-0.05405054432426117,0.0938909679243079,-0.02502191234201615
1.575,-9.92823219345238,-0.4877749060810792,-0.25006679504504953,-0.05388474181145426,0.09164610241312741,-0.031170235408622828
1.5775000000000001,-9.965023344473371,-0.5130762084023606,-0.10279283898225111,-0.05440898622485188,0.091477,-0.03476094863905334
1.58,-9.943339728254893,-0.3852544599089631,-0.1547200216058276,-0.05054591196722793,0.091477,-0.03636459695949026
1.5825,-10.066231206079584,0.05935100621004569,-0.017629014716241245,-0.050528918799739114,0.09274707055446842,-0.03883970035225041
1.585,-10.085271065957837,0.027748301338224653,0.08589050161320394,-0.054460689642529855,0.09599792260311663,-0.02732315094408817
1.5875000000000001,-10.096182937494085,-0.20832512983453172,-0.17092969872340782,-0.05182760964539015,0.08273723479905389,-0.022307890780142347
1.59,-9.987697226605741,-0.3187790253785881,-0.3542367057180248,-0.05051388396866829,0.08441811522193247,-0.027422095143603175
1.5925,-9.844793281190277,-0.29006097605690606,-0.5153183995020741,-0.046237796220509726,0.09341406095080029,-0.026384796220509727
1.595,-9.744654927240946,-0.22620203174488335,-0.347621383253546,-0.04652401545196846,0.09949528320629913,-0.026247500327559015
1.5975000000000001,-9.80437673794507,-0.17030652333051485,-0.136677380346114,-0.05150823508168979,0.10303561743676617,-0.02681821667191062
1.6,-9.910329,-0.211621,-0.080703,-0.054062,0.09964596798262608,-0.024435
1.6025,-9.919016371400065,-0.26775411802060106,-0.12330398465079037,-0.05389124841004183,0.09528551515288053,-0.025928727084003924
1.605,-9.94254133048252,-0.42126877225012266,-0.21196351955686957,-0.053508475455440664,0.09241772965041846,-0.030240368975873934
1.6075,-9.912555024806501,-0.3987012355661776,-0.13409768178690773,-0.0529038756712853,0.097128,-0.03312255067367408
1.61,-9.819874844313864,-0.19988751843790115,-0.2019538273824291,-0.05164572770886243,0.09433802328134383,-0.035192130238181615
1.6125,-9.830596142324717,0.007587318192405296,-0.44195388655952034,-0.056636261309107976,0.08466724826461683,-0.034138040437922144
1.615,-9.835761726588771,-0.2433948100904787,-0.6017527068847749,-0.04954227489004734,0.09565030618730898,-0.02144051642159506
1.6175,-9.810220553974474,-0.26292562976811024,-0.4789319048714753,-0.04896674872550784,0.10275076599676417,-0.021824409965845757
1.62,-9.881174552958342,-0.32315604622236405,-0.21586182283185634,-0.04934973718054159,0.10512880518581731,-0.023538304895647566
1.6225,-9.96990668680851,-0.28873692468084505,-0.015372363404258182,-0.051504344680851154,0.104305,-0.027192554468085224
1.625,-9.957054037703303,-0.0489198334154756,-0.1639854672252341,-0.05491689403647117,0.10299390758994578,-0.030258941596845737
1.6275,-9.956419279358663,-0.11239324869989284,-0.2499413974485923,-0.054379941261763654,0.09850399601254782,-0.022583806385500168
1.6300000000000001,-10.0027755777602,-0.30680104257409335,-0.05250013912635293,-0.056446337314493465,0.09700418253370982,-0.022475251294307608
1.6325,-10.025024011500916,-0.5393006775446798,-0.040520729362938115,-0.05772352515746451,0.092699,-0.02325160006410778
1.635,-9.76705750025751,-0.5208245115879792,-0.6062971031759717,-0.05173765373390547,0.092699,-0.036038877253219095
1.6375,-9.821650415178805,-0.2963009348501642,-0.35732768184547875,-0.04971018415758152,0.0937618902933586,-0.03885496474429871
1.6400000000000001,-9.878785789146399,0.03990670363381546,-0.22694115370533402,-0.049566062298521965,0.09662516768717276,-0.0355822100524546
1.6425,-9.779740747585647,-0.1024032647344741,-0.5005417988423037,-0.049786,0.09805784018846339,-0.034514
1.645,-9.802793532916256,-0.26521196751724235,-0.512211595152708,-0.050783571842364546,0.09828830126108375,-0.033516428157635454
1.6475,-9.986725595503215,-0.3373578671533997,-0.17627503019313107,-0.04838514925105995,0.10158285074894005,-0.03213675728057781
1.6500000000000001,-10.161361749709217,-0.300719424563849,0.23704477008604546,-0.040869614166085214,0.10900567829727832,-0.03111856969062557
1.6525,-9.905971715028981,-0.16385847973912127,-0.26016540839132646,-0.047125147753623677,0.10225034623188356,-0.0321770437101452
1.655,-9.892323530450565,-0.05500435872966243,-0.5007388771871076,-0.053212614421151425,0.09473770911764705,-0.03381229251877342
1.6575,-9.9381379093974,-0.14458185302251608,-0.40982600069774855,-0.05088517962258172,0.09561266668569612,-0.02893019258801149
1.6600000000000001,-9.92260839915527,-0.34353914453084833,-0.366811903638104,-0.047603540047996405,0.09959680548596114,-0.024629603114951406
1.6625,-10.023974041052135,-0.38728360345903534,-0.2695595652654294,-0.05261478191208287,0.10161635222195552,-0.03546207583473497
1.665,-10.182556338626226,-0.04822594882426507,-0.07700825124710305,-0.05137925644246209,0.10425191342016059,-0.03530451453345224
1.6675,-10.072585254713054,-0.11980100450550055,-0.2350691569812656,-0.05185505988462682,0.10606096425334521,-0.033304643446922404
1.67,-10.070389090492117,-0.22782519887423214,-0.07572958099711752,-0.05269701439369569,0.10903954774847206,-0.03134127710839504
1.6725,-10.029821243717922,-0.36125499743229206,0.05201907599091457,-0.05251568813745366,0.10949808181839851,-0.03162183375730837
1.675,-9.941643293759563,-0.4099571695466622,-0.2609578306304892,-0.049538747515902995,0.09738096547225994,-0.03430760805217814
1.6775,-9.913632126406581,-0.2503208829847253,-0.4913711974618087,-0.052316127191539316,0.09809215415276135,-0.04111690793889536
1.68,-9.870000604158891,0.09864617447731659,-0.45117436822451673,-0.05689986681569642,0.112094,-0.04269966056288221
1.6825,-9.820106478492567,0.06173539243967738,-0.3457466276437938,-0.05721497484693898,0.11264144579777371,-0.030447163098329573
1.685,-10.294290449932689,-0.2817937375135883,0.09581492188792207,-0.057613012099586414,0.09030692421701424,-0.029819012099586414
1.6875,-10.279547799610738,-0.5019062603195199,-0.03025484932284485,-0.057872371178331036,0.09978671113453898,-0.030078371178331037
1.69,-10.0490565377325,-0.32264392668167685,-0.265039210278398,-0.04872889363345595,0.1020626259684871,-0.03017760261106504
1.6925000000000001,-9.706014760367836,-0.15063842875120356,-0.4193864715004844,-0.05194115670861685,0.10395408923523725,-0.03362761055179133
1.695,-9.802094210456946,-0.07760463359212769,-0.34755521906003484,-0.05646270248799867,0.09479020469626007,-0.034086930563622365
1.6975,-9.981967668187316,-0.06449662980912894,-0.27808180666271465,-0.055793620277415495,0.09140275592649677,-0.030299155879075244
1.7,-9.82775141197315,-0.32144557962947284,-0.6348232298357614,-0.0491106440579242,0.09807457571393889,-0.0239168818056792
1.7025000000000001,-9.597507593762643,-0.45378764858282916,-0.8039920528272279,-0.0479595608178616,0.10335567061339619,-0.02968361331139935
1.705,-9.909170788088941,-0.20411104571112598,-0.19646360834120175,-0.051101839344055544,0.1082151913497321,-0.037902612075055166
1.7075,-10.1905966743367,-0.01677780618454941,0.12077096515613925,-0.053752854125381576,0.10662348254050237,-0.03687874046959379
1.71,-10.073751905049452,0.029174714422558628,-0.17117426633754976,-0.05724807059092763,0.103663340397221,-0.036051220675112385
1.7125000000000001,-9.875529108292147,-0.07197807684946662,-0.4279592446222603,-0.058843215752726136,0.107818,-0.0338008773515334
1.715,-9.828555159141622,-0.47515252028616584,-0.30262650140198966,-0.058948,0.10113875587982701,-0.029169
1.7175,-9.942387987854948,-0.4250682867895912,-0.2659420829748,-0.055713239791026395,0.09278528835894277,-0.034612965552141016
1.72,-10.030706278127662,-0.3206380486756942,-0.302729830344288,-0.05355450694003859,0.0886471544912957,-0.039974610661508675
1.7225000000000001,-9.782608228007176,-0.19523416617770994,-0.7927337721659792,-0.05523523458673575,0.10362659770989885,-0.039051746739627156
1.725,-9.684314777068739,-0.1052339596774283,-0.8727100154277314,-0.047841020617111034,0.105527,-0.032886443127629686
1.7275,-9.927666,-0.261836,-0.196078,-0.051924,0.10782838060788175,-0.03207
1.73,-9.860110658425619,-0.29435208693960235,-0.2927850486193745,-0.05435854500526953,0.11035177346736927,-0.036939558913660256
1.7325,-9.66654589711377,-0.25550728169888315,-0.6307021069783416,-0.05704633143849092,0.1083699287628748,-0.04016003562087739
1.735,-9.666374737292543,-0.1554077598531205,-0.6529637742570202,-0.05775528553243579,0.104418282232558,-0.03597473808567921
1.7375,-9.950521467274996,-0.15142928701783523,-0.16620704063043426,-0.058744460887598514,0.10384390926586486,-0.03329416371630024
1.74,-10.119176895012947,-0.23989994282562083,0.009088635253859306,-0.05899004287740628,0.1063134988765057,-0.03186735496566474
1.7425,-9.78075835118307,-0.3935288797554653,-0.7389868933499298,-0.059590384883957855,0.10448374389222236,-0.03605729636590045
1.745,-9.674761809204778,-0.25365818654535904,-0.75741383851189,-0.05925151142880344,0.104153,-0.039355437296726546
1.7475,-9.824517167829733,-0.16014266425445461,-0.49583549642472136,-0.056912485500418435,0.10690957469807501,-0.03541678303479586
1.75,-9.83684688596285,-0.2675069374559135,-0.450450066541265,-0.05629711779920056,0.1126194761344933,-0.031017525276275573
1.7525,-9.711501016935253,-0.3795705432388791,-0.49610331798955526,-0.05632452656957422,0.1152740582270065,-0.032474942615165404
1.7550000000000001,-9.787556931174548,-0.3908671095299427,-0.3495793781416198,-0.05429521352119526,0.11323858265516773,-0.033882585730596514
1.7575,-9.908698644655463,-0.3563636600111483,-0.26811705928463264,-0.05612070371385332,0.10369737960646838,-0.0389003198852866
1.76,-9.777363663222111,-0.20021355081029535,-0.493527145567212,-0.06417508448045771,0.10882255180171616,-0.04202488966634882
1.7625,-9.763188810833288,-0.211404177619022,-0.6432380366156616,-0.06288456231806797,0.106894631135043,-0.03974658647971427
1.7650000000000001,-9.804282141752742,-0.24413249696742165,-0.6899109400211627,-0.06034328660157617,0.10173891971767982,-0.03723889500529315
1.7675,-9.947135304302844,-0.2778971862555172,-0.4743375043943162,-0.0585634668391167,0.09874144362145132,-0.035250944804416595
1.77,-10.067712845451505,-0.13867799858576024,-0.2977705491638791,-0.05879134967032971,0.1087148493741043,-0.0392260698709985
1.7725,-9.906746741958663,-0.04437374680117836,-0.23264880574311092,-0.060287881102362266,0.11937616323818911,-0.030999017736220554
1.7750000000000001,-9.95947408614399,-0.3686298069833939,-0.33461981278927405,-0.06257548170212761,0.10696137535412405,-0.028109842133488914
1.7775,-10.095402664755468,-0.5027307888359122,-0.33060032239230536,-0.0615492158297872,0.10481410197143683,-0.03062996970445942
1.78,-10.046913513592198,-0.5485746004614132,-0.4144301504662892,-0.0604432721364744,0.11021030845166543,-0.03340919800487412
1.7825,-9.962110402632065,-0.4019243481371677,-0.40478589927711145,-0.05929401875810937,0.11479102494902696,-0.03604360315106578
1.7850000000000001,-10.002029907614212,-0.22819735587140247,-0.28686537563451875,-0.061575869780034126,0.11021012656514367,-0.038810402098138935
1.7875,-9.913349218993995,-0.19354046398237543,-0.4442690411700056,-0.06460716773956675,0.10887019121282587,-0.03818139344021513
1.79,-9.758006293725334,-0.32371100340539616,-0.7148571186824961,-0.06155149917773753,0.10993409247071773,-0.03386339420171367
1.7925,-9.770541589062711,-0.4643994544675031,-0.5369132162143727,-0.05876497926111744,0.110719,-0.03575899371037622
1.795,-9.936910057073405,-0.2987424107634663,-0.15955129033931595,-0.05945387826427404,0.11297621999673724,-0.0403410884991843
1.7975,-9.934858267040624,-0.10842101357305364,-0.24877893106557591,-0.05908199877741811,0.11304353528466951,-0.03773553406208763
1.8,-9.69301908104585,-0.1361381054120653,-0.682730537757301,-0.0567211770007152,0.10776607492648804,-0.03031629813240075
1.8025,-9.576461801568252,-0.26833744035381224,-0.9487684860148224,-0.0556096960650251,0.1046953402820942,-0.02665950477647621
1.805,-9.72642361325692,-0.4785816961604545,-0.6810498758739433,-0.05679446250238775,0.10657745314231094,-0.02810484271251181
1.8075,-9.890509287231856,-0.3669222200693294,-0.27997739354299184,-0.05719617763482003,0.1201858277795053,-0.03348738728685903
1.81,-9.4621096580879,-0.32965743343771986,-1.0034885535834173,-0.06836589844174273,0.1146240523279246,-0.034504916522068274
1.8125,-9.72246444685179,-0.2412911327877383,-0.6927228498509863,-0.06722947400539288,0.1100029567150764,-0.03700445503571598
1.815,-10.113366575450621,-0.43786615931326944,-0.1603685306438123,-0.05553279502146063,0.12013244875536298,-0.02797487879828471
1.8175000000000001,-9.94586645227553,-0.5718850440451019,-0.2248279824859128,-0.05176610049498137,0.1149672136504877,-0.03303550047023273
1.82,-9.911483527402476,-0.3651529633967547,-0.34910189811608294,-0.05606366896289269,0.11176899147478593,-0.04220145615604212
1.8225,-9.939894283651492,-0.03662770823265796,-0.5230059055700466,-0.058136631938555054,0.11162376546923754,-0.04401620223057841
1.825,-9.85827006359023,0.04343014710256794,-0.7851112356190206,-0.0516593934379794,0.10902500443762551,-0.03144665105629673
1.8275000000000001,-9.84196496860876,-0.2574396853274289,-0.824173727744065,-0.056277713925093356,0.10822145882017624,-0.02529139466941205
1.83,-9.86185914703819,-0.4000355254191708,-0.5077596917415244,-0.06144739748258466,0.12089122012971498,-0.03079836154696119
1.8325,-9.72655384823333,-0.4550812388142735,-0.3875897361138054,-0.06142122327902727,0.13521848514026855,-0.028128223279027264
1.835,-9.756618517101508,-0.4018786101159937,-0.40551957866795135,-0.06222298986009805,0.12250569175176403,-0.030808561248355695
1.8375000000000001,-10.114038749484266,-0.3384206059966736,-0.2577991414728115,-0.061156013096665685,0.11585646433197505,-0.028728557495801083
1.84,-9.934861442857649,-0.45105536175085303,-0.5337028062496358,-0.05884040594191656,0.11312839278430427,-0.030873413582205345
1.8425,-9.70375950518946,-0.40817284396968306,-0.8553493382316897,-0.05778798468422953,0.11191096936845905,-0.03524295741609535
1.845,-9.742871327286196,-0.2693088116733564,-0.8425216469311549,-0.060292801985180576,0.11154187783883916,-0.03796103357209015
1.8475000000000001,-9.98170950204256,-0.15814200579222656,-0.6951704421126492,-0.05625648162703277,0.11485256674343003,-0.033553576170212096
1.85,-10.04931837699377,-0.16809678399051903,-0.19702932928550432,-0.0487887945686334,0.13046962497479997,-0.02273746011265935
1.8525,-9.914769257942483,-0.3405569149599787,-0.2475779669232145,-0.05249191858642164,0.13322271986243706,-0.02264233285028165
1.855,-9.968289669169595,-0.36826606809468065,-0.2334702066901028,-0.05802491602843523,0.1253110108085307,-0.02620490829778919
1.8575,-10.066407220082466,-0.3241825872665529,-0.36704226168322646,-0.06115018004365764,0.114803356434635,-0.029962014130487533
1.86,-9.828542115126888,-0.4152372068686605,-0.8715869861421521,-0.0573918759803298,0.114385,-0.02832653636104052
1.8625,-9.613368555719818,-0.46468310759122167,-1.0577045103836609,-0.0591087143728736,0.11879070463451857,-0.03197253269975385
1.865,-9.862504,-0.283357,-0.23912,-0.05681,0.13336990943831017,-0.03207
1.8675,-9.862504,-0.283357,-0.23912,-0.05681,0.12376006025924172,-0.03207
1.87,-9.917405609569258,-0.22201305303802146,-0.3884183225274931,-0.05816978348342979,0.11992489887794158,-0.03414528637081687
1.8725,-9.918612780884189,-0.2570756071780943,-0.6553902547425899,-0.06088010853960684,0.1233790740265941,-0.033337997499715694
1.875,-9.810557805215712,-0.41051951625885386,-0.7350856682227946,-0.06126732549903413,0.1251028612363168,-0.030167934481648423
1.8775,-9.881229182456467,-0.4049477198910362,-0.5580453300485688,-0.0643098321070707,0.11951644538197344,-0.03448874486793772
1.8800000000000001,-10.022716,-0.35868,-0.392755,-0.069791,0.11938725586647066,-0.038943
1.8825,-9.826082941376958,-0.25774543025938734,-0.6589076029527445,-0.06473835957333302,0.11962551294545426,-0.03180925950545408
1.885,-9.627202261384127,-0.3460631952539694,-0.893483271406349,-0.06152804532063494,0.114843,-0.026554335971428585
1.8875,-9.9681368772207,-0.4273349710982711,-0.28941903699424476,-0.06129870666509389,0.11856800094372993,-0.033706233054146294
1.8900000000000001,-10.1046507589631,-0.33602947879990663,-0.1625533202112558,-0.05676862457476581,0.12645704381470552,-0.03375990655892429
1.8925,-9.757051024768506,-0.36084290232352656,-0.8140944866156766,-0.05487108798170204,0.12470037081788742,-0.030896876485527417
1.895,-9.575046520659788,-0.3316422214121271,-1.054450625707839,-0.05732020335113334,0.11666136435742273,-0.03745697456271515
1.8975,-9.99396855454134,-0.2587133656585376,-0.4357182701534872,-0.05869426527543149,0.13042,-0.03573889372992294
1.9000000000000001,-10.008226277924985,-0.23363943221713682,-0.4488670180679559,-0.05626484353970963,0.12848198108086387,-0.0306939786557459
1.9025,-9.97695485391059,-0.189183037925059,-0.5026164415365092,-0.06436616813916912,0.12595494145780853,-0.03519230229219153
1.905,-10.111031942012392,-0.12827312873629235,-0.24696008814497616,-0.05953904530281272,0.13250040528373913,-0.025166809117786584
1.9075,-9.973488581787343,-0.39755991528039575,-0.37764480161560354,-0.05944667001378139,0.12167013524859548,-0.023241456762429776
1.9100000000000001,-9.845899395589203,-0.6258477015049715,-0.5780158208613666,-0.06279174326549997,0.11225020255560823,-0.026979044221487364
1.9125,-9.810011503375124,-0.3867433411764456,-0.8927537232401122,-0.06452814175506215,0.11570575911282568,-0.03994551108968162
1.915,-9.761106837085881,-0.15825711241325324,-0.9222573511634498,-0.05554167831056674,0.12099832168943325,-0.03113030242110204
1.9175,-9.73617062583562,-0.2312753750880025,-0.8709146235620887,-0.05607657117390596,0.123853,-0.026716569791700246
1.92,-9.93258018933713,-0.28218129182227925,-0.4992595481777281,-0.06353,0.12807367873604117,-0.03375
1.9225,-9.962949713043473,-0.43254007486814106,-0.3541879966072854,-0.06265042129722015,0.13329938697077603,-0.0314049366500354
1.925,-9.897628132569697,-0.23025092378472972,-0.5738138380271686,-0.06235540958962471,0.12122810600653201,-0.029123376078004474
1.9275,-9.84659597803001,-0.18930648032564978,-0.5468140110758746,-0.0656147453173664,0.12562451165238792,-0.03041232002271974
1.93,-9.80241648755631,-0.23061910467424535,-0.6179317782126299,-0.06790107030273679,0.129198,-0.03000804353596532
1.9325,-9.72101323737266,-0.4964282515049579,-1.059895649615134,-0.06422985870477042,0.12388819150956386,-0.02763697975570432
1.935,-9.850094013575138,-0.44706861282383126,-0.8117631244170834,-0.06406628093264258,0.12376416329015565,-0.035869572124352544
1.9375,-9.829993900837673,-0.13928953362010413,-0.5573029221190854,-0.05773677994113652,0.14937116866651573,-0.02685350532035318
1.94,-9.596714089685674,-0.4855402409519803,-0.722475632838518,-0.06610716228619491,0.13161024394254459,-0.02845070891519905
1.9425000000000001,-9.822749994804987,-0.48629332005529186,-0.43917609685676917,-0.07419126164793595,0.13324622164312766,-0.03691985541679227
1.945,-9.933340837930393,-0.4902862573151027,-0.44487240840273995,-0.07331699325668099,0.13385960931945307,-0.03830206471721557
1.9475,-9.835592073892652,-0.33803152210526155,-0.6601849198228251,-0.06576929023449711,0.12803185091193323,-0.039426043418447146
1.95,-9.87751426512885,-0.11453898655614014,-0.8410219044152067,-0.06775738835826271,0.127824,-0.038889251144350344
1.9525000000000001,-9.878704838153084,-0.08479657864797394,-0.8902169397548682,-0.06863326753102593,0.1305370589254609,-0.03414358888460595
1.955,-9.78121990192883,-0.3357167534731103,-0.7683316655660719,-0.06649713520067067,0.1369708935905117,-0.025793097654247168
1.9575,-9.705611367266808,-0.45248127595254667,-0.7249222679320763,-0.06289344089323101,0.137908868536869,-0.030485023912537833
1.96,-9.868605360065205,-0.30694123752547375,-0.5358532954829277,-0.06781890514956386,0.135459,-0.03425017942782619
1.9625000000000001,-9.897471118107322,-0.17102906976221066,-0.48768038211762277,-0.07039892985218496,0.13400660808161932,-0.03352333044665774
1.965,-9.829469732603942,-0.25218981908097693,-0.7038309814442031,-0.07030171921225416,0.1296564862144418,-0.028448971291028507
1.9675,-9.904712257368079,-0.5148907823257324,-0.7152827397980449,-0.07510967713355043,0.12788792250162875,-0.031981922501628735
1.97,-10.016303271616994,-0.46621797055655323,-0.5942038343219668,-0.0700940978671455,0.13426168501256727,-0.035988081555954586
1.9725000000000001,-10.026292390473103,-0.3714721975382607,-0.550323009108418,-0.06443469604123384,0.13615117350565406,-0.03283827691668603
1.975,-9.870884287071243,-0.1857358327176746,-0.8299844195250442,-0.06250062585751973,0.13318203377308718,-0.03358020105540869
1.9775,-9.925871,-0.122549,-0.436394,-0.061392,0.13316785586948454,-0.028405
1.98,-9.969812205936414,-0.1911333875178552,-0.5035833730408942,-0.06263922928007078,0.13568879706718912,-0.027276776694267126
1.9825000000000002,-10.022684448566942,-0.32703424296008443,-0.5922201141738318,-0.06513686311668014,0.143248,-0.02506394472983521
1.985,-9.894729401736065,-0.4698498226431279,-0.8716197984638079,-0.06699415707228877,0.130267,-0.025842519040594123
1.9875,-9.81716881042212,-0.526827126064818,-0.8650567795935847,-0.0718715100556799,0.130267,-0.031176967924618187
1.99,-9.832052778734544,-0.4966612229818197,-0.7271339496727299,-0.07407570362181821,0.13117903758545452,-0.035583
1.9925,-9.947478175852071,-0.3372835553464347,-0.47941133945691483,-0.06598384636704131,0.13700304290262155,-0.03021195637640484
1.995,-9.672297779895393,-0.37787565166767484,-1.0053450378396753,-0.0718565850723756,0.12468715587884706,-0.03897257651380603
1.9975,-9.767989746595306,-0.24977808206787222,-0.9199462329448954,-0.07136998764627173,0.12926423284758554,-0.03712184816445684
2.0,-9.79532290057453,-0.15947482572614108,-0.9341129629747845,-0.06537729269071177,0.13192505473986593,-0.03167061777848707
2.0025,-9.827837710457368,-0.13385391585657297,-0.8319102644589726,-0.06309218877450178,0.13443254509641425,-0.02770935751394417
2.005,-9.95642359394377,-0.17576138760293622,-0.448593377081548,-0.07155391480228615,0.13925484146039865,-0.02854583058439314
2.0075,-9.98429041453312,-0.4103762306960629,-0.368015505738521,-0.07335058977928684,0.13978809066213982,-0.02400215731748734
2.0100000000000002,-9.846803451214651,-0.4809365190364653,-0.6781050120897468,-0.07324910559153361,0.13273768830516455,-0.026402412434055108
2.0125,-9.794880288479263,-0.4551665566820505,-0.9375076543778914,-0.07261339769585254,0.13022985345622135,-0.03027993548387112
2.015,-9.777845614506019,-0.5403779133498087,-1.002215573408819,-0.06884504394864811,0.12929681484092162,-0.03070147364962918
2.0175,-9.76669120503788,-0.46153116933711896,-1.1220342300378876,-0.06542791123106065,0.12631717753787872,-0.034653753219697284
2.02,-9.793751524157067,-0.28738321422054847,-0.9193388848812564,-0.06382890263813776,0.13380484208793803,-0.03932208466494239
2.0225,-9.723724958468196,-0.11794215072737352,-0.7318324735991131,-0.060935185402217526,0.14519303263662806,-0.03649348014783372
2.025,-9.584875823123037,-0.08143763732309797,-1.0138118398177205,-0.060356057519788744,0.1461961842648126,-0.029288292252338834
2.0275,-9.876287317884003,-0.2964306147342573,-0.6767639951176911,-0.06855729998543965,0.13350192763892205,-0.027008286940063048
2.0300000000000002,-9.872573866261332,-0.5294017395066063,-0.7917917591023611,-0.06840248158522896,0.13862892953684564,-0.027336
2.0325,-9.75629497900829,-0.5650821407354745,-1.0135595881755817,-0.0657562558956117,0.13785837205219417,-0.03354447140213651
2.035,-10.006397623840014,-0.30849870262586737,-0.5588393805999732,-0.06606530076000001,0.1354467039105881,-0.036758894103529574
2.0375,-10.107021091425716,-0.14593686425722904,-0.4613298230558529,-0.06434575757726801,0.13749248484546395,-0.034364511440677536
2.04,-9.943783633953304,-0.15012110187035338,-0.8568990695578491,-0.06243178811529934,0.13891140995695833,-0.029783065751923837
2.0425,-9.837879671616742,-0.1551210488756662,-1.0118801366516255,-0.0640149272343044,0.13591377796881407,-0.03000448896183834
2.045,-9.975668442951092,-0.2321285019021791,-0.507771114097819,-0.07001875966529207,0.141568,-0.02663697648556303
2.0475,-9.915412390530799,-0.37892319915460626,-0.7691680577674893,-0.06648190660026662,0.13670837622251975,-0.024565612151098752
2.05,-10.005452538362052,-0.3577212326149593,-0.9135562549808554,-0.07201702298850564,0.13295453194444432,-0.03196359315134058
2.0525,-10.145862,-0.218197,-0.810019,-0.072846,0.14218879285358793,-0.03543
2.055,-10.042818283369026,-0.3127509439069222,-0.7620101848593615,-0.06723707938044172,0.14293748581336135,-0.03318672556677175
2.0575,-9.958811776412565,-0.36972868484536425,-0.6379559838894604,-0.06390392924090318,0.13892958383805967,-0.03430872166760422
2.06,-9.950486553942943,-0.2627110833525044,-0.5701329051766753,-0.06730582089916631,0.14551861663575527,-0.04032784917009019
2.0625,-9.788776800847458,-0.26700209933181224,-0.9373789616199478,-0.06192563062255541,0.1382663158409387,-0.03345523859191656
2.065,-9.932170027729397,-0.3667010746582419,-0.9549350215496307,-0.06815023154026202,0.1307027687453181,-0.03375738534644167
2.0675,-10.04664898637739,-0.23734359295884389,-0.7464781351471859,-0.07160359772487403,0.14293724403893457,-0.04011507590008228
2.07,-9.850293957258035,-0.2174449293811429,-0.8704894670770973,-0.06903310496985102,0.14787614231672494,-0.03723701009203438
2.0725000000000002,-9.892236118613122,-0.13761851738838282,-0.6485382482772806,-0.06807329965326467,0.1456072706307632,-0.03749972936923677
2.075,-10.0649992344784,-0.18266080033094084,-0.2925185725654098,-0.06767856134572946,0.14341616462338472,-0.032585664686415876
2.0775,-9.866760946256424,-0.4424452395788558,-0.7781109157510999,-0.06779275497894263,0.13747917106223612,-0.0314059580439876
2.08,-9.78572921299345,-0.4558919148007238,-1.1751655112524655,-0.06954796902849027,0.13221456365243472,-0.039789972447320764
2.0825,-9.835632068264404,-0.3724170644008483,-1.1013398988581178,-0.06863116002484598,0.13455816571251103,-0.0415586975847611
2.085,-9.919020428821366,-0.28740690919198836,-0.9335905351684893,-0.06539842610694141,0.13928297242093268,-0.03948694718774266
2.0875,-9.96378398159557,-0.2647343851011726,-0.7352830095373234,-0.0711175877303774,0.14540300760407243,-0.04040641221806945
2.09,-9.904456398765317,-0.1445616003560468,-0.6251473249081066,-0.06893070842075018,0.14469128833269562,-0.03592986677258809
2.0925000000000002,-9.858859701674957,-0.18355903300536378,-0.7958359874502468,-0.07260945586332349,0.13833088404479263,-0.03531665856431847
2.095,-9.873716515803984,-0.22544004311380514,-0.9367439201898669,-0.07695563031209264,0.13209465774771523,-0.036322891577074315
2.0975,-10.007991307192112,-0.4257797331231774,-0.8601662363743717,-0.081398,0.13663044240394207,-0.041233
2.1,-9.8899314548913,-0.3773293342391287,-0.9172627440217411,-0.07035674130434744,0.13979539130434795,-0.037552580434782476
2.1025,-9.763216741012533,-0.2546492391513948,-0.9569465174831245,-0.0686335862970108,0.141721,-0.036682581041465816
2.105,-9.704513298448422,-0.18976403423699784,-0.9727295567073975,-0.0742551326588993,0.14635377093492472,-0.03718457194657577
2.1075,-9.696794241534528,-0.37680031427109445,-1.0374503452344397,-0.07531691890878087,0.14233408061381086,-0.031572202250639544
2.11,-9.701170813762573,-0.5469075889134767,-1.0841031897484932,-0.07785227110663934,0.137884749295775,-0.029810125311870335
2.1125,-9.831091202420966,-0.43887542958980574,-0.9703586252858256,-0.08260462663080048,0.1403324706119693,-0.04192450087424319
2.115,-9.886550908640178,-0.26026827364430444,-0.8969443050667579,-0.07641651608373091,0.147371,-0.038548922564693486
2.1175,-9.900112727977524,-0.28061214660733524,-0.9106989031502501,-0.07161275998594689,0.14074178413865687,-0.03567177795526449
2.12,-9.975535957914936,-0.3671607665845902,-0.7983482171921895,-0.07461884075471716,0.14146476754077447,-0.03758589910777097
2.1225,-9.894800131462901,-0.46858507770549807,-0.7846817700849273,-0.07667381672167918,0.15266094504406363,-0.03600431881429254
2.125,-9.699231383017272,-0.5403102715303781,-1.0248777891049643,-0.075442,0.15457439425051334,-0.034361
2.1275,-9.760129442431834,-0.45893633037919435,-1.0967876996678196,-0.07894035534315243,0.140132414327797,-0.038579575249137986
2.13,-9.98347620873595,-0.3396885401521214,-0.8799165899601753,-0.08284511766751243,0.14115254168779362,-0.04479682880115946
2.1325,-10.008018778539883,-0.37824064750018754,-0.8270331851910686,-0.07422681738131323,0.1471845871985962,-0.03755981253650375
2.1350000000000002,-9.761051712970895,-0.4981927076549549,-1.0161734305674552,-0.07532337009875069,0.14111,-0.03786059619274322
2.1375,-10.014449328932578,-0.3696034393492424,-0.5459842453885667,-0.074984,0.1493290888810876,-0.043066
2.14,-9.92481213662053,-0.26376197007402163,-0.798535247866135,-0.07277464602188588,0.15051850119729582,-0.03780974286128054
2.1425,-9.733397202720692,-0.36245390861477567,-1.2090273780353191,-0.07926083851641251,0.1474070881763245,-0.03399250104514764
2.145,-9.75166253066963,-0.48181595078387773,-1.1375580570422068,-0.08406926510314182,0.15027264717232625,-0.036193751996191695
2.1475,-9.788959906156459,-0.624098509101471,-1.099322076376842,-0.07669059366432562,0.15082957385323317,-0.03269968949382432
2.15,-9.680773,-0.795074,-1.22549,-0.073151,0.15217748153271327,-0.028558
2.1525,-9.75537292683437,-0.5141222874214224,-0.8756540569811804,-0.07361191890985318,0.15902277148846863,-0.034859405576519044
2.1550000000000002,-9.709300629469459,-0.2771334404058872,-0.7575234181879575,-0.069361655148609,0.16190445976030612,-0.037741338255033
2.1575,-9.570753329963027,-0.23122164981514015,-1.3961431937339062,-0.06977342435305092,0.14326761181145742,-0.03332611512938982
2.16,-9.69391153986626,-0.27785233951516886,-1.1957603614377712,-0.07758672192500642,0.14637534481251513,-0.03489592127059957
2.1625,-9.770443,-0.308465,-1.063486,-0.082314,0.1522281034231613,-0.035888
2.165,-9.78532376034903,-0.43792761503655675,-0.9340233849634432,-0.07775219313890407,0.15288212732646797,-0.028132978121216703
2.1675,-9.928293825600752,-0.5500216987053417,-0.6335994122721408,-0.07625016977714887,0.149815,-0.027764179577879827
2.17,-10.046212704317673,-0.4879841865548119,-0.5661974444838551,-0.07666091226589979,0.1448259762096519,-0.03342726000319602
2.1725,-9.93822087155873,-0.4637833409537341,-0.9941248602846581,-0.07198630415658384,0.139583,-0.032772004156583406
2.1750000000000003,-9.869593775443063,-0.3916661279186033,-1.2027051302232952,-0.0690597178097431,0.1433759286815552,-0.037195619121036784
2.1775,-9.945420944581446,-0.2596866429455431,-0.9173575917293965,-0.06795345056368438,0.15445877939074276,-0.036388835586470804
2.18,-9.929978517790222,-0.24574614960461127,-0.8650473358377524,-0.0690048200426171,0.15912769439507504,-0.03022384822981585
2.1825,-9.896717403772907,-0.26031212776294865,-1.0199654889482053,-0.07822091862474645,0.15262720863153095,-0.03136629722687217
2.185,-9.760217046047172,-0.36996658600925014,-1.0748511366623201,-0.07048847436055469,0.15886729641341704,-0.021536290091264648
2.1875,-9.722326254533602,-0.6118014946070878,-1.0544196264667536,-0.07010878967642528,0.1564947331990044,-0.020681844198174707
2.19,-9.767110092700799,-0.6418945123245571,-1.0452617181024046,-0.07179733826926216,0.15353787770325542,-0.027131168329788718
2.1925,-9.829680360218962,-0.5295288102678815,-1.0233428910738434,-0.07323976125320293,0.1540314486186813,-0.0336150144374564
2.195,-9.8239855289015,-0.39455849464451853,-1.0704200495889669,-0.06990104407944903,0.15736584399837852,-0.032834
2.1975000000000002,-9.826065798106061,-0.22263656702649937,-1.0865265541193057,-0.0709558987405312,0.15591235049242375,-0.03160641563446942
2.2,-9.960883114139081,-0.2548373715566658,-0.7328709770660295,-0.08463012759983432,0.16058746719754602,-0.030471864755500167
2.2025,-9.819638015714027,-0.384250193169357,-1.064167924098406,-0.07745159102459706,0.15879252379401868,-0.025748850341532237
2.205,-9.662667918486932,-0.4860995979996818,-1.3188306673184862,-0.07300503208847564,0.1520547948004485,-0.024660407885879188
2.2075,-9.65454683444857,-0.5591919134522816,-1.2522054402011702,-0.07417203312178187,0.15062741468566646,-0.02920812961322004
2.21,-9.89548942730787,-0.5124041952380969,-0.9619972259877442,-0.07506225191890621,0.1595069182932578,-0.031995077227722796
2.2125,-10.009279317580075,-0.3545460338315619,-0.8595225823250292,-0.0713657939976277,0.16595207349940672,-0.03294285041518371
2.215,-9.961372487281915,-0.22690778817715668,-0.9133405484960875,-0.07082115424330925,0.16516517863424676,-0.0327360711802323
2.2175000000000002,-9.924284803816574,-0.15609065561833307,-0.9714761311533134,-0.0727404430940251,0.16153821013432132,-0.027933165817507422
2.22,-9.852937101217215,-0.23835441028535428,-0.995315758020784,-0.07234205076694694,0.1611835349694871,-0.023128238726702704
2.2225,-9.808774247762505,-0.46539038002542665,-1.00861403983366,-0.07102674052905157,0.1569027453806162,-0.021523849647683998
2.225,-9.982478039620649,-0.5166507353609648,-0.8623094749407156,-0.07454369884719181,0.15142789693402006,-0.02778359569945258
2.2275,-10.112538691362047,-0.3625708132339895,-0.7805339874458694,-0.07362406719441193,0.15864826020023312,-0.02826989080325941
2.23,-9.795444112550387,-0.38292073900431844,-1.123954464364201,-0.0720743704678503,0.158672,-0.026430038517274483
2.2325,-9.64100541977381,-0.4632660781905048,-1.2778184303182967,-0.07276881948933182,0.15516099067272965,-0.027182722303835713
2.235,-9.79456475556894,-0.5187740552187028,-1.0067496676289183,-0.07629970765822253,0.15503816696261274,-0.030249335127474037
2.2375000000000003,-9.902224350394745,-0.5100413064175731,-0.9210154401626224,-0.07829600125068399,0.15757828568748514,-0.03214336879543518
2.24,-9.874451583680619,-0.43089167883151147,-1.1567231673612397,-0.07923667404089613,0.15584221039922092,-0.03461420323271715
2.2425,-9.778924524312044,-0.1639119549881773,-1.1449430348936223,-0.08462968249645439,0.15697275657683243,-0.03361179321040121
2.245,-9.705571659948271,-0.23570814810565693,-1.2052228830409926,-0.08245593512030687,0.15637683965201019,-0.027943893101340125
2.2475,-9.844103681139991,-0.3844241747910464,-1.0646021857406207,-0.07659625652496703,0.15491968197820624,-0.025440872781702737
2.25,-9.895697955853056,-0.543985476452307,-0.9455398125747072,-0.0759,0.155771,-0.024435
2.2525,-9.787099346465926,-0.6055393149867881,-1.052077722200686,-0.07882148360695107,0.15428458404420606,-0.028227726736605865
2.255,-9.779758207950538,-0.4545058892523208,-1.1842892865041346,-0.08343477013414231,0.15208290721101117,-0.034838789716552146
2.2575,-9.817648203893981,-0.3101712042457393,-1.1885440691877505,-0.08140044811530453,0.15592660337119796,-0.028626302083791966
2.2600000000000002,-9.79909111008955,-0.4007793059230153,-1.1465201312301714,-0.08338645961351149,0.1556067605027491,-0.026043622579733066
2.2625,-9.836165831422708,-0.3794193514957729,-1.1271400165334442,-0.083704001735556,0.1572567917332731,-0.02826313665220392
2.265,-9.757561727818649,-0.3432786241195776,-1.271940691590032,-0.07947123680683277,0.16134194363337714,-0.02652716689881707
2.2675,-9.752381789845588,-0.234769138680387,-1.316832514749636,-0.07483953847449692,0.16344406754328514,-0.022913195423490854
2.27,-9.89847425180333,-0.3304801921906151,-0.9761348772109313,-0.07959667799824693,0.165544,-0.022975329278827002
2.2725,-9.913779412044772,-0.5104998305644487,-0.8423803080322533,-0.08581075769406665,0.1638242062727164,-0.025310072066433917
2.275,-9.809035550479063,-0.4816943332963822,-1.1429498833161607,-0.08500399642093603,0.162032,-0.0266564961279595
2.2775,-9.759626004097997,-0.407374780494844,-1.307319646836433,-0.08037299312515056,0.1567648575066066,-0.02648871424933934
2.2800000000000002,-9.759400518848157,-0.39180265768325356,-1.2288798355445094,-0.07952721569109984,0.1571623290732994,-0.027031
2.2825,-9.690487178474413,-0.4382275977150715,-1.2582927832114075,-0.08171799978404679,0.16378724776036127,-0.026406217917101706
2.285,-9.891250541295316,-0.34488783777812415,-0.9902430021619746,-0.0779016651213362,0.16285746685156044,-0.02436284847778126
2.2875,-9.944795593413769,-0.39216428652590063,-0.9620484828305829,-0.07804430930115644,0.16338020550527868,-0.02089991055806908
2.29,-9.787007504849623,-0.5467510142982471,-1.2029338475783227,-0.08426944772869686,0.15849468827694235,-0.02029466842105269
2.2925,-9.671612526321171,-0.6032709477620266,-1.3514238954775726,-0.08760343701603536,0.15843194889611897,-0.02471689779223794
2.295,-9.650998414778208,-0.5971108554785998,-1.3427242045603105,-0.07961443185992208,0.15956514944747094,-0.023936848902723525
2.2975,-9.704657863556417,-0.5800373249571993,-1.372907485120621,-0.08327526771984417,0.15520356289494183,-0.0313360418054471
2.3000000000000003,-9.888744234619562,-0.46324172142936926,-1.2307090777869312,-0.08508799933515324,0.1543055469072789,-0.03711
2.3025,-9.954762993732226,-0.27789355605268373,-1.0859168678816429,-0.07840781227740874,0.1739533715891011,-0.02506426820492775
2.305,-9.824018374715152,-0.4866765062390956,-1.2113495766705855,-0.08227008771477015,0.16539430676834777,-0.026212493781775592
2.3075,-9.856785472257451,-0.20536606641687805,-1.0339679730259186,-0.08626469926993294,0.161574,-0.032260933218059985
2.31,-9.788560193031744,-0.29501995885790067,-1.1980796225480401,-0.08341911032106496,0.16223827591108966,-0.027420098254322057
2.3125,-9.74173904180471,-0.3206958906692368,-1.239614626829709,-0.08187539624119029,0.15992333642551654,-0.028770532257092946
2.315,-9.825283800859117,-0.4205702183469859,-1.2264844822400773,-0.08260162526767953,0.15814892380876625,-0.028266901847108464
2.3175,-9.967730524675508,-0.539092025155967,-1.1602891178773793,-0.07985972851918295,0.16045518743635678,-0.027409443069200404
2.32,-10.100429,-0.363462,-1.042563,-0.072693,0.16402151559050104,-0.029932
2.3225000000000002,-10.100429,-0.363462,-1.042563,-0.072693,0.1656746196807245,-0.029932
2.325,-9.95949759431415,-0.25331383741377483,-1.1397313159119604,-0.08065139179511843,0.16351818241468227,-0.028984661032807463
2.3275,-9.936762268032796,-0.19040875235294175,-1.1087327188813774,-0.08437313609450323,0.15835912100289248,-0.025803642777241717
2.33,-10.0309271656266,-0.32253675157289596,-1.0738363913043505,-0.08059652066496151,0.1589643385230181,-0.021354043574168712
2.3325,-10.040038544699701,-0.5733546529253276,-1.168144002932177,-0.0763806046129253,0.1631785293171957,-0.02030122701073306
2.335,-10.018531,-0.703611,-1.209947,-0.074678,0.16563206442689016,-0.021075
2.3375,-10.046573827566192,-0.6352932564139827,-1.195627406915731,-0.0752878328134445,0.16638764674162754,-0.02701962231894518
2.34,-9.962679166892288,-0.4387054447569234,-1.2065534136796927,-0.07528430537654915,0.164475,-0.034525732716873064
2.3425000000000002,-9.852343,-0.312649,-1.231468,-0.074678,0.16075356103931845,-0.036041
2.345,-9.912929777403548,-0.2020103327687367,-1.0297590539626145,-0.08131180013588987,0.16469569159912675,-0.033060888988109445
2.3475,-9.858391187788794,-0.23187198688369692,-1.1305098601254766,-0.08372945258912247,0.16393933425645055,-0.028599161416434725
2.35,-9.70846823604898,-0.45113844520838914,-1.5244357096538703,-0.08045026486931944,0.16169246748292973,-0.024619837249823587
2.3525,-9.753838801707843,-0.5127055558743087,-1.5425821366514776,-0.07645361277044845,0.171653,-0.030295387229551544
2.355,-9.767092045451818,-0.4717545613258621,-1.4490523724315385,-0.07422404033777917,0.16802240827401158,-0.032524959662220826
2.3575,-9.877897438230471,-0.33719145930833216,-1.1572188032604276,-0.07625975792741035,0.16975627749725003,-0.03655868520102621
2.36,-9.847509816793393,-0.16165132826149534,-1.1970101679115501,-0.077885,0.174707,-0.03507391696834783
2.3625000000000003,-9.816519579673468,-0.19977063438241416,-1.2058819317084342,-0.07988985655466212,0.17069781199715942,-0.030333181353525893
2.365,-9.91258265267327,-0.16532939634133403,-1.070325176595945,-0.07758669917963168,0.16839222694955228,-0.031161842791136322
2.3675,-9.883722056504684,-0.3101108586385087,-1.213434039520042,-0.0763731673470362,0.16782538935487676,-0.02754267106094744
2.37,-9.736066762798295,-0.5330446988220197,-1.5471533655517402,-0.0804949332895265,0.16916409506210456,-0.027990285586986456
