time,acc_x_g,acc_y_g,acc_z_g,gyro_x_rad_s,gyro_y_rad_s,gyro_z_rad_s
1765408702.56358,-9.01420903134825,-1.502973151637164,-3.614135751933063,-0.010563508875679176,-0.005531791570417042,-0.00276865773201505
1765408702.56378,-9.00271549304848,-1.5262347709597683,-3.5845125105187874,-0.01076872712749272,-0.005629705042659894,-0.0024753335578792906
1765408702.56398,-8.988868274735045,-1.5511217010449956,-3.5555321071239345,-0.010876289222002707,-0.005698455867255779,-0.0021710006416813268
1765408702.56418,-8.972079311304668,-1.5784854112664763,-3.5270402961154295,-0.010798121221038426,-0.005766888540144496,-0.0018485196341369232
1765408702.564498,-8.952022111141517,-1.6090155117061045,-3.4989060865058206,-0.010447034279712617,-0.005867697292267688,-0.0015016437315221022
1765408702.564748,-8.928687403836927,-1.6431847754906959,-3.4710282663730974,-0.009740579225241835,-0.0060368681248086165,-0.001125346237552475
1765408702.564998,-8.90241801888565,-1.6812070337599496,-3.443339616704612,-0.008604933585992689,-0.00631294908826941,-0.000716080955432483
1765408702.565248,-8.873919517124301,-1.723011050802406,-3.4158082069358953,-0.0069786461942638175,-0.006736171889838228,-0.00027194956291755497
1765408702.565496,-8.844244876323014,-1.7682324975239179,-3.38843500238811,-0.004816042930052976,-0.007347459174712565,0.00020724770554224968
1765408702.565746,-8.81475343794156,-1.8162249214668844,-3.361247115301453,-0.0020900858229460427,-0.00818735615762208,0.0007200966283220059
1765408702.565996,-8.787046377936083,-1.8660892644857707,-3.334286260450707,0.0012055181456115168,-0.009294927664203631,0.0012638012396693319
1765408702.566246,-8.762882925955191,-1.9167202036425097,-3.307592417699686,0.005055139112325444,-0.01070666320150264,0.001834570820694745
1765408702.566423,-8.74408296940374,-1.9668665967423076,-3.2811835752614087,0.009421116342226908,-0.01245543389764546,0.0024281630651171193
1765408702.566623,-8.732422357571899,-2.0152026209698297,-3.255033611005017,0.01424480354169568,-0.014569548003764074,0.003040574397495116
1765408702.566823,-8.72952743676458,-2.0604055763105955,-3.2290513247721107,0.019448785550268414,-0.01707195469894924,0.0036688508020731657
1765408702.567023,-8.736775439070918,-2.1012355818639543,-3.203063869125148,0.024940211102233902,-0.019979641870658784,0.004311971572964934
1765408702.567223,-8.755207315548384,-2.13661166433043,-3.1768072775557887,0.03061510506687936,-0.02330325757454623,0.004971740788300576
1765408702.567423,-8.785459155363304,-2.1656784946283665,-3.149925735135043,0.036363440133270725,-0.027046962894704676,0.005653611325600288
1765408702.567673,-8.827717191004808,-2.187858696035989,-3.1219800827396673,0.04207467510362499,-0.031208506859377136,0.0063673643447722085
1765408702.567923,-8.881699512502562,-2.202887221892949,-3.0924652220318447,0.04764341774792246,-0.03577950620499458,0.007127571382673259
1765408702.568173,-8.94666525235384,-2.210826294904725,-3.0608357299281557,0.05297485215873853,-0.040745909489356656,0.00795377478725513
1765408702.568468,-9.021449646906277,-2.2120611812785693,-3.026538650390635,0.057989585409824504,-0.04608861983928184,0.008870335487305496
1765408702.568718,-9.104521459368998,-2.2072783391004775,-2.989051584576443,0.06262761060940396,-0.05178424116192039,0.009905915487067457
1765408702.568968,-9.19405782258916,-2.197428375958559,-2.9479230815917816,0.06685114299023422,-0.05780590204379058,0.011092584089685161
1765408702.569218,-9.288030475915914,-2.1836769650042474,-2.9028117561994655,0.07064615808086633,-0.06412410607181086,0.012464559508457046
1765408702.569403,-9.384296729208952,-2.1673472671601353,-2.85352091018144,0.07402255007940257,-0.0707075606355203,0.014056622359256681
1765408702.569653,-9.480688682159345,-2.149857210431161,-2.8000262193250824,0.07701293179825774,-0.07752394503831407,0.015902267985542957
1765408702.569903,-9.57509547216737,-2.1326542576407483,-2.7424945210296525,0.07967019723695962,-0.08454058628532529,0.018031701897309915
1765408702.570153,-9.665535221653208,-2.11714971419702,-2.6812918483710266,0.08206404395970573,-0.09172501581192628,0.02046982160591554
1765408702.570461,-9.750215055398264,-2.104654942866496,-2.6169793924461766,0.08427669978412716,-0.09904538836538443,0.023234354382286503
1765408702.570711,-9.827578534055457,-2.096322880349543,-2.5502975079215755,0.08639812728148491,-0.1064707590115426,0.026334316570438276
1765408702.570961,-9.896340454038342,-2.0930986872317576,-2.482139365804838,0.08852100138458509,-0.11397122975592928,0.029768923970836695
1765408702.571211,-9.95550984474167,-2.0956822313224994,-2.4135161671355774,0.09073576627257939,-0.12151798489361697,0.03352703513344999
1765408702.571406,-10.004402990339988,-2.104503106436924,-2.345515065658971,0.09312606269487894,-0.12908323676885333,0.03758717338255567
1765408702.571656,-10.04264848079998,-2.1197076619619497,-2.279250506003366,0.09576477151796116,-0.13664011471541287,0.04191815185820742
1765408702.571906,-10.07018530907436,-2.1411576981847817,-2.2158104932217704,0.09871085883140301,-0.14416255500421582,0.04648030268046329
1765408702.572156,-10.087253867113636,-2.168441118371802,-2.156200833758657,0.10200714952229832,-0.15162527301701184,0.05122726999902918
1765408702.572433,-10.094379540703022,-2.200894734677833,-2.1012914995384184,0.10567910117258697,-0.15900389820521185,0.05610826801492021
1765408702.572683,-10.092349397249748,-2.2376384860747986,-2.0517694283469368,0.10973459163738558,-0.16627532234306847,0.061070649993355146
1765408702.572933,-10.08218311172012,-2.2776192697727464,-2.0081014505461763,0.11416467237693395,-0.17341826454544187,0.06606260490789982
1765408702.573183,-10.065099024365562,-2.3196620291322723,-1.9705100673659526,0.11894518325257523,-0.18041400774510716,0.07103579758269593
1765408702.573413,-10.042475370618558,-2.3625257519997485,-1.9389638972344179,0.12403907917056367,-0.1872472248153072,0.0759477833366181
1765408702.573746,-10.01580621491157,-2.404962217836824,-1.9131837659723294,0.1293992885904564,-0.19390680034360294,0.08076404823190345
1765408702.57408,-9.986652063695823,-2.445775127993634,-1.8926643259450437,0.13497191050362942,-0.20038656565185103,0.08545954969325689
1765408702.574573,-9.956586191615598,-2.483876509021747,-1.8767097766274938,0.14069955428552952,-0.20668588392377638,0.09001966427788417
1765408702.574823,-9.927138593458741,-2.51833665488341,-1.8644812334582437,0.14652462658699267,-0.21281003325646766,0.09444049463843734
1765408702.575073,-9.899739912213446,-2.548424316619723,-1.8550526852191158,0.15239237418854149,-0.21877033502937532,0.09872854385532158
1765408702.575323,-9.875668092107134,-2.5736354560411105,-1.8474717158449911,0.1582535158706025,-0.22458396995577043,0.1028998178771098
1765408702.575416,-9.856001084633748,-2.5937106227673175,-1.8408199450613327,0.16406634463587752,-0.23027342612193313,0.10697844801936991
1765408702.575666,-9.841579207290161,-2.608641863548942,-1.8342672917295808,0.16979824124829335,-0.23586554816054814,0.11099493161761645
1765408702.575916,-9.832980056650655,-2.618670023323953,-1.8271149258328534,0.17542659479623177,-0.24139021377431175,0.11498408290432185
1765408702.576166,-9.830507241053079,-2.6242729191284275,-1.818824252374717,0.18093916786798678,-0.2468787352924596,0.11898278268712419
1765408702.57638,-9.834192430946796,-2.626144446163779,-1.8090320743310484,0.18633397085181447,-0.2523621287486424,0.12302762124014639
1765408702.57663,-9.843809113365115,-2.625164330499906,-1.7975538026069993,0.1916187204082714,-0.25786938578233326,0.1271525441064088
1765408702.57688,-9.858896079859544,-2.622358390071285,-1.7843771773309784,0.19680995121432468,-0.2634258404603841,0.13138662986831054
1765408702.57713,-9.878788682356443,-2.618850193391334,-1.7696491802757939,0.20193183378560314,-0.26905167802945934,0.13575214142105316
1765408702.577389,-9.902655981901999,-2.615806546162573,-1.753658693483037,0.20701473893585742,-0.27476060332483937,0.14026298591950168
1765408702.577722,-9.929542058063937,-2.6143802375924774,-1.7368164858293391,0.21209359446444706,-0.28055867444579957,0.14492369005451058
1765408702.578056,-9.95840978265704,-2.6156532971386977,-1.7196327362280188,0.21720609708901636,-0.28644331574839027,0.14972895620021906
1765408702.578425,-9.988184993204506,-2.6205831495727057,-1.7026918876332053,0.2223908494176751,-0.29240255575710333,0.15466382287101213
1765408702.578675,-10.017798354524247,-2.6299534856950224,-1.6866255052048027,0.22768547374754278,-0.2984145759505316,0.15970441137930902
1765408702.578925,-10.046221956459148,-2.6443316696829315,-1.6720846581967808,0.23312472593043349,-0.3044476793962435,0.16481919561337613
1765408702.579175,-10.072498358735377,-2.6640345112899015,-1.659713084104157,0.23873861824719586,-0.31046078121282217,0.16997068659173592
1765408702.579378,-10.095761125678234,-2.6891037973744276,-1.6501217035878066,0.24455056845370501,-0.3164044992205278,0.17511739035073426
1765408702.579628,-10.115247379369725,-2.7192925296761588,-1.643865098704067,0.25057561525065963,-0.32222290120051644,0.18021588736587357
1765408702.579878,-10.130304243034454,-2.7540629896339897,-1.64142116123793,0.2568187698904142,-0.3278559347675972,0.1852228914181045
1765408702.580128,-10.140391897050465,-2.792598266907479,-1.6431752742959096,0.2632736025740504,-0.3332424944915563,0.19009716328648316
1765408702.580389,-10.145085817934083,-2.833828794576109,-1.649409865519026,0.2699211810637392,-0.3383239635208061,0.1948011723141056
1765408702.580722,-10.144079685787135,-2.8764743411910976,-1.6602993728846154,0.2767294798852778,-0.34304794842773123,0.19930241904895402
1765408702.581056,-10.137189410335507,-2.9191003135883813,-1.6759098040253186,0.28365336304839134,-0.3473718585214962,0.20357435837430765
1765408702.581443,-10.124358651370262,-2.9601857065916697,-1.6962012383114642,0.29063521792898556,-0.3512659775191782,0.20759689347499052
1765408702.581693,-10.1056669246317,-2.998198834796271,-1.7210310123686237,0.29760628551535273,-0.3547157179286807,0.21135644426978492
1765408702.581943,-10.081341832672491,-3.0316763661529507,-1.7501550962132666,0.30448869060404143,-0.35772282066697997,0.21484562735977922
1765408702.582193,-10.051776088253,-3.059301430445892,-1.783225642983885,0.3111981247509222,-0.3603053598438762,0.21806260859250587
1765408702.582424,-10.01754756332406,-3.079977294652993,-1.8197843428449532,0.3176470826659353,-0.3624965295430079,0.22101019120809723
1765408702.582757,-9.979437553771108,-3.0928932926392743,-1.8592537207490654,0.3237485129571374,-0.3643423109326429,0.2236946876861933
1765408702.583091,-9.938440440513492,-3.09757899991997,-1.9009306791103668,0.3294197231259488,-0.3658982262630171,0.22612461802608563
1765408702.583401,-9.895758164667207,-3.0939417369079525,-1.9439873679206243,0.3345863662186975,-0.36722546948289236,0.2283092979565761
1765408702.583651,-9.8527754941961,-3.0822822813664983,-1.98748351648988,0.33918632034463997,-0.3683867548285312,0.2302574188431739
1765408702.583901,-9.81101581742139,-3.0632848149697476,-2.0303919482725736,0.3431732582888023,-0.3694422382577838,0.2319757588851188
1765408702.584151,-9.772080368044353,-3.0379798406303973,-2.0716362703628026,0.34651970694592926,-0.37044584180185325,0.23346818443760808
1765408702.584357,-9.737575232224087,-3.0076823664910397,-2.11013804529311,0.3492194159612979,-0.371442262218768,0.234735083117581
1765408702.584607,-9.709030637472559,-2.9739106037028433,-2.1448701726588952,0.3512888812564593,-0.37246488677299777,0.2357733159818811
1765408702.584857,-9.687816980070226,-2.938291833597947,-2.1749128810603517,0.3527678942713201,-0.37353476372813854,0.2365767081336931
1765408702.585107,-9.67506223199503,-2.9024621651884965,-2.199508580426296,0.3537190095938616,-0.3746606713072744,0.23713704095770488
1765408702.585432,-9.671575537388394,-2.8679664805590392,-2.2181122032187828,0.35422584736389173,-0.3758402100435305,0.23744547358952062
1765408702.585765,-9.677781697584468,-2.8361646835581333,-2.2304341860770456,0.3543901871873495,-0.3770617414151257,0.23749430057483933
1765408702.586099,-9.693670787023105,-2.8081503378284998,-2.236473416992276,0.354327879879281,-0.3783069329682848,0.23727893439223396
1765408702.586437,-9.718766794118169,-2.7846872117741968,-2.2365372598803486,0.35416369851679613,-0.3795536566614572,0.2367999795946245
1765408702.586687,-9.752119811354461,-2.7661679966776718,-2.2312450939939246,0.35402535306643296,-0.3807790193100934,0.23606524845135432
1765408702.586937,-9.792327688229507,-2.752598116808055,-2.2215110943124334,0.3540369811707063,-0.38196234733190093,0.2350915636125166
1765408702.587187,-9.837593029902042,-2.7436063110716775,-2.2085027124140955,0.3543124850774768,-0.38308795336510104,0.2339061962141379
1765408702.587459,-9.88581787661407,-2.738482057896045,-2.1935744575134395,0.3549491072737328,-0.3841474747911616,0.23254779399827105
1765408702.587709,-9.934731982571106,-2.736237615800088,-2.1781810366520356,0.3560216302863138,-0.38514154700219977,0.23106666730312522
1765408702.587959,-9.98204425913948,-2.7356897129106374,-2.163777561990669,0.35757755579023676,-0.3860806055437734,0.22952432517265095
1765408702.588209,-10.025602944741063,-2.735553510689665,-2.151716272976208,0.359633570909973,-0.3869846970056555,0.2279921954422433
1765408702.588427,-10.063548597357606,-2.734540452868791,-2.1431494842298204,0.36217355048967254,-0.38788228880333697,0.2265495260501985
1765408702.58876,-10.09444447442807,-2.73145243157767,-2.1389479420400606,0.36514827672036654,-0.38880818264854283,0.22528053823410438
1765408702.589094,-10.117371249383002,-2.7252665359517816,-2.1396424117823596,0.36847698664756295,-0.389800741652187,0.2242709653441452
1765408702.589496,-10.13197735391044,-2.7152062585100465,-2.145393817978466,0.37205078390125634,-0.39089871694671874,0.22360415592816185
1765408702.589746,-10.138481722836884,-2.7007959422099477,-2.1559938723088683,0.37573786137397464,-0.39213798656854043,0.22335695129714875
1765408702.589996,-10.137631091301254,-2.6818958160227404,-2.17089465159848,0.3793903629875759,-0.3935484945676136,0.2235955720081464
1765408702.590246,-10.130618608917477,-2.658715731330898,-2.189262489525487,0.38285256823964997,-0.39515162613926186,0.22437176464475755
1765408702.590441,-10.118974467773397,-2.6318067625327157,-2.210048662395297,0.385969934760126,-0.39695820197203724,0.22571946153482375
1765408702.590774,-10.104442081144,-2.6020307577110566,-2.232067254756494,0.3885984102530433,-0.39896721909712535,0.22765218628714387
1765408702.591108,-10.088853725282828,-2.5705085403262635,-2.2540710347935704,0.39061334834828015,-0.40116538959812037,0.2301614071664412
1765408702.59157,-10.07401667302324,-2.538548410964431,-2.274819616277,0.3919173450686518,-0.40352744203598295,0.23321600917374877
1765408702.59182,-10.061615772830244,-2.5075586944892145,-2.293138417666526,0.3924463605255752,-0.4060170838637536,0.23676301439264522
1765408702.59207,-10.05313317131335,-2.4789509999686383,-2.3079696241225656,0.3921736069723145,-0.4085884953296835,0.2407296065734705
1765408702.59232,-10.049782084284773,-2.454042906010059,-2.318417326255398,0.39111086224646313,-0.4111882351664577,0.24502640348867172
1765408702.592466,-10.0524503876336,-2.4339683649613617,-2.3237889173312003,0.3893070867764279,-0.41375747002836016,0.24955179034253425
1765408702.592716,-10.061652044353657,-2.4196014493472298,-2.3236334577524693,0.38684445498563386,-0.4162344670185424,0.25419701646639453
1765408702.592966,-10.077489282141743,-2.4114961155482204,-2.3177745831412495,0.3838321315578786,-0.41855728960514105,0.2588516980510945
1765408702.593216,-10.099633046492945,-2.4098434281370427,-2.306331790336132,0.3803983108932679,-0.4206666095364475,0.26340937092858097
1765408702.593463,-10.127329902268697,-2.4144483878449607,-2.2897226227087653,0.376681182778533,-0.4225085077933173,0.26777277769733626
1765408702.593796,-10.159439267083998,-2.4247293675597046,-2.2686415142404917,0.3728195789054774,-0.4240371066796979,0.2718586175821094
1765408702.59413,-10.194498545977039,-2.4397423058997862,-2.244017287173941,0.36894408013735225,-0.4252168616023794,0.2756015202523613
1765408702.594458,-10.230808945229182,-2.4582293179197814,-2.2169566801852922,0.3651693080628726,-0.4260243436498319,0.27895703922966947
1765408702.594708,-10.266532390132344,-2.478688938191145,-2.18868336035575,0.3615879826776364,-0.4264493668961944,0.28190350889646426
1765408702.594958,-10.299789129037723,-2.499463867904235,-2.1604809326875647,0.35826712386921294,-0.42649536577410335,0.2844426658268654
1765408702.595208,-10.328745928368418,-2.5188413012402036,-2.1336460829460746,0.3552465458911613,-0.4261789991969934,0.2865989913724868
1765408702.595409,-10.351686982445868,-2.5351597724956627,-2.1094552104761517,0.352539566750752,-0.42552901958794986,0.28841779194090217
1765408702.595659,-10.367064367173965,-2.546915276737805,-2.0891444804013752,0.35013564157000604,-0.42458447392721643,0.2899621093928017
1765408702.595909,-10.373531242446798,-2.5528592797544825,-2.073898608304661,0.3480044548880825,-0.4233923081756936,0.29130865195124195
1765408702.596159,-10.369966472165906,-2.552082381907981,-2.064839126708091,0.34610090567879837,-0.42200445241994117,0.29254303509487567
1765408702.59647,-10.355500798275507,-2.544078729326124,-2.06300149118267,0.3443704071420233,-0.4204744957291926,0.2937546826599049
1765408702.596803,-10.32955116732803,-2.5287869268677787,-2.069293918014368,0.3427539889769825,-0.4188541306474864,0.2950317401507349
1765408702.597137,-10.291863551968806,-2.506603758104184,-2.0844373828087575,0.3411928055270975,-0.41718964545621345,0.2964563105795478
1765408702.597431,-10.242559121169574,-2.4783684550943477,-2.1088923716309065,0.33963179125492915,-0.4155188175492607,0.2981002646812856
1765408702.597681,-10.182175670377152,-2.445317652348273,-2.1427821018037694,0.33802234380514534,-0.41386855963759167,0.3000218152381262
1765408702.597931,-10.111695598144914,-2.4090137196525268,-2.1858240162233424,0.336324040054565,-0.41225358770734155,0.3022629833449208
1765408702.598181,-10.032552691402978,-2.371251208162199,-2.2372815159364623,0.3345054933664619,-0.4106762568761719,0.30484802733555105
1765408702.598416,-9.946612132132552,-2.3339474065393664,-2.2959460092511565,0.33254453592464944,-0.40912758604534455,0.3077828537455187
1765408702.598749,-9.8561210955571,-2.2990233511771123,-2.3601555237893184,0.33042795560639765,-0.4075893757565697,0.31105537870907696
1765408702.599083,-9.763630465341407,-2.2682811912389216,-2.427851161002094,0.32815102432840143,-0.406037215762236,0.31463676030234355
1765408702.599487,-9.671890839459255,-2.243283414959792,-2.4966680927238567,0.32571700546987375,-0.40444408357607986,0.318483395019076
1765408702.599737,-9.583728035396245,-2.2252401400462065,-2.564054638399817,0.3231367101586803,-0.4027841658102227,0.322539572266525
1765408702.599987,-9.501905560452549,-2.2149124936040288,-2.627410708925033,0.320428015705551,-0.40103650915238115,0.3267406868589063
1765408702.600237,-9.428984388426688,-2.21254179263045,-2.6842348275259327,0.3176151371456882,-0.39918813679663945,0.3310168897597007
1765408702.600535,-9.367192176326494,-2.2178141678506376,-2.732267949711412,0.3147274193511667,-0.3972363389733562,0.33529700500687104
1765408702.600785,-9.318312400906546,-2.22986763115636,-2.769623745055651,0.31179750191987476,-0.39518994464776713,0.33951247995023787
1765408702.601035,-9.283599206420789,-2.247343960525702,-2.7948981145812364,0.3088588647057795,-0.39306948952068593,0.3436011053650957
1765408702.601285,-9.263719566840644,-2.2684828500682395,-2.80725305239686,0.3059429399337286,-0.3909062958010679,0.3475102667412972
1765408702.601437,-9.258723804446335,-2.29125201137986,-2.8064698772123897,0.3030761347243601,-0.3887405606412251,0.3511995556131565
1765408702.60177,-9.268048162261957,-2.3135043728167624,-2.7929649482868903,0.3002772097819687,-0.38661862218379056,0.35464264053120176
1765408702.602104,-9.29055521752581,-2.333151144549739,-2.767760098194664,0.29755548033772083,-0.38458964959069053,0.35782834260161867
1765408702.602442,-9.32461558025064,-2.348336614142074,-2.7324035237000963,0.2949102343773272,-0.3827020790491389,0.36076088371270026
1765408702.602692,-9.368227522545212,-2.3575978744632735,-2.688845021689924,0.29233160611042774,-0.38100016871294035,0.3634592968508881
1765408702.602942,-9.419163805679368,-2.3599919554187725,-2.6392783602973537,0.2898029151035076,-0.37952104996901254,0.3659560206634814
1765408702.603192,-9.475130212323595,-2.3551751488033,-2.5859694841590852,0.2873042125594175,-0.37829258805277377,0.36829474334058726
1765408702.603463,-9.533917899129236,-2.343424371912275,-2.5310918406128455,0.28481651697529137,-0.37733222695175495,0.3705276048352502
1765408702.603713,-9.593530948793497,-2.3255969282248006,-2.4765898931939465,0.2823260373054174,-0.3766468262258309,0.37271190622988964
1765408702.603963,-9.652273180993497,-2.3030318412171935,-2.424087636013817,0.27982762756780216,-0.3762333653315497,0.37490651539585146
1765408702.604213,-9.708785896622762,-2.277402640717729,-2.3748502531175113,0.27732681616885124,-0.37608031078610743,0.3771682032199356
1765408702.604507,-9.76203836983018,-2.2505377096675114,-2.3297967366667343,0.2748399921306185,-0.37616938735055416,0.37954818235088633
1765408702.60484,-9.811281057347625,-2.22422886849528,-2.2895527882522324,0.2723926597430383,-0.3764774637971244,0.3820891266992215
1765408702.605174,-9.855975483792221,-2.2000504199284894,-2.2545283049164992,0.27001602152545495,-0.3769782842390074,0.38482291149481335
1765408702.605897,-9.895715318923727,-2.1792091750051457,-2.2250023986881846,0.2677424475394806,-0.3776438497557789,0.38776923703576505
1765408702.606147,-9.930151390920194,-2.162441758795897,-2.201200951112845,0.2656005878790477,-0.37844534406780267,0.39093520033211826
1765408702.606397,-9.958929820901524,-2.149969277693027,-2.1833562737736703,0.26361094971061627,-0.3793535718570253,0.394315774829775
1765408702.606647,-9.981648326297712,-2.141511653251149,-2.1717436565310946,0.2617826615260954,-0.3803389516137114,0.39789506735146135
1765408702.606813,-9.997833179783218,-2.136355912476308,-2.166692974166364,0.2601118875994809,-0.38137119820793197,0.4016481571358941
1765408702.607146,-10.006939288725528,-2.1334663082728182,-2.1685741617672605,0.2585820037460659,-0.38241892361440954,0.40554328627011976
1765408702.60748,-10.00837625915622,-2.131620263755826,-2.1777557984930787,0.25716531419493366,-0.3834494260159191,0.40954415909333886
1765408702.607472,-10.00156092993391,-2.1295525858013074,-2.1945396569303544,0.255825867146852,-0.38442890984578554,0.41361212065385033
1765408702.607722,-9.985991433062326,-2.1260908408488266,-2.219080235894297,0.25452284305416717,-0.38532331365629746,0.41770802616387914
1765408702.607972,-9.961332388011455,-2.12026730734436,-2.251302841271978,0.2532140299985337,-0.38609983300749984,0.4217936853156857
1765408702.608222,-9.927498420513059,-2.111397539962714,-2.290834200437585,0.2518590241977231,-0.3867290809652452,0.42583285697174417
1765408702.608467,-9.884724747217131,-2.099121604633248,-2.336956585654218,0.250421949004433,-0.38718763338447626,0.42979185677181553
1765408702.608717,-9.833617870067298,-2.083409927961254,-2.3885915315081654,0.24887362640400568,-0.3874605458926577,0.4336398912819828
1765408702.608967,-9.775183468430635,-2.064539721072262,-2.4443143371753413,0.24719322412301623,-0.38754338640206837,0.43734923250253616
1765408702.609217,-9.710829647797905,-2.043049301141241,-2.502397968875171,0.24536941393623923,-0.38744339490363877,0.4408953148181758
1765408702.609488,-9.642342722736212,-2.0196771342788917,-2.5608848163064812,0.24340102106875128,-0.3871795067226956,0.444256809227566
1765408702.609821,-9.571833693855801,-1.9952917134463217,-2.6176836617675665,0.24129707626233943,-0.386781127076204,0.4474157248208191
1765408702.610155,-9.501658549184572,-1.9708184501044168,-2.67068449776022,0.23907616930752734,-0.3862857154157789,0.45035758948075877
1765408702.610489,-9.434321549748327,-1.9471701382156896,-2.717877506385173,0.23676507221864435,-0.3857354011161219,0.45307174203417616
1765408702.610739,-9.3723727096558,-1.9251870733222582,-2.757459630676928,0.23439672340187628,-0.38517297333223255,0.45555171761516927
1765408702.610989,-9.318306617758696,-1.9055909532216546,-2.7879157044504446,0.23200779061076865,-0.38463766892907014,0.45779564792824484
1765408702.611239,-9.274462581459295,-1.888953541784814,-2.8080693727833683,0.22963612262285968,-0.38416125173006727,0.45980655785367036
1765408702.611383,-9.242921366763062,-1.8756775646142296,-2.8171077523698678,0.2273184375966784,-0.38376491924118067,0.4615924357723626
1765408702.611633,-9.225394443791838,-1.8659846308998596,-2.8145899317427383,0.22508855602806238,-0.3834575110861936,0.4631659930765452
1765408702.611883,-9.22310587113431,-1.859904593509888,-2.800452103725452,0.22297633871159123,-0.38323527271966257,0.46454410786134204
1765408702.612133,-9.236671834171712,-1.8572634154738883,-2.7750205551065332,0.22100725345953498,-0.3830831047123725,0.46574704879856593
1765408702.61239,-9.265987503908793,-1.8576712582682129,-2.739037138414396,0.2192022704562963,-0.3829769324426901,0.46679765476899276
1765408702.612723,-9.310135535726625,-1.860516639952149,-2.6936918184145826,0.21757769531093785,-0.3828866647018389,0.46772066185209743
1765408702.613057,-9.367334676646951,-1.8649740520338376,-2.6406472745237743,0.21614463284327112,-0.38277919936121824,0.4685423118090778
1765408702.613394,-9.434948908103685,-1.8700313445186185,-2.582034932409101,0.21490798314182813,-0.38262105645381417,0.4692902739334973
1765408702.613644,-9.509574557976707,-1.8745409014434353,-2.5204026924943292,0.21386511579170142,-0.382380423886506,0.4699938035664407
1765408702.613894,-9.587212811959509,-1.8772958048305755,-2.4586030623590562,0.21300456744735033,-0.38202862299987833,0.4706839652873285
1765408702.614144,-9.663519752215876,-1.8771281726255533,-2.3996240314375883,0.21230520603169056,-0.381541182316211,0.4713936785989781
1765408702.614402,-9.73411082680972,-1.8730215141483877,-2.3463784701314547,0.21173627097599676,-0.3808988102319548,0.4721573248037965
1765408702.614735,-9.794886786058376,-1.8642236271501722,-2.3014765802184867,0.21125853353010646,-0.3800885552916165,0.4730097107212405
1765408702.615069,-9.842345925461997,-1.8503429792057682,-2.2670086900427795,0.2108265721370124,-0.3791053338949285,0.47398431454359136
1765408702.615427,-9.873852096348948,-1.8314111291996442,-2.2443633781492838,0.21039191254925263,-0.37795383066505717,0.475110911159126
1765408702.615677,-9.887836603231467,-1.8078978723443866,-2.2341001545987025,0.20990662312474953,-0.3766505912051278,0.47641284517964794
1765408702.615927,-9.883921843493331,-1.7806742961001345,-2.2358884333205187,0.20932692101420805,-0.375225956318225,0.47790434156924755
1765408702.616177,-9.862963425484056,-1.7509290848561638,-2.2485164413393237,0.20861642489942303,-0.37372534266054275,0.4795882800459155
1765408702.616463,-9.827014457205403,-1.7200516537063424,-2.2699657845873604,0.2077488387516347,-0.37220929892559423,0.4814548046756436
1765408702.616713,-9.779219738470035,-1.6895000573715655,-2.297541141603339,0.20670999887668448,-0.3707518280436733,0.48348101808808147
1765408702.616963,-9.723648161969157,-1.6606718362872497,-2.3280417691703414,0.20549929247967938,-0.36943670833567077,0.48563185365845074
1765408702.617213,-9.665070160093293,-1.6347925696900367,-2.357961724595627,0.2041304307051356,-0.3683519319993471,0.4878620529548995
1765408702.617405,-9.608686405608909,-1.6128312339698256,-2.3837065864688762,0.202631472822601,-0.36758278235874564,0.4901190183457863
1765408702.617738,-9.559815368096178,-1.5954455434270736,-2.401815538961711,0.2010439327554127,-0.36720435828143055,0.4923461880462403
1765408702.618072,-9.523549521815703,-1.582955809089487,-2.409180635649535,0.1994208147625361,-0.36727447526020457,0.49448652039757296
1765408702.618363,-9.504392447301223,-1.5753426565097695,-2.403259165260832,0.19782352782367785,-0.3678278516131112,0.49648569277491894
1765408702.618613,-9.505893190882608,-1.5722620772757785,-2.3822763351213725,0.19631778567111838,-0.3688723374825514,0.4982947254856581
1765408702.618863,-9.530300876585049,-1.5730715486718028,-2.345411527213688,0.1949687649978002,-0.37038764754593234,0.4998719147825129
1765408702.619113,-9.57826999867039,-1.576863927815708,-2.2929540629807392,0.19383592145137063,-0.3723266466816184,0.5011841397949017
1765408702.61941,-9.6486519081486,-1.5825101261072758,-2.226407597547313,0.19296792394357104,-0.3746188300651997,0.5022077202964347
1765408702.61966,-9.738407884609042,-1.5887144774022057,-2.148518936888313,0.19239816822985564,-0.377175370134354,0.5029290131627321
1765408702.61991,-9.8426719693685,-1.594086487136193,-2.0632090622615,0.19214129351194467,-0.37989502670083813,0.5033448677751066
1765408702.62016,-9.954977000727744,-1.5972297363039338,-1.975392664153003,0.19219106665513283,-0.38267029672591113,0.503462960680495
1765408702.620404,-10.067636874748047,-1.5968447826149021,-1.890687385166605,0.192519923283985,-0.3853933490725591,0.5033019323236052
1765408702.620737,-10.172256295025514,-1.5918388965783836,-1.815032302298036,0.19308036569348583,-0.3879614838299369,0.5028911663822124
1765408702.621071,-10.26032158772212,-1.5814311850617806,-1.754251719502039,0.19380830747244301,-0.390282016592335,0.5022700004946794
1765408702.621452,-10.323816346491856,-1.5652376304125593,-1.7136105529364893,0.19462829481110291,-0.39227657583890574,0.501486174706462
1765408702.621702,-10.355804415595124,-1.5433193904981855,-1.6974096021039538,0.1954602854323907,-0.39388481474419806,0.5005934394475247
1765408702.621952,-10.350928486890075,-1.5161820495995533,-1.708663106008987,0.19622734165871725,-0.3950674927344096,0.49964842895762573
1765408702.622202,-10.305783319256866,-1.484723014314569,-1.748888990650098,0.19686330478235664,-0.3958087917049725,0.49870708224947496
1765408702.622488,-10.219136640045614,-1.4501350734596068,-1.8180269966132712,0.1973194064283843,-0.39611763490436497,0.4978209939190534
1765408702.622738,-10.091986914618758,-1.413781966699633,-1.9144840860072476,0.19756890271402758,-0.39602773427094395,0.4970340812883877
1765408702.622988,-9.927463777861943,-1.377064767884764,-2.035292008008275,0.19760914416531045,-0.3955961373686275,0.49637988645359726
1765408702.623238,-9.730591613278879,-1.3412965179404286,-2.176350481854584,0.19746091729592413,-0.39490016001626743,0.4958797260645538
1765408702.623419,-9.507947128083332,-1.3075980870445245,-2.332723063017784,0.19716530399839652,-0.3940327475588637,0.4955417785026631
1765408702.623752,-9.267246541619432,-1.2768220420191652,-2.498952412089137,0.19677861166273455,-0.3930964990918394,0.4953610733718467
1765408702.624086,-9.016897415370538,-1.2495050354740966,-2.6693669234453234,0.19636607949802876,-0.39219680008082936,0.49532024869842045
1765408702.624424,-8.765545732048016,-1.225844808479983,-2.8383596251559347,0.19599507113044823,-0.39143468541271015,0.495390896469839
1765408702.624674,-8.521642974113778,-1.2056967868781119,-3.000629937942989,0.19572837617016872,-0.3909001260623087,0.4955353363888855
1765408702.624924,-8.293052718803583,-1.1885876614662771,-3.15138616782368,0.19561813916578502,-0.39066636509545816,0.49570871508386927
1765408702.625174,-8.086712024723655,-1.1737473609737739,-3.286509969147128,0.19570086814012058,-0.39078574845964287,0.49586137324114543
1765408702.625379,-7.908358930114232,-1.1601630126286506,-3.402684039780813,0.19599395035077685,-0.39128726658570834,0.495941420722641
1765408702.625629,-7.762333921541543,-1.1466565203912926,-3.49748238030893,0.19649406798996813,-0.39217581263044843,0.4958974213479256
1765408702.625879,-7.651461241488481,-1.1319822868385376,-3.56941978790597,0.19717778494596194,-0.39343301278546844,0.4956810563640072
1765408702.626129,-7.57701487620442,-1.1149365952519286,-3.617955440316472,0.19800432558906653,-0.3950193946436787,0.49524962962884145
1765408702.626392,-7.53877162115506,-1.0944675102656856,-3.6434461491241095,0.1989202301990543,-0.3968776198591755,0.4945682799396867
1765408702.626725,-7.535147930376417,-1.0697737797789597,-3.6470486279502086,0.19986526219836703,-0.3989365158068538,0.49361175653735506
1765408702.627059,-7.563408959347939,-1.040382154498939,-3.630576194244427,0.2007787658895613,-0.40111568503548384,0.4923656035357048
1765408702.627423,-7.619930062050579,-1.0061943340880224,-3.596322313393996,0.20160566618669867,-0.4033305081318006,0.4908266151636657
1765408702.627673,-7.700486274392358,-0.9674974866867592,-3.546868900132627,0.20230143638221645,-0.40549734176774405,0.48900248520103956
1765408702.627923,-7.800545793060246,-0.9249361752002756,-3.4848985888111623,0.20283558166047133,-0.4075386470153642,0.48691068365461637
1765408702.628173,-7.915548128239913,-0.8794483931630092,-3.4130266348459855,0.20319343064557835,-0.4093877031881608,0.4845767278042446
1765408702.628398,-8.04115366281312,-0.8321733113744197,-3.3336618896596115,0.20337623521405815,-0.41099251954745214,0.48203212472999146
1765408702.628648,-8.173456345258174,-0.7843420408034737,-3.2489002695178986,0.20339972609831228,-0.4123185850581755,0.4793123076503618
1765408702.628898,-8.309153946077377,-0.7371646739864226,-3.1604499773246366,0.2032913789118606,-0.4133502016678109,0.4764548567343655
1765408702.629148,-8.44567060807032,-0.6917271241049862,-3.0695859567438433,0.20308674075394448,-0.4140903074345202,0.4734981906760837
1765408702.629403,-8.581225473837275,-0.6489097523347638,-2.977131597905786,0.20282525551076924,-0.4145588725444558,0.47048075412973966
1765408702.629736,-8.71484106415759,-0.6093361009657245,-2.8834677887641935,0.2025460918965659,-0.41479010448799253,0.4674405501324843
1765408702.63007,-8.84628751501759,-0.5733543121253332,-2.788571538111679,0.2022844984527809,-0.41482880030650005,0.4644147429230722
1765408702.630405,-8.975963961639616,-0.5410474307973736,-2.692087057307659,0.202069141777571,-0.4147262222906986,0.4614390451304145
1765408702.630655,-9.104725171997016,-0.5122644204020327,-2.5934301745976818,0.20192068766982393,-0.4145358568767318,0.4585467149935735
1765408702.630905,-9.233668335408746,-0.4866633982370518,-2.4919219865796323,0.2018515877711977,-0.4143093635998146,0.4557671686149754
1765408702.631155,-9.363899716215618,-0.46376166929331797,-2.386941595728675,0.2018667550630193,-0.41409294965330024,0.4531243690464931
1765408702.631412,-9.496301959332916,-0.44299057393286223,-2.2780838669232573,0.20196467486566144,-0.4139243350970648,0.45063522593142946
1765408702.631662,-9.631320453271922,-0.4237543331442782,-2.1653076597578855,0.2021385400866282,-0.4138304261473205,0.448308230549942
1765408702.631912,-9.768783825449765,-0.4054908992742831,-2.0490612796993175,0.20237716630187236,-0.41382579600642505,0.4461425059704408
1765408702.632162,-9.907771431476482,-0.38773105761647686,-1.9303731362700758,0.20266564579123783,-0.41391206082227505,0.4441273956115131
1765408702.632406,-10.046539110334772,-0.37015082148483147,-1.8108971123758542,0.20298586241266633,-0.41407820062631145,0.4422426357858647
1765408702.632656,-10.182511805605989,-0.3526111759280637,-1.6929051306850647,0.2033170642107488,-0.4143018107494857,0.44045905858273543
1765408702.632906,-10.312347407833155,-0.3351782841804984,-1.579223792938773,0.20363666686219994,-0.41455120853068533,0.4387396916610699
1765408702.633156,-10.432071089247792,-0.3181177253103821,-1.4731166879482551,0.20392136538054426,-0.41478827906752563,0.43704111249938177
1765408702.633452,-10.537273927211485,-0.3018598355306631,-1.3781186454713819,0.20414852183530974,-0.4149719032344627,0.4353149844104107
1765408702.633785,-10.623363976725972,-0.28693948058131746,-1.2978330638097662,0.20429773036611618,-0.41506175413676516,0.4335097953153759
1765408702.634119,-10.685853429853216,-0.2739197517449693,-1.2357075223776395,0.20435246094659226,-0.4150221885076234,0.4315728597069083
1765408702.634451,-10.720663645215046,-0.26331179548522743,-1.1948045369528242,0.20430173279625974,-0.41482591776039485,0.42945259947515074
1765408702.634701,-10.724430038890423,-0.25550129059398025,-1.1775834219834833,0.2041418115687371,-0.41445712505666177,0.42710103321455434
1765408702.634951,-10.69478853066323,-0.25068813172643645,-1.1857073320482177,0.20387788854930264,-0.4139137094597796,0.42447633514944183
1765408702.635201,-10.630623246605639,-0.24884258520969327,-1.2198877324944815,0.20352556094173474,-0.41320840704250683,0.42154528741553193
1765408702.63538,-10.532253320523878,-0.2496795308056835,-1.2797768263142024,0.20311176320961355,-0.41236866368972885,0.41828542352078735
1765408702.63563,-10.40153771962592,-0.2526514090848317,-1.3639168298473678,0.20267471852140725,-0.4114352797043424,0.41468664594778465
1765408702.63588,-10.24188252499666,-0.2569593184612187,-1.4697531132795159,0.202262552860895,-0.4104599643686238,0.4107521266600123
1765408702.63613,-10.058144756004298,-0.26158083179872066,-1.5937145902259362,0.20193042572305958,-0.40950200560897254,0.406498385022086
1765408702.636435,-9.8564386545014,-0.2653133480497156,-1.7313582358154431,0.20173631376342022,-0.4086242838908813,0.40195455912104044
1765408702.636685,-9.643860847866435,-0.2668327643473342,-1.8775670364093282,0.20173585463002885,-0.40788886352975284,0.39716098982958686
1765408702.636935,-9.428156801001917,-0.264767325658428,-2.026785609153733,0.20197684267911148,-0.40735240157010005,0.39216728407787826
1765408702.637185,-9.217351761314777,-0.2577846442104237,-2.173276839653314,0.20249402732590088,-0.4070616388723152,0.387030022657807
1765408702.637431,-9.019366580852852,-0.2446871062406821,-2.3113852255704685,0.2033048108291026,-0.4070492781091192,0.381810262336379
1765408702.637764,-8.841634391564291,-0.22450922375811075,-2.43579670478537,0.20440632087282312,-0.4073305876030966,0.3765709644316503
1765408702.638098,-8.690730214597437,-0.19661045039781957,-2.541788769973815,0.20577419083693846,-0.4079010719091713,0.37137444329942854
1765408702.638495,-8.572024927844115,-0.1607569756613949,-2.625465681409919,0.2073632460709234,-0.40873550626807525,0.36627985975102884
1765408702.638745,-8.489379428258095,-0.11718459391836102,-2.6839697061122076,0.20911017110626628,-0.40978853904557183,0.3613407210893691
1765408702.638995,-8.444902417247768,-0.06663274288305626,-2.715652555703341,0.21093809730984328,-0.41099692306929053,0.35660234764272236
1765408702.639245,-8.438800603937468,-0.010339741278030858,-2.720186125403766,0.2127628684009511,-0.41228326167612145,0.3520993478192448
1765408702.639455,-8.469348329384015,0.05000727825044524,-2.698591648993212,0.21450049873565535,-0.41356099637240007,0.34785326652803733
1765408702.639705,-8.53299341846097,0.11236821753917854,-2.6531725088781983,0.2160750773034861,-0.4147402629853983,0.3438706617748197
1765408702.639955,-8.62459982178117,0.17448573400410125,-2.5873475403373503,0.2174261838298377,-0.41573420082464513,0.34014188817179
1765408702.640205,-8.737809827028464,0.23404927817906118,-2.5053961362444035,0.21851486497907502,-0.41646528207079797,0.33664084197827765
1765408702.642117,-8.86549403552726,0.28887101928966724,-2.4121393489350997,0.21932739656422748,-0.41687120918789355,0.3333258603712175
1765408702.642367,-9.000248413619305,0.3370539479501293,-2.3125889714110124,0.21987638651490704,-0.41690990718661886,0.3301418472821887
1765408702.642617,-9.134894173070364,0.3771327073816489,-2.211598800352193,0.22019916570381143,-0.41656315012457734,0.327023514520299
1765408702.642867,-9.262936915746263,0.4081728211731235,-2.1135500405358654,0.22035377139176548,-0.4158384529029734,0.3238994281081826
1765408702.642183,-9.378946212237297,0.4298226772388627,-2.0220970386939676,0.22041307410622085,-0.4147690378384649,0.32069641743869104
1765408702.642516,-9.478825693533837,0.44232112695935455,-1.9399915751838748,0.22045771100787778,-0.4134119085699136,0.3173438986208225
1765408702.64285,-9.559956185545522,0.4464682329590733,-1.8689954238857915,0.2205685032314292,-0.41184427339830526,0.3137777731215115
1765408702.642446,-9.621208516052038,0.44356669399026477,-1.8098825939362557,0.22081900783043995,-0.41015870635996077,0.3099437174803413
1765408702.642696,-9.662835638451954,0.4353387729222441,-1.762524906524306,0.2212688175991019,-0.4084574904303652,0.3057998037857743
1765408702.642946,-9.686264056982102,0.42382102866589905,-1.7260475633943777,0.22195816801007875,-0.40684656929486407,0.301318446909549
1765408702.643196,-9.693812775769418,0.41123864592112386,-1.6990347942944972,0.22290432980507935,-0.40542948638137655,0.2964876724957346
1765408702.643448,-9.688374306583903,0.39986283153725677,-1.6797600282971317,0.22410016596557433,-0.40430163862570856,0.29131167589789386
1765408702.643698,-9.673094276751062,0.39185780461657915,-1.6664129467864723,0.2255151009208802,-0.4035451160306822,0.2858106268369573
1765408702.643948,-9.651081633504958,0.3891273827647084,-1.6572992316665498,0.22709853509812727,-0.4032243390850298,0.2800196746485205
1765408702.644198,-9.62517188882857,0.39317403359479847,-1.6509961919205653,0.22878541785000853,-0.4033826608414769,0.27398712307468825
1765408702.644403,-9.5977553573099,0.40498458532071147,-1.6464553951713499,0.23050334476710593,-0.4040400702198591,0.2677717766499467
1765408702.644653,-9.570673409579904,0.42495597250039346,-1.6430504441590585,0.23218029821385897,-0.4051920953822091,0.2614395238183159
1765408702.644903,-9.545178476530104,0.4528710043681098,-1.6405743167411122,0.23375208071963635,-0.40680994946134275,0.2550593218845951
1765408702.645153,-9.521948202178693,0.48792812115240775,-1.6391954257110544,0.23516860009535306,-0.40884190575949997,0.24869886789395804
1765408702.645439,-9.501142235141872,0.528821581403097,-1.6393827647840937,0.23639840133396367,-0.4112158497110402,0.24242032757685159
1765408702.645689,-9.482491615260889,0.5738618227814407,-1.6418084311026093,0.23743112850965317,-0.4138429008304177,0.2362765074596122
1765408702.645939,-9.465412486561972,0.6211218515525083,-1.6472342271418612,0.2382778653511528,-0.41662189931869437,0.230307799950304
1765408702.646189,-9.44913521360374,0.6685946001216675,-1.6563907718772506,0.23896949672600246,-0.4194444486175395,0.22454015097815855
1765408702.64639,-9.432837790107996,0.7143468266990246,-1.6698605181711903,0.23955334964506605,-0.4222001782228198,0.21898421618868302
1765408702.646723,-9.415771260096461,0.7566561489261031,-1.687976571054617,0.2400884429379349,-0.4247819571512618,0.21363576207286664
1765408702.647057,-9.397365378038272,0.7941196118542317,-1.7107471108605203,0.24063973724854237,-0.42709087378849575,0.20847720949786538
1765408702.647373,-9.377304020394595,0.82572592500164,-1.7378129357728278,0.24127184985803607,-0.42904083332043597,0.20348003740931814
1765408702.647623,-9.35556197208958,0.850889126468003,-1.7684436227352895,0.24204277273624467,-0.43056261590034,0.1986076358255667
1765408702.647873,-9.332398753038618,0.8694472654837871,-1.8015745550150188,0.242998179832066,-0.43160722231924886,0.1938181782329487
1765408702.648123,-9.30831114714608,0.8816336852117634,-1.8358824289600302,0.24416690526699525,-0.4321483146171731,0.18906718187274035
1765408702.648358,-9.283952382654244,0.8880295732585174,-1.8698923945965404,0.24555809687266905,-0.43218354171391116,0.18430959839553004
1765408702.648608,-9.26003102211479,0.8895050697611712,-1.902106186496587,0.2471603765926228,-0.4317345587231738,0.17950145524570404
1765408702.648858,-9.237206050721953,0.8871538327209396,-1.9311367142786415,0.248943072737298,-0.43084561623566303,0.17460118746045195
1765408702.649108,-9.21599533464636,0.8822237369547624,-1.955831688327309,0.2508592924556951,-0.42958067883788587,0.16957084587578522
1765408702.649398,-9.19671105978649,0.8760444523236587,-1.9753698545710565,0.2528503738910361,-0.4280191153061833,0.16437736083820584
1765408702.649648,-9.179428778888255,0.8699508739920173,-1.9893188627362632,0.2548511584499678,-0.4262501244465683,0.15899398666547768
1765408702.649898,-9.163990078714242,0.865200610079409,-1.9976504789371186,0.2567955543896353,-0.4243662429126039,0.15340193932961227
1765408702.650148,-9.150035843101021,0.8628854148872527,-2.000713460160292,0.2586219802995536,-0.42245647276601916,0.14759208016180703
1765408702.650354,-9.13706696214921,0.863840743041488,-1.9991666364556424,0.26027841072126506,-0.4205996826181024,0.14156634643888374
1765408702.650687,-9.12452884120996,0.8685625844468862,-1.9938764958460706,0.26172682420729615,-0.4188589328741479,0.13533854949454688
1765408702.651021,-9.111913236883955,0.877144187658697,-1.9857867427805072,0.2629468507842983,-0.41727726806581833,0.12893418432178091
1765408702.651352,-9.098866891203974,0.889246441397043,-1.9757722855567665,0.2639383666608804,-0.41587535128773906,0.12238901691637319
1765408702.651602,-9.085293711469095,0.9041144505602489,-1.9644950195440118,0.264722743009805,-0.4146511216024773,0.11574641896225256
1765408702.651852,-9.071437273859557,0.9206480642994237,-1.9522807227117018,0.26534245547778823,-0.41358144462682955,0.10905367690592081
1765408702.652102,-9.057932442980407,0.9375247796242745,-1.9390342827566904,0.265858821846622,-0.4126255083272555,0.10235775504421399
1765408702.652379,-9.045817625145222,0.9533615450819216,-1.924205523362776,0.2663477800363542,-0.4117295340629843,0.09570115070433241
1765408702.652629,-9.036502840839663,0.9668923092647709,-1.9068112150238878,0.2668938541554882,-0.4108322899023505,0.0891184792524265
1765408702.652879,-9.03169388232689,0.97713444358017,-1.8855111765151902,0.2675827466703651,-0.40987092150711646,0.08263427880755192
1765408702.653129,-9.033277712713154,0.9835194188892377,-1.8587299773157986,0.2684932715207239,-0.4087866924217514,0.07626229776592428
1765408702.653374,-9.043176766542867,0.9859690105806211,-1.824813058453848,0.2696895391693843,-0.40753028586682893,0.07000628431357049
1765408702.653624,-9.063180549947463,0.9849062270430309,-1.7822058793417106,0.2712143699034348,-0.406066364039646,0.06386206132465044
1765408702.653874,-9.094764840832218,0.9811998770868824,-1.7296432539276478,0.2730848093364754,-0.4043771331703195,0.05782045969943618
1765408702.654124,-9.138912978297716,0.9760524268833513,-1.6663323270730839,0.2752903381657492,-0.40246471463372296,0.051870539092871495
1765408702.654469,-9.195957987097987,0.9708498968283644,-1.5921092723105894,0.2777939480640285,-0.40035216239763916,0.046002493667623004
1765408702.654719,-9.265465990139287,0.9669971640577019,-1.5075491117691835,0.2805357987389195,-0.3980830235775019,0.040209729147982654
1765408702.654969,-9.346179696335707,0.9657615829542906,-1.4140104865395708,0.28343880052272447,-0.39571944245898133,0.034489767988975004
1765408702.655219,-9.436035490401126,0.9681439377526543,-1.3136031998921578,0.2864152657209693,-0.3933389399502441,0.028843850138255092
1765408702.655411,-9.532258491827053,0.9747901551914575,-1.2090765908142522,0.28937375610681737,-0.39103011344066174,0.023275327307569846
1765408702.655661,-9.631528186511447,0.9859505410059323,-1.1036396422427175,0.29222539371041495,-0.3888875705204485,0.017787179760575787
1765408702.655911,-9.730196375428951,1.0014856672318901,-1.000734960992361,0.29488915287244316,-0.3870064344920874,0.012379174494488325
1765408702.656161,-9.824532757921155,1.0209105183201923,-0.9037946240823449,0.2972959529707676,-0.38547674534425524,0.007045274999397343
1765408702.656402,-9.910972669422785,1.0434635188088968,-0.8160053689108001,0.2993916386704256,-0.38437803066488374,0.0017718656382124626
1765408702.656652,-9.986345064520533,1.0681865456310042,-0.7401051354642132,0.3011390879591127,-0.3837742584021323,-0.0034628201408808137
1765408702.656902,-10.048064433118387,1.0940052941333516,-0.6782251877840298,0.3025196969550594,-0.38370935291716923,-0.008687915215975022
1765408702.657152,-10.094275852863742,1.1198035784169744,-0.6317846045536786,0.3035343839614009,-0.3842034853942382,-0.013937852243741968
1765408702.657385,-10.12394681737162,1.1444880812245162,-0.6014382516130653,0.30420409982505775,-0.38525040746910844,-0.019249267822313024
1765408702.657718,-10.136903125323633,1.1670417382289915,-0.5870753238230395,0.3045696978128431,-0.3868161159824429,-0.024657254430447344
1765408702.658052,-10.133809602408077,1.186565329546464,-0.5878625920195705,0.30469094883366743,-0.38883907888916275,-0.030191411776549566
1765408702.658373,-10.116099683640199,1.2023081668783837,-0.6023245305927414,0.304644495962038,-0.3912321328879854,-0.03587217369605521
1765408702.658623,-10.085860508761053,1.2136895743919682,-0.6284516642066281,0.30452061358295135,-0.3938860244633188,-0.04170786075125425
1765408702.658873,-10.045682447738589,1.2203131011283237,-0.6638283376031666,0.30441875631963555,-0.39667443877188546,-0.047692833466427415
1765408702.659123,-9.99848441560216,1.2219755077886676,-0.7057710066742758,0.30444203910449963,-0.39946024890553394,-0.05380699461401601
1765408702.659351,-9.947328418466226,1.218672834531228,-0.7514682585895658,0.30469096263207907,-0.4021026154645527,-0.0600167139971392
1765408702.659601,-9.895236876068568,1.2106059196777998,-0.7981151343913815,0.3052568517987313,-0.404464483822082,-0.0662770496674943
1765408702.659851,-9.845023524898865,1.1981867576065488,-0.8430373525740124,0.30621557033611363,-0.4064199885600566,-0.072534955276931
1765408702.660101,-9.799144608756809,1.1820446684017667,-0.8838043257866727,0.3076220942239979,-0.4078612922641961,-0.07873303264036599
1765408702.66051,-9.759574642244905,1.1630283073506495,-0.9183309796058224,0.30950646640700363,-0.4087044410808645,-0.08481334255001713
1765408702.66076,-9.727711957153856,1.142197728439297,-0.944966245166291,0.31187151435942834,-0.40889387990034404,-0.09072083902069102
1765408702.66101,-9.70432171987495,1.1208009392920695,-0.9625626373752305,0.3146925028070825,-0.4084053247198184,-0.09640612182795096
1765408702.66126,-9.689524176494814,1.1002312877199705,-0.9705198416036052,0.31791865962330634,-0.40724676743044336,-0.10182736264993193
1765408702.661349,-9.682831216294419,1.0819648784716425,-0.9687970795194893,0.3214763096373119,-0.405457524312155,-0.10695140723514843
1765408702.661682,-9.683226733529475,1.0674805792806872,-0.9578927714376443,0.3252732157642307,-0.40310542164304264,-0.11175416287969323
1765408702.662016,-9.689280001407587,1.0581685070581481,-0.9387934795902911,0.3292036706227758,-0.40028237634448555,-0.11622043595642198
1765408702.662434,-9.699279111515983,1.055235340061732,-0.9128963638866737,0.33315389925002825,-0.3970987205059198,-0.12034339301507448
1765408702.662684,-9.711372812597698,1.0596157624074027,-0.8819106494608352,0.3370074047732056,-0.3936766410733489,-0.12412380062851312
1765408702.662934,-9.723711578142174,1.071898971411159,-0.8477441701406095,0.3406499859117259,-0.3901431085930031,-0.1275691732821413
1765408702.663184,-9.734580920460422,1.092277981456711,-0.8123810044645426,0.3439742561860593,-0.3866226840082933,-0.13069292523112064
1765408702.663327,-9.742521152488647,1.120527451979498,-0.777756155832056,0.34688358501203426,-0.3832306141723594,-0.13351357013076887
1765408702.663577,-9.746427678927905,1.1560125909629357,-0.7456339959068057,0.3492954448826181,-0.38006663327794776,-0.1360539521666939
1765408702.663827,-9.745624969704018,1.1977276722177075,-0.7174987381878342,0.3511441780300401,-0.37720985943474644,-0.13834045958504024
1765408702.664077,-9.739907050171283,1.2443592409030388,-0.6944663647144482,0.3523831996593006,-0.3747151043186973,-0.14040218547502145
1765408702.664375,-9.729539187132922,1.294367545805768,-0.6772266787235659,0.35298664697020343,-0.3726108075149062,-0.1422700426921681
1765408702.664625,-9.715220040341928,1.3460801113375862,-0.6660204939639246,0.35295046368642147,-0.3708986825417608,-0.14397587224520375
1765408702.664875,-9.69800969796843,1.3977921489279288,-0.660651055022894,0.3522928717619106,-0.3695550326257494,-0.14555158178770397
1765408702.665125,-9.679234022387222,1.4478683979766234,-0.6605233469613206,0.3510541301615317,-0.3685335762477726,-0.14702832222700285
1765408702.665332,-9.660377214269415,1.494840377283962,-0.6647027014690469,0.3492954368089833,-0.36776953185830197,-0.14843569054980815
1765408702.665665,-9.642972444111031,1.537493189621199,-0.6719852251443238,0.3470968232617214,-0.36718465846995674,-0.14980095050998363
1765408702.665999,-9.628497154425176,1.5749370639424787,-0.6809751493914774,0.3445539401522913,-0.36669293430606975,-0.15114826730905953
1765408702.666354,-9.618277691853093,1.606659517349319,-0.6901662875624104,0.34177372809144735,-0.36620656261729645,-0.15249794161860275
1765408702.666604,-9.613407773453922,1.632553723268946,-0.6980254940171152,0.33886909406336946,-0.3656419925222784,-0.15386562320890196
1765408702.666854,-9.614685423535507,1.6529184487143513,-0.7030756263277681,0.33595285017633514,-0.36492561998650014,-0.1552615131570138
1765408702.667104,-9.622571870153118,1.668426355956583,-0.703974958365596,0.3331312992527354,-0.36399881028503245,-0.15668962157362865
1765408702.667319,-9.63717352495677,1.6800608176782705,-0.6995898468586086,0.3304979423601996,-0.36282189281535276,-0.15814719915241515
1765408702.667569,-9.658245991699758,1.689025442318731,-0.6890574060890813,0.328127815020595,-0.3613768452204811,-0.15962447454794784
1765408702.667819,-9.685218047670464,1.696633958618738,-0.6718345907280533,0.32607292548811706,-0.35966850466309885,-0.16110480796364726
1765408702.668069,-9.717233006841434,1.7041906015820374,-0.6477301444503737,0.32435917994184843,-0.3577242852719123,-0.1625653346904455
1765408702.668368,-9.753203227156153,1.7128727511657036,-0.6169177743641411,0.32298505297536984,-0.3555924958933344,-0.16397812638804485
1765408702.668618,-9.791870898100475,1.7236280686687317,-0.5799322772433303,0.3219221111243076,-0.35333942190854833,-0.1653118349357896
1765408702.668868,-9.831867389574965,1.7370972609284463,-0.5376521187190388,0.32111733493409117,-0.35104536984252693,-0.16653370433846476
1765408702.669118,-9.87176665303904,1.7535705755949593,-0.4912699803335728,0.32049703310342936,-0.3487998870789732,-0.16761175666444186
1765408702.669317,-9.910133837642356,1.7729815002878153,-0.44224902937763455,0.31997202495526483,-0.3466963705819221,-0.1685169053713743
1765408702.66965,-9.945574138409963,1.7949359382801637,-0.39226111998344826,0.31944369496716446,-0.34482628925746694,-0.16922474898926096
1765408702.669984,-9.976786378812104,1.8187706934948464,-0.3431054022235621,0.318810489330878,-0.3432732907949479,-0.16971685524684257
1765408702.670338,-10.002622066303374,1.843632410590161,-0.29661024152664156,0.3179744161629566,-0.34210754033619867,-0.1699814403701083
1765408702.670588,-10.022146384207817,1.8685673461742398,-0.2545254747974848,0.31684711545296507,-0.3413806942688763,-0.17001344766602805
1765408702.670838,-10.034694699203271,1.892612716406217,-0.21841454934845986,0.31535508314075633,-0.3411218967598764,-0.16981410517447448
1765408702.671088,-10.039917406796881,1.9148808933319446,-0.18955669275449177,0.3134436864643185,-0.34133509961541875,-0.1693900867417886
1765408702.671405,-10.037807286180245,1.9346284599326642,-0.1688679105519057,0.31107971466057,-0.3419978860154889,-0.16875243115689437
1765408702.671655,-10.028706080096164,1.9513043222725286,-0.1568467399716919,0.30825236151944146,-0.34306185558707586,-0.16791540361059618
1765408702.671905,-10.013289375962428,1.9645754847405317,-0.15354741035079075,0.30497269552029616,-0.3444545175506538,-0.1668954916553447
1765408702.672155,-9.992530369587033,1.9743343112041856,-0.1585804915976536,0.3012717957954672,-0.34608255822111916,-0.16571067349670138
1765408702.672384,-9.967644037905979,1.980694156346469,-0.17113974263758192,0.297197797722175,-0.3478363055354548,-0.16437997422118392
1765408702.672634,-9.940014088483364,1.9839792624135115,-0.19005349456093798,0.2928121113411238,-0.34959518214680524,-0.1629231914809573
1765408702.672884,-9.911106053681689,1.9847107385851233,-0.21385869321190218,0.2881850737077843,-0.3512338863657907,-0.16136060489265183
1765408702.673134,-9.882371353803036,1.9835862304966883,-0.2408946419166018,0.28339129107531674,-0.3526289613937907,-0.15971251910295892
1765408702.673383,-9.855149207447159,1.9814491258450702,-0.26941111096842973,0.278504925358669,-0.3536653354121281,-0.1579985977498913
1765408702.673716,-9.830575435501283,1.9792444542931853,-0.29768252117399335,0.2735951791579694,-0.35424237218752697,-0.15623705752289088
1765408702.67405,-9.809508456699852,1.9779618101763095,-0.32411774490223916,0.26872222562376963,-0.35427898043179373,-0.15444385469062033
1765408702.674416,-9.792482087245736,1.9785687256064817,-0.34735484897176483,0.2639338064916722,-0.3537173887877946,-0.15263199656739437
1765408702.674666,-9.779691681092254,1.9819395924711622,-0.3663321308887449,0.2592626860416753,-0.3525252963537639,-0.1508110688390815
1765408702.674916,-9.771015230546725,1.9887854194650283,-0.3803303226999873,0.25472510613071453,-0.3506962500575942,-0.14898702179507559
1765408702.675166,-9.766065781700398,1.9995893280774566,-0.3889844253600463,0.2503203373535125,-0.3482482635274282,-0.14716222842670956
1765408702.675377,-9.764267369362724,2.01455263264365,-0.39226643629604474,0.24603136031002973,-0.3452208491275234,-0.1453358153079644
1765408702.675627,-9.764944045919414,2.0335567841795497,-0.3904427861644949,0.2418266386389012,-0.3416707635762515,-0.1435042554845792
1765408702.675877,-9.767410154392328,2.0561467530061375,-0.3840132118639436,0.2376628653575081,-0.3376668668861638,-0.14166218223825758
1765408702.676127,-9.77105001414284,2.0815405607639077,-0.37363998741171295,0.23348848441370063,-0.3332845708664859,-0.1398033301369316
1765408702.676406,-9.775377442625533,2.1086670035344413,-0.36007625657653536,0.22924772308775343,-0.3286003950523079,-0.13792145607574693
1765408702.676656,-9.780069808179226,2.1362295035209566,-0.344100001058196,0.22488482871586624,-0.3236871221655962,-0.13601107311151264
1765408702.676906,-9.784975828695174,2.1627897805208525,-0.3264580535902228,0.2203481913667174,-0.3186099340024095,-0.13406786520918768
1765408702.677156,-9.790099491864247,2.1868620622301007,-0.30782363179711814,0.21559405691905142,-0.31342373940608487,-0.13208873079168884
1765408702.677366,-9.795564294099847,2.2070076039445143,-0.28877015056004274,0.21058958789678184,-0.3081717311006597,-0.13007149724034672
1765408702.677616,-9.801563364563142,2.2219203272185224,-0.2697623328534194,0.20531509384932697,-0.3028850596672552,-0.1280144307911211
1765408702.677866,-9.808302250396562,2.2304969584459218,-0.25116305888361423,0.19976531229899488,-0.29758340238194014,-0.12591571660802975
1765408702.678116,-9.815941798740331,2.2318885018944514,-0.23325208702609324,0.1939496782487125,-0.2922761527293367,-0.12377308485233564
1765408702.678367,-9.82454843143955,2.22553329531353,-0.21625135038268808,0.18789159083579407,-0.2869639794671187,-0.12158370527653545
1765408702.6787,-9.834058214683195,2.211174108462231,-0.20035078414794416,0.1816267746141548,-0.2816405769915195,-0.11934438112424416
1765408702.679034,-9.844259371,2.18886194569148,-0.18572870952420853,0.17520091989251663,-0.27629450001485556,-0.11705197442288816
1765408702.679347,-9.85479517465112,2.1589478003932916,-0.17256245407138612,0.16866684169560492,-0.27091101491556235,-0.11470392508868008
1765408702.679597,-9.865186069857161,2.1220621365513415,-0.16102801862499627,0.16208140909104093,-0.2654739085495931,-0.11229870963010795
1765408702.679847,-9.874867331858026,2.0790816633638967,-0.15129062868491677,0.15550247817788465,-0.25996718418396314,-0.10983611798152791
1765408702.680097,-9.88323707216776,2.0310839038635593,-0.14348963681268206,0.14898602828515137,-0.2543765560951671,-0.10731728455936985
1765408702.680341,-9.889708567164803,1.9792911233319674,-0.13772169730490805,0.142583658810206,-0.24869064517114703,-0.10474447017732559
1765408702.680591,-9.89376060663747,1.9250059102608013,-0.13402605537894838,0.13634055927483552,-0.24290179146869426,-0.10212064499657754
1765408702.680841,-9.894980159615248,1.8695414612307375,-0.13237510307672745,0.1302940226856205,-0.23700643875588828,-0.0994489631773013
1765408702.681091,-9.893093290477111,1.8141506778636038,-0.1326718360134308,0.12447252981597566,-0.2310051009446067,-0.09673224200729645
1765408702.681339,-9.887982406536949,1.7599591665627423,-0.134753971382418,0.11889538735048832,-0.22490197611865334,-0.09397255987001675
1765408702.681589,-9.87968983245973,1.7079075928244172,-0.13840310043647588,0.11357286458951359,-0.21870431751777344,-0.0911710675590317
1765408702.681839,-9.868409013575594,1.6587084009761643,-0.14335675887888252,0.10850675115863448,-0.21242169287578552,-0.08832806578113657
1765408702.682089,-9.854465351157362,1.6128207589462265,-0.14932157672250346,0.10369124926126617,-0.20606525973574916,-0.08544334383489728
1765408702.682333,-9.83828892697265,1.5704457557926201,-0.15598645936000086,0.09911411039342063,-0.19964716113940012,-0.08251671552000103
1765408702.682583,-9.82038153405589,1.531541469587458,-0.1630356526213866,0.09475792666012794,-0.19318011503873178,-0.07954864870353025
1765408702.682833,-9.801280887001065,1.4958550931793266,-0.1701618712501689,0.09060149465458968,-0.18667723170714678,-0.07654087850433876
1765408702.683083,-9.781525515919034,1.462967673048999,-0.1770790782543595,0.08662118472692625,-0.18015203865313353,-0.07349691664584954
1765408702.683385,-9.761624016087193,1.432346541802212,-0.18353351837273107,0.08279226223319136,-0.1736186339606892,-0.07042240234833275
1765408702.683635,-9.742031733153265,1.4034008182736422,-0.1893109680765897,0.07909011296585597,-0.16709185602257146,-0.06732526588968939
1765408702.683885,-9.723137014092654,1.375535767708626,-0.19423805348823722,0.07549132583629747,-0.16058736094053702,-0.06421568910002623
1765408702.684135,-9.705258219848055,1.3482020797906868,-0.19817585454321437,0.07197459104563897,-0.15412152175129393,-0.06110585246942054
1765408702.684341,-9.688651653329728,1.320936402304639,-0.20100496185742323,0.0685213836748733,-0.14771109368869437,-0.05800946769005913
1765408702.684541,-9.67352927253125,1.293390037762331,-0.20260258428660918,0.06511641529667028,-0.14137263182801005,-0.05494111796985409
1765408702.684741,-9.66008374744811,1.2653436937381015,-0.2028137705946515,0.06174784671197169,-0.13512170196934342,-0.051915464620702775
1765408702.684941,-9.64851734695522,1.2367075523044477,-0.20141999574161476,0.058407266315290265,-0.12897197759270046,-0.048946411658871765
1765408702.685141,-9.639070424611846,1.2075075524910495,-0.1981092684624356,0.055089453509616755,-0.12293435040606167,-0.04604633447785593
1765408702.685378,-9.632045027608477,1.1778603294393448,-0.19245249391982952,0.0517919634169223,-0.11701619498075268,-0.043225469400668154
1765408702.685628,-9.6278194899196,1.1479402657014104,-0.18389088719935187,0.04851458554395458,-0.11122092000441204,-0.04049153425663088
1765408702.685878,-9.626850738646704,1.117942381950354,-0.17173863893655064,0.045258743205554564,-0.10554791165264478,-0.03784961678477818
1765408702.686128,-9.629662322380712,1.0880446222651212,-0.1552036318783172,0.04202690856538604,-0.09999293194835751,-0.03530233652523001
1765408702.68639,-9.636817776275652,1.0583729111820606,-0.13342672822759616,0.03882210621529756,-0.0945489807744289,-0.0328502583517495
1765408702.68664,-9.648880613343117,1.0289722197853215,-0.10553755291342296,0.03564756636808428,-0.08920757003680783,-0.030492506623296542
1765408702.68689,-9.666363537743266,0.9997864659066719,-0.07072287447732599,0.03250656983468324,-0.08396030357256846,-0.028227496796197887
1765408702.68714,-9.689670303421304,0.970649239495651,-0.02830302832432361,0.029402502852451943,-0.07880061887055625,-0.026053677425643792
1765408702.687424,-9.71903437966179,0.9412862878679569,0.02218847127799488,0.02633911206021941,-0.07372552633297766,-0.0239701746131085
1765408702.687674,-9.7544594376831,0.9113296378323649,0.08092766496509209,0.023320922222705612,-0.06873716742808948,-0.021977254716230014
1765408702.687924,-9.79566722392776,0.8803422197741051,0.14773145025267373,0.020353755830244485,-0.06384400262601043,-0.020076556996061767
1765408702.688174,-9.842058247010092,0.847850962248313,0.22200370494376118,0.017445275883834477,-0.05906144797930158,-0.018271083891251413
1765408702.688344,-9.892690102346231,0.8133857021971072,0.3027019841375109,0.014605461682379351,-0.05441181764616614,-0.01656496747652565
1765408702.688544,-9.946277557847555,0.7765208928464589,0.3883299387821282,0.011846925206965994,-0.04992349561730969,-0.014963052354132986
1765408702.688744,-10.001217632985371,0.7369167734826348,0.4769596859993184,0.009184985853129747,-0.04562934627662513,-0.013470347111244016
1765408702.688944,-10.055641481586997,0.6943563599801309,0.5662865397082507,0.006637443755512671,-0.04156447336893445,-0.012091405353869562
1765408702.689144,-10.107492789087507,0.6487746508801687,0.6537156743202895,0.004224024859899381,-0.03776353171610063,-0.010829707420119832
1765408702.689396,-10.154629754770507,0.6002771531024848,0.7364769935581353,0.001965512375893863,-0.034257856822405494,-0.009687118242275762
1765408702.689646,-10.194944958170817,0.5491461569941946,0.8117615150138315,-0.00011737536607694706,-0.031072687754926633,-0.0086634865296926
1765408702.689896,-10.226495097176517,0.4958347020840035,0.8768705828974707,-0.002005261787389529,-0.028224726159910687,-0.007756425333487699
1765408702.690146,-10.247631135949268,0.4409493610613271,0.929368269324383,-0.0036814234247881544,-0.02572022179820133,-0.006961281240050302
1765408702.690346,-10.257118807924924,0.38522354609737286,0.9672269997906279,-0.00513301381877048,-0.02355372508690241,-0.006271268614116831
1765408702.690546,-10.254239564366504,0.3294831305934429,0.9889564074989798,-0.006352089611557695,-0.021707610417517426,-0.005677726396163333
1765408702.690746,-10.238862986643543,0.2746062099282922,0.9937058246518792,-0.0073363483147479164,-0.020152443555260375,-0.005170453284586007
1765408702.690946,-10.211483460415952,0.22147915072263769,0.9813320226799758,-0.008089515247127907,-0.01884822364388241,-0.004738088636725095
1765408702.691146,-10.173216494488576,0.17095163773939182,0.9524260360500328,-0.00862135352316021,-0.017746461797835896,-0.004368520295055231
1765408702.691384,-10.125753314620408,0.12379383780598638,0.9082960414912875,-0.008947310236695276,-0.01679297063849854,-0.004049308447765297
1765408702.691634,-10.07127595897217,0.08065879845841067,0.8509068195042706,-0.00908784509089705,-0.015931157243729486,-0.0037681166784743828
1765408702.691884,-10.01233852942224,0.04205284694808273,0.7827796274467832,-0.009067508044100673,-0.015105559611426856,-0.0035131412835858523
1765408702.692134,-9.951723050347223,0.008316147442659955,0.7068590109034613,-0.008913839300340641,-0.014265350390000889,-0.003273526808005167
1765408702.692395,-9.892280352087434,-0.020385396162908853,0.6263552426645381,-0.00865616224762257,-0.013367542936090913,-0.0030397469061645755
1765408702.692595,-9.836767453232103,-0.04405704392576712,0.5445727235211956,-0.008324333613310978,-0.012379663341978684,-0.0028039207713686652
1765408702.692795,-9.787692984041035,-0.06286235668751913,0.46473556350003065,-0.007947509936847907,-0.011281693103307452,-0.0025600376676865257
1765408702.692995,-9.747181285116884,-0.07710264866064144,0.3898215859693349,-0.007552987207315357,-0.010067139773755238,-0.0023040768307063214
1765408702.693195,-9.716864052989452,-0.08719082956196013,0.32241533258878197,-0.007165169902157535,-0.008743156282026465,-0.002034025231829332
1765408702.693362,-9.697805922441983,-0.09362151319054653,0.2645893363842382,-0.0068047241533916,-0.0073297012050174415,-0.001749801435570053
1765408702.693562,-9.690467427753386,-0.09693927596279814,0.21782084913521021,-0.00648796474034507,-0.005857808758148014,-0.0014530927409423476
1765408702.693762,-9.694705851917714,-0.09770710256067139,0.18294846631437175,-0.006226513798019264,-0.0043671123832596005,-0.001147113014526515
1765408702.693962,-9.709811946480125,-0.09647709133398717,0.16017000081726634,-0.006027247744378008,-0.002902829714160726,-0.00083629260877474
1765408702.694162,-9.734578356740593,-0.09376525761080047,0.14907971195179454,-0.005892520389085184,-0.0015124595895959847,-0.0005259173880276404
1765408702.694402,-9.767393650156984,-0.0900317701138644,0.14873982316464082,-0.0058206236186196065,-0.0002424592084567173,-0.00022174000479230238
1765408702.694602,-9.80635428092885,-0.0856672891653845,0.1577786963356423,-0.00580643104268378,0.0008648379931491855,7.040782830108411e-05
1765408702.694802,-9.849385971789363,-0.08098542224891842,0.17450658885191345,-0.005842164952939691,0.0017738356063612141,0.000344971523450168
1765408702.695002,-9.894365888682374,-0.07622081452503611,0.1970395574852466,-0.0059182275810580704,0.002457648492211958,0.0005969717821606089
1765408702.695202,-9.939237398502403,-0.07153207493758608,0.22342235480314035,-0.0060240406506271525,0.002899343947987351,0.0008222261652175564
1765408702.695336,-9.982110130197432,-0.06700858121278427,0.2517419359644592,-0.006148842920634726,0.0030924321742828334,0.0010174849715305647
1765408702.695536,-10.021339756651333,-0.06268020114683825,0.2802247054365514,-0.0062824037929623796,0.003040650271751641,0.0011804831559327667
1765408702.695736,-10.055584362116962,-0.05852904813070611,0.30731295818399595,-0.0064156207331342386,0.0027571307354522243,0.001309919860641339
1765408702.695936,-10.0838369336138,-0.05450242353470034,0.33171865214668744,-0.0065409787205167125,0.0022630824651140094,0.0014053817995052194
1765408702.696136,-10.105435788327751,-0.05052605475177911,0.3524550245565487,-0.006652861021204981,0.0015861371857482077,0.0014672269275488768
1765408702.696388,-10.120056306815355,-0.046516759009869596,0.3688482193903785,-0.006747710369339551,0.0007585200783968178,0.0014964457264719049
1765408702.696588,-10.127688103318306,-0.042393869125373795,0.38053193518924777,-0.006824046135160288,-0.00018480848901040724,0.0014945199579434534
1765408702.696788,-10.128601714855577,-0.038089053205040385,0.3874282376484765,-0.006882347255936222,-0.0012079160170778045,0.0014632973930069197
1765408702.696988,-10.123308228879036,-0.03355433562049644,0.389717406628057,-0.006924815656830004,-0.002275472604025501,0.0014048921538479745
1765408702.697188,-10.112514477712738,-0.028768097590835214,0.3877994137995592,-0.006955041689563532,-0.0033540814653411437,0.0013216084813220234
1765408702.697372,-10.097075893081575,-0.023738750104279834,0.3822495693452106,-0.006977599900381448,-0.004413342936175504,0.0012158795030245853
1765408702.697572,-10.077948817383662,-0.018505875010198725,0.373770907778391,-0.00699760800933227,-0.005426649795976052,0.001090215370341616
1765408702.697772,-10.056143831245947,-0.013138989283842642,0.3631458075146822,-0.007020283331015568,-0.006371720897393445,0.0009471626033417643
1765408702.697972,-10.032681457031725,-0.007734462514077962,0.35118912018990456,-0.007050528712061966,-0.007230886865722657,0.000789281451395323
1765408702.698172,-10.008551453944733,-0.0024111996353090434,0.33870474211950896,-0.0070925748856409745,-0.007991148645771162,0.0006191465563812809
1765408702.698345,-9.984676729557401,0.0026945315865239136,0.32644709690637347,-0.007149699005775648,-0.008644035429551444,0.0004393695467184207
1765408702.698545,-9.961882619540765,0.007435029399482449,0.3150885441890622,-0.007224030761359423,-0.009185294897306562,0.0002526349608969865
1765408702.698745,-9.940872086943706,0.011657848416795182,0.305193458421153,-0.007316448783961008,-0.009614456777959721,6.173706361382769e-05
1765408702.698945,-9.922207342012653,0.015213191124691702,0.2971995566925737,-0.007426563042231108,-0.009934314144805636,-0.00013039438747900392
1765408702.699145,-9.906298319590384,0.01796181974821344,0.2914067565360792,-0.007552775225767201,-0.010150359920692102,-0.00032068833374670905
1765408702.699369,-9.893398234581893,0.019783186639151285,0.2879734125395867,-0.0076924079288784135,-0.010270204212887102,-0.0005059522173805647
1765408702.699569,-9.883606141568071,0.020583349883220945,0.28691943174076995,-0.007841892125824396,-0.010302991085077451,-0.0006829205669024898
1765408702.699769,-9.876876134814482,0.020302104142768222,0.2881355551325535,-0.007996999784998628,-0.010258832511267649,-0.0008483333695600943
1765408702.699969,-9.873032497252039,0.01891865806873489,0.2913979084121613,-0.008153106090104813,-0.010148277289955578,-0.0009990422176877412
1765408702.700169,-9.871789777993785,0.01645517904539827,0.2963868251461065,-0.008305465481374947,-0.009981831505673252,-0.0011321377910972154
1765408702.700348,-9.872776625402944,0.012977639933662851,0.30270906921492113,-0.008449487030280364,-0.009769546243914974,-0.0012450874270816677
1765408702.700548,-9.875562250016754,0.008593653250767351,0.30992277054064815,-0.008580995528994282,-0.00952068697845433,-0.0013358683303925534
1765408702.700748,-9.879684403978626,0.0034473244289926195,0.3175642782639322,-0.008696464558731697,-0.009243494684637922,-0.0014030816670227728
1765408702.700948,-9.884677598074518,-0.0022885154617656774,0.3251757005060133,-0.008793208022277368,-0.0089450422627911,-0.001446035216609724
1765408702.701148,-9.890100099973582,-0.008422135778738422,0.3323315192917869,-0.008869518179217646,-0.008631185464044509,-0.0014647865932247558
1765408702.701366,-9.895558250085887,-0.014754132446118657,0.3386625963314406,-0.00892474041689148,-0.008306605418014817,-0.0014601443450237522
1765408702.701566,-9.900726714537019,-0.021089262918334968,0.3438759855957389,-0.008959276988945122,-0.007974935269230784,-0.001433629103204329
1765408702.701766,-9.905363342613017,-0.02724787860279848,0.34776910827625784,-0.008974514720957642,-0.007638955036128824,-0.001387399944296555
1765408702.701966,-9.90931744083121,-0.03307578239360924,0.35023717276773675,-0.008972676995903652,-0.007300831998955082,-0.001324152468045068
1765408702.702166,-9.912530743275902,-0.038451421559454364,0.35127335399733484,-0.008956608442201697,-0.006962382397692944,-0.001246996465927348
1765408702.702392,-9.915031113803773,-0.04328967300701955,0.3509619925964147,-0.008929510036350024,-0.006625332030013653,-0.0011593229167680933
1765408702.702592,-9.916919805719818,-0.04754196127646971,0.3494656967447424,-0.008894650296453782,-0.006291557505515147,-0.0010646703489186932
1765408702.702792,-9.918353745332658,-0.05119293709015984,0.34700770234076533,-0.008855082401491906,-0.005963297239976179,-0.0009665974087262463
1765408702.702992,-9.919524719606837,-0.05425435788696872,0.3438511715911148,-0.00881339625134023,-0.005643327090248277,-0.0008685631022978833
1765408702.703192,-9.920637442735252,-0.05675710445262413,0.3402771774111046,-0.008771529567148809,-0.005335092540393197,-0.0007738125536917049
1765408702.703351,-9.921888256697695,-0.05874241941190899,0.33656296276746356,-0.008730654910510106,-0.005042779566919948,-0.0006852668077408947
1765408702.703551,-9.923445902340001,-0.060253469017032206,0.33296191965764155,-0.008691151092713088,-0.004771301103037232,-0.0006054190181335904
1765408702.703751,-9.925435560965068,-0.06132820940947219,0.32968666717848005,-0.008652658547265686,-0.004526182746443051,-0.0005362432249344145
1765408702.703951,-9.927927134593777,-0.061994282573660395,0.3268963908549365,-0.008614210098733524,-0.004313346648001195,-0.0004791239499517268
1765408702.704151,-9.930928403885382,-0.06226632411477578,0.32468915242930346,-0.00857442214167744,-0.004138809180028288,-0.0004348148756193378
1765408702.705352,-9.934383401603514,-0.06214573036999959,0.32309946829087133,-0.008531725925022661,-0.004008321636986099,-0.0004034333296312134
1765408702.705552,-9.938176186342517,-0.06162267421591727,0.3221012722285005,-0.00848461354111474,-0.003926990791048877,-0.0003844943436862893
1765408702.705752,-9.942140011723179,-0.06067996771994507,0.3216161746337527,-0.008431869627248997,-0.0038989142958076603,-0.00037698344793528663
1765408702.705952,-9.946071396690199,-0.059298208506113025,0.32152640112142417,-0.008372760801709695,-0.003926855233447561,-0.00037946153041020414
1765408702.706152,-9.94974790288407,-0.05746153310082573,0.3216910889100254,-0.008307162502542336,-0.004011967976924429,-0.0003901907804719695
1765408702.705402,-9.952947896768565,-0.055163292429762284,0.3219641701486718,-0.008235615811601095,-0.0041535830948899125,-0.0004072711170154961
1765408702.705602,-9.955470403828553,-0.0524110640846799,0.32221200219698787,-0.008159320076998813,-0.004349063502090795,-0.0004287803272261322
1765408702.705802,-9.957153177797826,-0.04923054600336792,0.32232895346117807,-0.008080074536052752,-0.004593749337289005,-0.00045291301456558636
1765408702.706002,-9.957887171578923,-0.04566797307897097,0.3222492048525813,-0.008000180928640473,-0.004881007205118665,-0.00047811086702223766
1765408702.706202,-9.957625884226667,-0.04179078189564649,0.321953357402877,-0.00792231279880492,-0.005202390385643679,-0.0005031735461176188
1765408702.706376,-9.95638874168581,-0.03768637934971422,0.3214692291902445,-0.007849352769248473,-0.005547905228517821,-0.0005273400692163072
1765408702.706576,-9.954258522985612,-0.033459065564889895,0.32086715371597196,-0.007784200850894862,-0.005906368982732442,-0.0005503340468392121
1765408702.706776,-9.951373463153436,-0.029225377093955045,0.3202506924528698,-0.007729563438118797,-0.0062658377356490285,-0.0005723690903428178
1765408702.706976,-9.94791497453412,-0.02510829604510934,0.319743921398992,-0.007687739586034314,-0.0066140812332777825,-0.0005941125521600256
1765408702.707176,-9.944092190234812,-0.02123087797796656,0.31947664830313083,-0.00766042564319476,-0.00693908320420788,-0.0006166083633112935
1765408702.707356,-9.940124873650449,-0.017709866869468533,0.31956915477132275,-0.007648561100805543,-0.00722954754778621,-0.0006411635806067283
1765408702.707556,-9.936226462403475,-0.014649795486787541,0.320118130817551,-0.007652237115944282,-0.00747538982797956,-0.0006692071932123107
1765408702.707756,-9.932588928643437,-0.012137958419849833,0.32118526764357047,-0.0076706828524535685,-0.00766819264779251,-0.0007021332687519025
1765408702.707956,-9.929370796959006,-0.010240535228062585,0.3227896192906825,-0.007702333291388434,-0.0078016059249201115,-0.0007411438153908386
1765408702.708156,-9.926689208759415,-0.00900003176285593,0.3249044193142857,-0.0077449684062620636,-0.00787167551373812,-0.0007871089668937141
1765408702.70844,-9.924616386203487,-0.008434091049925825,0.3274584831801141,-0.007795902158534335,-0.007877080484522857,-0.0008404614117490955
1765408702.70864,-9.923180265182891,-0.008535629595921091,0.33034169514557715,-0.007852194027392461,-0.007819253146826525,-0.0009011369699230985
1765408702.70884,-9.922368614080156,-0.00927420372490044,0.33341363853392714,-0.007910856317337291,-0.007702355223233474,-0.0009685644601367863
1765408702.70904,-9.922135762181023,-0.010598475162325125,0.3365143268748252,-0.007969036024120982,-0.007533092993381269,-0.0010416989407950154
1765408702.70924,-9.92241102442272,-0.012439589632940794,0.33947605144823634,-0.008024159003431753,-0.007320371791043389,-0.0011190872850806834
1765408702.709373,-9.923107877662533,-0.01471521856905562,0.3421353754465481,-0.008074034009233108,-0.0070748110283306055,-0.0011989547826176353
1765408702.709573,-9.92413294059324,-0.01733397726875246,0.34434431237257324,-0.008116920876827013,-0.006808158300888227,-0.0012793031995359187
1765408702.709773,-9.92539392202043,-0.020199940376570337,0.34597983283357436,-0.008151568653891137,-0.006532649645738647,-0.0013580119131304316
1765408702.709973,-9.926805923102577,-0.023217025273704714,0.3469510496466955,-0.008177228331769709,-0.00626036322728235,-0.0014329344280133427
1765408702.710173,-9.92829575486422,-0.02629307457988687,0.3472036986383793,-0.008193644462968394,-0.006002610567909295,-0.0015019839208428678
1765408702.710348,-9.929804217334816,-0.029343484877975383,0.3467218153484856,-0.008201030166596342,-0.005769405412078983,-0.001563203981054379
1765408702.710548,-9.931286511495488,-0.032294189206653424,0.3455267260537921,-0.008200028499007066,-0.005569043590571627,-0.0016148239239593234
1765408702.710748,-9.932711079508426,-0.03508376530574873,0.3436736136218925,-0.008191659296593106,-0.005407816633701469,-0.001655300398419946
1765408702.710948,-9.93405724730128,-0.03766446099316893,0.341246069657192,-0.00817724617365319,-0.005289869389275293,-0.0016833471349012507
1765408702.711148,-9.935312131275213,-0.04000200719218345,0.33834923471463274,-0.008158317095323858,-0.005217199448735391,-0.0016979535784796375
1765408702.711352,-9.936467339354362,-0.04207422825432035,0.33510230304469957,-0.008136477903836483,-0.005189783865950085,-0.001698393655069414
1765408702.711552,-9.937516011001996,-0.04386864614120601,0.331631289731928,-0.00811327070877163,-0.0052058074319049855,-0.0016842291191875546
1765408702.711752,-9.938450689560776,-0.045379453259355766,0.3280629586132345,-0.008090040232075149,-0.00526195929307318,-0.0016553154302937998
1765408702.711952,-9.939262352449317,-0.046604340714334676,0.3245205458546539,-0.008067832256326483,-0.005353762918383205,-0.0016118183407454276
1765408702.712152,-9.939940627314293,-0.047541696019815505,0.32112139369561704,-0.008047338320659144,-0.005475908656448469,-0.0015542447353945694
1765408702.712402,-9.940474933184968,-0.04818861724098476,0.3179761120863377,-0.008028886941358126,-0.005622567230836463,-0.001483483254213698
1765408702.712602,-9.94085614931751,-0.04854002156003051,0.3151886350720535,-0.008012471968918624,-0.005787672561342556,-0.001400842894368806
1765408702.712802,-9.94107838862591,-0.048588898575183836,0.31285644058167267,-0.007997805968439114,-0.0059651677333086685,-0.0013080749808229814
1765408702.713002,-9.941140441941009,-0.04832756431264728,0.31107013745947004,-0.00798438819254437,-0.006149207531991573,-0.0012073657771017356
1765408702.713202,-9.941046532932434,-0.047749668468679035,0.30991173174672915,-0.007971579238538045,-0.006334310084696808,-0.0011012908953349952
1765408702.713378,-9.940806276505494,-0.04685266637065532,0.3094512890157311,-0.007958676370672357,-0.006515453969862243,-0.0009927277430093835
1765408702.713628,-9.940434029793222,-0.04564042931035849,0.3097422021372026,-0.007944985092766811,-0.006688124459238004,-0.00088472946064427
1765408702.713878,-9.939947937894422,-0.04412562700478904,0.3108155865293564,-0.007929884444105091,-0.006848319492387398,-0.000780371083592879
1765408702.714128,-9.939368919782812,-0.0423315211844726,0.3126745152512615,-0.007912885461159437,-0.006992531638663773,-0.0006825820265689019
1765408702.714393,-9.938719792299443,-0.040292885762664994,0.31528903012066073,-0.007893683015975116,-0.007117726313878199,-0.0005939784530811521
1765408702.714593,-9.938024691150973,-0.03805589202054976,0.3185929639292504,-0.007872199473934043,-0.007221335510186761,-0.0005167081041144918
1765408702.714793,-9.937308761975101,-0.0356769326481343,0.32248331317866424,-0.007848615132268123,-0.007301278820687871,-0.0004523201116696571
1765408702.714993,-9.936597812148403,-0.03322048958125156,0.3268223289430371,-0.007823378446953917,-0.007356014643784276,-0.0004016717102011056
1765408702.715193,-9.935917520910877,-0.03075625955150251,0.3314420681409898,-0.007797191044357248,-0.007384618736158372,-0.0003648815352589237
1765408702.71539,-9.935292027211897,-0.028355811890750874,0.3361510470373907,-0.007770967122927568,-0.007386882062291004,-0.00034133622491100976
1765408702.71559,-9.934742057701987,-0.02608905939118764,0.3407426808826812,-0.007745770883164808,-0.007363412153622143,-0.00032975451962991616
1765408702.71579,-9.93428300129442,-0.02402080422643125,0.3450052255686726,-0.00772273814355531,-0.007315716247016289,-0.00032831033296711184
1765408702.71599,-9.933923410048264,-0.0222076031444987,0.3487329368621709,-0.007702990559841213,-0.007246245411187491,-0.0003348109254058316
1765408702.71619,-9.933664246662168,-0.020695164346387396,0.3517379976366685,-0.007687553144441616,-0.007158384478907578,-0.0003469173520251684
1765408702.716442,-9.933498779881688,-0.019516420908207887,0.35386232178654375,-0.007677286942700439,-0.007056378086444257,-0.00036238440428224233
1765408702.716642,-9.933412587338688,-0.018690346301362595,0.3549879035032595,-0.007672847305378795,-0.006945188774204903,-0.0003792905832389496
1765408702.716842,-9.933383038794585,-0.01822153189245272,0.35504441050156915,-0.007674672941336688,-0.006830291617849726,-0.00039622764504752
1765408702.717042,-9.933377967736119,-0.018100539868620497,0.35401328065158966,-0.007683003027299023,-0.006717419283162024,-0.0004124238547310352
1765408702.717242,-9.93335367308431,-0.018305044157399124,0.35192827540147836,-0.007697913434315794,-0.006612276261706877,-0.0004277843052395168
1765408702.717378,-9.933252651767283,-0.01880174728174332,0.34887293038215894,-0.0077193613270487,-0.0065202390226146364,-0.0004428443233857006
1765408702.717578,-9.933001571686722,-0.019548999685854797,0.344975569982186,-0.00774722812333061,-0.006446052235710519,-0.00045864566531736184
1765408702.717778,-9.932510043776029,-0.020499947624862843,0.34040254292324895,-0.007781351611042421,-0.006393524607125253,-0.00047655616497897264
1765408702.717978,-9.931670730686625,-0.02160592171799869,0.3353501556322897,-0.007821539449168795,-0.0063652270490979984,-0.0004980590224781655
1765408702.718178,-9.930361267138755,-0.02281970488324699,0.3300356540354768,-0.007867559732746639,-0.006362204560258993,-0.0005245383365090203
1765408702.71838,-9.928448442469014,-0.024098329053494308,0.3246877027535623,-0.00791910900942576,-0.0063837264987756034,-0.0005570849174281714
1765408702.71858,-9.925795035763453,-0.02540514902084309,0.31953697658081925,-0.00797576174127975,-0.006427106517975768,-0.0005963421255745892
1765408702.71878,-9.922269414585132,-0.02671109442434514,0.31480745091817064,-0.008036906587357819,-0.006487617275097585,-0.0006424056071919032
1765408702.71898,-9.917757506255693,-0.02799514034693522,0.31070875939499026,-0.00810167559516483,-0.006558511503829421,-0.0006947839035146107
1765408702.71918,-9.912176240032103,-0.02924409682908376,0.30742975236227443,-0.00816887481310995,-0.0066311495930167575,-0.0007524201523757268
1765408702.719358,-9.905487226285,-0.03045179415763067,0.30513320760146506,-0.008236928969680401,-0.006695229425268968,-0.0008137690381228684
1765408702.719558,-9.897709343804888,-0.03161770637996852,0.30395153294270655,-0.008303855734390794,-0.006739116257577542,-0.0008769174645012821
1765408702.719758,-9.888929046874862,-0.032745084273340504,0.30398334220945067,-0.00836728364407832,-0.006750273500458686,-0.0009397324279997912
1765408702.719958,-9.879307480485227,-0.033838760408519374,0.30529095526649846,-0.008424521931214107,-0.0067157916676378465,-0.0010000170756199933
1765408702.720158,-9.869083688651818,-0.03490288256250811,0.3078989624031817,-0.00847268283803492,-0.006622999645256252,-0.001055657457557228
1765408702.722018,-9.858573194579789,-0.03593887979508196,0.3117939028229468,-0.008508850296862986,-0.0064601261688217605,-0.0011047469845946324
1765408702.722218,-9.848161144707639,-0.03694395347675976,0.3169249756214805,-0.00853028424700409,-0.00621696929570943,-0.0011456809953144717
1765408702.722418,-9.83828922337599,-0.037910294411402895,0.323205607281245,-0.008534646720788285,-0.005885529972435732,-0.0011772199920256907
1765408702.722618,-9.829435719766426,-0.0388250425788785,0.3305155291903603,-0.008520232236799763,-0.005460568046866956,-0.0011985270056861833
1765408702.722818,-9.822088546645743,-0.03967077814537693,0.3387028092777926,-0.008486179811872632,-0.004940043158687539,-0.0012091889285514015
1765408702.722104,-9.816711898375017,-0.0404261652988546,0.3475853571027763,-0.00843263942644832,-0.0043254105392031,-0.0012092297408255463
1765408702.722304,-9.813708675866035,-0.041066340087535805,0.3569519299352889,-0.008360866757766015,-0.0036217506618862515,-0.0011991159362527422
1765408702.722504,-9.813382415606602,-0.04156277914182359,0.36656327619454315,-0.008273228311423074,-0.002837716973523076,-0.0011797449394655235
1765408702.722704,-9.815903553920636,-0.04188277502369744,0.3761543782909538,-0.00817311178692191,-0.001985289979238433,-0.0011523998571887483
1765408702.722904,-9.821284907939539,-0.04198926888227212,0.38543878651696367,-0.0080647495545532,-0.0010793381762390906,-0.0011186541380737724
1765408702.722342,-9.829370182560421,-0.04184228237564303,0.39411583616104473,-0.007952974422961199,-0.00013701132416997074,-0.0010802245542433603
1765408702.722542,-9.839837472900456,-0.04140290904196968,0.40188094996137813,-0.007842934448893897,0.0008229796172332299,-0.001038797797932477
1765408702.722742,-9.852217653519704,-0.04063961337544708,0.40843829195976117,-0.007739794216568232,0.0017811280691112754,-0.000995875648226537
1765408702.722942,-9.865925680916389,-0.039535225389447,0.4135144387342299,-0.0076484443346520195,0.0027178900847246055,-0.0009526769273342397
1765408702.723142,-9.88030148042421,-0.03809256484533138,0.41687207595921927,-0.007573236138701273,0.0036144153590796616,-0.0009101056247187472
1765408702.723402,-9.894656297294818,-0.03633742249115003,0.4183234052177142,-0.007517759573273913,0.004453252189165467,-0.0008687673517671542
1765408702.723602,-9.908319998703725,-0.03431902691303212,0.41774268684758376,-0.007484681446125718,0.005219017178162231,-0.0008290102469365653
1765408702.723802,-9.920684809755933,-0.032108973165433326,0.4150762126844915,-0.007475648822852864,0.005898993626945236,-0.0007909823242668483
1765408702.724002,-9.931241664875946,-0.029799122922205316,0.4103476316001685,-0.007491245009731934,0.006483613088081844,-0.0007547160162075701
1765408702.724202,-9.939606836429647,-0.027497780704726336,0.403657801808959,-0.007530981933715298,0.006966790294201605,-0.0007202467317634398
1765408702.724422,-9.945538167308877,-0.025323110414039188,0.39518000180564017,-0.007593326835387413,0.007346094392451165,-0.0006877419777957209
1765408702.724622,-9.948941345843009,-0.023394048543310068,0.3851518920054052,-0.007675774502879993,0.007622731780362334,-0.0006575925063215149
1765408702.724822,-9.949867118812595,-0.021820621743578985,0.3738651901846616,-0.007774971909093035,0.007801312481329281,-0.000630430990837828
1765408702.725022,-9.94850052773079,-0.0206957318538284,0.36165358708485074,-0.00788688664696255,0.007889400640411826,-0.0006070877484580295
1765408702.725222,-9.94514340528313,-0.02008905858990071,0.3488792826697745,-0.008007003121927725,0.007896895545791916,-0.0005885215801023463
1765408702.725404,-9.940191493388951,-0.020042457575923704,0.33591843815043987,-0.008130537107469875,0.007835316425070247,-0.0005757504546693869
1765408702.725604,-9.934107690878314,-0.020566387993758855,0.32314586653469046,-0.008252668317639858,0.007717062811705244,-0.0005697739755165018
1765408702.725804,-9.92739309571539,-0.021638008515658304,0.3109195088403343,-0.008368790233216968,0.007554710942838416,-0.0005714674266947619
1765408702.726004,-9.920557528790523,-0.023202237400942308,0.2995654002613082,-0.008474766834403668,0.007360397431691426,-0.0005814473760754261
1765408702.726204,-9.914091143256098,-0.02517651748139899,0.2893638280588374,-0.008567175043770435,0.0071453290998437615,-0.0005999383696572483
1765408702.726418,-9.908438782582177,-0.02745866795348562,0.2805375628487019,-0.008643506006152922,0.006919438096309646,-0.0006266813024696757
1765408702.726618,-9.903978926531495,-0.029936070279378,0.2732434595500213,-0.008702299766637896,0.006691179377473477,-0.0006609092367525348
1765408702.726818,-9.901008911925114,-0.03249430790419092,0.2675687946419137,-0.008743195461205958,0.006467447359299884,-0.0007013898043313814
1765408702.727018,-9.899737355829753,-0.03502425043601204,0.263533036126893,-0.008766890616721635,0.006253571416843843,-0.0007465155033967836
1765408702.727218,-9.900283622544125,-0.03742767017466394,0.2610947042926362,-0.008775015509765515,0.0060533436926979555,-0.000794424439543159
1765408702.727319,-9.902683207765026,-0.039621875272950725,0.26016213094121027,-0.008769938473625822,0.005869046043119369,-0.0008431460986256769
1765408702.727569,-9.906897222966114,-0.04154330688977978,0.26060635512037855,-0.008754524129881055,0.005701469185945239,-0.0008907709028819207
1765408702.727819,-9.91282378637222,-0.04314934677938978,0.26227404349123157,-0.008731869787865366,0.005549937068537966,-0.0009356281407198543
1765408702.728069,-9.920309261056362,-0.04441771247417065,0.26499844772394143,-0.008705046568419193,0.005412352807192758,-0.0009764346570443863
1765408702.728335,-9.929158025193594,-0.045343839831607925,0.2686072063499471,-0.008676869610715517,0.005285277022713168,-0.001012370581406702
1765408702.728535,-9.939140447332742,-0.04593754929227046,0.27292685691010005,-0.008649714029690008,0.005164047229811985,-0.0010430623425812964
1765408702.728735,-9.949999429502576,-0.046220122988141765,0.2777846233428012,-0.008625381915016361,0.005042949412079087,-0.0010684929080008528
1765408702.728935,-9.961456139336697,-0.046221904551199414,0.2830083101910295,-0.008605016793163684,0.004915453205879841,-0.0010888834964325844
1765408702.729135,-9.97321561777335,-0.04597975007664599,0.2884253297300044,-0.00858906096640016,0.004774517527939117,-0.001104584056962385
1765408702.729392,-9.984972943186687,-0.04553380694607664,0.29386208992047663,-0.008577256608947242,0.004612965909947972,-0.0011159852848282696
1765408702.729592,-9.996420459575571,-0.04492384740882137,0.2991448897915546,-0.008568695962453328,0.0044239184495207026,-0.0011234474005989853
1765408702.729792,-10.007256229927284,-0.04418591375125635,0.3041030014163156,-0.008561923394150186,0.004201247752804386,-0.0011272407448674273
1765408702.729992,-10.0171935061477,-0.04334992306969904,0.3085740125211596,-0.008555083985246622,0.003940007386733803,-0.0011275026214709828
1765408702.730192,-10.025970670173775,-0.04243838301116997,0.3124109291750319,-0.00854610624583725,0.0036367774687566983,-0.0011242205532856731
1765408702.730324,-10.033360753400045,-0.04146597514708478,0.31548994957215815,-0.0085329042327236,0.0032898873117852842,-0.001117247913599991
1765408702.730491,-10.039179440156637,-0.040439711687388094,0.3177174091695419,-0.00851358438238648,0.0028994993607494575,-0.001106347365037699
1765408702.730657,-10.043290729567309,-0.039359569279005815,0.31903465023009425,-0.008486640865946317,0.0024675608992242577,-0.0010912487978301712
1765408702.730824,-10.045610147430605,-0.03821971065636547,0.3194205092992904,-0.008451120595808206,0.001997647428913381,-0.0010717069964850362
1765408702.730991,-10.04610602400191,-0.03701042729984025,0.3188919653900998,-0.008406739253455198,0.00149473344369953,-0.001047549767791797
1765408702.731157,-10.044799412950955,-0.03572074467474024,0.31750355590014323,-0.008353935126395125,0.0009649273863319313,-0.0010187150281191625
1765408702.731441,-10.041762856247427,-0.03434137033325632,0.31534567126600527,-0.008293855830546289,0.0004151957809356538,-0.0009852798882368727
1765408702.731641,-10.037117855459234,-0.0328675053053321,0.31254145352381557,-0.008228280468586273,-0.00014691391094668075,-0.0009474833589032374
1765408702.731841,-10.031030788158711,-0.0313010383101328,0.30924199297937394,-0.00815948523788167,-0.0007135489939165089,-0.0009057387866858224
1765408702.732041,-10.023707031257764,-0.029651781283445113,0.3056196936027495,-0.008090065152357141,-0.0012768206304515349,-0.0008606279803870356
1765408702.732241,-10.01538322059794,-0.02793765720428299,0.3018600077760091,-0.008022729275854833,-0.001829058771960367,-0.0008128713533548447
1765408702.732356,-10.006317941310567,-0.026184032598048003,0.2981521944877485,-0.007960090405520226,-0.0023630484012243155,-0.0007632776779245176
1765408702.732556,-9.996781507372987,-0.024422538113045702,0.2946800123601091,-0.007904470438054118,-0.0028722469376348168,-0.0007126879250442408
1765408702.732756,-9.987045514365535,-0.022689644220197328,0.2916130055621801,-0.007857739835333869,-0.00335098191320173,-0.0006619329919468001
1765408702.732956,-9.977372555956515,-0.02102503701361112,0.28909853506721744,-0.007821205502423684,-0.0037946203588105974,-0.0006118210042904221
1765408702.733156,-9.968006299307197,-0.019469674453627985,0.2872545730497593,-0.0077955564277466145,-0.0041996911452385184,-0.0005631577707836293
1765408702.733446,-9.95916224738914,-0.018063460242550667,0.28616364409136347,-0.007780869913935343,-0.004563936948922807,-0.0005167895010932358
1765408702.733696,-9.951019709707982,-0.016842735293071877,0.28586859738562387,-0.007776673683467601,-0.004886280220405664,-0.0004736472416152792
1765408702.733946,-9.94371545146853,-0.015838038684910325,0.28637069891393924,-0.007782052068320259,-0.005166706773775519,-0.0004347725749169372
1765408702.734196,-9.93733931889205,-0.01507257823491244,0.28763013352490585,-0.007795779555152627,-0.005406091752534382,-0.000401313168143238
1765408702.735038,-9.93193213730265,-0.014561532784890793,0.289568880261839,-0.007816464299548943,-0.005606003064812782,-0.00037448836491918506
1765408702.735371,-9.927486296867535,-0.014311925566681009,0.29207600546386187,-0.007842688335100484,-0.0057685109799039255,-0.0003555317556812326
1765408702.735705,-9.923949362266411,-0.014322678773314574,0.2950153225053783,-0.007873136358498973,-0.005896016156087256,-0.0003456168379996983
1765408702.737424,-9.921230685737456,-0.0145846788258289,0.29823505416195506,-0.007906706444127975,-0.005991095563685616,-0.0003457681410312603
1765408702.740391,-9.919210604610987,-0.015081029554678832,0.3015788781352703,-0.007942594081567698,-0.00605636354567674,-0.00035676110160649273
1765408702.742385,-9.917751502493049,-0.015787824187375565,0.3048975711233702,-0.00798034036047397,-0.006094348781373018,-0.0003790214470086242
1765408702.745356,-9.916709707685506,-0.016675596436329255,0.308060169232705,-0.008019839050975173,-0.006107390091383582,-0.0004125425868547024
1765408702.748412,-9.915946928045145,-0.01771126903785722,0.31096323139889526,-0.008061304343319406,-0.006097554767483259,-0.0004568399809170336
1765408702.750366,-9.915339973114367,-0.018860189648347316,0.31353691265491496,-0.008105208127678029,-0.00606658552874232,-0.0005109529901790227
1765408702.752451,-9.914787987014371,-0.020087910233312203,0.31574726848957313,-0.008152200215474206,-0.006015884274271088,-0.0005734923826477137
1765408702.755346,-9.914216951386242,-0.021361652132742694,0.3175949968696651,-0.008203024137329963,-0.005946537104455409,-0.0006427231957681335
1765408702.757409,-9.913581466289882,-0.022651627155863326,0.3191111879292097,-0.008258434619372526,-0.005859375438977058,-0.0007166720697667927
1765408702.760355,-9.912863873302353,-0.023932328718789548,0.32035071773946167,-0.008319114848593646,-0.0057550587060238335,-0.0007932513004909222
1765408702.762417,-9.912070921243279,-0.025183622041218833,0.3213840229603626,-0.0083855887031853,-0.005634160227979194,-0.0008703907416963604
1765408702.763407,-9.911228405887568,-0.026391244699374684,0.3222881202778966,-0.008458128255304313,-0.00549724011736049,-0.0009461614248972666
1765408702.767349,-9.910374402584207,-0.027546429424071834,0.32313774708832255,-0.008536666642143018,-0.005344895678366016,-0.001018868503774753
1765408702.77038,-9.909551855372726,-0.028644738005576424,0.3239974589191264,-0.008620733465168732,-0.005177787755278182,-0.001087094685173061
1765408702.771322,-9.908801417729212,-0.029684542198578096,0.32491548134693377,-0.008709429186132543,-0.0049966453819103715,-0.0011496904789850563
1765408702.775356,-9.908155411905245,-0.030665631691046528,0.32591991462668507,-0.00880144782324568,-0.00480224965370965,-0.0012057270009729877
1765408702.778364,-9.907633463056587,-0.031588196058622155,0.3270174309251567,-0.008895148071082689,-0.0045953978715265005,-0.001254439371415556
1765408702.78037,-9.907239950719614,-0.03245217093324571,0.328194123997643,-0.008988664594237068,-0.00437685626168242,-0.0012951872778586642
1765408702.782337,-9.906963209128783,-0.03325685188502242,0.32941796808461,-0.009080044935761427,-0.0041473176702315016,-0.0013274468110682776
1765408702.785364,-9.906776447516563,-0.03400075031409652,0.3306424189523849,-0.009167394534662707,-0.00390737984960306,-0.0013508334528722938
1765408702.787399,-9.906640425742358,-0.03468175993662667,0.3318108365542408,-0.009249012928992177,-0.0036575517630656642,-0.00136514777538246
1765408702.790354,-9.906507811631382,-0.035297707868861904,0.3328614725485086,-0.009323506437431225,-0.003398288210050673,-0.00137043355146034
1765408702.79236,-9.906328872902145,-0.035847272023538705,0.3337327097530384,-0.009389864358740776,-0.003130049166716134,-0.001367038036900271
1765408702.795382,-9.906057873206048,-0.03633113027508129,0.3343681134831921,-0.009447487079004271,-0.0028533761147627626,-0.0013556634109454307
1765408702.797385,-9.905659411345752,-0.03675312557497263,0.3347207866743972,-0.009496158027802069,-0.002568973315433071,-0.0013373983182959183
1765408702.800388,-9.905114000781975,-0.037121187394708724,0.3347566087348313,-0.009535959598792125,-0.002277780526340554,-0.0013137207192952317
1765408702.802391,-9.904422313826723,-0.03744775415077525,0.3344561249089921,-0.00956714483283247,-0.001981024996640896,-0.0012864661487082601
1765408702.805389,-9.9036076111453,-0.03774953837604542,0.3338150374303694,-0.009589987724557297,-0.0016802422701260413,-0.0012577571263240142
1765408702.80744,-9.902716003115733,-0.03804666051928338,0.3328434306709765,-0.009604641584933918,-0.0013772577772398235,-0.0012298917252579846
1765408702.808404,-9.901814420249249,-0.03836134465165327,0.33156402572900256,-0.009611034562441731,-0.0010741272228155508,-0.0012051955224635774
1765408702.81358,-9.90098642264635,-0.03871640524754345,0.3300097894372632,-0.00960882332211943,-0.0007730432971168831,-0.0011858505124983942
1765408702.815361,-9.900326158302382,-0.03913365057499891,0.3282211162978505,-0.009597412302108756,-0.00047622519195075264,-0.0011737216738841134
1765408702.818494,-9.899930965069736,-0.03963220844984263,0.3262427664699382,-0.00957603274395643,-0.00018581208875073218,-0.0011702021889715105
1765408702.820387,-9.899893394969272,-0.04022679239367215,0.32412087727263966,-0.009543868404881289,9.621867184778278e-05,-0.0011760925897808811
1765408702.826139,-9.900293704496537,-0.040926081290776316,0.3219004796954602,-0.009500214060495818,0.00036809288176892473,-0.0011915225422786627
1765408702.826639,-9.901193882212995,-0.04173152865259629,0.31962386073435983,-0.00944465394175915,0.0006282321281839291,-0.001215920813919604
1765408702.827394,-9.902634005227041,-0.042636896455084616,0.3173298622485889,-0.00937724522593308,0.0008751986606634637,-0.0012480381733537915
1765408702.830324,-9.904631233447619,-0.04362862600738737,0.31505391901361407,-0.009298686062350608,0.0011076021372988033,-0.0012860258182989179
1765408702.833339,-9.907181230664174,-0.044686938168986876,0.3128284025287313,-0.009210442155148145,0.0013239854935718329,-0.0013275670356108972
1765408702.835296,-9.910261412335496,-0.04578741742171402,0.3106827846783693,-0.009114805508568583,0.0015227120757906032,-0.0013700532036745403
1765408702.837394,-9.913835260626477,-0.04690281970515474,0.3086433487000674,-0.009014865789883877,0.001701877840228579,-0.0014107882173391183
1765408702.840328,-9.917856966304912,-0.0480049074406704,0.3067325058325667,-0.008914386822020948,0.0018592704320990012,-0.0014471998742940362
1765408702.841297,-9.922275738150018,-0.049066171485274285,0.30496798554654414,-0.00881759362417665,0.001992389988653197,-0.0014770351522525277
1765408702.845342,-9.92703925104167,-0.050061297557001366,0.30336221473178065,-0.008728885997765305,0.002098535085949299,-0.0014985191534750213
1765408702.847357,-9.932095923100173,-0.05096820051228296,0.301922178828191,-0.00865250212492657,0.002174945975365908,-0.001510463111377579
1765408702.849321,-9.937395945283782,-0.051768465879656174,0.30064994401682976,-0.008592160634669726,0.002218990255569818,-0.0015123137535597467
1765408702.85237,-9.942891130929706,-0.052447166320657525,0.2995437733680999,-0.008550713248742663,0.0022283721858374433,-0.0015041439895899132
1765408702.853316,-9.948533759422872,-0.05299222609304259,0.29859954998793076,-0.0085298431543966,0.002201343041517373,-0.0014865924477429485
1765408702.857317,-9.954274748766986,-0.05339366658992095,0.29781220629887317,-0.008529845590025209,0.002136887824813506,-0.0014607650288993048
1765408702.860337,-9.960061631182963,-0.053643079598904214,0.2971769681942915,-0.008549524115623677,0.002034867335330377,-0.001428113805368327
1765408702.862328,-9.965836789991211,-0.05373354321283251,0.29669027174926454,-0.008586226372885492,0.0018961036064240294,-0.0013903071563625506
1765408702.865403,-9.971536265257019,-0.05365999260611433,0.29635020436127374,-0.008636026589226523,0.0017224058516238398,-0.0013491014032755101
1765408702.867435,-9.977089262721416,-0.053419869973080104,0.29615634955090925,-0.008694041106885826,0.0015165399893234742,-0.0013062202153907667
1765408702.87038,-9.982418349865545,-0.05301377451840277,0.2961089461078695,-0.008754842566370723,0.0012821484132248052,-0.0012632451546529823
1765408702.871351,-9.987440222231404,-0.05244584776843468,0.2962073119256886,-0.008812923936558045,0.0010236293270833835,-0.0012215200017132543
1765408702.875305,-9.99206696053795,-0.05172374435573215,0.29644767362178814,-0.008863160212249746,0.000745986326162484,-0.001182073063121933
1765408702.877374,-9.996207875135408,-0.0508582044142196,0.29682087136099855,-0.008901223515979405,0.0004546583940230508,-0.0011455637336771566
1765408702.880328,-9.99977215824456,-0.04986239702218951,0.2973105824606107,-0.008923921028450013,0.00015533819969794653,-0.001112259925389147
1765408702.883303,-10.002672472176265,-0.048751270571988865,0.29789256910655637,-0.008929437892795095,-0.00014621657710218924,-0.001082051454185058
1765408702.885372,-10.004829361188351,-0.0475410888843759,0.29853519864921213,-0.008917475671834938,-0.00044437610744748154,-0.0010545025115965305
1765408702.888339,-10.00617614089049,-0.04624920900789113,0.2992012801531094,-0.008889281487168114,-0.0007338318932647162,-0.001028943855087994
1765408702.890374,-10.006663737683377,-0.044894068568879834,0.29985103720263545,-0.008847566905595163,-0.0010097857120754115,-0.0010046007635802288
1765408702.893384,-10.006264821919537,-0.04349532825540142,0.3004457768605772,-0.008796323027263249,-0.0012681299272696896,-0.0009807462624875274
1765408702.895369,-10.004976554201718,-0.04207410478176724,0.3009516693161235,-0.008740549271501079,-0.0015056183045779321,-0.000956863467792706
1765408702.898302,-10.002821379201562,-0.04065318082227438,0.3013430552829044,-0.008685923300867765,-0.00172002681025871,-0.0009327989286593273
1765408702.900294,-9.999845534877208,-0.039257013736521566,0.3016047179841405,-0.008638443613745838,-0.001910297130836647,-0.000908890478292663
1765408702.903326,-9.996115288632282,-0.037911363251789676,0.30173259610680264,-0.00860407366654203,-0.002076643465931346,-0.0008860556848153538
1765408702.903826,-9.99171135357047,-0.03664247024833662,0.30173264437107894,-0.008588408996414552,-0.0022205925582013406,-0.0008658283390030595
1765408702.906426,-9.986722371409822,-0.035475902647296394,0.3016180129483388,-0.008596379192614446,-0.002344926435937764,-0.0008503311717494564
1765408702.910399,-9.981238603512347,-0.034435329447019956,0.30140521981590496,-0.008631986789606758,-0.0024535112226483865,-0.0008421758068276412
1765408702.912352,-9.975346932634144,-0.03354148717797289,0.3011102773313623,-0.008698078186711056,-0.002551018701909679,-0.0008442877490208287
1765408702.915407,-9.969127934661074,-0.032811438059425935,0.3007456690405295,-0.008796141697047193,-0.0026425675688053017,-0.0008596647932958319
1765408702.917428,-9.962655229004278,-0.032257981250249534,0.30031870899194957,-0.008926136717296845,-0.002733318838566132,-0.000891089735322175
1765408702.920408,-9.955996772954528,-0.031888954075264125,0.29983139274729437,-0.009086371853976443,-0.00282805758927913,-0.0009408294801426552
1765408702.926044,-9.949217464510962,-0.031706273309952425,0.2992816145954308,-0.009273460463471607,-0.0029307913603229983,-0.001010358492952649
1765408702.926544,-9.94238241750048,-0.031704837191406814,0.29866559231666345,-0.009482382756444497,-0.0030443980047938743,-0.0011001418963364198
1765408702.927338,-9.93556040569204,-0.03187162226519043,0.2979813102301858,-0.009706673307690632,-0.003170357560652838,-0.0012095027363674842
1765408702.93038,-9.928827050579097,-0.03218534053944221,0.2972326353410266,-0.009938735936051744,-0.003308598802080583,-0.0013365834999836523
1765408702.932402,-9.922267311457334,-0.03261692447631283,0.29643353418954876,-0.010170270968991086,-0.0034574806362969745,-0.0014783999764486416
1765408702.935405,-9.915976780374297,-0.03313098281135996,0.29561159145735766,-0.010392786682812188,-0.0036139120483326868,-0.001630979323667387
1765408702.937395,-9.910061254589014,-0.03368825161610118,0.2948098756260077,-0.010598156546954911,-0.0037735942462996473,-0.0017895724286245578
1765408702.940319,-9.904634169253345,-0.03424893505340267,0.2940863137280063,-0.010779175632798713,-0.003931349894632917,-0.0019489301898717281
1765408702.941367,-9.899811807884632,-0.034776679577695944,0.29351026567185556,-0.010930065380423197,-0.004081491385743373,-0.002103631627264681
1765408702.943331,-9.895706631903911,-0.03524276202590717,0.29315668561548414,-0.01104687887482377,-0.004218175537263777,-0.002248446328191674
1765408702.947337,-9.892419325849053,-0.035629923873036144,0.293098718460058,-0.011127768391841621,-0.004335697777486551,-0.002378703834628684
1765408702.9503,-9.890030196926006,-0.03593521594366978,0.29339970679577615,-0.011173090144605574,-0.00442869486085548,-0.002490632421408526
1765408702.95228,-9.888590575791822,-0.036171302712068684,0.2941055392870541,-0.011185335796034201,-0.004492246377179606,-0.0025816269868076374
1765408702.955299,-9.88811494809944,-0.03636591571145484,0.29523814299734547,-0.01116889549970161,-0.00452188417374038,-0.002650414226140703
1765408702.957338,-9.888574657840902,-0.03655945786371888,0.29679074132415445,-0.011129670646453349,-0.0045135324857313594,-0.0026970989859111346
1765408702.960313,-9.889894105069933,-0.03680104627603292,0.2987253773488752,-0.011074563376317034,-0.004463412014600061,-0.002723091328262221
1765408702.961354,-9.891950348768667,-0.03714348555487195,0.3009731651537655,-0.011010876321603169,-0.004367948077453663,-0.002730925394111921
1765408702.96534,-9.894576794198246,-0.03763776841392909,0.3034375962188135,-0.01094566650450843,-0.004223722791617249,-0.0027239906348953263
1765408702.967332,-9.89757112326059,-0.038327701926904274,0.3060008469156349,-0.01088511393170628,-0.004027502589637195,-0.002706206478969087
1765408702.968328,-9.900706956301887,-0.0392451787924366,0.3085325261102659,-0.01083398031026193,-0.0037763568877478286,-0.0026816803800521474
1765408702.972358,-9.903748189192179,-0.040406505765878085,0.3108999364724153,-0.010795233934865102,-0.0034678646231793364,-0.0026543899914021696
1765408702.973325,-9.906464706780687,-0.041810104957285384,0.31297885227582006,-0.01076989593759832,-0.003100387527158319,-0.0026279214066635666
1765408702.977276,-9.908648184732689,-0.04343580551581176,0.3146639592725135,-0.01075712469684752,-0.0026733778284796007,-0.0026052822105429824
1765408702.979292,-9.910126786779735,-0.04524580205860707,0.3158782363149378,-0.01075451266327513,-0.0021876853754798707,-0.002588795436841593
1765408702.981448,-9.910777660274896,-0.04718715724877142,0.3165805537969945,-0.01075853730278682,-0.0016458317319639623,-0.002580069756670079
1765408702.985381,-9.91053629216314,-0.04919551781874023,0.31677071757110975,-0.010765091714564098,-0.0010522223346589351,-0.0025800328016277996
1765408702.987323,-9.909402062751315,-0.0511995819658488,0.3164912768253707,-0.010770019689471444,-0.00041327092913673855,-0.002589009441491468
1765408702.990274,-9.907439652497299,-0.05312583400283368,0.315825696020151,-0.010769591468705122,0.00026258529484963095,-0.0026068255849732882
1765408702.993343,-9.904776217300816,-0.05490309952673947,0.3148929007679033,-0.010760876687784748,0.0009649946882454538,-0.0026329204021178078
1765408702.995328,-9.90159444031585,-0.05646653735247196,0.3138386290589013,-0.010741994219831848,0.0016819300032414632,-0.002666454476841104
1765408702.998351,-9.898121737822978,-0.05776080668794219,0.3128242934582775,-0.010712238213381986,0.0024000527435464295,-0.0027064061994715102
1765408702.998851,-9.894616101451422,-0.05874233541376549,0.31201411841902477,-0.010672091326347187,0.0031051884319029874,-0.0027516525723739692
1765408703.002448,-9.89134937835382,-0.059380787452403105,0.3115613321457642,-0.010623140173577853,0.00378288911412067,-0.0028010339151009426
1765408703.003363,-9.88858922336573,-0.05965989845332268,0.3115943855712897,-0.010567908205931896,0.004419053253400014,-0.002853404972261239
1765408703.007333,-9.886581300310437,-0.059577807519793066,0.31220447609636753,-0.010509621656002487,0.005000571540543207,-0.002907676665616541
1765408703.010362,-9.885533308616807,-0.05914690779552724,0.3134357818338266,-0.010451926042420614,0.005515968699766256,-0.002962852025811796
1765408703.012323,-9.885602062996377,-0.05839313626006752,0.31527961749087424,-0.010398573356485257,0.005956011294725825,-0.0030180572366919974
1765408703.015357,-9.88688441931732,-0.057354575333470895,0.3176733081376745,-0.010353103353501166,0.00631424646866221,-0.003072566651458316
1765408703.017339,-9.889412517846594,-0.05607927325074484,0.32050406297595246,-0.010318547024725849,0.006587429329615052,-0.0031258209770073336
1765408703.020348,-9.893153543949095,-0.0546223086953373,0.3236175212064123,-0.010297185263737012,0.006775793807888679,-0.0031774397959647128
1765408703.02235,-9.898013846114639,-0.05304229354411082,0.3268299639777006,-0.010290395844055158,0.006883127499552656,-0.0032272305878696945
1765408703.025293,-9.903846828902797,-0.05139765417819398,0.3299426517181466,-0.010298611220912838,0.006916625278137832,-0.0032751944904702043
1765408703.026732,-9.910463722117969,-0.04974309600316438,0.3327566428505833,-0.010321388880622897,0.006886516149017728,-0.0033215249382753313
1765408703.030376,-9.917646218970802,-0.04812663109512512,0.33508682229664566,-0.010357573010430422,0.006805478100810553,-0.0033665923575584957
1765408703.032405,-9.925160006489625,-0.046587454235057155,0.3367743665572216,-0.010405509968323208,0.006687872820769898,-0.003410909388076957
1765408703.035346,-9.93276825987474,-0.04515479447633975,0.3376970697482934,-0.010463274336465017,0.006548845647730067,-0.003455076490372468
1765408703.037334,-9.94024422910613,-0.04384767002139353,0.33777682992786195,-0.010528866269406302,0.006403348061810488,-0.0034997145344410297
1765408703.040335,-9.94738216621347,-0.04267530569755038,0.33698351771258744,-0.010600351629044656,0.006265152549992224,-0.003545396330990787
1765408703.042356,-9.954005989666022,-0.041637917876727805,0.3353346859987409,-0.01067593198345712,0.006145942143453422,-0.0035925906094446338
1765408703.045317,-9.959975203025374,-0.04072765649507542,0.3328910776490025,-0.010753949652058841,0.006054562554217367,-0.0036416274899861473
1765408703.046329,-9.965187790945691,-0.03992966316790301,0.32974852810478533,-0.010832848823417444,0.005996514264932368,-0.0036926854630472848
1765408703.049923,-9.969580247060854,-0.039223353611293484,0.3260275307952702,-0.010911122012561213,0.0059737332427980475,-0.003745792502761967
1765408703.052343,-9.973125388079023,-0.03858406798985326,0.32186215132125795,-0.010987270561538313,0.005984670451558479,-0.003800833175024957
1765408703.055303,-9.975828828245401,-0.03798514168280462,0.31738986257637386,-0.011059801610549905,0.006024641656402335,-0.003857557767555337
1765408703.057328,-9.977724841166646,-0.03740031361970444,0.31274334538645643,-0.01112727446473115,0.0060863863714590806,-0.0039155935524727665
1765408703.060276,-9.978872058411548,-0.03680630484718033,0.30804473749658867,-0.01118839652000622,0.0061607553344223895,-0.003974459877299226
1765408703.062294,-9.97934921624706,-0.03618538133930624,0.30340236552770317,-0.01124215463407769,0.006237446544612931,-0.004033588520600549
1765408703.06332,-9.979250915726865,-0.0355277005093724,0.2989095594735934,-0.01128795783317291,0.006305728135343009,-0.004092349762021488
1765408703.068373,-9.978683115787216,-0.03483317482937436,0.29464477841972136,-0.011325765525381035,0.0063551088866307835,-0.004150083223455959
1765408703.070416,-9.977758017928037,-0.03411250432721482,0.2906721914058289,-0.011356178903530632,0.006375932154943421,-0.004206130267844755
1765408703.072336,-9.97658819271656,-0.0333870666840753,0.2870420684558479,-0.01138047687554716,0.006359875874001867,-0.004259861194215378
1765408703.07534,-9.975280035088572,-0.03268760347634385,0.28379059575357424,-0.01140058167415247,0.006300346363690871,-0.004310686826218274
1765408703.077351,-9.973926750324615,-0.032051993127751026,0.28093891310995334,-0.011418946214429673,0.006192760633553561,-0.004358043661541505
1765408703.080334,-9.972601197794159,-0.03152259774000633,0.2784914135755348,-0.011438365816901684,0.0060347201587054415,-0.004401348078487246
1765408703.08236,-9.971349232827297,-0.03114357239920468,0.27643373104324626,-0.01146172984347854,0.005826086657987974,-0.004439928169402894
1765408703.085371,-9.970184584526978,-0.030958259899782768,0.27473122634043534,-0.011491742421717323,0.005568973841651846,-0.004472955664304749
1765408703.086389,-9.9690864982468,-0.031006612541183712,0.2733289528198711,-0.011530651425074883,0.005267665959730241,-0.004499406223595436
1765408703.090343,-9.968001169155558,-0.03132260958027871,0.27215394507214535,-0.011580025052207062,0.004928467729064927,-0.004518069060816159
1765408703.092333,-9.966847406900168,-0.03193179935723724,0.27112025311022053,-0.011640603997268255,0.004559488309867309,-0.004527609771945356
1765408703.09532,-9.965526160199568,-0.03284924460881729,0.2701365624934885,-0.011712240910503685,0.004170365999064411,-0.004526673465587189
1765408703.09733,-9.963932794223012,-0.03407818437014218,0.2691157379950658,-0.011793926967228207,0.003771942769911445,-0.0045140085098500414
1765408703.098372,-9.961970660422288,-0.03560960171836651,0.26798538405354716,-0.011883900225755301,0.003375892586842242,-0.0044885960951304114
1765408703.103277,-9.959564534800837,-0.037422663833053746,0.2666983941856342,-0.011979826018510517,0.0029942987177905677,-0.00444977947355963
1765408703.103777,-9.956672584236289,-0.03948585315336524,0.2652421827088994,-0.012079030732445352,0.002639173063631773,-0.004397389622444137
1765408703.10736,-9.953295408318033,-0.04175863444807096,0.263644925200329,-0.012178759750615905,0.0023219205091413015,-0.004331859861650706
1765408703.110361,-9.949480649006773,-0.044193566180927395,0.26197716394739773,-0.012276425306324733,0.002052770422687962,-0.004254317538986387
1765408703.113343,-9.945322131216376,-0.04673868131044126,0.2603478937503383,-0.012369814826762306,0.0018402169328075204,-0.004166642066219475
1765408703.115385,-9.940953514650765,-0.049339781621673996,0.2588954420679049,-0.012457242937562393,0.0016905213134258063,-0.004071484022783547
1765408703.118359,-9.93653743906464,-0.05194223476374117,0.2577744315157543,-0.012537644295583291,0.0016073303591119385,-0.003972244232799398
1765408703.120364,-9.932251606382566,-0.05449205263470902,0.2571404883848889,-0.012610613597476172,0.0015914551375236154,-0.003873010710611461
1765408703.123384,-9.928273204398275,-0.05693635729845582,0.25713431757284266,-0.012676400445700741,0.001640838502548245,-0.0037784462931494383
1765408703.125311,-9.924762928593431,-0.05922359461331485,0.2578666466523696,-0.012735861468222146,0.001750721739258707,-0.0036936165975098773
1765408703.128349,-9.921849831927485,-0.061303903518772226,0.2594054685074379,-0.012790366071279978,0.0019140035488256345,-0.003623752756354143
1765408703.130376,-9.919618289024257,-0.06312991298557892,0.2617669375130408,-0.012841653266672356,0.0021217670663202367,-0.0035739568515059357
1765408703.131373,-9.918098368793455,-0.06465802462538921,0.2649110979945655,-0.012891647642119258,0.0023639306882402215,-0.0035488743050120846
