time,acc_x_g,acc_y_g,acc_z_g,gyro_x_rad_s,gyro_y_rad_s,gyro_z_rad_s
1765410706.862616,-6.324724,4.211501,6.306790,-0.005040,-0.007483,-0.001069
1765410706.862816,-6.493304,4.177427,6.544715,-0.009163,-0.010385,0.000916
1765410706.863016,-6.561453,4.182209,6.534552,-0.009468,-0.006261,-0.002749
1765410706.863216,-6.419177,4.200143,6.354614,-0.007941,-0.005345,-0.002138
1765410706.863523,-6.356408,4.204926,6.328311,-0.008552,-0.007330,-0.001374
1765410706.863773,-6.432328,4.185796,6.426350,-0.006872,-0.009927,-0.000305
1765410706.864023,-6.578192,4.143352,6.590147,-0.009621,-0.008552,-0.002291
1765410706.864273,-6.455044,4.128407,6.441295,-0.005956,-0.005651,-0.002291
1765410706.864448,-6.293638,4.196556,6.299616,-0.006261,-0.005651,-0.002138
1765410706.864648,-6.245815,4.442850,6.341463,-0.007941,-0.006720,-0.008705
1765410706.864848,-6.262553,4.516977,6.411406,-0.009163,-0.007330,-0.004581
1765410706.865048,-6.249402,4.428503,6.516020,-0.010996,-0.002291,0.000764
1765410706.865248,-6.249402,4.428503,6.516020,-0.010996,-0.001374,0.000764
1765410706.865486,-5.979196,4.319703,6.383308,-0.014508,-0.000916,-0.009010
1765410706.865736,-5.909253,4.556432,6.486130,-0.019395,-0.002902,-0.013897
1765410706.865986,-5.884743,4.711860,6.487326,-0.022144,-0.003818,-0.015424
1765410706.866236,-5.850071,4.851745,6.514824,-0.034056,-0.004429,-0.015577
1765410706.866382,-5.807030,4.864299,6.478956,-0.034056,-0.001069,-0.015577
1765410706.866632,-5.781921,4.917503,6.468196,-0.063835,0.000458,-0.016646
1765410706.866882,-5.939741,4.936632,6.775465,-0.076816,0.005803,-0.022907
1765410706.867132,-6.038975,4.976087,6.913558,-0.092393,0.003360,-0.026114
1765410706.867404,-5.957675,4.966523,7.028933,-0.105985,0.003360,-0.031001
1765410706.867654,-5.839311,5.040649,7.015781,-0.116828,0.001069,-0.035583
1765410706.867904,-5.697034,4.947393,6.984695,-0.128587,-0.004429,-0.039095
1765410706.868154,-5.596604,4.797943,6.942849,-0.141873,-0.007330,-0.046426
1765410706.868499,-5.476446,4.652080,6.795193,-0.147371,-0.015272,-0.052687
1765410706.868699,-5.655188,4.643710,6.777856,-0.153022,-0.016646,-0.067348
1765410706.868899,-5.722142,4.660449,7.088713,-0.151189,-0.012523,-0.075747
1765410706.869099,-5.625896,4.762075,7.173600,-0.156534,-0.001374,-0.085216
1765410706.869299,-5.294715,4.674199,6.814920,-0.164475,-0.008094,-0.090713
1765410706.869482,-5.014347,4.643710,6.542323,-0.171806,-0.014050,-0.097128
1765410706.869732,-5.192491,4.774629,6.963175,-0.182191,-0.014050,-0.113163
1765410706.869982,-5.318029,4.821855,7.193328,-0.185856,-0.003512,-0.120188
1765410706.870232,-5.231348,4.601864,7.340984,-0.194408,-0.003054,-0.120951
1765410706.870484,-4.882233,4.543280,6.582974,-0.194408,-0.013744,-0.130420
1765410706.870817,-4.995815,4.521759,7.001434,-0.199753,-0.014966,-0.149509
1765410706.871151,-5.375418,4.594691,7.498804,-0.191506,-0.003360,-0.158825
1765410706.871423,-5.516499,4.642515,7.989597,-0.189979,-0.001374,-0.157603
1765410706.871673,-5.253467,4.653873,7.482065,-0.191812,-0.006872,-0.172264
1765410706.871923,-4.995815,4.478120,6.796986,-0.194713,-0.014050,-0.178525
1765410706.872173,-4.884026,4.411764,6.906981,-0.192575,-0.014355,-0.188757
1765410706.872523,-5.365853,4.645504,7.825800,-0.189368,0.000764,-0.200517
1765410706.872773,-5.373624,4.474533,7.923242,-0.186161,0.008858,-0.200517
1765410706.873023,-4.893591,3.874940,7.251314,-0.188757,-0.018021,-0.202960
1765410706.873273,-4.811094,3.744619,6.926111,-0.180511,-0.018021,-0.219911
1765410706.873421,-5.411286,4.313725,8.014107,-0.175471,-0.006109,-0.235336
1765410706.873671,-5.362266,4.314920,7.668579,-0.182496,0.007483,-0.237779
1765410706.873921,-5.295313,4.020803,7.969272,-0.186772,0.003665,-0.233198
1765410706.874171,-5.010162,3.774509,7.219631,-0.173180,-0.002902,-0.235336
1765410706.874471,-5.155427,3.397895,7.975848,-0.171806,-0.002902,-0.243430
1765410706.874721,-5.533835,3.177307,8.396699,-0.164781,-0.005192,-0.265421
1765410706.874971,-5.322811,3.035629,7.780367,-0.155465,0.000153,-0.279624
1765410706.875221,-4.828431,3.426590,7.223815,-0.145233,-0.004429,-0.292452
1765410706.875409,-4.641319,3.800812,7.459349,-0.149204,-0.002749,-0.301767
1765410706.875659,-4.739358,3.492347,7.643471,-0.148746,-0.002749,-0.291994
1765410706.875909,-4.814681,2.930416,7.743902,-0.140652,-0.008247,-0.298255
1765410706.876159,-4.668818,2.908895,7.052845,-0.129503,0.005803,-0.318108
1765410706.876421,-4.534911,3.108560,7.159253,-0.124464,0.016188,-0.330478
1765410706.876671,-4.534911,3.108560,7.159253,-0.124464,0.020311,-0.330478
1765410706.876921,-5.286943,3.401482,7.783954,-0.113163,0.014661,-0.326049
1765410706.877171,-5.426231,2.529292,8.083451,-0.113926,0.009468,-0.329867
1765410706.877392,-4.979674,2.877809,7.521520,-0.105222,0.038485,-0.358425
1765410706.877642,-5.150645,2.876016,7.971066,-0.102320,0.038485,-0.350484
1765410706.877892,-5.150645,2.876016,7.971066,-0.102320,0.045815,-0.350484
1765410706.878142,-5.203252,2.097083,7.600430,-0.091019,0.037110,-0.358272
1765410706.878451,-5.303682,2.181372,7.782758,-0.081398,0.060323,-0.375835
1765410706.878701,-5.787302,2.516738,8.511477,-0.071777,0.072235,-0.395535
1765410706.878951,-5.499760,2.662601,7.876613,-0.072082,0.082009,-0.384998
1765410706.879201,-5.499760,2.662601,7.876613,-0.072082,0.081856,-0.384998
1765410706.879513,-4.781204,2.230990,7.583691,-0.055436,0.088728,-0.389732
1765410706.879763,-5.052008,2.485054,7.849114,-0.048106,0.088728,-0.406836
1765410706.880013,-4.848158,2.376853,7.507173,-0.045051,0.089339,-0.394772
1765410706.880263,-4.840984,2.118603,7.655427,-0.029322,0.089339,-0.392023
1765410706.880473,-4.528933,1.954208,6.957197,-0.028711,0.100487,-0.409891
1765410706.880723,-5.169176,2.069584,7.852103,-0.026420,0.101862,-0.413709
1765410706.880973,-5.444763,1.972740,7.975848,-0.012523,0.122478,-0.429438
1765410706.881223,-5.604973,2.816834,7.976446,0.003512,0.129198,-0.429438
1765410706.881431,-5.553562,2.547824,8.250835,-0.002596,0.125380,-0.421802
1765410706.881681,-5.439382,2.599832,8.081060,0.008705,0.144622,-0.432340
1765410706.881931,-5.530846,2.744500,7.902318,0.019395,0.125991,-0.421039
1765410706.882181,-5.198469,1.915949,7.764226,0.014050,0.131183,-0.421039
1765410706.883439,-5.198469,1.915949,7.764226,0.014050,0.138056,-0.421039
1765410706.883689,-4.411764,1.853778,6.636178,0.023976,0.164323,-0.455553
1765410706.883939,-4.659253,2.297943,6.802964,0.039859,0.164323,-0.467923
1765410706.884189,-4.444045,2.822811,6.887254,0.048717,0.190590,-0.478766
1765410706.883522,-4.504423,3.033237,7.242945,0.054978,0.197615,-0.461051
1765410706.883772,-4.428503,2.813845,6.704925,0.054978,0.217621,-0.461051
1765410706.884022,-4.488282,2.715208,6.736011,0.061545,0.215025,-0.450819
1765410706.884272,-3.947871,2.182568,5.993543,0.058338,0.232892,-0.453109
1765410706.884631,-4.449426,2.682926,7.231587,0.074831,0.254578,-0.468686
1765410706.884881,-4.304758,2.624342,6.619440,0.076816,0.291230,-0.470366
1765410706.885131,-4.646102,2.694284,7.415112,0.075900,0.285427,-0.475100
1765410706.885381,-3.955045,3.030846,6.163318,0.086285,0.304974,-0.492968
1765410706.885476,-4.607843,3.620875,7.229794,0.093921,0.297950,-0.476933
1765410706.885726,-4.820659,3.197034,7.651242,0.087965,0.338267,-0.474948
1765410706.885976,-5.054996,3.051171,7.582496,0.083841,0.338267,-0.476169
1765410706.886226,-5.153036,2.720588,7.263270,0.094531,0.333685,-0.482584
1765410706.886464,-4.666427,2.723577,6.599712,0.094837,0.338877,-0.506865
1765410706.886714,-4.304758,3.525825,6.580583,0.097433,0.345139,-0.513738
1765410706.886964,-5.275585,4.102104,7.895742,0.106901,0.367588,-0.510072
1765410706.887214,-5.118364,3.805595,7.672166,0.099571,0.381638,-0.490830
1765410706.887514,-4.579746,2.959110,7.460544,0.082467,0.378584,-0.476017
1765410706.887764,-4.753706,2.864658,6.726446,0.100029,0.380722,-0.510225
1765410706.888014,-4.753706,2.864658,6.726446,0.100029,0.382860,-0.510225
1765410706.888264,-5.205643,3.572453,8.116331,0.098807,0.407905,-0.534202
1765410706.888537,-4.631754,3.690219,6.756934,0.112399,0.398131,-0.526108
1765410706.888787,-4.892395,3.414036,6.858560,0.110567,0.408974,-0.514501
1765410706.889037,-5.491391,3.207795,8.001553,0.123089,0.430965,-0.523664
1765410706.889287,-5.385580,2.998565,7.064203,0.116217,0.440128,-0.532980
1765410706.889454,-5.658775,3.371592,7.401960,0.109650,0.436005,-0.562454
1765410706.889704,-5.020325,3.818149,6.743184,0.127365,0.485485,-0.562912
1765410706.889954,-3.506695,3.747608,5.490793,0.122937,0.485485,-0.537103
1765410706.890204,-3.573051,3.461262,5.716762,0.126144,0.478766,-0.526566
1765410706.890624,-3.799019,2.774988,6.157938,0.124617,0.504727,-0.542448
1765410706.890874,-4.237206,2.605213,5.853658,0.130267,0.518625,-0.551153
1765410706.891124,-4.401003,2.919655,6.701338,0.131489,0.548099,-0.572686
1765410706.891374,-4.426111,3.549139,6.725250,0.129503,0.576504,-0.577268
1765410706.891515,-4.245576,3.464251,6.526183,0.121257,0.574672,-0.560469
1765410706.891765,-4.777617,3.258010,6.083213,0.133932,0.574672,-0.558025
1765410706.892015,-5.352702,2.758249,6.597321,0.135459,0.602313,-0.565967
1765410706.892265,-5.358679,2.768412,6.694763,0.138972,0.618807,-0.584598
1765410706.892473,-5.434002,3.080464,6.677426,0.138972,0.642478,-0.584598
1765410706.892723,-5.565518,3.866570,7.016977,0.142179,0.641714,-0.602466
1765410706.892973,-5.506336,3.812171,7.331419,0.135459,0.651030,-0.582002
1765410706.893223,-5.717360,3.638211,7.341582,0.144775,0.658360,-0.571923
1765410706.893439,-5.435197,3.082257,6.312768,0.145844,0.670425,-0.566119
1765410706.893689,-5.783715,2.834768,6.783835,0.146455,0.661109,-0.574061
1765410706.893939,-6.422763,2.776183,6.918938,0.149967,0.686918,-0.596815
1765410706.894189,-6.129841,2.991391,6.987086,0.150273,0.700968,-0.597273
1765410706.894394,-5.707794,3.271760,6.794595,0.145386,0.716239,-0.604146
1765410706.894644,-5.883548,3.505499,6.989478,0.143859,0.720516,-0.600786
1765410706.894894,-6.269727,3.381157,7.572333,0.151036,0.720516,-0.580475
1765410706.895144,-6.269727,3.381157,7.572333,0.151036,0.744034,-0.580475
1765410706.895423,-5.609157,2.104256,6.532759,0.158978,0.744950,-0.585056
1765410706.895756,-5.002988,2.252511,5.682687,0.163406,0.751364,-0.605673
1765410706.896090,-5.137493,2.893352,5.776541,0.168904,0.790154,-0.601091
1765410706.896515,-4.358560,2.827594,5.045432,0.169210,0.790154,-0.595288
1765410706.896765,-4.099712,2.319464,5.511716,0.159436,0.801150,-0.575740
1765410706.897015,-4.606647,2.012195,5.472261,0.171195,0.815352,-0.592997
1765410706.897265,-5.029890,2.193328,5.487804,0.175929,0.828333,-0.598801
1765410706.897463,-5.526063,2.681731,6.187828,0.186619,0.845437,-0.602160
1765410706.897713,-5.328192,2.873027,5.683883,0.175318,0.866971,-0.607658
1765410706.897963,-5.932568,2.919655,6.563844,0.180511,0.854142,-0.607658
1765410706.898213,-5.655188,2.111430,5.627091,0.173638,0.872316,-0.580016
1765410706.898456,-6.208751,2.187948,5.835723,0.190743,0.872316,-0.593608
1765410706.898706,-7.064801,2.565758,7.170013,0.188910,0.892780,-0.620028
1765410706.898956,-7.703849,2.896939,7.927426,0.189521,0.912174,-0.613767
1765410706.899206,-6.633189,2.942372,6.922524,0.193644,0.914313,-0.607964
1765410706.899478,-6.144189,3.136059,6.128645,0.198684,0.893085,-0.606131
1765410706.899728,-5.414873,2.262673,6.268531,0.186925,0.884838,-0.582307
1765410706.899978,-5.682089,2.324246,6.028813,0.199142,0.899346,-0.595899
1765410706.900228,-5.766977,2.195122,5.572094,0.200364,0.893696,-0.592539
1765410706.900407,-5.749640,1.969153,5.596006,0.196240,0.907440,-0.602771
1765410706.900657,-5.208034,2.415112,4.552247,0.215941,0.916145,-0.602619
1765410706.900907,-5.108799,2.598637,4.207316,0.213803,0.940274,-0.588263
1765410706.901157,-5.108799,2.598637,4.207316,0.213803,0.946688,-0.588263
1765410706.901433,-6.437110,1.905787,5.698827,0.202807,0.974025,-0.596204
1765410706.901683,-6.407818,1.719273,5.147656,0.212276,0.974025,-0.609033
1765410706.901933,-5.524868,2.032520,4.141558,0.213345,0.996779,-0.640798
1765410706.902183,-5.854256,3.063127,4.442252,0.225867,1.019687,-0.642630
1765410706.902513,-6.637971,3.431372,5.344930,0.239154,1.028239,-0.613461
1765410706.902763,-7.032519,3.239478,6.043758,0.222508,1.057713,-0.607505
1765410706.903013,-7.803084,3.286704,6.987684,0.223577,1.057713,-0.610713
1765410706.903263,-7.054040,2.771401,6.312171,0.215025,1.078483,-0.607811
1765410706.903458,-5.802247,2.639885,4.674796,0.221286,1.054659,-0.600939
1765410706.903791,-5.785509,3.220947,5.121951,0.217468,1.041678,-0.627817
1765410706.904125,-6.287661,3.406264,5.077714,0.206472,1.057560,-0.625679
1765410706.904419,-5.701817,3.375179,3.879722,0.216704,1.066113,-0.585972
1765410706.904669,-5.386776,2.813247,4.220468,0.222508,1.082300,-0.584445
1765410706.904919,-5.465088,2.367288,4.482903,0.209985,1.086882,-0.600022
1765410706.905169,-6.785030,2.698469,5.291726,0.207541,1.080621,-0.626442
1765410706.905479,-6.810138,3.047584,4.730989,0.219606,1.089936,-0.625373
1765410706.905729,-6.577593,3.513869,4.755499,0.216246,1.086882,-0.610865
1765410706.905979,-6.225490,3.357245,4.084768,0.206167,1.112996,-0.616210
1765410706.906229,-6.676230,2.869440,4.103897,0.212428,1.116967,-0.599870
1765410706.906536,-6.863939,2.296150,4.057866,0.212428,1.130712,-0.607964
1765410706.906786,-7.293160,2.939981,5.657579,0.207389,1.141554,-0.646906
1765410706.907036,-7.358919,3.177905,5.598995,0.195630,1.170570,-0.654542
1765410706.907286,-6.678622,3.539574,4.675992,0.203265,1.152092,-0.634384
1765410706.907545,-5.694643,2.960305,3.129483,0.190590,1.142929,-0.629038
1765410706.907795,-5.926589,2.545432,4.142754,0.195782,1.136667,-0.630718
1765410706.908045,-6.189621,2.211262,3.812769,0.202807,1.161407,-0.629497
1765410706.908295,-6.420372,2.475490,3.804399,0.213803,1.162324,-0.639118
1765410706.908492,-6.311573,2.719990,3.143233,0.194713,1.188897,-0.655153
1765410706.908742,-6.488521,3.360832,3.568866,0.202502,1.192562,-0.652251
1765410706.908992,-7.466522,3.173720,4.557029,0.202502,1.192562,-0.622624
1765410706.909242,-7.931611,2.553802,5.252271,0.189521,1.196532,-0.638660
1765410706.909493,-7.607603,2.572931,3.754782,0.191506,1.212262,-0.655611
1765410706.909743,-7.384026,2.545432,3.857006,0.200822,1.220814,-0.648892
1765410706.909993,-6.984695,2.753467,3.795432,0.200058,1.218676,-0.657596
1765410706.910243,-7.394786,3.317790,4.335246,0.186619,1.217454,-0.663400
1765410706.910526,-7.926828,3.139646,5.150645,0.178831,1.213942,-0.658513
1765410706.910776,-7.330224,2.431850,3.842061,0.184939,1.209819,-0.634078
1765410706.911026,-7.149688,1.786227,3.926350,0.186925,1.185079,-0.642783
1765410706.911276,-7.369679,1.980512,4.289813,0.189063,1.191798,-0.674242
1765410706.911499,-8.000956,2.523911,4.225251,0.190895,1.185537,-0.662483
1765410706.911832,-7.791128,2.759445,3.933524,0.196699,1.187064,-0.649044
1765410706.912166,-7.131754,2.693687,2.746293,0.183870,1.189049,-0.643852
1765410706.912448,-7.684121,2.621951,3.780487,0.182343,1.194089,-0.643241
1765410706.912698,-7.792921,2.068388,3.707556,0.185550,1.212720,-0.633315
1765410706.912948,-7.502988,1.728838,3.055954,0.186619,1.212720,-0.636674
1765410706.913198,-7.781563,1.725849,2.935198,0.182649,1.206459,-0.669203
1765410706.913497,-8.516259,2.730751,4.099712,0.191354,1.243263,-0.684322
1765410706.913747,-8.219750,3.364419,3.535389,0.196240,1.256550,-0.645532
1765410706.913997,-7.768411,2.664992,3.171927,0.172264,1.239751,-0.623235
1765410706.914247,-7.947154,1.856767,3.598756,0.177456,1.239751,-0.630260
1765410706.914508,-7.687708,1.159732,3.476207,0.176845,1.245249,-0.635300
1765410706.914758,-6.975729,1.725251,2.656623,0.189216,1.247540,-0.656833
1765410706.915008,-7.009803,2.794117,3.132472,0.182191,1.244332,-0.667065
1765410706.915258,-7.362505,2.941176,2.821018,0.176998,1.252274,-0.632704
1765410706.915526,-7.861070,2.549019,2.881396,0.174555,1.242194,-0.603229
1765410706.915776,-7.861070,2.549019,2.881396,0.174555,1.264644,-0.603229
1765410706.916026,-8.018291,1.402439,2.671568,0.163559,1.287398,-0.645532
1765410706.916276,-8.351266,2.381635,3.499521,0.173180,1.287398,-0.650877
1765410706.916497,-8.351266,2.381635,3.499521,0.173180,1.296103,-0.650877
1765410706.916747,-7.837159,2.834768,2.707436,0.164934,1.294576,-0.623541
1765410706.916997,-8.042802,1.939263,2.980631,0.164934,1.281137,-0.623541
1765410706.917247,-8.364418,1.903395,3.081062,0.179442,1.271058,-0.622166
1765410706.917504,-8.678861,1.649928,3.125298,0.160963,1.271058,-0.647670
1765410706.917837,-8.322572,2.193926,2.849115,0.162948,1.262658,-0.664469
1765410706.918171,-7.870037,2.603419,2.287183,0.161574,1.254717,-0.651488
1765410706.918490,-8.033834,2.895743,2.556193,0.166308,1.256397,-0.644616
1765410706.918740,-8.161166,2.357723,3.347680,0.149204,1.275487,-0.637438
1765410706.918990,-8.188067,2.126972,1.960784,0.160505,1.294576,-0.627664
1765410706.919240,-8.170133,1.950024,2.361908,0.163254,1.272127,-0.630260
1765410706.919503,-8.351864,2.321855,2.816834,0.143401,1.296103,-0.668134
1765410706.919753,-8.351864,2.905308,2.607604,0.144775,1.296561,-0.659582
1765410706.920003,-8.024867,2.590267,1.997848,0.146913,1.297478,-0.630260
1765410706.920253,-7.977641,2.124581,1.509445,0.144317,1.286635,-0.630871
1765410706.920422,-8.436751,1.783835,2.559780,0.135918,1.302365,-0.630871
1765410706.920672,-8.244858,1.879483,1.805356,0.136681,1.308931,-0.666301
1765410706.920922,-8.925155,2.478479,2.420492,0.146150,1.308931,-0.668439
1765410706.921172,-8.925155,2.478479,2.420492,0.146150,1.308931,-0.668439
1765410706.921467,-9.171448,3.305236,3.148015,0.118661,1.300074,-0.666301
1765410706.921717,-8.532997,2.997369,2.265662,0.121104,1.304655,-0.645074
1765410706.921967,-7.987804,2.388211,1.531564,0.125533,1.296714,-0.628580
1765410706.922217,-8.363820,2.363701,2.202893,0.113316,1.296714,-0.647823
1765410706.922460,-8.363820,2.363701,2.202893,0.113316,1.301296,-0.647823
1765410706.922710,-9.361548,2.415112,3.087039,0.110719,1.280221,-0.638660
1765410706.922960,-8.617886,2.515543,1.824486,0.106443,1.294118,-0.647975
1765410706.923210,-8.376373,2.801889,1.482544,0.102473,1.282512,-0.642936
1765410706.923484,-9.137373,2.031324,2.659014,0.091477,1.269989,-0.642172
1765410706.923734,-9.198349,2.138928,1.412004,0.103847,1.260826,-0.642019
1765410706.923984,-9.538497,2.171210,2.106647,0.099113,1.262811,-0.661262
1765410706.924234,-8.852820,2.776183,1.239837,0.087048,1.282970,-0.673784
1765410706.924512,-9.721423,3.266379,2.698469,0.085063,1.273043,-0.658971
1765410706.924762,-9.104494,2.800095,1.510641,0.080329,1.285108,-0.629955
1765410706.925012,-9.108081,1.966762,1.510043,0.063072,1.266934,-0.629649
1765410706.925262,-9.747727,1.912362,2.458153,0.067959,1.273807,-0.653320
1765410706.925544,-9.267097,1.296030,1.965567,0.069028,1.273960,-0.637591
1765410706.925794,-8.472022,1.649928,0.425634,0.075595,1.273960,-0.651946
1765410706.926044,-8.669296,1.873505,0.771760,0.067501,1.258688,-0.678366
1765410706.926294,-9.765661,2.608799,1.758130,0.066890,1.284039,-0.658971
1765410706.926469,-10.002987,1.850191,2.160449,0.064904,1.276556,-0.634842
1765410706.926719,-9.177425,1.673840,1.407221,0.056658,1.292285,-0.649808
1765410706.926969,-9.177425,1.673840,1.407221,0.056658,1.286788,-0.649808
1765410706.927219,-9.170252,1.787422,1.229077,0.062003,1.279763,-0.638812
1765410706.927496,-9.959349,1.814921,1.689383,0.066432,1.271669,-0.653320
1765410706.927746,-9.641916,2.339789,0.805834,0.066279,1.295187,-0.653931
1765410706.927996,-9.318506,1.813725,1.524988,0.048411,1.295187,-0.642325
1765410706.928246,-9.203132,1.918938,1.132233,0.054214,1.289842,-0.640645
1765410706.928448,-9.265303,0.911047,1.603300,0.045662,1.254564,-0.627359
1765410706.928698,-8.951457,1.313367,0.655189,0.048564,1.250136,-0.654084
1765410706.928948,-9.389645,1.745576,1.533357,0.054520,1.239446,-0.662483
1765410706.929198,-8.864179,1.996652,0.627690,0.043677,1.239446,-0.636216
1765410706.929466,-8.988521,1.843615,0.192492,0.044440,1.214706,-0.627664
1765410706.929716,-9.293399,1.270325,0.639646,0.031918,1.219287,-0.634231
1765410706.929966,-9.325082,1.175873,0.461502,0.038332,1.224021,-0.635758
1765410706.930216,-9.208511,1.455045,0.342539,0.037721,1.242805,-0.647975
1765410706.930494,-9.605451,1.921329,0.940339,0.042608,1.242958,-0.653015
1765410706.930744,-9.544475,2.234576,0.628886,0.033445,1.246929,-0.630260
1765410706.930994,-10.322213,2.063606,1.767695,0.038332,1.246471,-0.620486
1765410706.931244,-10.020324,1.216523,0.211023,0.020006,1.246012,-0.599564
1765410706.931496,-10.490793,1.060497,1.214730,0.038332,1.227992,-0.615752
1765410706.931746,-9.842180,0.648015,0.910449,0.024587,1.244027,-0.636522
1765410706.931996,-9.916306,1.654711,1.196198,0.026114,1.231810,-0.649502
1765410706.932246,-9.805116,2.305715,0.496174,0.023976,1.224785,-0.640492
1765410706.932476,-10.524867,2.543041,1.915351,0.036957,1.208597,-0.609033
1765410706.932726,-9.748325,1.591344,0.772358,0.020769,1.226617,-0.592692
1765410706.932976,-9.484097,1.201578,0.154232,0.016341,1.207986,-0.590249
1765410706.933226,-10.325203,0.500359,1.126853,0.012828,1.187217,-0.610865
1765410706.933427,-10.642035,1.611071,0.817790,0.028711,1.188438,-0.629802
1765410706.933677,-10.216402,2.207078,0.832138,0.020006,1.208597,-0.629802
1765410706.933927,-9.783595,2.327833,0.478240,0.010843,1.212567,-0.607353
1765410706.934177,-10.472260,1.581779,1.250598,0.007789,1.180344,-0.583376
1765410706.934435,-11.098756,0.992946,1.873505,0.014813,1.156215,-0.594525
1765410706.934685,-11.199186,1.276901,0.969034,0.008705,1.161560,-0.623693
1765410706.934935,-10.857243,1.929699,1.027020,0.006567,1.161560,-0.627053
1765410706.935185,-11.133427,2.140124,1.315160,-0.007025,1.136667,-0.621861
1765410706.935452,-10.841104,2.311095,1.248206,-0.000305,1.113913,-0.611782
1765410706.935702,-9.953967,1.508847,0.162602,-0.024435,1.112386,-0.605215
1765410706.935952,-10.147058,1.722860,0.895504,-0.003665,1.094823,-0.622166
1765410706.936202,-9.464370,1.349832,-0.617527,-0.021838,1.094823,-0.610102
1765410706.936498,-9.733380,1.776662,-0.640842,-0.021686,1.072985,-0.620792
1765410706.936748,-10.251074,1.701339,-0.302487,-0.022144,1.089784,-0.642630
1765410706.936998,-10.084887,2.282400,-0.059780,-0.024282,1.107651,-0.618654
1765410706.937248,-9.997607,2.162840,-0.523673,-0.024282,1.125214,-0.618654
1765410706.937420,-10.617526,1.621234,0.582257,-0.042455,1.098794,-0.618348
1765410706.937670,-10.875177,1.322931,-0.075323,-0.048717,1.107193,-0.611782
1765410706.937920,-10.967238,1.726446,0.242707,-0.029932,1.109331,-0.623846
1765410706.938170,-10.932567,2.082735,0.398135,-0.056200,1.109331,-0.636063
1765410706.938485,-10.932567,2.082735,0.398135,-0.056200,1.087035,-0.636063
1765410706.938735,-11.672644,1.538737,0.706002,-0.068570,1.070541,-0.598343
1765410706.938985,-11.739596,1.270325,0.807628,-0.068722,1.058171,-0.623999
1765410706.939235,-11.313366,1.372549,-0.233142,-0.075595,1.039235,-0.635605
1765410706.939451,-11.111908,1.727044,0.250478,-0.069180,1.039235,-0.639423
1765410706.939784,-11.111908,1.727044,0.250478,-0.069180,1.033737,-0.639423
1765410706.940118,-11.205163,2.098278,0.561932,-0.085216,1.014494,-0.621403
1765410706.940487,-10.829745,1.738402,0.008369,-0.090561,1.025337,-0.612851
1765410706.940737,-11.084408,1.737805,0.251674,-0.082161,0.990823,-0.602466
1765410706.940987,-11.197393,1.096365,0.298900,-0.096822,0.990823,-0.602771
1765410706.941237,-11.071256,0.982185,-0.190100,-0.093310,0.966694,-0.616363
1765410706.941455,-10.859634,1.891439,-0.749641,-0.089492,0.954935,-0.623693
1765410706.941705,-11.357005,1.796389,0.081301,-0.098807,0.954935,-0.608422
1765410706.941955,-11.286466,1.730033,-0.327594,-0.110261,0.976621,-0.601855
1765410706.942205,-11.652915,0.899091,-0.076518,-0.115454,0.946536,-0.587500
1765410706.942458,-11.602103,0.566714,0.205643,-0.113163,0.938900,-0.596663
1765410706.942708,-11.813724,0.912243,-0.033477,-0.107512,0.927293,-0.616516
1765410706.942958,-11.013868,1.697154,-0.502152,-0.113926,0.933555,-0.613614
1765410706.943208,-11.195599,1.856767,-0.176949,-0.113926,0.907593,-0.613614
1765410706.943502,-11.525584,1.330703,0.026303,-0.125838,0.891405,-0.565661
1765410706.943752,-11.740792,0.258250,-0.135103,-0.127518,0.878882,-0.567952
1765410706.944002,-10.735890,0.047824,-0.658776,-0.124158,0.892627,-0.591318
1765410706.944252,-11.079625,0.535629,0.209230,-0.119882,0.874454,-0.611629
1765410706.944480,-11.079625,0.535629,0.209230,-0.119882,0.868650,-0.611629
1765410706.944730,-10.948110,1.404232,-0.563725,-0.116370,0.824210,-0.594525
1765410706.944980,-11.574604,1.238642,0.429818,-0.133321,0.843147,-0.587958
1765410706.945230,-11.451457,0.731707,0.077714,-0.130114,0.828639,-0.578795
1765410706.945461,-12.373264,0.524868,0.685079,-0.134238,0.808633,-0.587958
1765410706.945711,-12.030128,0.777738,0.309660,-0.127213,0.787405,-0.587958
1765410706.945961,-11.731825,1.370158,0.431014,-0.137445,0.792292,-0.598953
1765410706.946211,-11.478955,1.599713,0.371234,-0.135765,0.777173,-0.583224
1765410706.946464,-11.695360,0.682688,0.320421,-0.146150,0.714865,-0.555429
1765410706.946714,-11.877091,0.445959,-0.626494,-0.136834,0.714865,-0.562912
1765410706.946964,-12.592656,0.606169,0.143472,-0.144775,0.711658,-0.592692
1765410706.947214,-12.317670,0.917025,0.653993,-0.148288,0.716392,-0.588111
1765410706.947518,-12.135341,1.062888,0.239120,-0.156992,0.686002,-0.579864
1765410706.947768,-11.975131,1.330703,0.125538,-0.151036,0.656680,-0.580169
1765410706.948018,-11.217119,0.966045,-1.217121,-0.167683,0.658207,-0.566578
1765410706.948268,-11.699545,0.735294,0.083692,-0.152105,0.631635,-0.563370
1765410706.948482,-11.396460,0.144668,-0.392157,-0.164323,0.639576,-0.577420
1765410706.948815,-11.402437,1.095767,-1.201578,-0.155312,0.622319,-0.579253
1765410706.949149,-11.278096,1.046748,-0.997130,-0.165850,0.628580,-0.584903
1765410706.949481,-11.284074,1.580583,-0.757413,-0.164781,0.632856,-0.569326
1765410706.949731,-12.075561,1.252989,0.577475,-0.159741,0.613767,-0.553291
1765410706.949981,-11.781443,0.736490,0.199067,-0.169515,0.606436,-0.553597
1765410706.950231,-11.945240,0.620516,0.255858,-0.177151,0.593761,-0.568868
1765410706.950507,-11.326516,0.560736,-0.106408,-0.167988,0.600022,-0.567799
1765410706.950757,-11.617646,0.813008,0.114180,-0.172569,0.556193,-0.571770
1765410706.951007,-11.850788,1.677427,0.133907,-0.174555,0.557109,-0.584903
1765410706.951257,-11.251792,1.361789,-0.652798,-0.193186,0.546877,-0.562912
1765410706.951468,-11.673839,1.197991,-0.436394,-0.172417,0.532827,-0.532064
1765410706.951718,-12.043280,0.126136,0.145265,-0.177915,0.515876,-0.543975
1765410706.951968,-11.932089,0.538618,-0.208034,-0.180358,0.515112,-0.574366
1765410706.952218,-11.907578,1.434122,-0.099235,-0.183412,0.502589,-0.582765
1765410706.952487,-12.474891,2.003826,0.701817,-0.186008,0.459829,-0.568105
1765410706.952737,-12.308702,1.518412,0.184122,-0.201127,0.459829,-0.537867
1765410706.952987,-12.209468,0.982783,0.468077,-0.207541,0.442419,-0.543212
1765410706.953237,-11.339070,0.717360,-1.390483,-0.216704,0.447764,-0.558178
1765410706.953455,-12.003226,0.914634,0.160210,-0.206472,0.397368,-0.552528
1765410706.953788,-12.170012,1.000717,0.289335,-0.209527,0.420733,-0.567036
1765410706.954122,-11.496889,1.593735,-1.324127,-0.207694,0.417374,-0.554208
1765410706.954476,-11.260161,1.169297,-0.466284,-0.224493,0.406225,-0.540921
1765410706.954726,-11.783237,0.749641,0.028694,-0.219453,0.371406,-0.535729
1765410706.954976,-12.174795,0.863223,0.003587,-0.222508,0.375377,-0.546419
1765410706.955226,-11.988281,0.961860,-0.616930,-0.227089,0.380569,-0.558636
1765410706.955450,-12.016976,0.961262,-0.274988,-0.233045,0.373850,-0.552222
1765410706.955700,-12.213055,1.243424,0.341942,-0.213497,0.348193,-0.554360
1765410706.955950,-12.082733,1.471784,0.046628,-0.229533,0.335060,-0.545045
1765410706.956200,-12.361309,1.266140,0.901482,-0.230143,0.335060,-0.534965
1765410706.956483,-11.597321,0.729316,-0.352702,-0.230143,0.336129,-0.534965
1765410706.956733,-11.935676,0.810019,0.288737,-0.232282,0.282525,-0.527329
1765410706.956983,-12.221424,0.616332,0.832735,-0.241597,0.292757,-0.534813
1765410706.957233,-11.694164,1.071258,-0.221186,-0.228158,0.267254,-0.520763
1765410706.957461,-11.417980,1.261956,-0.554758,-0.242972,0.267254,-0.519235
1765410706.957711,-11.417980,1.261956,-0.554758,-0.242972,0.242514,-0.519235
1765410706.957961,-12.001432,0.464491,0.600191,-0.252440,0.233198,-0.484722
1765410706.958211,-12.115016,0.085485,0.511717,-0.247400,0.223577,-0.501826
1765410706.958493,-11.871113,0.180536,0.142276,-0.255953,0.208916,-0.508698
1765410706.958826,-11.764107,0.575084,0.198470,-0.246637,0.187383,-0.506560
1765410706.959160,-11.978716,1.015064,-0.148254,-0.238848,0.174555,-0.499688
1765410706.959461,-12.020563,0.908656,-0.294118,-0.240681,0.146913,-0.481056
1765410706.959711,-12.251313,1.011478,0.506934,-0.246790,0.146913,-0.474795
1765410706.959961,-11.609875,0.341942,-0.107604,-0.243735,0.141263,-0.454484
1765410706.960211,-11.495694,0.056193,-0.734696,-0.248164,0.122784,-0.449597
1765410706.960457,-11.741390,0.383788,-0.781325,-0.248164,0.100945,-0.449597
1765410706.960707,-12.004422,0.414873,-0.584648,-0.251371,0.119882,-0.460898
1765410706.960957,-11.951218,0.816595,0.160210,-0.237321,0.119882,-0.443641
1765410706.961207,-11.313366,0.545194,-1.137016,-0.245110,0.120188,-0.434020
1765410706.961454,-11.313962,0.893113,-0.792085,-0.250149,0.099418,-0.420275
1765410706.961704,-12.132950,0.576877,0.012554,-0.249386,0.107818,-0.409127
1765410706.961954,-11.884265,0.498565,-0.108202,-0.242666,0.105680,-0.395230
1765410706.962204,-11.260759,0.118364,-0.976805,-0.251371,0.110108,-0.393703
1765410706.962463,-11.087995,0.171569,-0.426829,-0.251371,0.097280,-0.393703
1765410706.962713,-11.524389,0.486609,-0.160210,-0.249538,0.065973,-0.395077
1765410706.962963,-11.530965,0.793281,-0.121951,-0.241444,0.065973,-0.386220
1765410706.963213,-11.286466,0.439981,-0.372429,-0.258091,0.069944,-0.373850
1765410706.963512,-10.982782,0.900885,-0.780727,-0.249080,0.063835,-0.362701
1765410706.963762,-10.908655,0.508728,-0.943328,-0.252898,0.049327,-0.350789
1765410706.964012,-10.940935,0.702415,-0.967240,-0.252593,0.044899,-0.338114
1765410706.964262,-11.451457,-0.069345,0.052606,-0.249997,0.044899,-0.333074
1765410706.964541,-11.451457,-0.069345,0.052606,-0.249997,0.051160,-0.333074
1765410706.964791,-11.835842,0.595409,-0.011956,-0.247706,0.023518,-0.337656
1765410706.965041,-11.347440,0.540411,0.019130,-0.257938,0.036805,-0.323606
1765410706.965291,-11.542323,0.462697,-0.019130,-0.254120,0.019090,-0.310167
1765410706.965467,-11.237444,0.075323,0.000000,-0.261450,0.018937,-0.315054
1765410706.965717,-12.007411,0.560736,0.399928,-0.253662,-0.001069,-0.324675
1765410706.965967,-11.767096,0.813008,-0.290531,-0.246942,0.011301,-0.308029
1765410706.966217,-11.412002,0.519488,-0.205643,-0.246484,0.006109,-0.291841
1765410706.966481,-10.818985,0.725729,-0.819584,-0.246790,0.015730,-0.290161
1765410706.966731,-11.341462,0.634864,-0.075323,-0.255800,-0.012675,-0.286038
1765410706.966981,-11.339070,0.934361,-0.181731,-0.251066,0.002596,-0.275958
1765410706.967231,-11.189621,0.591224,-0.335964,-0.250455,-0.000153,-0.259618
1765410706.967463,-10.915829,0.559541,-0.081301,-0.251524,0.015272,-0.261908
1765410706.967713,-10.804638,0.222382,-0.758010,-0.249538,0.003512,-0.261603
1765410706.967963,-11.070659,0.358680,0.057389,-0.246331,-0.012217,-0.251371
1765410706.968213,-10.947512,0.277379,-0.203252,-0.245873,-0.006414,-0.260534
1765410706.968508,-11.018053,1.153754,-0.103419,-0.242208,0.002138,-0.253509
1765410706.968758,-10.558344,0.520684,-0.624701,-0.256563,0.004581,-0.238848
1765410706.969008,-10.541606,0.854854,-0.512315,-0.246484,-0.006414,-0.229533
1765410706.969258,-10.554159,0.343137,-0.524868,-0.254273,-0.017257,-0.228616
1765410706.969462,-10.555355,0.597800,-0.478240,-0.251218,-0.010996,-0.226936
1765410706.969712,-10.422643,0.325203,-0.612745,-0.250760,-0.003818,-0.224798
1765410706.969962,-10.521279,0.697035,-0.221186,-0.246790,-0.005040,-0.217468
1765410706.970212,-10.663557,0.503348,-0.399928,-0.256411,-0.007330,-0.208458
1765410706.970487,-11.206957,0.626494,0.376614,-0.249844,-0.006567,-0.200669
1765410706.970737,-11.000716,0.249283,0.047824,-0.240375,0.004429,-0.178525
1765410706.970987,-10.848875,-0.178742,0.278575,-0.235030,-0.011759,-0.164323
1765410706.971237,-10.474652,-0.413678,-0.588235,-0.232282,-0.011759,-0.174555
1765410706.971470,-10.804638,-0.275586,0.130320,-0.227700,-0.022297,-0.172417
1765410706.971720,-10.429816,-0.254663,-0.539216,-0.217621,-0.010843,-0.164170
1765410706.971970,-10.567909,-0.164993,0.071736,-0.214414,-0.012217,-0.154854
1765410706.972220,-10.443566,-0.520684,0.128527,-0.214108,0.002596,-0.147524
1765410706.972467,-10.653992,-0.485414,-0.056193,-0.201738,-0.018021,-0.140652
1765410706.972717,-10.649210,-0.856050,0.050813,-0.195171,-0.019090,-0.134085
1765410706.972967,-10.452533,-0.596604,-0.156624,-0.179900,-0.017257,-0.134085
1765410706.973217,-10.518888,-0.714371,0.104017,-0.174097,-0.010690,-0.119882
1765410706.973450,-10.419655,-0.689861,0.111191,-0.160505,-0.013897,-0.114385
1765410706.973700,-10.331181,-0.652200,-0.159613,-0.152411,-0.014966,-0.101098
1765410706.973950,-10.438784,-0.885940,0.023314,-0.141721,-0.013439,-0.086590
1765410706.974200,-10.460305,-1.034194,0.074127,-0.130114,-0.011759,-0.083689
1765410706.974444,-10.639645,-0.943926,0.395744,-0.125075,-0.010537,-0.077274
1765410706.974694,-10.430414,-1.111908,0.127929,-0.116981,-0.012523,-0.066432
1765410706.974944,-10.192491,-1.044954,-0.252272,-0.103542,-0.012523,-0.057269
1765410706.975194,-10.090864,-1.175873,-0.170971,-0.096669,-0.013439,-0.050091
1765410706.975484,-10.203251,-1.164515,0.019727,-0.083689,-0.010385,-0.043371
1765410706.975734,-10.424437,-1.251793,0.459708,-0.074373,-0.011301,-0.034819
1765410706.975984,-10.341940,-1.256576,0.465088,-0.064904,-0.004276,-0.031460
1765410706.976234,-10.248685,-1.280488,0.388570,-0.053909,-0.007178,-0.023976
1765410706.976452,-10.254662,-1.254782,0.410091,-0.045357,-0.010537,-0.022297
1765410706.976702,-10.291725,-1.129842,0.416667,-0.035277,-0.008247,-0.016799
1765410706.976952,-10.102820,-1.021042,0.451339,-0.027031,-0.008247,-0.008247
1765410706.977202,-9.791965,-1.021042,0.047824,-0.024435,-0.009774,-0.005345
1765410706.977464,-9.956957,-0.902678,0.217599,-0.018173,-0.018784,0.000153
1765410706.977664,-9.956957,-0.902678,0.217599,-0.018173,-0.013592,0.000153
1765410706.977864,-10.040649,-0.903874,0.404113,-0.003054,0.000458,0.009316
1765410706.978064,-9.826636,-0.851267,0.242707,0.000458,0.000458,0.007483
1765410706.978264,-9.717837,-0.557747,0.218795,0.003360,-0.007789,0.005956
1765410706.978489,-10.034670,-0.398135,0.601387,0.003207,-0.013439,0.010996
1765410706.978689,-10.011955,-0.383788,0.399330,0.006261,-0.009927,0.024740
1765410706.978889,-9.654470,-0.598996,-0.011956,0.009774,-0.006567,0.025351
1765410706.979089,-9.722619,-0.595409,0.312649,0.015882,-0.006567,0.019090
1765410706.979289,-10.006575,-0.439981,0.594811,0.016341,-0.011148,0.015272
1765410706.979464,-9.965326,-0.088474,0.387374,0.018937,-0.006414,0.014813
1765410706.979664,-9.818267,0.027499,0.228360,0.018784,-0.003818,0.017410
1765410706.979864,-9.818267,0.027499,0.228360,0.018784,-0.005040,0.017410
1765410706.980064,-9.955164,-0.072334,0.426829,0.020159,-0.010232,0.021838
1765410706.980264,-10.018531,0.089670,0.434601,0.024740,-0.005040,0.014355
1765410706.980481,-9.867287,0.184122,0.278575,0.021075,-0.001833,0.015577
1765410706.980681,-9.742347,0.227164,0.184122,0.021075,-0.001833,0.015119
1765410706.980881,-9.890601,0.303682,0.393352,0.020617,-0.009468,0.014050
1765410706.981081,-10.027497,0.389168,0.434003,0.020922,-0.005345,0.012370
1765410706.981281,-9.820659,0.424438,0.152439,0.018479,-0.004734,0.010079
1765410706.981481,-9.821855,0.431014,0.246294,0.018326,-0.004734,0.008705
1765410706.981681,-9.976088,0.468077,0.430416,0.015424,-0.004734,0.007941
1765410706.981881,-9.976088,0.468077,0.430416,0.015424,-0.004276,0.007941
1765410706.982081,-9.954566,0.534433,0.298900,0.009927,0.001833,0.003054
1765410706.982281,-9.770443,0.543998,0.148852,0.005803,-0.001374,0.002138
1765410706.982450,-9.895982,0.547585,0.405308,0.003512,-0.003665,0.000764
1765410706.982650,-10.010161,0.570301,0.466882,0.003054,-0.003665,0.001374
1765410706.982850,-9.881634,0.479436,0.237327,-0.003512,-0.002749,0.004581
1765410706.983050,-9.740554,0.387972,0.031086,-0.002138,-0.002138,0.000000
1765410706.983250,-9.880439,0.401722,0.299498,-0.007330,-0.004123,0.001374
1765410706.983547,-10.142276,0.341942,0.563725,-0.010079,-0.004123,0.000764
1765410706.983747,-10.001194,0.341942,0.420253,-0.009774,-0.002596,-0.003665
1765410706.983947,-9.856527,0.351506,0.120756,-0.012217,-0.000153,-0.004429
1765410706.984147,-9.765661,0.346724,0.167982,-0.015577,-0.001985,-0.003207
1765410706.984347,-9.954566,0.197274,0.343137,-0.018784,-0.009468,-0.002443
1765410706.984505,-9.954566,0.197274,0.343137,-0.018784,-0.002596,-0.002443
1765410706.984755,-9.807508,0.150646,0.096844,-0.019090,-0.002138,-0.011148
1765410706.985005,-9.830821,0.193687,0.219990,-0.021991,-0.003360,-0.009774
1765410706.985255,-10.065758,0.175753,0.425036,-0.022907,-0.009621,-0.009927
1765410706.985486,-10.099234,0.099833,0.488403,-0.023366,-0.006109,-0.009316
1765410706.985686,-10.043041,0.089670,0.255858,-0.023213,-0.003207,-0.010079
1765410706.985886,-9.957555,0.088474,0.252272,-0.026267,-0.003665,-0.011759
1765410706.986086,-10.105211,0.145863,0.460306,-0.025351,-0.009774,-0.009316
1765410706.986286,-10.146461,0.041846,0.475849,-0.026267,-0.006109,-0.007178
1765410706.986472,-9.890003,-0.083692,0.164993,-0.029627,-0.002749,-0.005803
1765410706.986672,-9.777617,-0.173960,0.032281,-0.025351,-0.004887,-0.006414
1765410706.986872,-10.008368,-0.208034,0.340746,-0.024129,-0.009010,-0.009621
1765410706.987072,-10.228358,-0.251076,0.599593,-0.024435,-0.009010,-0.009468
1765410706.987272,-10.141678,-0.203252,0.368245,-0.022144,-0.003360,-0.011301
1765410706.987440,-9.999999,-0.166188,0.284553,-0.024282,-0.003360,-0.012523
1765410706.987690,-9.869080,-0.144668,0.205643,-0.020464,-0.006720,-0.010690
1765410706.987940,-10.109993,-0.208034,0.500359,-0.018326,-0.013286,-0.007636
1765410706.988190,-10.113581,-0.290531,0.469273,-0.016952,-0.010690,-0.006567
1765410706.988448,-9.905546,-0.380201,0.273792,-0.017562,-0.005498,-0.007941
1765410706.988648,-9.796148,-0.362865,0.165591,-0.015424,-0.009316,-0.009010
1765410706.988848,-9.915112,-0.248685,0.344931,-0.011759,-0.009774,-0.009468
1765410706.989048,-10.074127,-0.198470,0.502152,-0.011148,-0.009621,-0.007789
1765410706.989248,-9.952174,-0.192492,0.367049,-0.011606,-0.008705,-0.005040
1765410706.989451,-9.789574,-0.251076,0.217599,-0.010385,-0.005803,-0.002443
1765410706.989651,-9.881634,-0.318030,0.340148,-0.010079,-0.009316,-0.005192
1765410706.989851,-10.001792,-0.248685,0.498565,-0.006261,-0.009774,-0.003360
1765410706.990051,-9.937230,-0.229555,0.345528,-0.005192,-0.004581,-0.002902
1765410706.990251,-9.788378,-0.219990,0.163797,-0.007178,-0.004734,-0.001069
1765410706.990509,-9.829028,-0.236131,0.274988,-0.005040,-0.008858,-0.000305
1765410706.990759,-9.978478,-0.221186,0.472262,-0.007941,-0.009774,0.000458
1765410706.991009,-10.025107,-0.141081,0.472262,-0.004734,-0.006109,0.000153
1765410706.991259,-9.866092,-0.133309,0.267814,-0.001069,-0.003360,0.001222
1765410706.991458,-9.811094,-0.144668,0.245098,-0.003818,-0.006567,0.004429
1765410706.991658,-9.958751,-0.178144,0.425634,-0.001069,-0.012370,0.004429
1765410706.991858,-10.058583,-0.182329,0.529651,-0.001833,-0.006567,0.002291
1765410706.992058,-9.934240,-0.104017,0.294118,-0.001833,-0.004276,0.002291
1765410706.992258,-9.785389,-0.063965,0.150646,-0.002749,-0.008858,0.006414
1765410706.992439,-9.894786,-0.083692,0.355093,-0.003207,-0.008858,0.005803
1765410706.992639,-10.021520,-0.095050,0.506934,-0.003054,-0.007330,0.006872
1765410706.992839,-9.927068,-0.075323,0.265423,-0.003360,-0.003512,0.006567
1765410706.993039,-9.793160,-0.100430,0.186514,-0.003818,-0.004887,0.005803
1765410706.993239,-9.921089,-0.123147,0.328192,-0.001069,-0.005956,0.007789
1765410706.993443,-10.143471,-0.112386,0.534433,0.000000,-0.007178,0.006720
1765410706.993610,-10.031085,-0.088474,0.371832,0.000916,-0.003512,0.008399
1765410706.993776,-9.797942,-0.037064,0.117169,0.001069,-0.001985,0.007941
1765410706.993943,-9.849353,-0.033477,0.301291,0.000305,-0.007941,0.006567
1765410706.994110,-10.028693,-0.031086,0.451339,0.001680,-0.007483,0.006261
1765410706.994276,-10.057388,0.034672,0.321019,0.000764,-0.007941,0.009316
1765410706.994436,-9.862504,0.054998,0.148254,0.003054,-0.001985,0.003818
1765410706.994636,-9.937828,0.046628,0.328192,0.003054,-0.009927,0.002443
1765410706.994836,-10.095646,0.107604,0.514706,0.001222,-0.009927,0.001069
1765410706.995036,-10.078907,0.188905,0.418460,0.001222,-0.007330,0.001069
1765410706.995236,-9.836202,0.136298,0.128527,-0.000153,-0.004734,0.002443
1765410706.995473,-9.778215,0.071138,0.185916,-0.001374,-0.006567,0.000305
1765410706.995673,-9.999999,0.135103,0.418460,-0.004581,-0.004581,-0.002138
1765410706.995873,-10.052606,0.273195,0.341942,-0.001833,-0.004581,-0.000916
1765410706.996073,-10.052606,0.273195,0.341942,-0.001833,-0.006261,-0.000916
1765410706.996273,-9.809898,0.139885,0.217001,-0.008247,-0.010690,0.003512
1765410706.996461,-10.036465,0.123147,0.521282,-0.007636,-0.011606,0.000305
1765410706.996661,-10.072333,0.110593,0.423242,-0.007941,-0.005345,0.001069
1765410706.996861,-9.849353,0.143472,0.208034,-0.008705,-0.005345,-0.001833
1765410706.997061,-9.849353,0.143472,0.208034,-0.008705,-0.005192,-0.001833
1765410706.997261,-9.940817,0.123147,0.416069,-0.010232,-0.008399,-0.001069
1765410706.997421,-10.051410,0.100430,0.497967,-0.010385,-0.008399,-0.004123
1765410706.997621,-9.903752,0.105811,0.293520,-0.014661,-0.003360,-0.003054
1765410706.997821,-9.735771,0.065758,0.100430,-0.012981,-0.005651,-0.002291
1765410706.998021,-9.808702,0.001196,0.236729,-0.013286,-0.009316,-0.002138
1765410706.998221,-10.052606,0.046031,0.567910,-0.014661,-0.010996,-0.004734
1765410706.998448,-10.041844,0.053204,0.478838,-0.013592,-0.007025,-0.003818
1765410706.998648,-9.897775,0.000000,0.205045,-0.012370,-0.006567,-0.002443
1765410706.998848,-9.888808,-0.052606,0.265423,-0.011759,-0.006109,-0.003818
1765410706.999048,-10.064561,-0.067551,0.525466,-0.012981,-0.007941,-0.004887
1765410706.999248,-10.114776,-0.020325,0.515901,-0.014050,-0.004887,-0.007483
1765410706.999514,-9.909132,-0.005978,0.218795,-0.013134,-0.004887,-0.007025
1765410706.999714,-9.811094,-0.026303,0.132712,-0.013134,-0.007636,-0.007025
1765410706.999914,-9.937828,-0.052009,0.390961,-0.013134,-0.009774,-0.006720
1765410707.000114,-10.088473,-0.070540,0.524271,-0.011301,-0.009774,-0.005192
1765410707.000314,-9.970109,-0.068747,0.224175,-0.011301,-0.006414,-0.006109
1765410707.000515,-9.801530,-0.044237,0.174558,-0.013744,-0.004734,-0.004429
1765410707.000765,-9.900167,-0.060976,0.384983,-0.012981,-0.007941,-0.004887
1765410707.001015,-10.020923,-0.087279,0.477044,-0.011912,-0.008552,-0.005956
1765410707.001265,-9.995216,-0.054998,0.324008,-0.012675,-0.008552,-0.006109
1765410707.001416,-9.831419,-0.093257,0.166188,-0.011912,-0.003665,-0.002443
1765410707.001616,-9.906742,-0.150646,0.325203,-0.013592,-0.008399,-0.004734
1765410707.001816,-10.065758,-0.100430,0.496174,-0.008858,-0.008552,-0.004887
1765410707.002016,-10.084289,-0.064562,0.380799,-0.010690,-0.005192,-0.004276
1765410707.002216,-9.913916,-0.115375,0.226566,-0.012981,-0.004887,-0.000153
1765410707.002467,-9.923481,-0.169775,0.341344,-0.014050,-0.006567,0.000458
1765410707.002667,-10.058583,-0.200861,0.516499,-0.010232,-0.009621,-0.001833
1765410707.002867,-10.032280,-0.152439,0.432807,-0.008858,-0.006720,-0.002291
1765410707.003067,-9.856527,-0.093257,0.150048,-0.005345,-0.006414,-0.001527
1765410707.003267,-9.855929,-0.071138,0.233740,-0.007483,-0.001680,0.001069
1765410707.003459,-9.997009,-0.139287,0.412482,-0.009163,-0.008247,0.003054
1765410707.003659,-10.045432,-0.165591,0.451937,-0.006414,-0.009774,0.002443
1765410707.003859,-9.885221,-0.135701,0.213415,-0.003818,-0.005498,-0.001374
1765410707.004059,-9.778812,-0.160210,0.197274,-0.006720,-0.004123,-0.000916
1765410707.004259,-9.939023,-0.101028,0.428623,-0.004581,-0.010537,-0.000458
1765410707.004428,-10.120754,-0.083692,0.529651,-0.006261,-0.010843,0.001985
1765410707.004628,-9.977283,-0.015543,0.325203,-0.006872,-0.005498,0.003054
1765410707.004828,-9.793160,-0.057389,0.137494,-0.005345,-0.004887,0.002138
1765410707.005028,-9.836799,-0.082496,0.278575,-0.004276,-0.009163,0.002443
1765410707.005228,-9.995216,-0.050215,0.479436,-0.004429,-0.009468,0.000153
1765410707.005488,-9.978478,-0.013152,0.396939,-0.005040,-0.006567,0.000764
1765410707.005688,-9.809898,0.034672,0.146461,-0.005651,-0.005040,0.002291
1765410707.005888,-9.837996,-0.004782,0.298900,-0.008399,-0.006414,0.002902
1765410707.006088,-10.031085,-0.020325,0.500956,-0.006414,-0.011301,0.000916
1765410707.006288,-10.029292,-0.012554,0.396341,-0.006720,-0.005345,0.003512
1765410707.006520,-9.837397,-0.005380,0.162602,-0.003971,-0.002443,0.002291
1765410707.006720,-9.802725,0.014347,0.218795,-0.005345,-0.003360,0.001680
1765410707.006920,-9.956359,0.092659,0.424438,-0.008399,-0.007789,-0.000764
1765410707.007120,-10.033475,0.066954,0.424438,-0.005803,-0.008552,0.000000
1765410707.007320,-9.873264,0.041846,0.214012,-0.005956,-0.004734,0.002596
1765410707.007473,-9.842777,0.007174,0.240316,-0.007636,-0.005498,0.001527
1765410707.007673,-9.998802,-0.021521,0.472262,-0.006872,-0.009163,0.000000
1765410707.007873,-10.074127,-0.002989,0.535031,-0.007025,-0.007178,-0.001680
1765410707.008073,-9.955761,0.060976,0.290531,-0.006261,-0.001985,-0.000458
1765410707.008273,-9.797942,0.071138,0.188905,-0.006567,-0.001833,-0.000305
1765410707.008501,-9.881634,0.009565,0.384983,-0.004887,-0.008705,-0.000764
1765410707.008701,-10.112983,0.035868,0.454926,-0.007178,-0.008705,0.001374
1765410707.008901,-9.960544,0.034075,0.278575,-0.005040,-0.004581,0.000764
1765410707.009101,-9.837397,0.015543,0.239120,-0.007636,-0.004429,-0.000916
1765410707.009301,-9.990434,0.004782,0.425634,-0.009927,-0.007025,-0.001985
1765410707.009548,-10.074724,0.051411,0.508130,-0.011454,-0.007941,-0.002138
1765410707.009748,-9.952772,0.000000,0.273792,-0.012675,-0.004123,-0.000458
1765410707.009948,-9.774031,-0.013152,0.178144,-0.007789,-0.004123,0.000764
1765410707.010148,-9.774031,-0.013152,0.178144,-0.007789,-0.004276,0.000764
1765410707.010348,-10.054399,-0.004782,0.437590,-0.007636,-0.008858,-0.001222
1765410707.010488,-10.014346,0.001196,0.353898,-0.008399,-0.005192,-0.001222
1765410707.010688,-9.819464,-0.022716,0.139287,-0.009774,-0.004581,0.000000
1765410707.010888,-9.845766,-0.057389,0.223577,-0.008858,-0.005803,-0.000458
1765410707.011088,-10.041844,-0.045433,0.511717,-0.008705,-0.008399,-0.003360
1765410707.011288,-10.136297,-0.051411,0.491392,-0.010996,-0.004734,-0.003512
1765410707.011552,-9.958152,-0.054400,0.289335,-0.007330,-0.002291,-0.002291
1765410707.011752,-9.849353,-0.115375,0.133907,-0.009927,-0.008094,-0.001222
1765410707.011952,-9.986848,-0.047824,0.416069,-0.010843,-0.008399,-0.003665
1765410707.012152,-10.097439,-0.024510,0.492587,-0.009927,-0.010537,-0.001985
1765410707.012352,-9.924676,-0.053802,0.253467,-0.010996,-0.007330,-0.002138
1765410707.012524,-9.763867,-0.069943,0.084888,-0.006109,-0.007330,-0.001833
1765410707.012724,-9.815279,-0.072932,0.276184,-0.008858,-0.009927,-0.001069
1765410707.012924,-10.040649,-0.069345,0.553563,-0.010385,-0.010690,-0.003360
1765410707.013124,-10.020324,-0.037064,0.423242,-0.008552,-0.007025,-0.002138
1765410707.013324,-9.821855,-0.046628,0.146461,-0.005803,-0.004123,0.001527
1765410707.013478,-9.836202,-0.111789,0.266619,-0.008247,-0.009010,-0.001680
1765410707.013678,-10.003586,-0.067551,0.472860,-0.007941,-0.008552,-0.000458
1765410707.013878,-9.943806,-0.021521,0.306074,-0.008399,-0.005040,0.001374
1765410707.014078,-9.783595,-0.029292,0.203252,-0.009774,-0.005040,-0.000153
1765410707.014278,-9.698708,-0.137494,0.320421,-0.005651,-0.006720,0.001680
1765410707.014481,-9.521161,-0.272597,0.576877,-0.007483,-0.009163,-0.002596
1765410707.014681,-9.604255,0.012554,0.457317,-0.007483,-0.014203,-0.002596
1765410707.014881,-9.159492,0.395146,-0.413678,-0.007483,0.003818,-0.009010
1765410707.015081,-9.556431,0.271401,0.542205,-0.005192,0.004581,0.013439
1765410707.015281,-9.556431,0.271401,0.542205,-0.005192,0.003818,0.013439
1765410707.015556,-10.331181,-0.304878,0.890722,-0.015272,-0.004123,-0.000458
1765410707.015756,-9.901959,-0.444763,-0.159015,-0.008552,0.010843,-0.002749
1765410707.015956,-9.644905,-0.181133,-0.057389,0.001527,0.009468,-0.005040
1765410707.016156,-9.988043,0.379005,0.852463,-0.003818,0.009468,-0.009774
1765410707.016356,-10.564322,0.514108,1.489718,-0.014203,0.012675,-0.003360
1765410707.016514,-9.978478,-0.109995,0.266619,-0.013286,0.002902,0.018479
1765410707.016764,-9.564800,-0.627690,-0.187111,-0.008399,0.002902,0.012828
1765410707.017014,-9.752509,-0.444763,0.353898,-0.008858,0.014203,-0.008858
1765410707.017264,-10.038258,0.164395,0.590626,-0.010537,0.014203,-0.019548
1765410707.017460,-9.927068,0.473458,0.195481,-0.007025,0.009621,-0.002443
1765410707.017660,-9.658655,0.189503,0.003587,-0.009163,0.010537,0.012675
1765410707.017860,-9.918099,-0.181731,0.532042,-0.010537,0.007941,0.012217
1765410707.018060,-10.166186,-0.358680,0.870995,-0.009163,0.007636,-0.000458
1765410707.018260,-9.848158,-0.307867,0.155428,-0.006261,0.008552,-0.005192
1765410707.018476,-9.592299,0.101626,-0.236729,-0.005803,0.007330,-0.009163
1765410707.018676,-9.895982,0.340746,0.399928,-0.004887,0.003818,-0.007941
1765410707.018876,-10.074127,0.291129,0.570301,-0.009010,0.012828,0.002902
1765410707.019076,-9.947392,0.008369,0.225371,-0.010385,0.008247,0.011454
1765410707.019276,-9.768052,-0.319823,0.009565,-0.012523,0.006567,0.006414
1765410707.019580,-9.953967,-0.298900,0.435198,-0.009468,0.007483,-0.007789
1765410707.019780,-10.040649,0.005978,0.484816,-0.006872,0.011301,-0.010232
1765410707.019980,-10.027497,0.327594,0.313247,-0.009468,0.011454,-0.007636
1765410707.020180,-9.958152,0.240913,0.187111,-0.009468,0.011606,-0.007636
1765410707.020380,-9.983858,-0.102822,0.347322,-0.010843,0.005192,0.011301
1765410707.020489,-10.027497,-0.337159,0.441176,-0.008858,0.005803,0.003512
1765410707.020689,-9.910329,-0.242707,0.301291,-0.011301,0.010385,-0.008705
1765410707.020889,-9.834408,0.028694,0.098039,-0.009010,0.010385,-0.009774
1765410707.021089,-9.949782,0.166188,0.308465,-0.006567,0.004276,-0.001680
1765410707.021289,-10.150046,0.099235,0.587040,-0.009010,0.008552,0.001374
1765410707.021469,-10.082495,-0.057389,0.410689,-0.009010,0.012370,0.004123
1765410707.021669,-9.918698,-0.205643,0.076518,-0.011759,0.003971,0.003054
1765410707.021869,-10.012553,-0.268412,0.286346,-0.009774,0.003971,-0.002596
1765410707.022069,-10.123145,-0.129125,0.477044,-0.006261,0.007178,-0.005192
1765410707.022269,-9.970109,0.065160,0.261836,-0.005345,0.009010,-0.004734
1765410707.022497,-9.970109,0.065160,0.261836,-0.005345,0.005192,-0.004734
1765410707.022697,-10.044236,0.096844,0.412482,-0.010079,0.000764,0.001374
1765410707.022897,-10.191893,-0.090866,0.503348,-0.009316,0.002596,0.004887
1765410707.023097,-10.071735,-0.273792,0.263630,-0.009316,0.002443,0.004276
1765410707.023297,-9.936632,-0.283955,0.162602,-0.011912,0.002291,-0.005803
1765410707.023439,-9.989238,-0.001196,0.258250,-0.007330,0.002138,-0.007941
1765410707.023639,-10.096842,0.275586,0.341942,-0.006872,0.000000,-0.003665
1765410707.023839,-10.014346,0.194883,0.253467,-0.007483,0.003360,0.004276
1765410707.024039,-9.974891,-0.154232,0.283357,-0.008094,0.000458,0.006261
1765410707.024239,-10.130320,-0.307269,0.446557,-0.006720,-0.006720,0.001985
1765410707.024419,-10.149448,-0.180536,0.420851,-0.006872,-0.003207,-0.005192
1765410707.024619,-9.959349,0.028694,0.163797,-0.005803,0.002902,-0.008399
1765410707.024819,-9.901959,0.105213,0.153037,-0.008399,-0.002596,-0.002749
1765410707.025019,-9.992825,0.101626,0.324008,-0.009468,-0.006261,0.002138
1765410707.025219,-9.983260,-0.012554,0.291726,-0.009774,-0.004887,0.004429
1765410707.025428,-9.842180,-0.163797,0.215806,-0.009316,-0.000764,0.000916
1765410707.025628,-9.889405,-0.181731,0.270206,-0.006720,-0.004276,-0.003665
1765410707.025828,-10.043041,-0.044237,0.379005,-0.004581,-0.006720,-0.003054
1765410707.026028,-10.066953,0.098637,0.404113,-0.006567,-0.006414,-0.005040
1765410707.026228,-9.931850,0.092061,0.218197,-0.007330,-0.005651,-0.001069
1765410707.026430,-9.882831,-0.047824,0.225968,-0.009163,-0.005651,0.004734
1765410707.026763,-10.007172,-0.105213,0.359278,-0.007789,-0.010232,0.001985
1765410707.027097,-10.047822,-0.107006,0.395744,-0.008552,-0.003054,0.000000
1765410707.028476,-9.908535,-0.062171,0.203850,-0.008552,-0.002443,0.000000
1765410707.031469,-9.887015,-0.011956,0.263032,-0.005498,-0.008705,-0.003054
1765410707.033453,-10.026900,0.070540,0.424438,-0.010232,-0.008705,-0.002291
1765410707.036448,-10.041844,0.049020,0.414275,-0.008858,-0.007025,0.003818
1765410707.038497,-9.875656,-0.025705,0.177547,-0.007789,-0.002749,0.003207
1765410707.041481,-9.849353,-0.099235,0.258250,-0.009774,-0.007025,0.000458
1765410707.043133,-9.849353,-0.099235,0.258250,-0.009774,-0.005803,0.000458
1765410707.046455,-9.984456,-0.023912,0.352702,-0.006261,-0.006720,-0.002596
1765410707.049470,-9.862504,0.022119,0.294118,-0.007178,-0.005803,-0.004581
1765410707.051439,-9.899570,0.027499,0.393352,-0.008552,-0.007789,-0.001222
1765410707.053470,-10.008368,0.004782,0.423242,-0.008399,-0.007789,0.000153
1765410707.056468,-10.008368,0.004782,0.423242,-0.008399,-0.005803,0.000153
1765410707.059515,-9.812290,-0.105213,0.192492,-0.012217,-0.001680,0.000000
1765410707.061468,-9.784791,-0.125538,0.276184,-0.009774,-0.008858,-0.000764
1765410707.063463,-9.915112,-0.043042,0.325203,-0.010843,-0.011148,-0.003971
1765410707.066636,-9.935436,0.058584,0.338355,-0.008247,-0.007178,-0.002596
1765410707.068460,-9.899570,0.005978,0.340746,-0.006261,-0.006109,0.000611
1765410707.069450,-9.855330,-0.050813,0.358680,-0.007178,-0.002443,-0.001374
1765410707.073451,-9.912720,-0.050215,0.353898,-0.008247,-0.003054,0.001527
1765410707.076517,-9.860114,-0.065758,0.256456,-0.010996,-0.003207,-0.000305
1765410707.078469,-9.827234,-0.066954,0.270206,-0.007789,-0.003207,-0.000764
1765410707.081471,-9.827234,-0.066954,0.270206,-0.007789,-0.004429,-0.000764
1765410707.084452,-9.870276,0.015543,0.368245,-0.010690,-0.002443,-0.002443
1765410707.086450,-9.838593,-0.026303,0.229555,-0.009774,-0.002443,0.001374
1765410707.088478,-9.872069,-0.026901,0.315041,-0.010385,-0.005956,0.000916
1765410707.091405,-10.034073,-0.075921,0.498565,-0.008552,-0.003054,0.001527
1765410707.093456,-10.028693,-0.092659,0.486609,-0.008399,0.001069,-0.001374
1765410707.096415,-9.882831,-0.068747,0.263032,-0.008858,0.001680,-0.001833
1765410707.097472,-9.755498,-0.043042,0.215806,-0.010690,-0.000458,-0.001222
1765410707.101446,-9.755498,-0.043042,0.215806,-0.010690,-0.001527,-0.001222
1765410707.104478,-9.943208,-0.029292,0.435796,-0.005956,-0.003512,-0.000305
1765410707.104978,-9.870873,-0.015543,0.347920,-0.011606,-0.001069,-0.001680
1765410707.109466,-9.720228,-0.045433,0.194285,-0.009774,0.006261,0.002596
1765410707.109966,-9.824244,-0.057389,0.303682,-0.009621,0.001069,0.002749
1765410707.114499,-9.992825,-0.069345,0.471066,-0.009468,-0.003512,-0.000305
1765410707.116479,-9.959349,-0.074127,0.395744,-0.008705,0.001374,-0.000764
1765410707.118485,-9.794952,-0.058584,0.184122,-0.010843,0.005651,-0.001374
1765410707.121524,-9.759683,-0.026303,0.228360,-0.009621,0.003665,-0.000458
1765410707.122443,-9.942610,-0.038259,0.417264,-0.012065,-0.002291,0.000000
1765410707.124510,-10.014346,-0.038259,0.386179,-0.011301,0.003054,0.000000
1765410707.128525,-9.848158,-0.059780,0.155428,-0.009468,0.006414,-0.000305
1765410707.131472,-9.803921,-0.052606,0.214012,-0.009316,0.000000,-0.000458
1765410707.133446,-9.952174,-0.046628,0.428025,-0.008094,0.001527,-0.002443
1765410707.136470,-9.994021,-0.008369,0.449546,-0.009927,0.001527,-0.000611
1765410707.138421,-9.888808,0.010760,0.221186,-0.010385,0.004429,0.001527
1765410707.141402,-9.756096,-0.026303,0.127929,-0.010690,0.003207,0.002291
1765410707.142475,-9.857125,-0.096844,0.325801,-0.010537,0.001680,0.002443
1765410707.146419,-9.943806,-0.109397,0.318030,-0.012523,0.006261,0.002138
1765410707.149509,-9.814680,-0.068747,0.126136,-0.008399,0.006261,0.000764
1765410707.151448,-9.830223,0.017934,0.123147,-0.007178,0.005040,-0.001374
1765410707.154423,-10.035867,0.065160,0.431612,-0.008705,-0.001374,0.002138
1765410707.156429,-10.111788,0.038259,0.540411,-0.010537,0.003207,0.002749
1765410707.158484,-9.946795,-0.032281,0.229555,-0.009774,0.002596,0.000611
1765410707.161438,-9.787182,-0.053802,0.060976,-0.010843,0.004734,0.000000
1765410707.163509,-9.917501,-0.066954,0.270206,-0.010537,0.001069,-0.002443
1765410707.166411,-10.107603,-0.056193,0.438187,-0.009316,0.000611,0.000764
1765410707.168462,-9.978478,-0.054998,0.253467,-0.011454,0.004581,0.002291
1765410707.171466,-9.851745,-0.063367,0.130320,-0.010079,0.005192,0.000458
1765410707.173497,-9.976088,-0.105213,0.353898,-0.010537,0.001680,0.000000
1765410707.176491,-10.126135,-0.067551,0.492587,-0.010537,0.000458,-0.000764
1765410707.178507,-9.986848,0.000000,0.283955,-0.009774,-0.000611,-0.003360
1765410707.181458,-9.864896,0.053204,0.160210,-0.009010,-0.000611,-0.001374
1765410707.183459,-9.968913,0.049020,0.306074,-0.009010,-0.003360,0.000000
1765410707.186550,-10.075322,0.020325,0.364658,-0.007636,-0.002902,0.001833
1765410707.189446,-9.977880,-0.034672,0.233142,-0.009774,0.000000,0.000458
1765410707.189946,-9.952174,-0.047824,0.241511,-0.012675,0.001527,0.000916
1765410707.194492,-10.044236,-0.070540,0.359876,-0.011301,0.001527,-0.001374
1765410707.196441,-10.077712,-0.025108,0.364658,-0.011454,-0.001985,-0.001680
1765410707.198481,-9.983260,0.024510,0.191296,-0.007789,0.000916,0.000153
1765410707.199437,-9.961740,0.001196,0.297704,-0.007789,0.000458,0.000153
1765410707.203499,-10.005977,0.013152,0.380799,-0.011301,-0.003207,-0.000458
1765410707.205439,-10.037660,0.040650,0.331181,-0.011912,-0.001374,-0.001985
1765410707.208583,-9.961740,0.019130,0.233142,-0.011606,-0.000916,0.001833
1765410707.211463,-10.008965,-0.008967,0.376016,-0.013592,-0.004276,0.000611
1765410707.213523,-10.056790,-0.022716,0.369440,-0.016799,-0.003207,0.000764
1765410707.216551,-9.933045,-0.066954,0.230751,-0.013744,0.001680,-0.000458
1765410707.217445,-9.886416,-0.076518,0.149450,-0.014050,-0.006872,0.002291
1765410707.219466,-9.961740,-0.062171,0.301291,-0.014813,-0.007483,-0.001527
1765410707.223560,-10.037063,-0.070540,0.422047,-0.016646,0.001527,0.001833
1765410707.226523,-9.913317,-0.028694,0.273792,-0.013286,0.001527,0.001222
1765410707.228546,-9.870276,0.011956,0.200263,-0.011912,-0.000916,0.001833
1765410707.231544,-9.983858,0.011956,0.410689,-0.011454,-0.006414,0.000458
1765410707.233559,-10.057388,-0.017934,0.473458,-0.014508,-0.004581,-0.000611
1765410707.236554,-9.907937,-0.014347,0.266619,-0.011301,-0.001680,0.000305
1765410707.237529,-9.791965,-0.059780,0.114180,-0.009316,-0.001680,0.002291
1765410707.241491,-9.791965,-0.059780,0.114180,-0.009316,-0.006414,0.002291
1765410707.244555,-9.999999,-0.081301,0.440579,-0.010843,-0.003665,-0.002138
1765410707.246491,-9.955761,-0.083692,0.353300,-0.011301,-0.000458,-0.001527
1765410707.249419,-9.900764,-0.086083,0.236729,-0.011912,-0.002291,-0.000916
1765410707.251492,-10.001194,-0.047226,0.373027,-0.013439,-0.001985,-0.001374
1765410707.254483,-10.001194,-0.047226,0.373027,-0.013439,-0.002443,-0.001374
1765410707.256424,-9.886416,0.076518,0.218197,-0.016646,-0.002443,-0.002138
1765410707.259451,-9.735771,0.050215,0.130320,-0.018631,-0.002443,-0.001374
1765410707.261413,-9.831419,0.025108,0.286944,-0.017410,-0.003665,0.001680
1765410707.263527,-10.046627,-0.007174,0.538020,-0.018021,-0.000916,0.000153
1765410707.266567,-9.946198,-0.101626,0.373027,-0.018021,0.005040,0.000153
1765410707.268483,-9.733380,-0.150048,0.121951,-0.017257,-0.004123,0.001985
1765410707.269481,-9.849353,-0.162602,0.260641,-0.013134,-0.004123,0.000764
1765410707.272482,-10.050214,-0.105811,0.516499,-0.014661,-0.005192,-0.001680
1765410707.278865,-10.047226,-0.054998,0.484218,-0.012370,-0.000305,0.000153
1765410707.279365,-9.826636,0.007174,0.225371,-0.013897,0.002596,-0.002596
1765410707.281526,-9.705881,0.097441,0.192492,-0.010996,0.001374,-0.000458
1765410707.283517,-9.939621,0.119560,0.424438,-0.012675,-0.002138,0.001833
1765410707.286513,-10.133906,0.023912,0.590626,-0.015272,0.001985,-0.000153
1765410707.288528,-9.915112,-0.052606,0.286944,-0.012675,0.005192,-0.000458
1765410707.291497,-9.756096,-0.147059,0.107604,-0.012828,0.004887,0.004123
1765410707.294477,-9.756096,-0.177547,0.157819,-0.010996,0.003818,0.000764
1765410707.296534,-9.973696,-0.101626,0.463893,-0.008705,0.000458,-0.003054
1765410707.297521,-10.041844,-0.101626,0.496174,-0.008705,0.006414,-0.003054
1765410707.301499,-9.918698,0.047824,0.316834,-0.013592,0.002749,-0.003360
1765410707.303514,-9.827832,0.054400,0.255261,-0.015882,0.002749,-0.001222
1765410707.306508,-9.910329,-0.021521,0.379005,-0.015882,-0.000764,0.001833
1765410707.308566,-9.948587,-0.064562,0.407700,-0.015424,0.002443,-0.001374
1765410707.311477,-9.899570,-0.001196,0.273792,-0.013744,0.008094,-0.003360
1765410707.313483,-9.812887,0.015543,0.178144,-0.018173,0.005345,-0.000611
1765410707.316472,-9.980869,-0.039455,0.343735,-0.018784,0.003054,0.000305
1765410707.318458,-10.113581,-0.083692,0.533238,-0.019700,0.007330,0.002138
1765410707.320518,-9.943806,-0.120158,0.285748,-0.016341,0.009316,-0.001222
1765410707.323516,-9.733380,-0.107006,0.106408,-0.014355,0.006414,-0.000458
1765410707.326483,-9.915112,-0.032281,0.325203,-0.015272,0.004276,-0.001680
1765410707.328818,-10.130917,0.027499,0.583453,-0.012828,0.007178,-0.003207
1765410707.331494,-10.021520,-0.009565,0.418460,-0.013439,0.015272,0.001222
1765410707.334568,-9.746531,-0.081301,0.074127,-0.013592,0.012370,0.003971
1765410707.335068,-9.823050,-0.095050,0.179340,-0.012981,0.005040,-0.000305
1765410707.339485,-10.127929,-0.025108,0.482425,-0.012523,0.000916,-0.003360
1765410707.341438,-10.083690,0.017934,0.386179,-0.014966,0.007636,-0.002902
1765410707.343497,-9.781204,0.120756,0.095648,-0.017257,0.009316,-0.003054
1765410707.344466,-9.891200,0.101626,0.224175,-0.019700,0.007636,-0.000153
1765410707.349458,-10.053802,-0.090866,0.481827,-0.018326,0.004123,0.004276
1765410707.351453,-10.038258,-0.159613,0.368245,-0.014661,0.005803,0.002443
1765410707.353455,-9.886416,-0.077714,0.134505,-0.018479,0.012523,-0.000764
1765410707.356479,-9.855929,0.008369,0.104017,-0.015577,0.008094,-0.002596
1765410707.357465,-10.182925,0.093257,0.570301,-0.019090,0.002443,0.002138
1765410707.361469,-10.210424,0.014347,0.569106,-0.016952,0.007789,0.000153
1765410707.364440,-9.934838,-0.121353,0.156624,-0.014661,0.009621,0.002596
1765410707.366427,-9.840983,-0.166188,0.077116,-0.014355,0.005345,0.000916
1765410707.367476,-10.138689,-0.041846,0.496174,-0.015882,0.001069,-0.005651
1765410707.371419,-10.071735,0.040053,0.340746,-0.014508,0.006109,-0.002749
1765410707.374464,-9.848158,0.037064,0.089670,-0.018784,0.007330,0.000000
1765410707.376477,-9.885221,0.044237,0.225968,-0.016646,0.008094,-0.001222
1765410707.379484,-10.135101,-0.072932,0.554161,-0.021075,0.010385,0.000611
1765410707.381442,-10.033475,-0.138690,0.376614,-0.015730,0.007178,0.000916
1765410707.382489,-9.961740,-0.041846,0.207437,-0.016799,0.010537,-0.003207
1765410707.386537,-10.010758,0.083692,0.463295,-0.020006,0.009468,-0.002138
1765410707.388478,-10.011356,0.013152,0.439981,-0.018937,0.003360,0.003360
1765410707.391493,-9.857125,0.002989,0.215806,-0.016952,0.003054,0.000916
1765410707.393502,-9.815877,-0.026901,0.078910,-0.023976,0.007178,-0.001374
1765410707.396463,-10.017335,-0.117169,0.309660,-0.019700,-0.000611,0.001527
1765410707.398596,-10.065758,-0.127929,0.326399,-0.016341,-0.000764,-0.001527
1765410707.401516,-10.092059,0.059182,0.463893,-0.017104,0.004276,-0.005040
1765410707.404489,-9.735771,0.016738,0.010760,-0.018173,0.011454,0.000916
1765410707.404989,-9.764465,-0.013152,0.013152,-0.017715,0.002596,0.000305
1765410707.409488,-10.019128,-0.009565,0.437590,-0.015882,0.012065,-0.000153
1765410707.411665,-10.098038,-0.060976,0.521282,-0.018021,0.012065,0.000458
1765410707.413555,-9.826636,-0.065758,0.132712,-0.018021,0.012981,0.000458
1765410707.414510,-9.692730,-0.114778,0.100430,-0.019700,0.005345,0.000764
1765410707.418513,-9.940218,-0.011956,0.472262,-0.019548,0.001680,-0.004429
1765410707.421486,-10.168577,0.026303,0.603778,-0.020617,0.001527,-0.001833
1765410707.423588,-9.910329,-0.041846,0.283357,-0.022907,0.006720,0.000611
1765410707.426583,-9.910329,-0.041846,0.283357,-0.022907,0.005192,0.000611
1765410707.428538,-9.885221,0.001793,0.335964,-0.021686,0.002902,-0.002902
1765410707.429505,-10.138689,-0.033477,0.513510,-0.021991,0.002902,-0.001985
1765410707.433620,-10.138689,-0.033477,0.513510,-0.021991,0.004734,-0.001985
1765410707.436556,-9.762074,-0.186514,0.028694,-0.020311,0.006872,-0.002291
1765410707.437469,-9.812887,-0.084888,0.084290,-0.020159,0.002749,-0.001985
1765410707.441487,-10.032280,-0.016738,0.383788,-0.020922,0.008705,-0.004734
1765410707.444476,-10.044236,0.020325,0.475849,-0.018784,0.008705,-0.002138
1765410707.446515,-9.891200,0.062171,0.165591,-0.018479,0.014966,-0.002291
1765410707.448453,-9.808105,-0.063965,0.090866,-0.024129,0.011301,0.001985
1765410707.451443,-9.953370,-0.114778,0.386179,-0.021228,0.007789,0.003207
1765410707.453466,-10.185316,-0.085485,0.446557,-0.019548,0.014355,-0.001985
1765410707.456480,-10.028693,-0.054998,0.342539,-0.020617,0.014355,-0.002291
1765410707.458486,-9.728598,-0.162602,0.113582,-0.020617,0.014813,-0.000764
1765410707.461476,-9.789574,0.066954,0.270206,-0.021075,0.013134,-0.003665
1765410707.462529,-9.993423,0.082496,0.423242,-0.021838,0.008552,-0.000305
1765410707.466498,-10.054996,0.028694,0.505739,-0.023518,0.010537,0.004276
1765410707.468510,-9.870276,-0.188905,0.159015,-0.022755,0.011454,0.001680
1765410707.471492,-9.677784,-0.193089,0.033477,-0.022297,0.008552,-0.004734
1765410707.473557,-9.782400,-0.032281,0.285748,-0.025656,0.005956,-0.009468
1765410707.476518,-10.075322,0.192492,0.486609,-0.023824,0.005956,-0.008399
1765410707.477533,-10.075322,0.192492,0.486609,-0.023824,0.009010,-0.008399
1765410707.481489,-9.702294,-0.019727,0.120756,-0.020464,0.010537,0.006567
1765410707.482543,-9.753107,-0.108800,0.233740,-0.028558,0.010232,-0.000611
1765410707.486466,-10.050812,-0.106408,0.420851,-0.024282,0.006872,-0.001069
1765410707.488483,-9.929459,-0.167384,0.170971,-0.024129,0.006872,-0.002291
1765410707.491448,-9.929459,-0.167384,0.170971,-0.024129,0.013897,-0.002291
1765410707.493460,-9.688545,0.144668,-0.004782,-0.026573,0.018631,-0.004887
1765410707.496473,-9.837397,0.115973,0.355093,-0.024129,0.012370,0.003360
1765410707.498437,-9.843973,-0.092061,0.332975,-0.022449,0.009010,0.007789
1765410707.501450,-9.893590,-0.133309,0.246891,-0.027031,0.010537,-0.000153
1765410707.504474,-9.699903,-0.165591,-0.013152,-0.025962,0.016646,-0.003512
1765410707.506431,-9.770443,-0.081301,0.112386,-0.023213,0.011148,-0.002596
1765410707.508543,-10.005379,0.100430,0.463893,-0.026573,0.009774,-0.003971
1765410707.509496,-10.063366,0.154232,0.370038,-0.027947,0.017104,-0.001833
1765410707.514496,-9.905546,-0.008967,0.175753,-0.026114,0.017104,0.006414
1765410707.516455,-9.827832,-0.123745,0.273792,-0.024435,0.018021,0.002138
1765410707.519504,-10.028095,-0.115973,0.470469,-0.024740,0.012675,0.000611
1765410707.520488,-10.031682,-0.168580,0.493783,-0.027489,0.007025,-0.004123
1765410707.523655,-9.745336,-0.045433,0.076518,-0.027031,0.010996,-0.004734
1765410707.526477,-9.610233,0.072932,-0.065160,-0.024435,0.007789,-0.000764
1765410707.528576,-9.667622,0.128527,0.112386,-0.026573,0.005498,-0.000305
1765410707.531527,-9.821855,0.032281,0.167384,-0.027184,0.007330,0.006261
1765410707.532597,-9.789574,-0.089072,0.050215,-0.029932,0.004581,0.004429
1765410707.536533,-9.789574,-0.089072,0.050215,-0.029932,0.013134,0.004429
1765410707.538534,-9.827832,-0.123147,0.135103,-0.032070,0.017104,-0.001680
1765410707.541508,-9.848158,-0.088474,0.269608,-0.029322,0.018479,-0.000458
1765410707.543502,-10.054996,-0.031086,0.477044,-0.030849,0.013897,-0.000916
1765410707.546863,-10.096842,-0.058584,0.375418,-0.032223,0.017410,0.000611
1765410707.548552,-9.986848,-0.026303,0.266619,-0.025809,0.015272,0.003971
1765410707.551543,-9.909132,-0.069345,0.318030,-0.027947,0.017868,0.001222
1765410707.554559,-9.978478,-0.058584,0.301291,-0.028100,0.011301,0.005040
1765410707.556549,-10.080702,-0.199665,0.609756,-0.030085,0.012370,-0.000458
1765410707.558559,-9.945002,0.002989,0.245098,-0.025045,0.012370,-0.001374
1765410707.561483,-9.852343,-0.025108,0.048422,-0.031918,0.011148,0.003054
1765410707.564581,-9.879243,-0.099235,0.148852,-0.032529,0.009316,0.001374
1765410707.566543,-10.084887,-0.009565,0.347920,-0.028711,0.012675,-0.002596
1765410707.567542,-10.019128,0.026303,0.377810,-0.028711,0.024282,0.000611
1765410707.569455,-9.762672,0.034075,0.035270,-0.029322,0.024282,0.000916
1765410707.573450,-9.782400,-0.128527,0.219393,-0.038026,0.018784,0.004123
1765410707.576502,-10.094451,-0.049020,0.591822,-0.032376,0.016493,-0.000305
1765410707.579506,-10.166784,-0.066954,0.510521,-0.029932,0.016188,-0.001680
1765410707.580006,-9.878048,-0.108800,0.179340,-0.029474,0.019242,0.002596
1765410707.584514,-9.895982,-0.058584,0.231349,-0.026878,0.019395,0.000305
1765410707.586541,-10.143471,-0.028694,0.567910,-0.027794,0.013744,-0.000153
1765410707.589458,-10.118362,-0.066954,0.456719,-0.027947,0.016646,0.001680
1765410707.591542,-9.794355,-0.084888,0.087877,-0.030085,0.019090,-0.001069
1765410707.594544,-9.600070,-0.112386,-0.127929,-0.031307,0.016493,-0.001222
1765410707.596491,-9.852941,-0.102822,0.324008,-0.028405,0.012523,0.001680
1765410707.597456,-10.050812,-0.072932,0.469871,-0.027336,0.016799,-0.001985
1765410707.602470,-9.947392,-0.016141,0.202056,-0.029016,0.018784,0.001222
1765410707.603472,-9.954566,-0.032281,0.277977,-0.032376,0.019242,0.001680
1765410707.604437,-9.956957,-0.085485,0.291726,-0.032529,0.014203,0.001833
1765410707.609463,-10.002390,-0.037661,0.374223,-0.030849,0.014813,0.001222
1765410707.609963,-9.764465,-0.023912,0.136298,-0.032834,0.017715,0.000764
1765410707.612583,-9.736967,-0.002391,0.053802,-0.032987,0.013439,0.001069
1765410707.616493,-9.907937,-0.075323,0.215208,-0.032529,0.013439,0.001985
1765410707.619482,-10.032280,-0.053802,0.359278,-0.031765,0.019548,-0.000916
1765410707.621482,-9.837996,-0.003587,0.131516,-0.029932,0.023824,0.001680
1765410707.623535,-9.891797,-0.019727,0.408895,-0.029932,0.018631,0.001680
1765410707.625500,-9.895385,-0.012554,0.236729,-0.032376,0.015730,-0.001222
1765410707.627526,-9.778812,0.028694,0.081301,-0.031612,0.015730,0.002596
1765410707.631502,-9.668818,-0.054998,-0.059780,-0.029474,0.020769,0.001833
1765410707.633518,-9.876852,-0.033477,0.366451,-0.030238,0.020006,0.000764
1765410707.634517,-10.021520,-0.103419,0.400526,-0.032529,0.019242,-0.001222
1765410707.638930,-9.918698,-0.047824,0.132712,-0.036194,0.018784,-0.000153
1765410707.641603,-9.759683,0.013152,0.065758,-0.033598,0.023213,0.001374
1765410707.642594,-9.942610,0.030488,0.318030,-0.034208,0.014203,-0.001527
1765410707.646499,-10.260639,0.060378,0.674916,-0.040470,0.026878,-0.003818
1765410707.648472,-9.866689,0.045433,0.161406,-0.036957,0.026878,0.003360
1765410707.651601,-9.866689,0.045433,0.161406,-0.036957,0.020006,0.003360
1765410707.653527,-9.778812,0.019130,0.254663,-0.039554,0.018937,-0.002749
1765410707.656489,-9.953370,-0.011956,0.390961,-0.038485,0.017104,0.000764
1765410707.658500,-9.733977,0.013152,-0.008369,-0.036346,0.023824,0.002138
1765410707.661512,-9.600070,0.093855,-0.206839,-0.037263,0.023824,0.001222
1765410707.663529,-9.855929,0.000598,0.272597,-0.036652,0.022602,0.003818
1765410707.666508,-10.023911,-0.087877,0.381994,-0.035125,0.020159,0.003512
1765410707.667541,-9.991630,-0.084290,0.297704,-0.037874,0.023213,-0.000305
1765410707.671534,-9.651482,-0.049020,-0.100430,-0.036041,0.022907,-0.000611
1765410707.672529,-9.661644,-0.082496,0.051411,-0.036957,0.022907,0.001374
1765410707.676555,-9.932447,0.016738,0.475849,-0.037874,0.021991,0.001527
1765410707.679470,-10.035269,0.089670,0.483022,-0.036652,0.029932,-0.001374
1765410707.681473,-9.754900,-0.009565,0.049020,-0.041081,0.029932,0.001069
1765410707.683537,-9.769248,-0.104017,-0.024510,-0.041844,0.019853,0.000611
1765410707.686473,-10.164991,-0.009565,0.499761,-0.043219,0.019853,-0.003512
1765410707.688502,-10.193686,-0.047824,0.525466,-0.040775,0.024282,-0.001222
1765410707.691488,-9.812290,-0.057987,0.121353,-0.037568,0.032070,0.003360
1765410707.693479,-9.571377,-0.046628,-0.100430,-0.039248,0.025045,0.001985
1765410707.696530,-9.895385,0.061573,0.321019,-0.039248,0.025198,0.001985
1765410707.698522,-10.050812,-0.010760,0.380201,-0.037568,0.025351,0.005498
1765410707.701535,-9.928263,-0.153037,0.236131,-0.040623,0.033292,0.005651
1765410707.705347,-9.768052,-0.039455,0.057389,-0.040164,0.034361,0.001069
1765410707.705847,-9.992227,-0.101626,0.371832,-0.042913,0.024587,0.000611
1765410707.709511,-9.992227,-0.101626,0.371832,-0.042913,0.022907,0.000611
1765410707.711565,-9.956359,0.047824,0.178144,-0.039859,0.031612,-0.001527
1765410707.714516,-9.868484,-0.047824,0.137494,-0.040164,0.040164,0.001680
1765410707.716607,-9.901959,-0.077714,0.279770,-0.040928,0.031001,0.003512
1765410707.719472,-10.172164,-0.113582,0.649211,-0.039248,0.024435,0.000458
1765410707.721480,-10.157221,-0.074725,0.383788,-0.041386,0.032681,-0.001069
1765410707.723533,-9.782400,-0.160210,0.124342,-0.043982,0.031612,0.004887
1765410707.726474,-9.695121,-0.010760,0.021521,-0.045204,0.028253,-0.000305
1765410707.728590,-10.160210,0.113582,0.562530,-0.046578,0.028863,0.001222
1765410707.731509,-10.160808,0.002391,0.407700,-0.044899,0.028863,0.006872
1765410707.733513,-9.984456,-0.151841,0.261239,-0.045051,0.030085,0.006720
1765410707.736498,-9.774628,-0.194883,0.131516,-0.042455,0.030543,0.003360
1765410707.739572,-9.924078,-0.239718,0.258250,-0.045051,0.020464,-0.002138
1765410707.741491,-10.092059,-0.100430,0.374223,-0.043982,0.031460,-0.007941
1765410707.743616,-9.925871,0.147059,0.099235,-0.043677,0.031460,-0.003054
1765410707.746504,-9.735173,0.086083,-0.182927,-0.045509,0.034208,0.003054
1765410707.747577,-9.609037,-0.039455,-0.225968,-0.043524,0.031154,0.004887
1765410707.751548,-10.114776,-0.086083,0.414873,-0.046426,0.034208,0.002749
1765410707.754550,-10.153036,-0.046628,0.692252,-0.041539,0.040317,0.000611
1765410707.756559,-9.869678,-0.026303,0.248685,-0.040928,0.039248,0.001833
1765410707.759475,-9.668220,0.014347,-0.090866,-0.041844,0.032223,-0.000153
1765410707.761534,-9.974891,0.049617,0.225968,-0.042913,0.025656,0.000764
1765410707.763521,-10.185316,-0.129125,0.460306,-0.041539,0.027336,0.004887
1765410707.766513,-10.032280,-0.182927,0.398135,-0.043066,0.035888,-0.000611
1765410707.768562,-9.721423,-0.056193,0.015543,-0.044135,0.040317,-0.004887
1765410707.771480,-9.660448,0.005978,-0.290531,-0.046884,0.030391,-0.002138
1765410707.773493,-9.907937,-0.023912,0.221186,-0.044746,0.026725,0.000000
1765410707.776522,-9.771041,0.001793,0.118364,-0.047037,0.035736,0.002443
1765410707.777520,-9.595288,-0.016738,-0.094452,-0.048564,0.039095,-0.000458
1765410707.781509,-9.518172,0.016738,-0.175155,-0.047495,0.040317,0.001527
1765410707.782523,-9.852941,0.039455,0.307269,-0.043371,0.035888,0.005192
1765410707.785604,-10.161406,-0.072932,0.737685,-0.045968,0.032376,0.002443
1765410707.789471,-10.040649,-0.150646,0.167982,-0.047953,0.032376,0.000000
1765410707.791491,-9.734576,-0.069345,-0.231349,-0.048869,0.032376,-0.003665
1765410707.792477,-9.800333,0.115375,-0.060976,-0.045204,0.035125,-0.005345
1765410707.796472,-10.197272,0.182927,0.651602,-0.046426,0.036805,0.000000
1765410707.799496,-10.187708,0.057389,0.674318,-0.049786,0.039859,0.006261
1765410707.801619,-9.919296,0.003587,0.099235,-0.049633,0.035277,0.000458
1765410707.804508,-9.919296,0.003587,0.099235,-0.049633,0.029474,0.000458
1765410707.806508,-9.927666,-0.034672,-0.076518,-0.050702,0.030238,0.001222
1765410707.807611,-10.107005,0.005978,0.399330,-0.049633,0.035430,-0.004123
1765410707.809525,-10.049019,0.108202,0.472860,-0.051313,0.045051,-0.003207
1765410707.814595,-9.796746,0.209230,0.056193,-0.047189,0.045509,0.004276
1765410707.816555,-9.787182,0.027499,0.015543,-0.051924,0.034208,0.005345
1765410707.817538,-10.192491,-0.034672,0.463893,-0.055131,0.027489,0.003665
1765410707.821495,-10.203251,-0.154232,0.369440,-0.058185,0.035277,0.000916
1765410707.824520,-9.864896,-0.105213,0.031086,-0.056810,0.035583,-0.002902
1765410707.826524,-9.670013,0.019130,-0.056193,-0.058490,0.041997,-0.005651
1765410707.829561,-9.839788,0.058584,0.251076,-0.055894,0.034056,-0.004887
1765410707.831595,-10.034670,0.062769,0.279770,-0.052993,0.037874,0.000458
1765410707.832613,-9.849353,-0.118364,0.091463,-0.054367,0.037874,0.003054
1765410707.834559,-9.742945,-0.132114,-0.092659,-0.056810,0.038332,-0.001527
1765410707.838492,-9.928861,-0.130918,0.143472,-0.057421,0.035430,-0.006109
1765410707.841527,-10.125537,0.031086,0.575084,-0.059101,0.035430,-0.008247
1765410707.844554,-10.038258,0.249880,0.325203,-0.057574,0.039248,-0.007636
1765410707.846550,-9.901959,0.190100,-0.006576,-0.057879,0.039248,0.000000
1765410707.847571,-9.778812,-0.044835,-0.222382,-0.057879,0.037110,0.000000
1765410707.851668,-9.964130,-0.200861,0.117169,-0.054672,0.046426,0.002749
1765410707.854558,-10.158416,-0.090268,0.529651,-0.056352,0.046426,-0.003665
1765410707.856540,-10.219392,-0.102822,0.612745,-0.058948,0.047037,-0.006414
1765410707.858575,-9.887612,-0.064562,0.209230,-0.058490,0.040623,-0.003512
1765410707.861514,-9.887612,-0.064562,0.209230,-0.058490,0.035277,-0.003512
1765410707.864478,-9.876852,0.063965,0.083692,-0.061239,0.032223,-0.000153
1765410707.866483,-9.928861,-0.130320,0.123147,-0.060628,0.032223,0.001680
1765410707.868578,-9.952174,-0.185318,0.107604,-0.056963,0.039554,-0.003818
1765410707.871555,-9.558823,-0.173362,-0.425634,-0.059559,0.047037,-0.001833
1765410707.874532,-9.694523,-0.083692,0.032281,-0.056810,0.045968,-0.002749
1765410707.876548,-9.952174,0.031683,0.384385,-0.057727,0.045051,-0.003818
1765410707.877525,-10.159613,0.131516,0.517695,-0.060628,0.043677,0.000764
1765410707.881470,-9.922284,-0.017336,0.135103,-0.058490,0.045204,0.000611
1765410707.884468,-9.894188,-0.059182,0.077714,-0.059559,0.038332,0.000764
1765410707.886489,-10.001792,-0.113582,0.438785,-0.062003,0.038332,-0.002138
1765410707.887532,-10.102820,-0.054998,0.379005,-0.061850,0.034972,-0.004887
1765410707.891515,-9.947392,-0.013152,0.051411,-0.063225,0.030543,-0.002902
1765410707.894493,-9.664036,-0.004782,-0.255261,-0.065668,0.036041,-0.000305
1765410707.896551,-9.632950,-0.041846,-0.195481,-0.065363,0.037568,0.000153
1765410707.899514,-9.631156,-0.108202,-0.197872,-0.062003,0.039554,0.001069
1765410707.900014,-9.858918,0.023912,0.047824,-0.061239,0.045204,-0.003971
1765410707.904545,-9.912720,0.066954,0.069345,-0.060628,0.050549,-0.001680
1765410707.906546,-9.808702,-0.041248,0.057987,-0.064904,0.051313,0.001374
1765410707.907493,-9.882233,0.053204,0.282162,-0.063225,0.051160,0.000916
1765410707.911483,-10.078907,0.032879,0.510521,-0.066126,0.049786,0.000764
1765410707.914597,-10.136894,-0.075323,0.381396,-0.061239,0.044593,0.006720
1765410707.916551,-10.037063,-0.160210,0.064562,-0.064599,0.045509,0.001374
1765410707.919576,-10.150046,-0.037064,0.407700,-0.063835,0.045509,-0.002596
1765410707.921601,-9.974294,0.038259,0.312052,-0.062308,0.051007,-0.001833
1765410707.924564,-9.942610,-0.067551,0.230751,-0.067195,0.045051,-0.000153
1765410707.926574,-9.883428,-0.071736,-0.054998,-0.068417,0.039554,-0.001527
1765410707.929554,-9.827234,-0.095050,0.003587,-0.063530,0.045051,-0.003054
1765410707.931535,-9.669415,-0.068149,-0.088474,-0.057727,0.055283,0.002138
1765410707.932573,-9.741750,-0.053802,-0.080703,-0.061545,0.050244,-0.001069
1765410707.935535,-10.007771,0.005978,0.400526,-0.065210,0.051924,-0.007941
1765410707.939571,-10.074127,0.145863,0.377810,-0.059407,0.058338,0.001680
1765410707.941530,-9.693925,-0.209230,-0.013749,-0.066279,0.052076,0.008399
1765410707.943542,-9.564800,-0.117169,-0.156624,-0.065821,0.047647,-0.004429
1765410707.946502,-10.005379,-0.032281,0.343735,-0.065057,0.048106,-0.005192
1765410707.948547,-9.968913,-0.093257,0.234338,-0.060628,0.046120,0.003818
1765410707.951507,-9.921686,-0.029890,-0.075921,-0.064294,0.042761,-0.002596
1765410707.954508,-9.782997,0.082496,-0.224773,-0.066737,0.054825,-0.009163
1765410707.956565,-9.795551,0.077714,0.085485,-0.065515,0.055741,-0.000305
1765410707.958563,-9.795551,0.077714,0.085485,-0.065515,0.052382,-0.000305
1765410707.961520,-10.181131,-0.003587,0.439981,-0.072235,0.049175,-0.003665
1765410707.963616,-10.066953,-0.108800,0.142874,-0.069333,0.053298,0.001222
1765410707.966547,-9.770443,-0.246294,-0.137494,-0.063988,0.043066,0.006872
1765410707.968572,-9.949186,-0.133907,0.254065,-0.065668,0.043066,-0.001985
1765410707.971587,-10.164991,-0.063367,0.317432,-0.073915,0.043830,-0.007636
1765410707.973520,-9.925274,0.009565,-0.042444,-0.069944,0.049022,-0.005498
1765410707.976485,-9.632950,0.118364,-0.295313,-0.067195,0.055131,0.000000
1765410707.979583,-9.775226,0.008369,0.060976,-0.068264,0.050702,0.002596
1765410707.981591,-9.988043,-0.283357,0.355093,-0.067653,0.049480,0.007483
1765410707.982608,-10.012553,-0.364658,0.140483,-0.065057,0.047953,-0.001680
1765410707.986596,-9.876254,-0.070540,-0.013152,-0.062614,0.054214,-0.011301
1765410707.987568,-9.869678,0.118364,0.072932,-0.067501,0.054367,-0.007025
1765410707.991567,-10.071735,0.163797,0.353898,-0.067042,0.045357,-0.000764
1765410707.994575,-9.800333,0.105213,-0.132114,-0.069486,0.043982,0.004734
1765410707.996519,-9.700500,-0.001196,-0.358680,-0.071471,0.054367,0.002138
1765410707.998546,-9.652080,-0.222979,-0.242109,-0.066890,0.060323,0.005345
1765410707.999560,-10.188903,-0.151841,0.618723,-0.066584,0.058643,-0.001069
1765410708.003569,-10.277378,0.065758,0.628886,-0.069333,0.060323,-0.008399
1765410708.006531,-9.941415,0.122549,0.120756,-0.073457,0.060323,-0.001069
1765410708.008535,-9.664633,0.015543,-0.297704,-0.073151,0.055131,-0.000611
1765410708.011566,-9.965924,0.081899,-0.027499,-0.071319,0.055894,-0.001069
1765410708.013629,-10.233141,-0.082496,0.429818,-0.074984,0.055894,0.002902
1765410708.016579,-10.120754,-0.015543,0.325203,-0.069639,0.065515,-0.000916
1765410708.018707,-9.758488,-0.028694,0.022716,-0.074067,0.065973,-0.001833
1765410708.021574,-9.617407,-0.028694,-0.202056,-0.074067,0.050244,-0.001833
1765410708.024609,-10.102222,0.037661,0.322812,-0.073762,0.058338,-0.002291
1765410708.026572,-10.136894,0.087877,0.477044,-0.071166,0.058338,0.003207
1765410708.028581,-9.880439,-0.057389,0.009565,-0.074984,0.058032,0.006567
1765410708.031605,-9.678382,-0.178144,-0.215208,-0.080634,0.049633,0.002291
1765410708.034943,-9.678382,-0.178144,-0.215208,-0.080634,0.044899,0.002291
1765410708.036598,-10.031682,-0.018532,0.114778,-0.074373,0.060323,-0.005192
1765410708.038617,-9.698708,0.135103,-0.070540,-0.077580,0.060323,-0.009774
1765410708.041603,-9.453012,0.151841,-0.182927,-0.077122,0.061697,0.000000
1765410708.042549,-9.602462,0.072932,-0.106408,-0.078343,0.054672,0.002749
1765410708.046499,-10.022716,-0.132712,0.172166,-0.074984,0.052229,0.006567
1765410708.049522,-9.846962,-0.325203,-0.153635,-0.075136,0.069791,0.002596
1765410708.050022,-9.807508,-0.148852,-0.031683,-0.074831,0.069791,-0.007941
1765410708.053567,-9.842777,0.116571,-0.044237,-0.076358,0.069180,-0.004276
1765410708.056510,-9.960544,-0.024510,0.250478,-0.076511,0.062614,0.004581
1765410708.057494,-9.874461,-0.243305,0.096844,-0.074831,0.063835,0.005498
1765410708.061508,-9.668818,-0.215208,-0.199665,-0.072235,0.066584,-0.001222
1765410708.064523,-9.653275,-0.073529,0.076518,-0.074831,0.066584,-0.005192
1765410708.065023,-9.758488,0.052606,0.059182,-0.073304,0.063683,-0.004123
1765410708.069515,-10.066953,0.094452,0.303682,-0.074984,0.062461,0.001374
1765410708.071549,-9.992825,-0.057389,-0.167384,-0.081703,0.062461,0.002138
1765410708.074568,-9.992825,-0.057389,-0.167384,-0.081703,0.062766,0.002138
1765410708.075068,-9.761477,-0.109995,0.038259,-0.076664,0.071929,-0.004581
1765410708.078596,-9.983260,0.117169,0.243902,-0.077580,0.063530,-0.009774
1765410708.081561,-9.942013,0.111191,0.102822,-0.080023,0.069944,-0.000305
1765410708.082564,-9.927666,-0.020325,-0.028097,-0.077427,0.067042,0.004276
1765410708.086597,-9.927666,-0.020325,-0.028097,-0.077427,0.067653,0.004276
1765410708.089508,-9.803323,-0.296509,-0.001196,-0.080787,0.067501,-0.000305
1765410708.090008,-9.815877,-0.093257,-0.137494,-0.076358,0.062614,-0.010537
1765410708.094501,-9.705881,0.176949,-0.174558,-0.076816,0.066890,-0.006872
1765410708.096507,-9.874461,0.295313,0.077714,-0.082161,0.066890,0.002596
1765410708.098882,-9.870873,0.073529,0.081301,-0.080634,0.069486,0.008858
1765410708.101502,-9.964130,-0.263032,-0.005978,-0.079412,0.063072,0.011606
1765410708.104528,-10.021520,-0.332377,-0.053204,-0.076358,0.063072,0.001527
1765410708.105028,-10.008368,-0.155428,0.027499,-0.075747,0.072846,-0.006872
1765410708.107625,-9.725011,0.185318,-0.141081,-0.077427,0.079412,-0.005192
1765410708.111544,-9.644905,0.237924,-0.354495,-0.084910,0.073457,0.000000
1765410708.114554,-9.797942,-0.025108,-0.186514,-0.078649,0.075289,0.010079
1765410708.116553,-10.052606,-0.339550,0.426231,-0.073762,0.080023,0.011912
1765410708.118651,-9.995814,-0.285151,0.538020,-0.074067,0.067042,0.003054
1765410708.121545,-9.870873,-0.053802,-0.069345,-0.085063,0.067042,-0.005192
1765410708.124550,-9.776422,0.074127,-0.356289,-0.084299,0.057116,-0.003360
1765410708.125559,-9.707675,-0.070540,-0.578670,-0.079718,0.057574,0.007636
1765410708.128633,-10.008965,-0.178742,-0.028097,-0.080329,0.064599,0.002138
1765410708.131586,-10.008965,-0.178742,-0.028097,-0.080329,0.083383,0.002138
1765410708.134886,-9.882831,-0.059780,0.087279,-0.080787,0.082467,0.003512
1765410708.138956,-9.864299,0.005380,-0.020325,-0.077885,0.070250,0.000153
1765410708.139456,-9.916306,-0.045433,-0.046628,-0.080329,0.067653,0.002596
1765410708.139651,-9.844571,-0.205643,-0.056791,-0.079107,0.073457,0.003665
1765410708.143561,-9.708273,-0.150646,-0.185318,-0.080176,0.080481,-0.002443
1765410708.146585,-9.900764,0.075323,0.130320,-0.080481,0.073457,-0.005651
1765410708.149503,-10.161406,0.291726,0.327594,-0.079871,0.069333,-0.000305
1765410708.150003,-10.167382,0.157819,0.034672,-0.083994,0.075595,0.007025
1765410708.154529,-9.892395,-0.304878,-0.324008,-0.079260,0.075595,0.012675
1765410708.156523,-9.729793,-0.383190,-0.190100,-0.078649,0.072235,0.001374
1765410708.159585,-10.129124,-0.080105,0.490196,-0.082925,0.076664,-0.007025
1765410708.161550,-10.154830,0.351506,0.274988,-0.081092,0.077274,-0.005651
1765410708.162575,-9.819464,0.254065,-0.353898,-0.083078,0.071777,0.008094
1765410708.166557,-9.625775,-0.139885,-0.439981,-0.084147,0.071777,0.014813
1765410708.168565,-9.835604,-0.260641,0.087279,-0.078343,0.075442,0.008094
1765410708.171612,-10.025107,-0.170971,0.266619,-0.086437,0.073762,-0.000305
1765410708.174538,-9.890003,0.083692,-0.028694,-0.083841,0.069333,-0.004581
1765410708.176554,-9.430893,0.137494,-0.820779,-0.084147,0.069944,-0.004581
1765410708.179631,-9.644308,-0.070540,-0.378407,-0.084452,0.069486,0.009621
1765410708.181531,-9.952174,-0.206839,0.307867,-0.085216,0.081551,0.004123
1765410708.183556,-10.173361,-0.239718,0.494381,-0.083841,0.085521,0.003818
1765410708.186559,-9.869080,-0.182927,-0.109397,-0.082314,0.080634,0.002596
1765410708.188610,-9.822452,-0.151841,-0.484218,-0.084452,0.069944,-0.003054
1765410708.189545,-10.115375,-0.178144,0.051411,-0.082009,0.068570,-0.001222
1765410708.192532,-10.086082,-0.054998,0.381396,-0.076816,0.082009,0.000153
1765410708.196570,-9.918698,-0.048422,0.118962,-0.081092,0.083078,0.001833
1765410708.199505,-9.811094,0.083692,-0.375418,-0.081245,0.074220,-0.001833
1765410708.201506,-10.054996,0.045433,-0.237327,-0.080940,0.069028,0.001222
1765410708.203540,-10.028095,-0.039455,-0.037064,-0.075595,0.082467,0.007941
1765410708.206599,-9.734576,-0.267814,0.032281,-0.079718,0.090561,0.009163
1765410708.208549,-9.520563,-0.064562,-0.318627,-0.086743,0.070555,-0.004123
1765410708.209543,-9.857722,0.273792,-0.337159,-0.089950,0.070555,-0.005803
1765410708.213634,-9.892395,0.343137,-0.051411,-0.082467,0.080176,0.009621
1765410708.216530,-9.692131,0.101626,-0.125538,-0.085521,0.086285,0.019548
1765410708.218871,-9.840386,-0.133907,0.056193,-0.092241,0.079718,0.006720
1765410708.221589,-9.959946,-0.159015,-0.126734,-0.094073,0.073762,0.000458
1765410708.224596,-10.060975,0.014347,-0.095050,-0.088728,0.073762,0.001222
1765410708.226605,-9.683165,0.109397,-0.188905,-0.084452,0.089644,0.004734
1765410708.227606,-9.820060,0.106408,0.033477,-0.093768,0.083536,0.006261
1765410708.231638,-9.909731,-0.076518,-0.019130,-0.090255,0.071166,0.005956
1765410708.234647,-10.005379,-0.178144,-0.113582,-0.091477,0.070860,0.003054
1765410708.236546,-9.722619,-0.086083,-0.296509,-0.086896,0.083383,0.005651
1765410708.239711,-9.607842,-0.078910,-0.343137,-0.090255,0.082620,0.004429
1765410708.241583,-9.900764,-0.062769,0.099235,-0.091630,0.076969,0.002902
1765410708.242603,-9.943806,-0.005978,-0.198470,-0.090713,0.075289,0.001374
1765410708.244682,-9.943806,-0.005978,-0.198470,-0.090713,0.082009,0.001374
1765410708.250966,-9.752509,0.095648,-0.361071,-0.087812,0.092852,0.009927
1765410708.251051,-9.900764,-0.210426,0.083692,-0.090408,0.083230,0.011912
1765410708.253660,-10.148253,-0.224175,0.297704,-0.090866,0.080176,0.003971
1765410708.256578,-10.176947,-0.070540,0.133907,-0.092393,0.080176,-0.001985
1765410708.257616,-10.176947,-0.070540,0.133907,-0.092393,0.083841,-0.001985
1765410708.261564,-9.807508,0.350909,-0.240316,-0.090866,0.088117,-0.001527
1765410708.263633,-10.062170,0.190698,0.269010,-0.093310,0.093004,0.010537
1765410708.266565,-10.044236,-0.113582,0.144668,-0.095600,0.084605,0.012981
1765410708.268661,-9.978478,-0.119560,-0.076518,-0.093768,0.077427,0.002291
1765410708.271571,-9.673599,-0.029292,-0.491392,-0.089797,0.083841,-0.001222
1765410708.273559,-9.558823,0.015543,-0.316834,-0.091172,0.088728,0.001985
1765410708.276588,-9.730989,0.089670,-0.027499,-0.096059,0.083689,-0.001833
1765410708.277569,-10.086082,0.203252,0.123147,-0.093157,0.089339,-0.000153
1765410708.281528,-9.818865,0.091463,-0.369440,-0.094531,0.089339,0.001680
1765410708.283575,-9.555235,0.107604,-0.738881,-0.094073,0.087506,0.000764
1765410708.286501,-9.749520,0.033477,-0.239120,-0.099876,0.089186,0.005192
1765410708.288540,-10.081299,-0.081301,0.259445,-0.103694,0.089186,-0.000611
1765410708.289595,-10.218794,-0.086083,0.432807,-0.103389,0.096822,-0.002902
1765410708.293571,-9.660448,-0.002391,-0.291726,-0.099724,0.093768,-0.001985
1765410708.296667,-9.695719,0.132712,-0.307269,-0.101404,0.081245,-0.008247
1765410708.297601,-10.091461,0.163797,-0.045433,-0.104916,0.085216,-0.005192
1765410708.301521,-10.188306,-0.029890,0.062769,-0.101862,0.085216,0.002443
1765410708.302631,-10.188306,-0.029890,0.062769,-0.101862,0.096211,0.002443
1765410708.306584,-9.661644,0.141679,-0.416069,-0.106901,0.087659,-0.006414
1765410708.308673,-9.869678,0.235533,-0.215208,-0.103847,0.087659,0.000153
1765410708.311573,-10.075322,0.188905,0.038259,-0.100640,0.092546,0.006414
1765410708.312587,-9.774031,0.007174,-0.139885,-0.100793,0.104153,0.009774
1765410708.316511,-9.774031,0.007174,-0.139885,-0.100793,0.101709,0.009774
1765410708.317590,-9.831419,0.007771,-0.066954,-0.104305,0.088423,-0.008094
1765410708.321556,-10.082495,0.096246,0.021521,-0.104611,0.088575,-0.002291
1765410708.324534,-9.809898,-0.004782,-0.437590,-0.102320,0.095448,0.003207
1765410708.326533,-9.692131,-0.041846,-0.337159,-0.108429,0.100487,-0.003360
1765410708.328610,-9.868484,0.102822,-0.087279,-0.108734,0.097586,-0.009163
1765410708.330539,-10.071735,0.004782,0.089072,-0.108734,0.091783,-0.000153
1765410708.334518,-9.760879,-0.082496,-0.276781,-0.109039,0.096669,-0.001069
1765410708.336557,-9.662840,-0.079507,-0.384983,-0.104611,0.099571,-0.002902
1765410708.338524,-9.794355,0.035868,-0.088474,-0.113316,0.095295,-0.007636
1765410708.341549,-9.961740,0.149450,-0.136298,-0.113926,0.089950,-0.006872
1765410708.342525,-9.747129,0.120756,-0.484218,-0.111788,0.094990,0.003054
1765410708.346897,-9.692730,-0.180536,-0.291726,-0.110108,0.101862,0.006720
1765410708.348904,-9.830223,-0.184122,-0.225968,-0.109192,0.100793,-0.002138
1765410708.351594,-10.043638,-0.166188,-0.096844,-0.110719,0.089797,-0.005040
1765410708.353601,-9.891200,-0.051411,-0.322812,-0.105374,0.095906,-0.001680
1765410708.354603,-9.680773,-0.094452,-0.386179,-0.106291,0.099418,-0.001985
1765410708.359533,-9.680773,-0.094452,-0.386179,-0.106291,0.093462,-0.001985
1765410708.361522,-9.857125,0.235533,-0.344931,-0.113010,0.095142,-0.005651
1765410708.363595,-9.861309,0.085485,-0.384983,-0.108276,0.104000,0.004276
1765410708.366884,-9.637732,-0.170971,-0.351506,-0.109650,0.105527,0.006872
1765410708.369603,-9.889405,-0.162602,0.120756,-0.111788,0.099571,-0.001374
1765410708.370103,-9.900764,-0.129125,-0.264228,-0.121715,0.098960,-0.009468
1765410708.374530,-9.765661,0.034672,-0.412482,-0.110872,0.097433,-0.000458
1765410708.376550,-9.691534,0.018532,-0.455524,-0.109956,0.095753,0.000458
1765410708.378596,-9.979075,-0.037064,0.038259,-0.114995,0.095753,-0.004276
1765410708.381538,-10.070539,-0.041846,0.211023,-0.118355,0.102473,-0.004734
1765410708.384525,-9.778812,-0.054998,-0.520086,-0.112094,0.097433,0.001833
1765410708.386523,-9.678382,-0.093855,-0.491392,-0.112399,0.095295,0.001985
1765410708.388578,-9.936632,-0.072932,-0.163797,-0.116981,0.099571,-0.004276
1765410708.391555,-10.242706,0.026303,0.170971,-0.112399,0.100335,-0.001222
1765410708.393545,-9.904350,0.093257,-0.334768,-0.112705,0.102014,0.001374
1765410708.396551,-9.803921,0.085485,-0.576279,-0.118050,0.102014,0.000764
1765410708.398615,-9.906742,-0.092061,-0.253467,-0.118813,0.106596,0.006414
1765410708.399608,-10.230749,-0.181133,0.186514,-0.117592,0.102778,0.003818
1765410708.404574,-10.190698,-0.144668,-0.088474,-0.116828,0.105527,0.000916
1765410708.405074,-9.989238,-0.194883,-0.118364,-0.118202,0.108581,-0.001680
1765410708.409327,-9.789574,-0.178742,-0.363462,-0.117133,0.105985,-0.001833
1765410708.411628,-10.075322,0.017934,-0.157819,-0.112705,0.098502,-0.001680
1765410708.414552,-10.137493,-0.039455,0.009565,-0.112094,0.107512,-0.000764
1765410708.416611,-9.835006,-0.052606,-0.418460,-0.108276,0.110261,0.004429
1765410708.418658,-9.842777,-0.107006,-0.255858,-0.117897,0.103542,-0.001069
1765410708.421626,-9.947392,-0.022716,-0.343137,-0.113468,0.100182,-0.003207
1765410708.423653,-10.084887,-0.067551,-0.209230,-0.112399,0.099113,0.001222
1765410708.426662,-9.858918,0.029292,-0.379005,-0.109650,0.112552,-0.003665
1765410708.428645,-9.946198,0.080105,-0.468675,-0.117592,0.112552,-0.003360
1765410708.429650,-9.946198,0.080105,-0.468675,-0.117592,0.105680,-0.003360
1765410708.433616,-10.168577,0.081301,-0.080105,-0.116217,0.105985,-0.002902
1765410708.436609,-10.269009,0.240316,0.260641,-0.118508,0.116523,-0.000611
1765410708.438658,-9.863700,-0.089072,-0.150646,-0.124464,0.096517,0.009163
1765410708.441572,-9.804518,-0.381994,-0.471664,-0.125838,0.096517,0.006872
1765410708.443633,-9.851745,-0.113582,-0.676112,-0.118966,0.092699,-0.005651
1765410708.444615,-10.115973,0.099235,-0.211621,-0.115454,0.108581,-0.004887
1765410708.448656,-10.032280,-0.059780,-0.154232,-0.118661,0.121409,0.006261
1765410708.451660,-9.843375,-0.288140,-0.269010,-0.112705,0.110261,0.004123
1765410708.454552,-9.986250,-0.125538,-0.290531,-0.114537,0.101862,-0.006261
1765410708.456557,-10.109993,-0.080105,-0.278575,-0.114537,0.109650,-0.006261
1765410708.457596,-9.708273,-0.191296,-0.701817,-0.111483,0.110414,0.003512
1765410708.461602,-9.826636,0.010760,-0.555954,-0.112246,0.110414,-0.007330
1765410708.464552,-10.192491,0.037064,0.190100,-0.117744,0.116828,-0.004887
1765410708.465052,-10.047822,-0.121951,-0.230751,-0.112705,0.115759,0.009468
1765410708.469568,-9.757890,-0.133907,-0.600191,-0.117897,0.104611,-0.004429
1765410708.471526,-9.733380,0.047824,-0.807628,-0.124769,0.113316,-0.013286
1765410708.472524,-9.931850,0.235533,-0.329986,-0.115912,0.113316,0.005803
1765410708.476570,-9.945002,0.093257,-0.121353,-0.111941,0.111788,0.012370
1765410708.477563,-10.103418,-0.021521,-0.154232,-0.123700,0.111483,0.002291
1765410708.480611,-10.105211,-0.047824,-0.163797,-0.115301,0.113926,0.006414
1765410708.483565,-9.799137,-0.203850,-0.644428,-0.113774,0.114385,0.011301
1765410708.486543,-9.759085,-0.133907,-0.652798,-0.119730,0.097128,0.002291
1765410708.489542,-10.125537,-0.149450,-0.086083,-0.125838,0.110108,-0.007636
1765410708.490547,-10.083690,0.049617,-0.173960,-0.113774,0.113163,0.005803
1765410708.494597,-9.649688,-0.072334,-0.755619,-0.117133,0.113163,0.010690
1765410708.495647,-9.872667,-0.168580,-0.494978,-0.130725,0.106138,-0.004734
1765410708.497556,-10.169176,-0.005380,-0.169177,-0.119424,0.122631,-0.001985
1765410708.501607,-9.864299,-0.309063,-0.312052,-0.111941,0.120035,0.011912
1765410708.504524,-9.659253,-0.131516,-0.487805,-0.120799,0.119424,-0.005803
1765410708.506571,-9.928263,0.169775,-0.261836,-0.123089,0.119424,-0.011301
1765410708.508685,-10.098038,0.256456,-0.007174,-0.123089,0.120340,-0.011301
1765410708.511632,-10.015541,0.115973,-0.172166,-0.117744,0.109498,0.012065
1765410708.513650,-9.912720,-0.048422,-0.285748,-0.123089,0.115301,0.007330
1765410708.516587,-9.705881,-0.176949,-0.585246,-0.116981,0.118813,0.008705
1765410708.517550,-9.794355,-0.117169,-0.411286,-0.108276,0.110872,0.008247
1765410708.519559,-10.014346,0.010760,-0.208034,-0.119271,0.106443,0.002749
1765410708.523622,-10.082495,0.071138,-0.153037,-0.121257,0.112857,-0.001680
1765410708.526552,-9.537301,0.047226,-1.015064,-0.118966,0.116981,0.005803
1765410708.530677,-9.599473,0.052606,-0.819584,-0.126296,0.108276,0.005040
1765410708.531177,-10.020324,-0.013749,-0.176949,-0.126449,0.120035,0.002749
1765410708.532543,-10.182925,-0.106408,0.010760,-0.124158,0.122631,0.007483
1765410708.536532,-9.918698,-0.136298,-0.343137,-0.122020,0.114537,0.005192
1765410708.537531,-9.660448,-0.072932,-0.767575,-0.127365,0.113010,0.000000
1765410708.541543,-9.760879,-0.077714,-0.720947,-0.123700,0.113774,0.005498
1765410708.542558,-10.089668,0.223577,-0.127929,-0.115301,0.118202,0.000153
1765410708.544625,-10.372428,0.313247,0.101626,-0.122631,0.126144,0.001985
1765410708.547622,-9.936033,0.159015,-0.179938,-0.124006,0.125991,0.015882
1765410708.549686,-9.629362,-0.184122,-0.671927,-0.125380,0.116370,0.010385
1765410708.552645,-9.636537,0.006576,-0.793878,-0.124617,0.109803,0.002138
1765410708.556636,-9.790171,-0.001196,-0.699426,-0.129962,0.109192,0.003818
1765410708.558640,-9.849353,0.023314,-0.528455,-0.130114,0.119271,0.000916
1765410708.561598,-9.998802,0.197872,-0.208034,-0.125686,0.130725,-0.001527
1765410708.563625,-10.055594,0.065758,0.052606,-0.126602,0.130725,0.002596
1765410708.566599,-9.837996,0.035270,-0.523673,-0.131947,0.115759,0.002902
1765410708.568637,-10.053802,0.146461,-0.579866,-0.133169,0.109498,-0.008247
1765410708.571623,-10.027497,0.221784,-0.419656,-0.126144,0.123547,-0.001833
1765410708.573598,-9.861309,0.243902,-0.307269,-0.127365,0.128893,0.007330
1765410708.576629,-9.858918,0.023912,-0.294715,-0.130878,0.122631,0.004429
1765410708.578604,-9.882831,0.185318,-0.546389,-0.128893,0.121257,-0.002596
1765410708.581590,-9.988043,0.368245,-0.428623,-0.126144,0.121562,0.004734
1765410708.582604,-9.790769,0.089072,-0.410091,-0.129809,0.126296,0.009163
1765410708.586572,-9.846962,0.154830,-0.219990,-0.136070,0.129198,-0.000916
1765410708.588631,-9.563604,0.096844,-0.925394,-0.138208,0.122020,0.001374
1765410708.591538,-9.635341,-0.011956,-0.923601,-0.138819,0.110567,0.001374
1765410708.594584,-9.907937,0.137494,-0.478240,-0.135612,0.124922,-0.003665
1765410708.596608,-10.210424,0.155428,0.214610,-0.136987,0.136376,-0.001222
1765410708.598574,-9.846962,-0.098039,-0.400526,-0.139583,0.115148,0.001985
1765410708.601589,-9.907937,0.009565,-0.469871,-0.134849,0.115148,-0.005956
1765410708.603640,-9.968315,-0.014347,-0.608560,-0.136987,0.122784,-0.009316
1765410708.606593,-9.848158,0.025108,-0.526064,-0.133321,0.125991,-0.005192
1765410708.607559,-9.679578,0.109995,-0.690459,-0.137597,0.131947,-0.012217
1765410708.609559,-9.720228,0.297107,-0.756815,-0.144622,0.130114,-0.008705
1765410708.614654,-9.837996,0.037064,-0.723338,-0.144470,0.126296,-0.004734
1765410708.616563,-9.974294,0.022716,-0.426231,-0.137445,0.125991,-0.008247
1765410708.618565,-9.933045,0.005978,-0.307867,-0.137597,0.137139,-0.008858
1765410708.621530,-9.646699,0.033477,-0.662362,-0.142790,0.137750,-0.006109
1765410708.623676,-9.821257,0.013749,-0.698230,-0.139583,0.118508,-0.008094
1765410708.626589,-10.219989,0.009565,-0.314443,-0.134849,0.118508,-0.006109
1765410708.628682,-10.219989,0.009565,-0.314443,-0.134849,0.136528,-0.006109
1765410708.630663,-9.788378,0.223577,-0.528455,-0.137903,0.123853,-0.012065
1765410708.632626,-9.831419,0.112386,-0.506934,-0.141873,0.123853,-0.007636
1765410708.636558,-9.831419,0.112386,-0.506934,-0.141873,0.118508,-0.007636
1765410708.637602,-9.820659,-0.029890,-0.694644,-0.144622,0.122326,-0.011148
1765410708.641645,-9.542681,0.049020,-1.021042,-0.144622,0.132405,-0.011148
1765410708.643613,-9.742347,0.159015,-0.613343,-0.147677,0.128282,-0.006414
1765410708.646647,-10.176947,0.173960,-0.066954,-0.147066,0.128282,-0.005040
1765410708.648683,-10.170969,0.037661,-0.081301,-0.150120,0.134696,0.002902
1765410708.651673,-9.769846,-0.290531,-0.687470,-0.150273,0.127671,0.001527
1765410708.653671,-9.708273,-0.231946,-0.891918,-0.146760,0.127976,-0.004581
1765410708.656626,-9.903752,-0.050813,-0.528455,-0.139583,0.130114,-0.002291
1765410708.657595,-9.994021,-0.132712,-0.479436,-0.144470,0.130114,-0.002138
1765410708.661679,-9.764465,-0.052009,-0.732903,-0.140957,0.133932,-0.002291
1765410708.664628,-9.819464,-0.050215,-0.569106,-0.145539,0.124464,-0.001527
1765410708.666603,-9.745336,-0.016738,-0.736490,-0.144470,0.124464,0.001374
1765410708.668666,-9.915709,-0.119560,-0.653993,-0.147371,0.122020,-0.002291
1765410708.671663,-9.769846,-0.215208,-0.795074,-0.145997,0.130725,-0.004734
1765410708.674607,-9.720228,-0.282162,-0.789096,-0.144164,0.134849,0.000153
1765410708.675107,-9.863700,-0.168580,-0.497370,-0.137445,0.133321,-0.004581
1765410708.678605,-10.045432,0.015543,-0.298900,-0.146913,0.133321,-0.010843
1765410708.679582,-10.045432,0.015543,-0.298900,-0.146913,0.131336,-0.010843
1765410708.683607,-9.468554,-0.339550,-1.114299,-0.139735,0.130267,0.002902
1765410708.686568,-9.724413,-0.223577,-0.775347,-0.134849,0.125991,-0.000916
1765410708.689554,-10.080104,-0.098039,-0.310856,-0.139888,0.129809,-0.005956
1765410708.691574,-10.007172,-0.161406,-0.601387,-0.140652,0.129809,-0.003360
1765410708.694572,-10.007172,-0.161406,-0.601387,-0.140652,0.138361,-0.003360
1765410708.695072,-9.950381,0.043042,-0.353898,-0.138361,0.136528,-0.006872
1765410708.699557,-9.738162,-0.109995,-0.605571,-0.142637,0.136528,0.006872
1765410708.701598,-9.814083,-0.248087,-0.743663,-0.142332,0.130267,0.000305
1765410708.702595,-9.976088,-0.009565,-0.529053,-0.139125,0.130267,-0.005956
1765410708.706562,-9.782997,-0.154232,-0.483620,-0.136223,0.138361,0.004887
1765410708.709656,-9.515780,-0.138690,-1.040172,-0.134238,0.133321,-0.000458
1765410708.711581,-9.882233,0.219990,-0.736490,-0.140194,0.123089,-0.009927
1765410708.713568,-10.193686,0.154232,-0.212817,-0.139583,0.134696,0.004123
1765410708.715601,-9.879243,-0.137494,-0.469871,-0.137750,0.144928,0.015730
1765410708.717589,-9.636537,-0.357484,-0.907460,-0.140957,0.129503,0.003360
1765410708.721596,-9.864896,-0.279770,-0.659971,-0.144928,0.133932,-0.006109
1765410708.723779,-9.855929,-0.044237,-0.746652,-0.136681,0.134390,0.001222
1765410708.725605,-9.947392,0.120158,-0.687470,-0.136223,0.136834,0.004123
1765410708.728603,-10.028095,-0.034075,-0.413080,-0.136223,0.141110,0.004123
1765410708.731746,-9.941415,-0.314443,-0.292922,-0.135154,0.148746,0.007636
1765410708.733613,-9.625775,-0.405308,-0.928981,-0.133016,0.138361,0.004276
1765410708.736745,-9.777617,-0.106408,-0.987566,-0.133474,0.127518,-0.007789
1765410708.738663,-9.989238,0.291726,-0.471066,-0.133474,0.139430,-0.007789
1765410708.741622,-9.949782,0.608560,-0.345528,-0.130267,0.153480,0.006261
1765410708.743649,-9.661644,0.387374,-0.815997,-0.139583,0.146608,0.018021
1765410708.744630,-9.880439,0.106408,-0.486609,-0.151800,0.137903,0.015882
1765410708.749753,-10.013150,-0.087279,-0.723338,-0.144775,0.137903,0.015119
1765410708.751564,-9.778215,-0.337757,-1.006097,-0.134238,0.140652,0.020464
1765410708.754606,-9.577354,-0.211621,-0.940937,-0.140041,0.144622,0.005498
1765410708.756734,-10.034073,0.068747,-0.543998,-0.139277,0.142026,-0.001680
1765410708.758620,-10.095646,-0.027499,-0.296509,-0.134238,0.149662,0.009621
1765410708.761615,-9.881634,-0.093257,-0.839909,-0.134085,0.149662,0.010996
1765410708.764603,-10.094451,-0.074127,-0.388570,-0.131947,0.149357,0.002443
1765410708.766611,-9.882831,0.016141,-0.490196,-0.136987,0.148898,-0.000305
1765410708.769619,-10.065758,0.233142,-0.463893,-0.141721,0.136070,-0.000764
1765410708.771551,-9.869678,0.274390,-0.638450,-0.146150,0.141568,-0.001222
1765410708.773664,-9.619798,0.284553,-1.209947,-0.141721,0.141263,0.009316
1765410708.774728,-9.334049,0.088474,-1.559062,-0.141568,0.141415,0.009621
1765410708.778640,-9.805116,0.263032,-0.526064,-0.141415,0.151953,0.002138
1765410708.779676,-10.014346,0.326399,-0.264825,-0.139583,0.159436,0.012981
1765410708.783648,-9.725011,-0.092061,-0.868006,-0.146455,0.141110,0.019700
1765410708.786664,-9.709468,-0.032281,-0.927786,-0.144164,0.139888,-0.001527
1765410708.788661,-9.629362,0.222382,-1.013869,-0.137750,0.154243,0.002902
1765410708.791629,-9.656264,-0.130320,-0.591822,-0.144164,0.142332,0.014050
1765410708.794594,-9.671806,0.045433,-1.196796,-0.147066,0.136376,-0.009927
1765410708.796644,-9.915112,0.326399,-0.923003,-0.151953,0.147066,-0.010385
1765410708.798621,-9.510998,0.288140,-0.963654,-0.146302,0.161727,0.005651
1765410708.801581,-10.018531,0.456719,-0.508728,-0.146302,0.148288,-0.001222
1765410708.803628,-10.260639,0.345528,-0.217599,-0.158978,0.149967,-0.001069
1765410708.805620,-10.002390,0.082496,-0.921808,-0.154854,0.144470,0.008247
1765410708.807657,-9.709468,0.063965,-1.192013,-0.147677,0.153174,0.002596
1765410708.811553,-9.836202,0.148254,-0.661167,-0.150578,0.156840,-0.004123
1765410708.814594,-10.196077,0.284553,-0.222382,-0.159283,0.150426,-0.005040
1765410708.816619,-9.982065,0.094452,-0.826757,-0.163254,0.143553,-0.001222
1765410708.819604,-9.774031,0.198470,-1.134624,-0.164017,0.143553,-0.008858
1765410708.821620,-9.780008,0.309660,-0.973218,-0.164323,0.159741,-0.003512
1765410708.823624,-9.866092,0.011956,-0.668340,-0.164628,0.154091,0.003360
1765410708.824628,-10.120754,-0.019727,-0.595409,-0.160505,0.141263,-0.004581
1765410708.828643,-10.147655,0.114778,-0.683883,-0.160505,0.146608,-0.013592
1765410708.831629,-9.903154,0.334170,-0.933764,-0.154549,0.161574,-0.005651
1765410708.832632,-9.675991,0.300096,-0.942731,-0.154854,0.156687,-0.000153
1765410708.834663,-10.032280,0.203850,-0.640244,-0.160199,0.141721,0.000458
1765410708.838676,-10.215804,-0.011956,-0.824964,-0.166614,0.140804,-0.001222
1765410708.841607,-9.819464,-0.126136,-1.115495,-0.162185,0.149967,-0.004581
1765410708.842700,-9.809300,0.167982,-0.810019,-0.168141,0.163101,-0.015272
1765410708.846599,-9.927068,0.297704,-0.674916,-0.168293,0.159436,-0.013286
1765410708.849600,-10.182328,0.169775,-0.252272,-0.169362,0.150120,-0.005803
1765410708.851640,-9.714250,0.007174,-1.201578,-0.170737,0.150120,-0.009774
1765410708.852654,-9.714250,0.007174,-1.201578,-0.170737,0.142484,-0.009774
1765410708.856582,-9.817670,-0.140483,-1.190818,-0.174402,0.144317,-0.013744
1765410708.858654,-10.390960,0.413678,-0.263630,-0.161879,0.145691,-0.015577
1765410708.861700,-10.084887,0.188307,-0.453132,-0.170890,0.153633,0.000305
1765410708.862646,-9.661644,-0.159015,-1.128646,-0.173028,0.153633,0.008858
1765410708.866641,-9.661644,-0.159015,-1.128646,-0.173028,0.145386,0.008858
1765410708.868618,-10.284551,-0.203850,-0.341942,-0.166919,0.141110,-0.003971
1765410708.871651,-9.894786,-0.141679,-0.906265,-0.172569,0.146913,-0.009927
1765410708.873580,-9.454207,0.065758,-1.851985,-0.176540,0.147219,-0.018937
1765410708.876579,-9.819464,0.112386,-1.070062,-0.173180,0.147219,-0.008399
1765410708.879579,-10.149448,0.143472,-0.472262,-0.162490,0.159741,-0.004734
1765410708.881584,-10.110592,-0.075323,-0.337159,-0.166003,0.159589,-0.002596
1765410708.883612,-9.544475,-0.198470,-1.162123,-0.178831,0.159589,-0.010385
1765410708.886638,-9.589311,0.105213,-1.379722,-0.170890,0.150731,-0.005498
1765410708.889565,-9.835006,-0.251076,-0.786705,-0.173944,0.137445,0.009927
1765410708.891649,-10.113581,-0.329986,-0.639646,-0.175929,0.145539,-0.007330
1765410708.894587,-9.689142,-0.150646,-1.291248,-0.171959,0.166155,-0.005956
1765410708.896572,-9.525944,-0.447752,-1.209947,-0.169515,0.155465,0.005803
1765410708.899606,-9.525944,-0.447752,-0.986370,-0.169515,0.147066,0.005803
1765410708.901708,-10.333572,0.031683,-0.428025,-0.168752,0.154702,-0.010079
1765410708.904720,-10.080104,-0.124342,-0.659971,-0.162185,0.171195,0.000916
1765410708.906694,-9.510998,-0.182927,-1.190220,-0.155618,0.165086,0.010996
1765410708.908645,-9.589908,-0.422047,-1.000717,-0.168446,0.146760,-0.001527
1765410708.909664,-9.589908,-0.422047,-1.000717,-0.168446,0.152869,-0.001527
1765410708.913601,-9.924676,0.166786,-0.857245,-0.164323,0.157145,-0.002443
1765410708.916631,-9.471543,-0.024510,-1.371951,-0.156687,0.157145,0.009621
1765410708.919655,-9.833213,-0.243305,-0.774749,-0.167683,0.155312,0.000611
1765410708.921586,-9.979673,-0.332975,-0.689861,-0.159130,0.165697,0.000000
1765410708.924600,-9.687947,-0.276184,-1.193807,-0.149204,0.157145,0.008705
1765410708.926605,-9.674197,-0.129125,-0.988163,-0.154854,0.163254,-0.000611
1765410708.929620,-9.919893,0.116571,-0.722142,-0.154243,0.160352,0.001527
1765410708.931637,-10.026302,-0.283955,-0.683883,-0.166003,0.159436,0.011148
1765410708.933627,-9.939023,-0.282759,-0.899091,-0.161727,0.161421,-0.002749
1765410708.936657,-9.928861,0.119560,-0.846485,-0.158825,0.171959,-0.004581
1765410708.938589,-10.046627,0.124342,-0.436394,-0.166919,0.163559,0.001374
1765410708.939713,-9.779410,0.295313,-1.225490,-0.163865,0.158978,-0.001222
1765410708.943651,-9.842777,0.188307,-1.178264,-0.160505,0.160505,0.010232
1765410708.946617,-9.410568,-0.339550,-1.264945,-0.157756,0.172875,0.016188
1765410708.948641,-9.675991,-0.001196,-0.988761,-0.158672,0.160199,0.000916
1765410708.951645,-10.059779,0.160210,-0.616930,-0.167988,0.169668,-0.001985
1765410708.953612,-9.739358,0.240316,-1.218914,-0.158978,0.164934,0.009316
1765410708.956630,-9.820659,-0.118364,-1.101148,-0.165086,0.163101,0.014813
1765410708.958673,-9.907937,-0.246294,-0.883548,-0.157298,0.156534,0.011454
1765410708.961622,-10.230152,-0.009565,-0.497370,-0.164475,0.171500,-0.002138
1765410708.964621,-9.807508,0.086083,-1.376734,-0.158520,0.166614,0.008552
1765410708.965121,-9.793160,0.114778,-1.184840,-0.157451,0.166308,0.003665
1765410708.967660,-10.182925,0.448948,-0.811812,-0.151342,0.174249,0.004429
1765410708.972623,-10.214011,0.514108,-0.392755,-0.155618,0.171042,0.017715
1765410708.973607,-10.056191,0.046031,-0.722142,-0.165697,0.166614,0.010385
1765410708.976646,-9.742945,0.141081,-1.488522,-0.159741,0.165544,0.014813
1765410708.977648,-9.775824,-0.066954,-1.092778,-0.158367,0.166003,0.012523
1765410708.979642,-9.856527,-0.068747,-0.989957,-0.158672,0.165850,0.006567
1765410708.984583,-10.331181,0.245098,-0.499761,-0.163406,0.160199,-0.002902
1765410708.986584,-10.155428,0.217599,-0.877571,-0.166308,0.170126,-0.003818
1765410708.988688,-9.802725,0.357484,-1.465208,-0.160658,0.167683,0.007330
1765410708.989577,-9.925871,0.178144,-1.221903,-0.167377,0.166919,-0.000764
1765410708.992626,-10.117167,0.236729,-0.618125,-0.167988,0.171653,0.005956
1765410708.996610,-9.956359,0.371832,-0.731109,-0.169362,0.176693,0.005040
1765410708.997621,-9.728598,0.063367,-1.351028,-0.176540,0.168904,0.004123
1765410709.001597,-9.573170,0.154232,-1.486729,-0.172264,0.164323,0.005498
1765410709.004649,-9.714250,-0.019727,-1.482544,-0.172111,0.164323,0.000916
1765410709.006618,-9.814680,0.013749,-0.901482,-0.169821,0.161268,0.000611
1765410709.007654,-9.877449,0.151841,-1.013271,-0.170279,0.173333,-0.016035
1765410709.011618,-9.750119,0.377810,-1.221903,-0.159130,0.172722,-0.002596
1765410709.013633,-9.577952,0.273195,-1.296628,-0.163101,0.166919,-0.002138
1765410709.016639,-10.171567,0.292324,-0.708991,-0.172569,0.164017,-0.014050
1765410709.019698,-10.104613,0.359278,-0.807628,-0.172111,0.170279,-0.005192
1765410709.021651,-9.769248,0.157819,-1.519010,-0.177456,0.165086,-0.003054
1765410709.024631,-9.697512,0.387374,-1.361789,-0.169668,0.165086,-0.011454
1765410709.027177,-9.948587,0.413678,-0.878766,-0.175929,0.175318,-0.003207
1765410709.029609,-10.134504,0.127929,-0.567312,-0.178678,0.173944,0.001680
1765410709.031716,-9.898373,0.318627,-1.056910,-0.175624,0.171042,-0.014661
1765410709.033679,-9.628167,0.352702,-1.389287,-0.178067,0.170737,-0.009468
1765410709.036723,-9.254542,0.419058,-1.712099,-0.169362,0.170737,-0.001222
1765410709.037709,-9.540291,0.223577,-1.321736,-0.184634,0.167835,-0.009010
1765410709.041665,-9.991630,0.353898,-0.743663,-0.184939,0.178678,-0.009927
1765410709.043743,-10.071137,0.477642,-0.949306,-0.188757,0.178678,-0.008094
1765410709.049006,-9.790171,0.120158,-1.142994,-0.184176,0.169362,0.006109
1765410709.049506,-9.582734,-0.150646,-1.365375,-0.188146,0.171806,-0.002749
1765410709.051641,-9.901362,-0.106408,-0.985174,-0.179442,0.168752,-0.011912
1765410709.053634,-9.860114,-0.020325,-1.037781,-0.187994,0.172264,-0.011759
1765410709.056617,-10.121950,0.070540,-1.064084,-0.188299,0.172264,-0.015272
1765410709.058603,-9.544475,0.053802,-1.512434,-0.187077,0.177304,-0.007483
1765410709.059620,-9.511596,0.111789,-1.642754,-0.193797,0.173333,-0.016035
1765410709.063644,-9.876254,0.057389,-0.844094,-0.192575,0.182038,-0.016035
1765410709.066657,-9.794355,0.042444,-0.988761,-0.187536,0.179442,-0.005956
1765410709.068621,-9.812290,-0.246891,-1.165112,-0.185245,0.179442,-0.001985
1765410709.071640,-9.497249,-0.075323,-1.679220,-0.189826,0.173028,-0.017715
1765410709.074622,-9.978478,-0.096844,-1.071855,-0.189216,0.166155,-0.014050
1765410709.075122,-9.760281,-0.050215,-1.263151,-0.177762,0.181885,-0.004123
1765410709.078703,-10.052606,-0.150646,-0.903874,-0.188605,0.177456,-0.012370
1765410709.079665,-9.999999,-0.192492,-1.046150,-0.187841,0.187841,-0.010079
1765410709.082679,-9.752509,-0.263032,-1.329507,-0.186925,0.182649,-0.011148
1765410709.086579,-9.533715,-0.199665,-1.352821,-0.178373,0.175929,-0.009621
1765410709.088640,-9.403395,-0.035868,-1.628407,-0.179900,0.175929,-0.013286
1765410709.091652,-9.884026,-0.008967,-1.061095,-0.186314,0.176693,-0.012523
1765410709.093653,-9.457794,0.021521,-1.861549,-0.169973,0.184329,-0.001833
1765410709.097349,-9.713653,-0.060378,-1.318149,-0.175624,0.179136,0.001374
1765410709.099614,-9.971304,-0.136896,-1.003108,-0.179442,0.187841,-0.003360
1765410709.101618,-9.937828,-0.081301,-1.174677,-0.174249,0.187841,0.006567
1765410709.103655,-9.577952,-0.373625,-1.579388,-0.176998,0.179594,0.008552
1765410709.106667,-9.678382,-0.046628,-1.537542,-0.173638,0.175624,-0.006720
1765410709.108706,-9.788378,-0.243902,-1.275705,-0.174402,0.189826,0.002596
1765410709.111661,-9.528933,-0.096844,-1.633190,-0.162032,0.184634,0.005498
1765410709.114596,-9.955761,-0.008369,-1.262554,-0.169973,0.184634,-0.001985
1765410709.116635,-10.228956,0.000000,-0.717360,-0.170431,0.194561,0.004123
1765410709.119597,-10.237326,0.014347,-1.071258,-0.173333,0.191048,0.004123
1765410709.120097,-9.820659,-0.060976,-1.482544,-0.168446,0.191048,0.007178
1765410709.122689,-9.562408,0.053802,-1.517217,-0.173791,0.194713,0.000458
1765410709.126674,-9.690936,-0.031086,-1.484935,-0.167224,0.186619,0.013592
1765410709.128625,-9.674795,-0.300096,-1.645146,-0.169057,0.184939,0.013744
1765410709.130408,-9.757292,-0.272597,-1.527379,-0.168293,0.192728,-0.001680
1765410709.133641,-9.782400,0.049020,-1.348637,-0.156534,0.197615,-0.000153
1765410709.136619,-10.026900,0.203252,-1.013271,-0.161116,0.195630,0.001069
1765410709.138659,-9.956957,0.251076,-1.090387,-0.161727,0.188605,0.013592
1765410709.141630,-10.214011,-0.020325,-1.104735,-0.175013,0.183565,0.004581
1765410709.144657,-9.959349,0.102822,-1.364180,-0.167683,0.190895,0.002902
1765410709.145157,-9.855330,0.276184,-1.575801,-0.167224,0.186772,0.010385
1765410709.148676,-9.855330,0.276184,-1.575801,-0.167224,0.187688,0.010385
1765410709.151663,-10.173361,0.215208,-1.051530,-0.165239,0.193033,0.011301
1765410709.154637,-10.153036,0.011956,-1.267934,-0.168293,0.177151,0.009621
1765410709.156694,-9.502031,0.138690,-1.951219,-0.167835,0.179289,0.001374
1765410709.159665,-9.983260,0.362267,-1.337279,-0.176540,0.181885,-0.000611
1765410709.161611,-9.870873,0.355093,-1.282879,-0.172264,0.189368,0.009316
1765410709.163694,-10.054996,0.120158,-1.126853,-0.183870,0.178067,0.003054
1765410709.166697,-10.251672,0.622908,-0.952893,-0.173333,0.191201,-0.004734
1765410709.168681,-9.729793,0.388570,-1.603897,-0.182343,0.178067,0.009163
1765410709.171661,-9.682567,0.460904,-1.455643,-0.178373,0.178067,0.013286
1765410709.174714,-9.771639,0.251076,-1.614060,-0.186467,0.180663,0.004581
1765410709.176664,-10.123145,0.422047,-1.091583,-0.173333,0.177609,0.009163
1765410709.178672,-9.579147,-0.005978,-1.866332,-0.181122,0.198531,0.010690
1765410709.181599,-9.754303,0.200861,-1.260760,-0.176082,0.185245,0.003360
1765410709.184616,-9.927068,0.101626,-1.126255,-0.191506,0.195171,-0.004429
1765410709.186589,-10.220587,0.336561,-0.951698,-0.181274,0.171195,-0.007330
1765410709.189613,-9.693925,0.436394,-1.840028,-0.184481,0.185398,-0.003665
1765410709.191646,-9.483500,0.377810,-1.953610,-0.182496,0.176235,-0.007789
1765410709.193626,-9.774031,0.796270,-1.475371,-0.182801,0.193186,-0.007330
1765410709.196641,-10.266617,0.462697,-0.956480,-0.187077,0.180969,-0.001374
1765410709.198615,-10.188903,0.333572,-0.832138,-0.188146,0.195630,0.001222
1765410709.201623,-9.778812,0.205045,-1.654113,-0.198378,0.193797,-0.007483
1765410709.204659,-9.720228,0.211621,-1.438905,-0.201738,0.186772,-0.006414
1765410709.206652,-10.008368,0.252272,-1.101148,-0.200364,0.178984,-0.016341
1765410709.207747,-10.123145,0.610952,-1.007891,-0.196240,0.186925,-0.012981
1765410709.211680,-9.565996,0.248087,-1.825681,-0.206931,0.191812,-0.009621
1765410709.213698,-9.534910,0.468675,-1.506456,-0.195477,0.191964,-0.008094
1765410709.216697,-9.862504,0.147657,-1.217121,-0.208763,0.186161,-0.007025
1765410709.218719,-10.292920,0.478240,-0.508130,-0.205098,0.178220,-0.011148
1765410709.221631,-9.752509,0.047226,-1.798780,-0.215788,0.190437,-0.011606
1765410709.223685,-9.360951,0.151841,-1.875896,-0.215788,0.180969,-0.011606
1765410709.226725,-9.402797,0.132114,-1.878288,-0.212887,0.184787,-0.016646
1765410709.227712,-10.075322,0.358680,-0.558345,-0.209985,0.184787,-0.018021
1765410709.231691,-9.808702,0.453132,-1.376136,-0.212276,0.201891,-0.008247
1765410709.233636,-9.280247,0.090866,-2.167025,-0.207389,0.180969,0.002749
1765410709.236683,-9.280247,0.090866,-2.167025,-0.207389,0.183107,0.002749
