time,acc_x_g,acc_y_g,acc_z_g,gyro_x_rad_s,gyro_y_rad_s,gyro_z_rad_s
0.0,-0.440579,-2.085126,-0.031086,0.004276,-0.002749,-2.364354
0.0025,-9.890647796186846,-0.38797399565300283,-1.9938685541658723,-0.001047037063870352,-0.0029385867302192566,0.008576524842707342
0.005,-10.896527000957642,-0.24122440191528544,-1.606624770276243,-0.007720459226519338,-0.03258102725598527,0.03465629285451197
0.0075,-11.253876140458015,-0.39230346244274794,-1.947969754503817,-0.057401623511450374,-0.08957391007633587,0.05333999648854962
0.01,-11.919309761646655,-0.24005035650085765,-1.550368978044597,-0.10889473379073757,-0.17274819210977702,0.08635127080617495
0.0125,-11.918103649952338,-0.6609374747378464,-1.2370029060057168,-0.16363933422306964,-0.262475180171592,0.11876532259294567
0.015,-11.26849969520661,-0.4023309038016533,-1.8366336912396697,-0.20656710677685947,-0.3249978730578512,0.13441150148760334
0.0175,-10.596988354509055,-1.619021879313635,-2.050853198970448,-0.22654880198284078,-0.377515,0.18747326821734997
0.02,-11.240169866407768,-1.3397772726213595,-1.2336034291262141,-0.21296310951456307,-0.38124787922330095,0.20623012388349515
0.0225,-10.329764276059956,-1.69313290124197,-1.8700157425267658,-0.23379099229122052,-0.40979495580299785,0.2197303121199144
0.025,-9.7260350033366,-0.15626144808635756,-3.1463322296369043,-0.28067022531894026,-0.39756128027477916,0.21641790991167806
0.0275,-9.77842191286224,-0.47088903614561056,-2.707359661727338,-0.2814237392433976,-0.373697,0.23151384810849393
0.03,-9.660064243613313,-0.7405065778763853,-2.3170147170206037,-0.32113693597464343,-0.39843846104595876,0.22036826079239302
0.0325,-10.357084266381156,0.4476645039828703,-0.9564670020556773,-0.36699558218415423,-0.3283802845396146,0.19714326226980733
0.035,-10.551764439455976,-0.4148710832068718,-1.7263884884180374,-0.35613148168933423,-0.3662106414889047,0.1852434607015032
0.0375,-8.85716214680648,0.09808854756911062,-2.5712103750238313,-0.38996268312678734,-0.3243985405147759,0.14569605529075313
0.04,-7.079812514807951,-0.5669354759470194,-3.3120407609006586,-0.380240695602649,-0.2433944735629139,0.13913233345695364
0.0425,-10.346806861184866,-0.5259854102212734,-0.9000161213418978,-0.34046394652391143,-0.20415094004282625,0.09205713250535343
0.045,-11.526678532579261,1.2538630424678594,-0.1697699183890316,-0.37338953436161093,-0.09852268675235692,0.06215244051413874
0.0475,-10.52454764022879,-0.4042877429551973,-1.621278741963775,-0.3878635484080076,-0.1281084806482364,0.07216058737845564
0.05,-10.0792667177481,0.565169532633584,-0.29227013377862715,-0.3366461524809161,-0.06294445744274824,0.0113894198473283
0.0525,-8.204715262519091,-0.2856026584351102,-2.604739916984739,-0.38111374679389304,-0.06415789931297715,0.025327383282442745
0.055,-9.741073722892768,-0.6261532092768088,-1.6520791502244396,-0.36872960778054864,-0.01309863551122194,-0.004942003990024917
0.0575,-9.667255190458,0.9488392641221424,-0.10594122190839933,-0.3348734672519081,0.05476565366412267,-0.021998169999999713
0.06,-8.692909652025767,-1.0337693775805274,-3.2450020894201868,-0.3639294023192556,-0.044746,0.009882584939155526
0.0625,-10.41904846183206,0.27346859923664124,-0.4933859809160306,-0.3331029961832061,0.05633087022900764,-0.030728358778625953
0.065,-9.939106471442162,0.17969628190173814,-1.4028319572107613,-0.3459666872266245,0.003423758763867076,-0.03493416890649758
0.0675,-9.476398546310783,-0.6920162665395434,-0.9630831376930082,-0.34272151805529005,-0.011301,-0.04407517830314601
0.07,-9.294196298032793,0.5204583533114651,-0.49265440265574556,-0.37212244380327913,0.007234620754097932,-0.013100815344262006
0.0725,-9.893630037407055,0.11110805002858165,-1.4418571398283806,-0.320380467988561,-0.08416737445185787,-0.032979857616778116
0.075,-10.232769077597705,0.009848035081024158,-1.6910936730219375,-0.32922094184938067,-0.115842717445186,-0.02894004537654885
0.0775,-11.320973716259543,-0.07703371030534292,-0.7635822485114478,-0.3730062490076335,-0.16576010851145045,-0.03733487431297711
0.08,-9.042594240917303,-0.5673460338568451,-2.2327479540236377,-0.29748234487838765,-0.18783591444058378,-0.0343060292425296
0.0825,-10.420420229590079,0.4620060542993284,-0.40873081979028386,-0.3217800876263107,-0.2735470184175408,-0.02799016968541457
0.085,-8.995664958444058,-0.06835236875205619,-0.4256332239222193,-0.3556900621069694,-0.26033259001620773,-0.020384459708265502
0.08750000000000001,-10.981605017701602,0.5572228346894995,0.868169007851507,-0.28625162198429677,-0.3083185950035682,-0.0593317890078512
0.09,-8.604523654947577,0.490095362592956,-1.2084679409342152,-0.33611152408007633,-0.3855991602669207,-0.05065425994280271
0.0925,-10.755004989950033,0.015552890449676282,1.19382832588151,-0.30684798686652387,-0.4327641227408993,-0.08073080876516768
0.095,-9.901959,1.270325,0.775944,-0.249538,-0.4064911840991422,-0.071471
0.0975,-10.790128663984747,0.5688527397140116,1.9211811513822756,-0.25378892442326034,-0.4469537861582455,-0.10560343321258345
0.1,-8.764042574058589,1.0331821215062875,0.2076464348117315,-0.18398569907949797,-0.44173440217573207,-0.11059308518828447
0.10250000000000001,-9.743496723889429,0.9151162914394791,0.5208435104289706,-0.210749,-0.4471989204194471,-0.118661
0.105,-8.626565046140795,0.9915691618659839,0.44892417475827145,-0.16487051056827837,-0.42243627776081444,-0.13219318517387602
0.1075,-8.936327756717558,1.1013250864885484,1.314171310458016,-0.15773508725190846,-0.3621900677099238,-0.14663817755725198
0.11,-7.862311440794282,0.3476763116441623,0.3548914338999224,-0.16672331644162033,-0.31251898684670376,-0.1288006216679905
0.1125,-9.299120288549611,-0.21454332519083646,1.646094578625942,-0.11881394961832059,-0.2228685618320604,-0.1033212946564886
0.115,-7.787175191490062,-0.397518931655625,0.11613353913906571,-0.0902562679801325,-0.15688546122516564,-0.059629031026490226
0.11750000000000001,-8.88034775740705,-0.6038990416777892,0.9033528997902655,-0.05249964613917995,-0.09279977403241149,-0.010369193174451757
0.12,-8.906745296078434,-0.5847011114027163,0.40417961294118143,-0.01784265568627453,-0.018854345218702898,0.02798548352941179
0.1225,-9.870152369868892,-0.07310010603098951,0.2579522437663861,0.010421716662693748,0.013053625268176359,0.011850723623361136
0.125,-10.208454927980133,0.3649739312913907,0.2963628476821192,0.00164546440397351,-0.0016704528145695364,0.0039795471854304635
0.1275,-10.011179996491897,0.1397139511534784,0.43246336472831376,-0.01610710917063873,-0.015958373918017184,-0.001854267988560527
0.13,-9.894385946170676,0.07620875754923402,0.3218105804813974,-0.01891519168490157,-0.015504976805251688,-0.007734403676148765
0.1325,-9.848537303625953,-0.20739938851145076,0.4156958756106855,-0.012714044198473275,-0.00941335530534349,-0.0015337156106869578
0.135,-9.866075722033306,-0.11831338608238443,0.32781413472393,-0.0032739178615250825,-0.00168,0.0026931041191938193
0.1375,-10.072837900595946,0.06252530488677266,0.42302044410011447,-0.003373059117997718,-0.003665,0.0008508224076280185
0.14,-9.965025972069718,0.09535469115468562,0.2862691329411788,-0.010406889150326983,-0.007587371241830168,-0.0017893972113291249
0.14250000000000002,-9.979194372696897,-0.054040857470166875,0.42394442004772426,-0.01206425326968944,-0.007207500190930407,-0.003909778090692112
0.145,-9.843032310509983,-0.1374893221729458,0.2629779122838192,-0.01138717933481121,-0.003604255964523317,0.000890047583148431
0.1475,-9.970828796948746,-0.07968037825983132,0.37313806135875854,-0.005498,-0.006307856209773421,0.0009319180929678367
0.15,-9.979673,0.011956,0.326399,-0.00672,-0.004968602616822486,-0.000764
0.1525,-9.96220176467223,0.019573840095351132,0.3314599787365931,-0.00822797787842672,-0.006213353420738944,-0.002126338355184736
0.155,-9.927485328950032,-0.06191237374691756,0.30173772343672944,-0.005058770388059705,-0.0029282775600259605,-0.0036514851239454883
0.1575,-9.94874033568534,-0.05418915261025013,0.3391344302741362,-0.008826447103694852,-0.007941,-0.0013440155423122867
0.16,-9.851815798730165,-0.02245151250793595,0.258910385777786,-0.008258488507936488,-0.005764826666666816,-0.00034045092063494773
0.1625,-9.681356756138266,0.28804412943981134,0.34426240762813487,-0.009709428605482663,-0.004435701072705215,-0.007429780452919926
0.165,-9.959213466596637,0.28144493525209785,0.3958103897058747,-0.006904277857142852,0.0055153701260502695,0.001183021806723191
0.1675,-9.816440439284866,0.03950818112037274,0.15546334073898257,-0.009287911704409875,0.007147350798569573,0.0024644564481526693
0.17,-9.903003007626465,0.07548678793774116,0.24557545848248893,-0.00737114603112829,-0.000458,0.0019499413229574119
0.17250000000000001,-9.938627933460625,-0.025189579665868097,0.2471190208114632,-0.009276345393795057,-0.005956,-0.003609528019093046
0.17500000000000002,-9.900208762962968,-0.06019810648146094,0.2109998101851945,-0.008624108333333345,-0.009392921296295865,-0.0016449240740741729
0.1775,-9.881725047342172,0.024043481508332583,0.2637655611726066,-0.007158674433767185,-0.008221408402870714,0.0005450354263471549
0.18,-9.943422948999029,-0.07545196046647193,0.30485499428571416,-0.006567,-0.006057281632653058,0.0005097767152575374
0.1825,-9.930740003279933,-0.18519867249555003,0.3464882022166844,-0.006974431940192236,-0.007952040640797431,-0.0017924580799810086
0.185,-9.955755096654729,0.043598666790348115,0.3071015752269125,-0.005222708417777254,-0.0032554858615628465,-0.004386979625432985
0.1875,-9.885832382375389,0.0759836776844948,0.26257172353666414,-0.007009221393765044,-0.006076231022133505,-0.0019423748605647858
0.19,-9.869978583598952,0.06474110244538009,0.2965647313609281,-0.008144065168824979,-0.007789,0.0010410100548184668
0.1925,-9.95826971327223,-0.01689299642423538,0.43640330824901813,-0.008393733093679325,-0.007348800718962024,0.0037930306534936288
0.195,-10.053142981844745,-0.08790752571887302,0.4377293835626552,-0.008706844302801636,-0.007112555138476367,0.0013408480147708022
0.1975,-10.017047633509838,-0.12649387770706844,0.35194242211318927,-0.008161930211318917,-0.009072797415593872,-0.0019618004857906318
0.2,-9.984817958103951,-0.09607713378026594,0.38991262490732737,-0.00811662034860794,-0.006462898193863854,-0.004051827131477255
0.2025,-9.976241323817407,0.04995461999527044,0.41676223874172125,-0.009039197771996209,-0.003665,-0.004820334380321644
0.20500000000000002,-9.880873925658605,0.09606014467245766,0.2901993118948101,-0.007944346264381306,-0.004572961206856084,-0.001762400601080055
0.20750000000000002,-9.84809075277027,-0.019693638667954524,0.285483779324325,-0.008015725067567573,-0.00709403970077222,0.000754974276061798
0.21,-9.995995241686801,-0.11631256303624325,0.4124630758057893,-0.008252064125826308,-0.005456943834055188,-0.0016854407020742775
0.2125,-9.95983468241445,-0.09660467079372628,0.34620360807984807,-0.007590332200570344,-0.00543898519486692,-0.0008943766159695838
0.215,-9.885269576611211,-0.06248416872233895,0.27512922240671955,-0.006980944357938944,-0.0050545441770311755,-0.0006497667452753986
0.2175,-9.800857992666826,0.007371380802659644,0.24617503623842313,-0.007099372662075516,-0.005263940850154355,-0.0016782840940394199
0.22,-9.869911817035689,0.07857428552346285,0.3465928966748437,-0.00935858445833663,-0.007598680715359656,-0.0019424155416633685
0.2225,-9.896602648847397,0.03220157953321339,0.35904250846678626,-0.010469673220825851,-0.00505107060682226,-0.0003906732208258513
0.225,-9.904878142244963,-0.08802898448992648,0.344827288295491,-0.009470785545251038,-0.004527506619763354,0.000103077710265429
0.2275,-9.944339090115406,-0.04660378241769927,0.3490235077296175,-0.007481969177258947,-0.0033612030016486752,-0.001221312409721852
0.23,-9.912668782390044,-0.03460284877945004,0.30368485040046783,-0.0069711487677498254,-0.00395734603414349,-0.0008805795819815973
0.2325,-9.896696004149613,-0.019103249447188754,0.29768296592801763,-0.006763509743589748,-0.004625509743589748,-0.0008075097435897482
0.23500000000000001,-9.936743196707356,-0.0019882830297339622,0.3681705825852893,-0.007878621220657285,-0.004793269934272294,-0.0009253062159624349
0.23750000000000002,-9.957175304887983,-0.014402714358452584,0.3230942547861502,-0.008535176680244382,-0.004518781059063157,-0.00014615468431772438
0.24,-9.92857439583066,-0.06249325410362211,0.3120291222497323,-0.008393262277242844,-0.005471949228182798,-0.0005055635213204961
0.2425,-9.93063294807136,-0.07552422302796537,0.3735193179845708,-0.01032831612343299,-0.0043575296046287305,-0.0002348264705882363
0.245,-10.017236941640926,0.00825124633204604,0.37556903764478766,-0.008849607799227796,-0.0032338462548262663,-0.004984637837837815
0.2475,-9.978610205891583,0.005628406847360916,0.3487086342225392,-0.0086681097574893,-0.003207,-0.0020073411269614866
0.25,-9.942489572419968,-0.06448305910006716,0.3290830949182897,-0.010796299977613612,-0.005451299977613611,-0.00029258003134094467
0.2525,-9.93624813441903,-0.06242178622994815,0.32214776897834707,-0.009487299942665447,-0.00640473272095151,-0.0014365250430009159
0.255,-9.915216044217484,-0.05303067825635375,0.28514541528050974,-0.008552,-0.005050067750413085,-0.002138
0.2575,-9.87119929612568,-0.054578939306344554,0.2167841341003021,-0.008625524311782479,-0.0008602909196374549,-0.0016975749558912326
0.26,-9.891632335165786,-0.06454359770969499,0.28574911171457895,-0.009615328628809962,-0.00039778841616130826,-0.00020413308655587844
0.2625,-9.987564383724912,-0.016101752363740073,0.4382435349757443,-0.011018101911918574,-0.0028933627223437686,-5.776399695615088e-05
0.265,-10.003961287702843,-0.0032820554855892015,0.43854176024350805,-0.010332881982307616,-0.003654884434509659,-0.00036247242271473574
0.2675,-9.891124330128752,-0.0010930865236054282,0.2260451224034263,-0.010618502203147381,-0.0014603780257509782,-4.76912160228708e-05
0.27,-9.888289284899423,-0.0665639641883675,0.3109674011196016,-0.011284746396382354,-0.0053265302853578896,0.0006773839638234622
0.2725,-9.97721729767994,-0.07399917322285396,0.38519783507791144,-0.011333084941874818,-0.0067511600296808714,-0.0016398879198614796
0.275,-9.923751599952586,-0.019496052216514598,0.2684470839193985,-0.008717565594626619,-0.002241399225602528,-0.0011140789095219327
0.2775,-9.868196771740571,0.03071612685889636,0.198643906770052,-0.008146595864631309,-0.002758093091026606,-0.0013124424812212146
0.28,-9.915666568469318,-0.0037691747002121492,0.3134607597084435,-0.010078318805549021,-0.006109,-0.00014204711027506782
0.28250000000000003,-10.038857,-0.044237,0.493783,-0.009927,-0.005343342030288643,0.002291
0.28500000000000003,-9.879447236345221,-0.06876172929604708,0.2403650299421326,-0.009478662786885233,-0.0011115814561233756,-0.0008414998746384809
0.28750000000000003,-9.921559598044944,-0.031584729725218544,0.28172287865530254,-0.008617130619300221,-0.004662591714847756,-0.003563974870358264
0.29,-9.970831610361177,0.015018876353221479,0.32332946884964175,-0.008392640776451864,-0.0057765491169451295,-0.003549149702466223
0.2925,-10.015375342354664,0.05689751566194455,0.3407341609574991,-0.009235545266243275,-0.003512,-7.77362579384493e-05
0.295,-10.025629377578094,0.0038027593673779503,0.3314684024140371,-0.010963105965850956,-0.0031493289857581295,0.0009818169202926933
0.2975,-10.042127918895764,-0.09544072712041793,0.3949560926891948,-0.011690759581151866,-0.0017601069585911652,0.0005468238648263278
0.3,-10.024619969000234,-0.10278200921329914,0.38610788159681597,-0.01008557280496371,-0.002116750152189177,-0.002125854390072579
0.3025,-9.981622095500937,-0.06632069067997522,0.31131878595633256,-0.009199427303805376,-0.004390008883343706,-0.0026137673661884
0.305,-9.921233940375181,-0.008953740464967327,0.2229053167035432,-0.007749679461279458,-0.008552,-0.0020342129549462892
0.3075,-9.964750937042089,0.050922860456148585,0.2987635198401126,-0.008858,-0.007579745215142261,-0.001833
0.31,-9.998840449937276,0.026033123795156876,0.3561540618975784,-0.009731146410480347,-0.004630033953156015,-0.0005999665867407729
0.3125,-9.994005024005649,-0.055322426335608375,0.3280449345728407,-0.011377409978818547,-0.004123,0.0017181149682278182
0.315,-9.93649706507825,-0.09738328268604274,0.3096022826860428,-0.01014460834877036,-0.004674963973171512,0.0004208764963270499
0.3175,-9.906044754299941,-0.030044044974510794,0.25506656941790157,-0.00865799612566687,-0.006555076893894494,-0.002128661515115595
0.32,-9.93462088682518,0.02989,0.24786052212460716,-0.010385,-0.007791167811719183,-0.003971
0.3225,-9.971399174361627,0.02585890668704437,0.30568582724664994,-0.009830507462967309,-0.005531957869739005,-0.0029014362849752932
0.325,-10.017408428185119,-0.001505872610677762,0.3724724805995516,-0.008888954183728663,-0.005192,-4.459899559607728e-05
0.3275,-9.993018117926502,-0.0448150728514646,0.32585606141964785,-0.010424669866147486,-0.0054062645964143815,-5.120576295934438e-05
0.33,-9.9579320351229,-0.10634480140180133,0.3080582552640544,-0.011593440389389153,-0.006706032689218796,0.002416482219518146
0.3325,-9.976057846459598,-0.1314790742295545,0.30451896567823417,-0.012747677791798091,-0.010641923999029346,-0.0018736798641106871
0.335,-9.9683936554685,0.03644939043492255,0.348350143402622,-0.010669246929964809,-0.008392399290054345,-0.004109163978253901
0.3375,-9.929859837307085,0.11182214400291578,0.2934973154453753,-0.009715860007291306,-0.007031878916028709,-0.002043378004617796
0.34,-9.917861220903573,0.018062773164076826,0.26732981692028773,-0.010996,-0.009263925336276912,-0.000764
0.3425,-9.968756008078309,-0.08302791221422212,0.3508316940234037,-0.010406322047704739,-0.009600525238523843,-0.0002785431413141045
0.34500000000000003,-10.031938928582157,-0.12373413363598426,0.40802738470833594,-0.009459050608361882,-0.00905616787448886,0.00022221714428770248
0.34750000000000003,-9.973693070931287,-0.10564455522148501,0.33223748235786443,-0.01188373422392745,-0.009783738611789364,-0.0026124099128008475
0.35000000000000003,-9.91257791893688,-0.01542791639632243,0.2862652393980877,-0.011182471878053477,-0.012081942661715795,-0.0028512072698846356
0.3525,-9.978347799291416,0.07513698337413531,0.3572989833741353,-0.010144733642515003,-0.010235308553181787,-0.0015220317463696437
0.355,-9.915963696458235,-0.03180917876849455,0.3275591312267307,-0.012967119121718341,-0.006569048992840161,-0.00044616811455850227
0.3575,-9.936802750472985,-0.10873305508263673,0.36548551161728443,-0.011552344434160717,-0.006261,-0.0004913637285894573
0.36,-9.977507761421684,-0.13163592420949452,0.4107919755241438,-0.010487565660593187,-0.006608666505433446,-0.0010084260707574092
0.3625,-10.00522768774058,-0.05927697454800014,0.4264672157004554,-0.010305503534352037,-0.007211015093899454,-0.0019914733465531288
0.365,-9.908163632242308,0.03019153019346648,0.3093533828131942,-0.010079,-0.008075056882334274,-0.0021423178433238213
0.3675,-9.840598595716513,0.04852750947595627,0.24114988235999488,-0.010853433390094725,-0.010500294706799376,-0.0014533479314066445
0.37,-9.905545222227207,0.05360321201089574,0.33915050446402806,-0.013286,-0.010588657529242108,-0.0007636872296106414
0.3725,-9.928283967038789,-0.0016141969252600405,0.3594425913812679,-0.013247096915799433,-0.010370479356669824,0.00011384097445600774
0.375,-9.893191824898706,-0.10919095503297052,0.27100106681496783,-0.013439212044172559,-0.008552,0.0008649895924366409
0.3775,-9.92284213660241,-0.1317052428481927,0.3284761307277111,-0.01401142261686747,-0.00832103998072289,0.001402370380722886
0.38,-10.013952537171098,-0.07279045606652537,0.4788293620679375,-0.013691918355691534,-0.008046163288616931,-0.002343081644308466
0.3825,-9.967810009976157,-0.021642180810681776,0.4049939707963748,-0.013873772093466866,-0.009225237310443496,-0.002308170929899851
0.385,-9.82924146003032,0.03276169214713177,0.1809101046261869,-0.015228630329530037,-0.011086983205936334,-0.001016470935929148
0.3875,-9.904708855067012,0.06195304180578385,0.25126205116388584,-0.013757399553256515,-0.012003254361627075,-0.0014074845285680737
0.39,-10.070670716279144,-0.004018209987224866,0.47151144557010555,-0.01286350240498244,-0.010335552804215905,-0.001738410389651865
0.3925,-10.060343247662964,-0.05137302566393035,0.45321839267020625,-0.013082017479478486,-0.010305979068083053,-0.001073799309512308
0.395,-9.956176820297328,-0.03965473559386366,0.3060905558911906,-0.01140179319626761,-0.010791409704254315,-0.0012719990352680806
0.3975,-9.922600701648523,-0.03049686445747065,0.28081041915061644,-0.012909018509391067,-0.011675642024165586,-0.0022961882426127404
0.4,-9.979674931011372,0.016440007995212925,0.3338721654099348,-0.012828014625972484,-0.010002932375822799,-0.0012979981807301
0.4025,-10.033031368732,0.01781002972596345,0.37976878750890264,-0.013215340851525,-0.005984500089797163,-0.0003268750673478722
0.405,-9.995579724274759,-0.02593829291054379,0.36727017483067004,-0.013311956252396175,-0.004450411667731621,0.000611
0.40750000000000003,-9.91590826953668,-0.08309433179054093,0.2860801658011576,-0.013880212799227788,-0.004530706221042518,0.000373431259652494
0.41000000000000003,-9.91232007768498,-0.08676225950460408,0.2685781272721506,-0.01387385805970151,-0.007710674048904436,-0.001633395411241702
0.41250000000000003,-10.051797896614215,-0.055715216118264584,0.4672530513114084,-0.0137140434907009,-0.011410746399618666,-0.0018752536003813348
0.41500000000000004,-10.02619413074774,0.028291163451110133,0.365639458438783,-0.015119,-0.012210876943303178,-0.0021358567296630966
0.4175,-9.993082564864421,0.0878916127808424,0.29978374061274843,-0.015119,-0.010331342312478004,-0.0014779580655006504
0.42,-9.937610773067616,0.04784745987188738,0.2757287018078289,-0.01598125264056938,-0.007437553395017822,0.0010875729252668685
0.4225,-9.955937989225983,-0.01992826424691914,0.3463409050173462,-0.016315488426845316,-0.008265777983012316,0.0020634652805359447
0.425,-10.010455960478199,-0.11816477735583616,0.3634164686357247,-0.0143424613220816,-0.00986189774964837,-0.0005593755274261236
0.4275,-9.991392005853948,-0.11542366241917307,0.3344707490300766,-0.012535374441478325,-0.008444396556919979,-0.0028016697894049872
0.43,-9.984739533445515,-0.10317470420516145,0.33323893490170686,-0.012263550450610786,-0.009006988078634403,-0.0036945245303778044
0.4325,-10.015301149658718,-0.06294146205236113,0.39212212005610075,-0.014120563510986442,-0.012970599588592795,-0.0023249248667601722
0.435,-10.037911851729787,0.024843081826291427,0.4375360014824427,-0.014258307258129916,-0.013755597087016465,-0.001642305152866757
0.4375,-9.977952701671768,0.03662713115140099,0.370412373204615,-0.013604590063574288,-0.011815993407110901,-0.002687476571697669
0.44,-9.988522767543282,-0.037360174693614676,0.41263562680731153,-0.012167360293099283,-0.014495615675980355,-0.0005203506079394464
0.4425,-10.04182565087479,-0.07901463885906787,0.47717267295227367,-0.012538127703537343,-0.016057494944413254,-0.00040819096238069413
0.445,-9.936337141972665,-0.046044614720895716,0.2558155742137322,-0.01381705862670838,-0.017197298508150834,-0.0033390650156430073
0.4475,-9.858860955778415,-0.01840017533906376,0.09729869377268495,-0.013323319140401146,-0.017521713505253105,-0.0026706382808022937
0.45,-9.98732377269026,0.01742439931099276,0.33930787052928346,-0.01363766589414344,-0.017371497839022858,-0.0021073364234262364
0.4525,-10.01066800622793,0.0063051968341769436,0.3901302248326934,-0.01415555432522534,-0.01595381382886775,-0.0009860020940857055
0.455,-9.71487243185952,-0.0014245228275550758,-0.013649365547053594,-0.016408684421431816,-0.017438776073840655,-0.002163953057181441
0.4575,-9.741118028849728,-0.022528540054564377,0.03566871809762613,-0.016203342425895884,-0.017910120570712288,-0.0013844347515115712
0.46,-9.775782813300399,-0.044251969920365904,0.0939063600737359,-0.015908377270314113,-0.01826461997787937,-0.0006170614437398553
0.4625,-10.016273051118212,-0.08830699552715594,0.3855797993610232,-0.01573,-0.01395463322683698,-3.560191693296436e-05
0.465,-10.058214672845821,-0.00906692143989038,0.38722545814806286,-0.01318989163685753,-0.008399,-0.004111449789449856
0.4675,-10.020031527571692,0.049009229709653025,0.3366486827329632,-0.013627901465450433,-0.011633507327252168,-0.004308174788052229
0.47000000000000003,-9.987121556431132,0.084888,0.29361020052258385,-0.015177814482593838,-0.013932020368039517,-0.00283098073448573
0.47250000000000003,-9.953220263143162,0.07852200787569638,0.26066291662199004,-0.017682413958012098,-0.014322626938678683,0.0013818569137706532
0.47500000000000003,-9.95289679228624,0.033353959327435664,0.28307290622360476,-0.01845241842377882,-0.014718166276197325,0.0023999430870985275
0.47750000000000004,-10.050387009803373,-0.033298928244383505,0.37396574842696717,-0.020368199522471903,-0.015434791657303333,-0.000458
0.48,-10.096244,-0.10043,0.413678,-0.020006,-0.01397526023865573,-0.000458
0.4825,-10.078929389212366,-0.09519538155631903,0.38978632487030757,-0.018394346436100967,-0.014885205069288155,-0.0009723909605590254
0.485,-10.005812174579734,-0.062135077637077984,0.3068992878397486,-0.014245590893951277,-0.016188,-0.002559967255302438
0.4875,-9.976088,-0.028694,0.306074,-0.01741,-0.016561208580699427,-0.002138
0.49,-9.969761085988063,-0.021623493840942157,0.3057017370414583,-0.018075466726891427,-0.01863884445878367,-0.0018528889046620452
0.4925,-9.955761,-0.005978,0.304878,-0.019548,-0.019309831044496496,-0.001222
0.495,-9.974393318065202,-0.010160849657651749,0.332255756012746,-0.01794508316038893,-0.017825971324454605,-0.0018046475496364053
0.4975,-10.025256974095372,-0.01853193290322581,0.37765850760168307,-0.01538634854137447,-0.0197,-0.0034357928330995776
0.5,-10.060845641899835,0.04159900329179403,0.33546944321655303,-0.015829116858687986,-0.022914634375734776,-0.0015127462967317192
0.5025000000000001,-10.03529301794829,0.03323069928273535,0.3614143677731449,-0.016573239499583007,-0.023716057514595514,-0.001936773377814859
0.505,-9.983000886506218,0.013745492114359494,0.3403304102342108,-0.016906541696010337,-0.023536948260377968,-0.0015506121531255013
0.5075000000000001,-9.908392521080952,-0.024141473203397344,0.26815662301088206,-0.01626240852804015,-0.022489075647494944,0.0005767304173144324
0.51,-9.939585534771654,-0.09002896552126012,0.30445740726299225,-0.014661812444094481,-0.02306,0.0019351122236220442
0.5125,-10.014161849810963,-0.16526897918241854,0.34723070552929985,-0.013336684357277837,-0.02306,0.0002407959357278791
0.515,-10.067172802240076,-0.1906305969676237,0.3445811355278017,-0.014966,-0.02350140442287806,-0.003735371550393775
0.5175,-9.999174041735014,-0.09066148190567092,0.2692579860440878,-0.014966,-0.023940832642806394,-0.006062894771272765
0.52,-9.903637849660957,0.10815267930034848,0.2428000468144243,-0.015267237148676175,-0.018555065537318755,-0.003261679400982358
0.5225,-9.890580863234362,0.11961091619093123,0.2641573664782839,-0.01602739044387358,-0.018479,-0.0014116330318418326
0.525,-9.908204275972823,0.10546623855775125,0.32339261114885837,-0.017122073780111192,-0.019494830620753575,0.00027529363804819096
0.5275,-9.988345860627406,0.04246677601321015,0.4572081292768272,-0.018258897422124398,-0.0215759487110622,0.0018845316015409731
0.53,-10.108892443384823,-0.07374649286769741,0.5974674580792472,-0.017373773082605782,-0.021075,0.00316168075218266
0.5325,-10.123145,-0.151243,0.547585,-0.017715,-0.02220003750631837,0.002138
0.535,-10.082472064195668,-0.12291740610745691,0.5050963054210089,-0.018039698248596643,-0.027388283496391354,-0.00022783223416207024
0.5375,-9.976134768946617,-0.02599921398951547,0.38329178040991546,-0.01881687895614871,-0.028196976167778855,-0.005388398141086763
0.54,-9.902540514611987,0.07249279615141886,0.2610462330725539,-0.018326916198738146,-0.0270187649274448,-0.003443338160883243
0.5425,-9.868170208839725,0.015872139171570446,0.21023304246646166,-0.017410894657566466,-0.027336,-0.0007629049517533738
0.545,-9.962337,-0.044835,0.304878,-0.019242,-0.027604876901565118,0.001069
0.5475,-9.97187501886727,-0.06379363703556756,0.3409111504374755,-0.019572928144751506,-0.02683907010534148,-0.00043514721031101414
0.55,-9.988341316732418,-0.06956907486655504,0.43074353464840764,-0.021442647946159226,-0.022258234439545194,-0.007229586493385967
0.5525,-9.922510136311345,0.11474421775547608,0.29543852388202196,-0.021607596338269513,-0.025887403661730486,-0.0073009219483539676
0.555,-9.858461877855612,0.20290447596854805,0.2825610636454622,-0.018680438055754176,-0.029991019013581127,-0.0007623532523230557
0.5575,-9.865110085730825,0.12021515378678291,0.33855913143270616,-0.02166375341051616,-0.028930209831162575,0.0008725068210323175
0.56,-9.85387391200892,-0.07526445189740534,0.30488415227656196,-0.021130287583240346,-0.024940058486538106,0.002556854516488809
0.5625,-9.875870740654205,-0.1656467803738318,0.24634645327102805,-0.018564102803738318,-0.023873492990654204,0.0030045303738317755
0.5650000000000001,-10.004184345645173,-0.17377626316964498,0.4676519628962047,-0.017587858137691148,-0.026016239349567143,-0.0021450342981960166
0.5675,-9.913191580192056,-0.08278519576526341,0.37812174936336646,-0.017478500794309414,-0.024435,-0.004922379912270303
0.5700000000000001,-9.767097301220627,0.06269796644157624,0.17289324310529858,-0.015690120615927568,-0.02561109200417042,-0.004549667508220355
0.5725,-9.767137426499527,0.0855390092762533,0.1547257769489132,-0.018050091357615896,-0.028683026456953652,-0.002090828263954562
0.5750000000000001,-9.879997635123274,0.0032315447219314272,0.3336921093114159,-0.018976256379159045,-0.02866879722333028,0.0019007310939120345
0.5775,-9.899467082951494,-0.07192745219305657,0.3040269058860538,-0.019921908010160885,-0.02474,-0.00012314805370753658
0.58,-9.95926149546754,-0.038038797150223264,0.40996408426529135,-0.02157319461917034,-0.02474,-0.002902
0.5825,-9.970251773675377,-0.0024302757803882566,0.4157508530328452,-0.022890534653560272,-0.026064547619276006,-0.002762537894989206
0.585,-9.92759903704913,-0.007716627374037978,0.3248482233872246,-0.020089806630042405,-0.02981551973002671,-0.0025819921079893162
0.5875,-9.862026985107155,-0.02084439353432494,0.24425975088993776,-0.019326684852887795,-0.027391582927715177,-0.003240189829277154
0.59,-9.834408,0.065758,0.211023,-0.021838,-0.025198047189316546,-0.00336
0.5925,-9.867733214109306,0.02945046826262151,0.2439592916053328,-0.021076206450666293,-0.02662068056730648,-0.0025318315001833444
0.595,-10.028339140004345,-0.10586741885677016,0.450881093440554,-0.02333729580525959,-0.02309691558356883,0.0003222958835035899
0.5975,-10.066227141221065,-0.06388774376157352,0.4606624983622685,-0.021407214033564784,-0.02261383640046296,-0.002630480763888927
0.6,-10.10068866023341,-0.01914829882330288,0.45915102379436734,-0.01870435971257719,-0.022305372202932102,-0.005719168171296269
0.6025,-10.081220720704382,0.027787749059573798,0.4278967716248268,-0.02355414482327956,-0.02370694622705126,-0.004276
0.605,-9.967679936553818,0.04754655963270557,0.3572778030405622,-0.020567291858831046,-0.02171183023315233,-0.0031349869817949745
0.6075,-9.94088267249504,0.0031433461669583183,0.36631988070986776,-0.021007174300058423,-0.024214174300058424,-0.00036568798598945925
0.61,-10.116034773469387,-0.014195199090908973,0.3724521978293146,-0.02065556840445272,-0.02316245241187388,-0.0027220372912800965
0.6125,-10.118001532760383,-0.048048604783941955,0.44661158261914924,-0.018884276507001592,-0.022907,-0.0017529796502193404
0.615,-10.08153320834436,-0.07464453499242722,0.4822874044990037,-0.018303031728975683,-0.02324546355041849,-0.0015929271008369803
0.6175,-10.014670795593664,-0.06538521474335851,0.4600902012051937,-0.01917252523520304,-0.025645900002381983,-0.003436680671668494
0.62,-10.002900710342084,0.016580795124900502,0.44133600393953887,-0.01990919728878281,-0.03179309864439141,-0.004199195990453463
0.6225,-9.969168180303907,0.05110687960926302,0.28155990293776834,-0.022026375991316936,-0.033116545499276444,-0.0024537642257596985
0.625,-9.911690346604964,0.0418970314370063,0.15137034197718024,-0.021893397271204023,-0.03150109861964414,-0.0006584165802281975
0.6275000000000001,-9.891289079697868,-0.05072219866009977,0.17065914892612138,-0.02179410750738921,-0.025094034272577857,-0.001241601274220053
0.63,-10.067659621054272,-0.04805590957153964,0.6730143780420677,-0.021859073217346137,-0.022022837413658795,-0.0023738613866528206
0.6325000000000001,-10.034908937606286,0.009900125044660188,0.4933536894890982,-0.023056301964987532,-0.026895776377277723,-0.004636679914255148
0.635,-9.979652177329323,0.06292053367218063,0.29029867267969856,-0.024448552421052636,-0.03038568960601504,-0.005464584763909768
0.6375000000000001,-9.914708442727706,0.05634802651405227,0.1402266977587131,-0.02673616175488826,-0.031154,-0.0021305787315207122
0.64,-9.938617245535323,-0.04868771652040392,0.2556222947871878,-0.02646139749232118,-0.030373786083808686,-0.0003121877555945609
0.6425,-9.989956497079461,-0.06295728389726535,0.3586878190859726,-0.02480633069335585,-0.0286732591583264,-0.0013045436874471706
0.645,-10.068470381576125,0.025234102542603092,0.46652556291543257,-0.024296845370029598,-0.024541249447155772,-0.002897162614609142
0.6475,-9.94857007780029,-0.0361634719633361,0.3551677230053088,-0.024330323589001418,-0.026142080434153253,-0.0003713784225759193
0.65,-9.984984557275256,-0.10106812465245538,0.34892992636700887,-0.025656,-0.03290078827618166,-0.003831927432808178
0.6525,-10.138849561444541,-0.03809584027515086,0.5485048426827198,-0.025156121650902884,-0.033277943181427384,-0.005483943181427385
0.655,-10.011646633933736,-0.00412666590760574,0.3076552502659793,-0.025360395912272588,-0.03169929825478303,-0.002678154064395687
0.6575,-10.007481538956057,0.013613152624423225,0.30986234028647713,-0.025191749973294493,-0.030278548079630995,-0.0022242349065307154
0.66,-10.006211948182074,-0.05382563817925046,0.3124059222731126,-0.022860660842521845,-0.03048322802374898,-0.00035912867401747617
0.6625,-9.94283408375806,-0.1586508019035928,0.32174123104083463,-0.019548,-0.0330175641080749,-0.001650208136321675
0.665,-10.014552078314663,-0.05858647789576067,0.5321502732830041,-0.024530827900633316,-0.02919443282513387,-0.007647470418899236
0.6675,-9.981485611116941,0.058895494595754015,0.38501464848398237,-0.02227453170522301,-0.03641321217584858,-0.006063010735352584
0.67,-9.964919679840289,0.06392532864851738,0.32605397321234075,-0.0217601303908046,-0.038179,-0.0037143435402298445
0.6725,-9.934125312925952,0.024176657253774717,0.2965823456218549,-0.022318066599568642,-0.03614874855499646,-0.000978512954708862
0.675,-9.890236559923483,-0.03027212344970521,0.2672701758966997,-0.02377330243902439,-0.0306908993145226,0.0008677797863860833
0.6775,-9.975865305159543,-0.045461968529376964,0.3220494625456245,-0.023821858655363237,-0.03298132906158012,-0.0003373523560579213
0.68,-10.074763653573047,-0.0720495629109668,0.5401758556773233,-0.023989169270694898,-0.034605238730555786,-0.0019794153646525516
0.6825,-10.054067463178178,-0.06227419321648292,0.47489836026465526,-0.023618630073128262,-0.035125,-0.002859779746952983
0.685,-9.900865037292723,-0.008971458225765158,0.24512434464587798,-0.024856923542019193,-0.03579907296752885,-0.00535466550318268
0.6875,-9.924448865583457,0.0626092895125554,0.25448731019202364,-0.02524407680945347,-0.03767492319054653,-0.004322293943870015
0.6900000000000001,-10.07671443066509,-0.02374298943116472,0.4231556021364914,-0.02447914740512822,-0.03745443823274155,0.0010097031984220147
0.6925,-10.1193063840696,-0.066369357283712,0.4990517923827935,-0.026015262112131475,-0.03377969697438375,-0.001574823808603189
0.6950000000000001,-10.030214322658471,-0.1650068906865589,0.4267348520728195,-0.027095109927615536,-0.031156704882649794,-0.00012027546391745587
0.6975,-9.97131045336019,-0.1681082909399121,0.4363719833736158,-0.02410488976502182,-0.035431885535414584,-0.003200979425981904
0.7000000000000001,-10.016428760073426,0.11328784786600571,0.49266393354749666,-0.02315787173015136,-0.03678247191372177,-0.00542027246443302
0.7025,-9.895486972863848,0.07034887873359788,0.28662539050680036,-0.025678917452750707,-0.036652,-0.00145103933550016
0.705,-9.820659,0.034672,0.157819,-0.027336,-0.03719439770261644,0.000916
0.7075,-9.850428570058263,0.009910255809833613,0.2020565792449329,-0.026234371391284043,-0.03794105448613375,0.000916
0.71,-9.953818225825989,-0.0915392789841364,0.32251203710623394,-0.023079213802275258,-0.038322404566575805,5.689014901461378e-05
0.7125,-9.964508537929383,-0.10948333749850264,0.3209923095392007,-0.024825415679234027,-0.040186775152603146,-0.0029470371274686363
0.715,-9.93254919202874,-0.0020394532047652743,0.4681966141425612,-0.02613516754017776,-0.034056,-0.005671167540177761
0.7175,-9.856697766978003,0.051687923615050674,0.37219775321106596,-0.02340980835192535,-0.034056,-0.0029458083519253503
0.72,-9.884112519386502,0.056534487607362016,0.393567592208588,-0.023747242392638018,-0.039902455337423294,-0.0023341321472392707
0.7225,-9.980253429325154,0.0512306051956843,0.48075723008462135,-0.02552573997672945,-0.041596104112544975,-0.0016564508102390437
0.725,-9.96676770388795,-0.05759586969331086,0.4802288544312977,-0.024602771939145125,-0.03717826916203816,0.002669985848828809
0.7275,-9.971180947586205,-0.06677243942261546,0.39956490960705715,-0.025991596343223764,-0.036652,0.0008269802726543992
0.73,-9.923485362734617,-0.11231005349906793,0.34747043696706154,-0.027706888551895577,-0.03826462026103166,0.00017659709136113363
0.7325,-9.947829799578011,-0.05814141810599068,0.23964232860370463,-0.028552198664515267,-0.04056921775350604,-0.004953754250961925
0.735,-10.09989234168567,0.10051784153735757,0.4594391812646523,-0.02620468101746272,-0.03146,-0.005249012050075765
0.7375,-9.964076003345449,0.04998796353939016,0.3707458509090868,-0.02663525124848487,-0.03296675873939411,-0.0020999360484847246
0.74,-9.833112023410777,-0.10541568882566757,0.29284421478109623,-0.027630046916390073,-0.038943,0.0014444105389600208
0.7425,-9.95804328414094,-0.14484743029422337,0.4660483088703255,-0.02753151274972752,-0.03916675610606613,-0.0007458060297857224
0.745,-10.060441985143129,-0.09069870849280413,0.49796854236280264,-0.026057399446465283,-0.04082399004270124,-0.0025492778111655826
0.7475,-10.022724268063918,-0.035574589481239566,0.37189258053728086,-0.02699727768874488,-0.04187772231125512,-0.004377027707271917
0.75,-9.96905804007852,0.009735582283657777,0.2586764325208572,-0.02978,-0.03968709635203664,-0.005345
0.7525000000000001,-9.98034442991332,-0.006305171772564198,0.3473389988516901,-0.02931725313717688,-0.04094210020516897,-0.005090527093439331
0.755,-9.970872640820676,0.01164027880079526,0.3573086009638171,-0.026769818003976136,-0.04017745273638171,-0.0036896462345924427
0.7575000000000001,-10.02200807023166,0.009548610004824128,0.47367164817567325,-0.02918789911196916,-0.03646646756274131,-0.0007698405260618674
0.76,-10.042426072444446,-0.04626959800000002,0.47260420728888947,-0.029527019844444436,-0.03697017773333334,-0.002766111377777775
0.7625000000000001,-10.150645,-0.052009,0.603778,-0.027642,-0.03839857627719963,-0.002138
0.765,-10.137443489269842,-0.02108023301587257,0.5739811426031742,-0.0298581830687831,-0.037673551873015854,-0.004016944677248705
0.7675000000000001,-10.062722717610939,0.052676459169542895,0.41732316149909443,-0.03296913594764997,-0.03682805089827501,-0.005943569827483333
0.77,-9.9513141395343,0.050915608925127004,0.2146345367118791,-0.02834154170129362,-0.04231516459114076,0.0013576774033712403
0.7725,-10.057528402765103,0.013075178518692079,0.4855399285398455,-0.030219725652480545,-0.04093404805078807,0.0020204457465319296
0.775,-10.040335400517261,-0.05991474378684085,0.5011645905930456,-0.031154,-0.032954182798027164,0.000916
0.7775,-9.9498999851192,-0.156235904040004,0.3695851485986745,-0.030380187975346022,-0.03395553406675175,-3.353183858581944e-05
0.78,-9.971611853715068,-0.12447028092706015,0.4393254960599887,-0.027659853142467616,-0.0450376146148603,-0.004549054369461525
0.7825,-10.120584769599603,0.03245359747658115,0.6342644117847966,-0.027423411088452282,-0.0472251144259306,-0.007541446459421395
0.785,-10.129938766396418,0.04492472395589836,0.6233527193965016,-0.028220513129403973,-0.04058752316670803,-0.005284004801458978
0.7875,-9.936502425032812,0.04523569139720909,0.2321127798114769,-0.029226301753967288,-0.038860301300560764,-0.0008256118362964051
0.79,-9.96135858356086,-0.04316394658711254,0.39180377626730534,-0.031066534510739877,-0.041346213546539404,-0.0007691990167064966
0.7925,-10.02724070014994,-0.0502528124498192,0.4528535519613087,-0.03161394750181381,-0.04152464897702544,-0.0036823594873035123
0.795,-9.93766955387991,-0.04642022110180517,0.3536930079698004,-0.02974313643505955,-0.04200694504187806,-0.0032175535684794087
0.7975,-9.900799424591849,-0.04159520759651075,0.3543207642978364,-0.028933809910362124,-0.043982,-0.003277604885861109
0.8,-10.013858822209963,0.04959744582282538,0.45109444807692545,-0.03117548795712488,-0.04439751268915513,-0.0045955965006305105
0.8025,-10.06068698373741,0.0757518718805547,0.5392169793008657,-0.03292782477070744,-0.04464825093020502,-0.00401029161749023
0.805,-9.925237676769799,0.032031433789083796,0.38988687347394074,-0.03245064601066885,-0.04104652578087809,-0.002072061446040167
0.8075,-9.888429873505794,-0.04393856297787636,0.33748000338990936,-0.03163485303055133,-0.04047388008896172,-0.000683610932927538
0.81,-9.988195379518727,-0.13939962168605585,0.5003935349290822,-0.030457227780079667,-0.04424000413067733,-0.002538633899601599
0.8125,-10.036339566361287,-0.15140800234907212,0.4186389896640827,-0.030665248766737138,-0.04621479516091144,-0.0025157134132017854
0.8150000000000001,-9.943067178299177,-0.1113420369469052,0.3454115269130241,-0.034141444105212256,-0.04693938741326444,-0.00399225545263852
0.8175,-10.03402610047681,0.1236083450888607,0.5051395846033819,-0.034514695101863876,-0.046756286345903786,-0.0066825983701776955
0.8200000000000001,-10.122676897639538,0.13998473207376916,0.6039078976395384,-0.032013588050398674,-0.04748508398806984,-0.0011060542869315748
0.8225,-10.013120383490994,0.01111299413205212,0.46806304799999815,-0.03222253540936376,-0.04673053540936376,0.0010863007875150032
0.8250000000000001,-9.772794211209158,-0.10814501248111912,0.113766952142457,-0.0343122769377534,-0.04882059538914063,-0.0008481442563002843
0.8275,-9.765964102510424,-0.11671852564150113,0.095299143316352,-0.03407290717924965,-0.0489198606947661,-0.0035989410838350978
0.8300000000000001,-9.896385910399268,-0.10853240741624114,0.35433633611748805,-0.033202314670338046,-0.04853428975370956,-0.0032579110601193974
0.8325,-9.993270813758542,0.07395171383447424,0.5114606586484475,-0.03272222915717543,-0.044181213151100886,-0.005923198754745651
0.835,-10.00926676022094,0.09894741599514509,0.5986633705857372,-0.03454591023732928,-0.0422461986233687,-0.0037085293742033934
0.8375,-10.015062198204161,-0.002643635633272863,0.525839947826087,-0.033726028071833565,-0.04872193402646526,0.0007829400756144337
0.84,-10.053426971971653,-0.11069280105639284,0.534766327525592,-0.03241869644436367,-0.055051894486643646,0.0004569236513417272
0.8425,-10.010224759999998,-0.12677529700903162,0.44425602299096123,-0.033544604657075955,-0.053868761070592096,-0.0017331778655068528
0.845,-9.860338515663601,-0.06242601163600428,0.09460893755584741,-0.03346796552562419,-0.05019735384362678,-0.0017221415374507115
0.8475,-9.86145952844466,-0.0890120160591567,0.1986980317748159,-0.033185977041984796,-0.052219919732824416,-0.0038270887309161204
0.85,-10.042593629849781,0.12173321918914486,0.5478336093684378,-0.03710314556614438,-0.049942928282991475,-0.006915409820707515
0.8525,-9.986880329931415,0.15241095791700332,0.4999829836568589,-0.03870753181448329,-0.0474704612019064,-0.0028197197024293214
0.855,-9.811937895860114,0.022776206354757866,0.2598995835003154,-0.03694990966918715,-0.051465,-0.0005582911436672861
0.8575,-9.876949948945969,-0.04524152282045207,0.29558109298765,-0.035888,-0.05109729491640413,-0.001833
0.86,-10.013546946484805,-0.10034753364281725,0.589558470524049,-0.03555644202281248,-0.04863832606843744,-0.002306609944962903
0.8625,-10.083226400277779,-0.08705950444444284,0.5994382636111136,-0.03514369958333337,-0.047270176388888974,-0.003652165833333363
0.865,-10.097581825174121,-0.016898602334605203,0.6407867330789843,-0.03657440989041318,-0.05254197669291337,-0.004688258228752335
0.8675,-10.037731071975909,0.028583889469490947,0.49171162294570636,-0.037710409512000775,-0.05759906484456647,-0.004355907866442275
0.87,-9.9618876448,-0.04792380159999701,0.21741143840000268,-0.03939874400000002,-0.05272250720000009,-0.0003299696000000512
0.8725,-9.974600193623052,-0.08634771418264083,0.3374048097535454,-0.03928181411120372,-0.05180481411120372,-0.0030509384617217064
0.875,-10.043377615594418,-0.07706850882400128,0.5501614693566501,-0.03843470247072036,-0.050281452350393066,-0.004998740494144072
0.8775000000000001,-10.137846336988177,-0.06456773102600591,0.7187741159479807,-0.036877522832151365,-0.04687275488888891,-0.0042267287801418
0.88,-10.009604162632879,-0.10213613089807956,0.40682745700852635,-0.03824860479400748,-0.051564764899195176,-0.0039763591553111845
0.8825000000000001,-9.92194559340381,-0.014203037124722095,0.42545968389007977,-0.038451132600422974,-0.061111468245243196,-0.007889872980972778
0.885,-9.963360923969775,0.09977307481168557,0.5564153978437555,-0.03985445815672042,-0.0594002649872077,-0.007120200597370129
0.8875000000000001,-9.913856629309745,0.07523029013437217,0.47749335672446497,-0.03914390913058446,-0.056963,-0.003464364534282707
0.89,-9.783595,0.014347,0.241511,-0.035888,-0.05718539315225277,-0.002138
0.8925000000000001,-9.836508460752905,-0.019302971978770414,0.2730882497104303,-0.03654206083976846,-0.05869248924710442,-0.002138
0.895,-10.0686446905563,-0.13016268043748486,0.3793327532772048,-0.03886157447163427,-0.062133959515304114,-0.004053435430010266
0.8975,-10.051439939822846,-0.023172256059378178,0.36647867897533887,-0.0380884718123055,-0.0545138233469003,-0.00833841688293034
0.9,-9.875526196815589,0.10722920907794722,0.45260056230988643,-0.03721459681558934,-0.044135,-0.007161714971482878
0.9025,-9.818152277250597,0.1278922835513145,0.525108590682576,-0.03780862961336506,-0.04683373769928379,-0.004918023961813926
0.905,-9.953411277965447,0.010955008073630847,0.631385871603424,-0.04283796694332311,-0.059781014642338176,-0.0013934301243339487
0.9075,-10.120035397576194,-0.05840307333094194,0.6039612642954514,-0.04260165918967376,-0.06370137303693081,-0.0024041429186088693
0.91,-9.989996344726487,-0.16694797175526738,0.2895019813440313,-0.039859,-0.061595074265874496,-0.0006594107399120806
0.9125,-9.976517404409858,-0.25417460723971363,0.28688917210234327,-0.03938044515976892,-0.05745371463270843,-0.004004649428133424
0.915,-10.046627,-0.155428,0.524868,-0.03711,-0.05722604129106446,-0.007789
0.9175,-9.984339513374405,-0.028654726589099483,0.4198341990235043,-0.038482916084873316,-0.06044911734428479,-0.008100766360939983
0.92,-9.814934622432608,0.16413766356105453,0.15330539333691706,-0.04090216848245772,-0.058643,-0.00639068578805805
0.9225,-9.72503380362338,0.13209531582430806,0.0816464898416836,-0.04120626294012618,-0.05816363576717059,-0.002952032148553778
0.925,-9.873322786504948,-0.06873619551771361,0.47745652060407273,-0.04079057119447347,-0.0562,-6.0284777893870704e-05
0.9275,-10.239651024201919,-0.1434271030169449,0.8630887566773314,-0.04118664393885532,-0.056392117947624124,-0.003246327683374803
0.93,-10.169539807237157,-0.15825458200488837,0.7054946912469349,-0.04054865261613696,-0.057897465819070945,-0.005120320684596638
0.9325,-9.981056759030011,-0.01926814643937655,0.3983499285282104,-0.04286409732533012,-0.06233139630252098,-0.007253037214885961
0.935,-10.12104351320005,0.08878763177780437,0.610543663244346,-0.04303806869388241,-0.06752096861008025,-0.00474393110978087
0.9375,-10.154600147265077,0.059564962131837304,0.6326229985974755,-0.0418124296400187,-0.06884511407199627,-0.0021633155680224406
0.9400000000000001,-9.986822542534942,-0.08673576602700993,0.2875538518644843,-0.04147745157071787,-0.06779076299455096,-0.0002937812651031263
0.9425,-9.88450614696179,-0.15342348808705314,0.24121092444664352,-0.04120031402992455,-0.06276124868554468,-0.0029856213874118968
0.9450000000000001,-9.967435925609623,-0.11655927769829516,0.563887790670549,-0.036467054913921916,-0.05954859439037827,-0.00284821080103762
0.9475,-10.047175765085196,-0.12517295817764293,0.6928395546682777,-0.039392918216314216,-0.06687067403021153,-0.003102623216918461
0.9500000000000001,-10.028479303961658,0.03304094185303915,0.5344759722683626,-0.043770647188498456,-0.07332836600638962,-0.00881094150159744
0.9525,-9.901347936254794,0.14320985983959042,0.24023963638730528,-0.04493764766244332,-0.06857,-0.006866902266651111
0.9550000000000001,-9.802417969756732,0.019730405479667756,0.16781414532288869,-0.04259483943101909,-0.06888961311565509,-0.0001369343376707457
0.9575,-9.963633752746645,-0.14053626738304745,0.5302795858175132,-0.04112751208893008,-0.06784454560444643,-0.0008105120889300747
0.96,-10.206189459034483,-0.1461667648551712,0.8692682875034534,-0.04096753533793109,-0.06004003845517246,-0.0012014348137931417
0.9625,-10.010142744685647,-0.1848425859411706,0.4795793304200694,-0.03844658208814961,-0.06524175391410598,-0.0012058821915233917
0.965,-9.834653097882017,-0.07785823925136502,0.2584358427165738,-0.03998090053225929,-0.076969,-0.005824362937692427
0.9675,-9.971613972526432,0.12473879187750729,0.45431777166606313,-0.043066,-0.07638178670069262,-0.010079
0.97,-10.002594408812646,0.13773782754666147,0.5693282378206692,-0.04344663198792788,-0.07173617416885084,-0.00655893281868011
0.9725,-9.833264965399122,0.02253137858854043,0.2991509981923857,-0.044518339006049124,-0.06582726418218475,0.000662636052662752
0.975,-9.848059808698412,-0.08918526011111069,0.3592736887142849,-0.04507524811111112,-0.06424509565079363,-0.001702454492063484
0.9775,-9.97243883505195,-0.13842466326165825,0.4941111291036529,-0.04307850878956258,-0.06889975971007507,-0.002184032230007226
0.98,-10.097744720434447,-0.0880105455445433,0.6513380139118041,-0.043363230973945024,-0.06964094687162445,-0.004697677281737762
0.9825,-10.133231595198874,0.01690337927000815,0.7571186989424443,-0.045164313766962984,-0.06737637480580252,-0.0067936275339259685
0.985,-10.005711546322146,0.07320947394959933,0.6439017749390324,-0.04514557010335617,-0.0680414070677041,-0.004004970916269897
0.9875,-9.922150954576436,0.08107660944498592,0.46815552409931616,-0.045651515628042795,-0.07058777353943549,-0.0024204997078870463
0.99,-9.931001436875821,0.06397543587713575,0.4110027457785805,-0.0442233729500657,-0.07785981128777925,-0.0012417191688567787
0.9925,-9.939601053721836,-0.06121901614722581,0.4711897368408623,-0.04478350876489319,-0.07393247109118795,0.0013418011749439624
0.995,-9.9698033132504,-0.18977286161337098,0.4697979109883231,-0.04357351958177517,-0.07549080993360298,-0.000684740453331289
0.9975,-10.028132208309895,-0.16939153692149922,0.5564134611199169,-0.04506594959856826,-0.07584801196624893,-0.006133052937867701
1.0,-10.015473538763102,0.002591178174253937,0.4923674275542043,-0.04842288807104569,-0.0730451400112009,-0.009831440355228418
1.0025,-9.965484051856835,0.09677576259428414,0.4167092730530887,-0.047735181263511936,-0.07392640846504914,-0.006932359288974458
1.0050000000000001,-9.949329528857392,0.06518855977256825,0.3866785947628352,-0.04685380531817125,-0.0760456438414206,-0.0019105210343484235
1.0075,-10.030123063170734,0.044608624036830136,0.45794612039821,-0.047425146719761016,-0.07367805022896948,-0.0011003059780985616
1.01,-10.05076567857109,-0.09147470708910924,0.5157867741718812,-0.046710602106930704,-0.06899878299247525,-0.0017171761647524798
1.0125,-10.013467701336515,-0.16136728921241084,0.5668267335560834,-0.047438756849642084,-0.06920039460620507,-0.003782151455847157
1.0150000000000001,-9.985244401663994,0.014781321472021075,0.6564699589119999,-0.047155420288000315,-0.075289,-0.010154506496000382
1.0175,-9.967572060919997,0.20720093953444554,0.48730913834908535,-0.05092099231588157,-0.07714031438150477,-0.007669846651306825
1.02,-9.966453293164802,0.24988,0.46719027843505495,-0.05006459630191403,-0.07631901964126639,-0.004576871722643531
1.0225,-9.96825246059406,0.18329767207921305,0.5128429580198001,-0.049202953663366265,-0.074984,-0.0014113097029703407
1.025,-10.056056114274012,-0.0645923080864285,0.661340306596818,-0.052033708020952744,-0.07562106030446875,-0.0003445904567031269
1.0275,-10.256690181006139,-0.11935894481341938,0.7802038923618279,-0.05113016622106759,-0.07670891262635798,-0.002596
1.03,-10.09386630294717,-0.1921600412882296,0.557903002894652,-0.0505941535032437,-0.07607616462156319,-0.0036148263206673137
1.0325,-9.81750065853445,-0.13005378896099484,0.2840446871746251,-0.047623770047393335,-0.0779122176011666,-0.007287171957710435
1.035,-9.878290844555,0.10250148037589485,0.41214414206743555,-0.05084441899391918,-0.07763429160862358,-0.011689009331122324
1.0375,-9.96387609319159,0.16635598905876073,0.5369112482799786,-0.05364336055900618,-0.07691730047778314,-0.005821983038700029
1.04,-9.914819899549547,0.004682762385832449,0.4807154736408817,-0.05271128740913325,-0.0771705748182665,0.000659574818266507
1.0425,-9.820659,-0.098039,0.444763,-0.051618,-0.07449727457243463,-0.001527
1.045,-9.916950563626349,-0.12840917657493078,0.536945478078307,-0.05253066525554325,-0.07521507306809222,-0.0026222580751689654
1.0475,-10.148534375505177,-0.15414758027105763,0.7325487872547999,-0.05458349020206996,-0.08330860687530814,-0.006638110956136405
1.05,-9.934747208174112,0.02789731177750869,0.38147495733976977,-0.055232122321644546,-0.07909270239419561,-0.006711984232164168
1.0525,-9.801900287073925,0.004106718050867684,0.24031778935108197,-0.05462939302115522,-0.07805484590444497,-0.005573910206798197
1.055,-9.892702479218627,-0.06628716441515285,0.49550980212753726,-0.053788582781831046,-0.07942378423158378,-0.0027698696916923127
1.0575,-9.980919543187886,-0.04565969816083555,0.6639792529246367,-0.052541057831470075,-0.07554559182834457,-0.0043722026060825404
1.06,-9.960150090176068,-0.05382537375169433,0.5792588871151144,-0.05149254414446951,-0.072998,-0.0028572193047402598
1.0625,-9.887085367497034,-0.11818597097667062,0.49040164887307236,-0.05085634986160537,-0.07738379090549624,-0.001743251640964808
1.065,-9.946578806026615,-0.14882995317490452,0.5798180404942935,-0.05235612863117866,-0.08137329835076038,-0.004979852219581651
1.0675000000000001,-10.046176962259995,-0.12585394787320786,0.678039027689474,-0.05293832286632942,-0.08427227783187863,-0.0089132115388149
1.07,-9.963679886739174,-0.0030916155512884583,0.4906178907400248,-0.050869238956422834,-0.07774351801805623,-0.007586549734840358
1.0725,-9.81847585263119,0.042472701034768995,0.38478963338928357,-0.050716236694641696,-0.072846,-0.005250184620492473
1.075,-9.798331708448805,0.028636948341120474,0.4968135622931306,-0.050244,-0.07453478137619755,-0.00336
1.0775000000000001,-10.00287401968676,-0.047423708655433404,0.7038811182361462,-0.05099451760000024,-0.07930666908915689,-0.003119787190361369
1.08,-10.128591759245875,-0.19153752461900977,0.6954935806692829,-0.052688004694422516,-0.08289467911390419,-0.003511995305577484
1.0825,-10.059706994298342,-0.14951104698342405,0.6028670100478809,-0.04968646071454882,-0.08203167586003676,-0.006778906003683244
1.085,-9.899198303198984,-0.014297055252301452,0.5472413756902552,-0.05064402023484607,-0.07712230921612181,-0.005602180666455148
1.0875000000000001,-9.898373,0.020325,0.653993,-0.050855,-0.08078289857908241,-0.002443
1.09,-9.900810458058007,0.031816206557378095,0.5928809257503097,-0.05285645916771771,-0.08258870264817146,-0.002131655435056718
1.0925,-9.864981708581432,-0.016816645083818596,0.341440435936945,-0.057441600030022494,-0.081398,-0.001088973590192623
1.095,-9.977631648684177,-0.2031606625185526,0.6643770099611193,-0.05452208110731538,-0.08297763934503473,-0.004200918463894402
1.0975,-10.046285979708887,-0.18028871143510253,0.8479655454637264,-0.05610873061951155,-0.08106138563695424,-0.005620362949596977
1.1,-10.013921834771404,-0.11218129169349156,0.771633866452011,-0.057269,-0.0812751101094657,-0.006414
1.1025,-9.855736057021474,0.019716719554267317,0.35022562240278393,-0.05777409186302964,-0.08438745225769005,-0.006110944882182217
1.105,-9.954278839359155,0.07541980826398875,0.5230835975801001,-0.052949520420851395,-0.083078,-0.001321378747011073
1.1075,-10.021622628483431,-0.0861014013206256,0.6731475253208664,-0.051214831242135564,-0.08040433724489192,-0.0005471564815147812
1.11,-10.058219091339573,-0.17491188807677008,0.7417592434641693,-0.05152561512467563,-0.0777652653284039,-0.0025374806607412104
1.1125,-10.057153254365458,-0.12975641519560982,0.7067743345658387,-0.0536661808683206,-0.07634612106393136,-0.007216713311068655
1.115,-10.077975873668766,-0.06696942649549509,0.664839304132047,-0.052385779137229894,-0.08286159192727849,-0.0058173071716768965
1.1175,-10.120919773358072,0.0355118827829268,0.631666390000003,-0.051860613766233514,-0.09233320528756958,-0.006806570946196623
1.12,-10.049167973311578,0.14449862658401152,0.5443988395171279,-0.05928655526264284,-0.08863635711582338,-0.00628426683197371
1.1225,-9.937384793342869,0.06763344019074276,0.5052244687458249,-0.06010587019551727,-0.08130912980448274,-0.0019485578254648684
1.125,-9.964693169216286,-0.10978540927277007,0.5672672424099788,-0.05529041798070134,-0.085521,-0.00014558201929865843
1.1275,-10.182381057615894,-0.13897877629138738,0.860393153509936,-0.05472554609271512,-0.08371298821192077,-0.0023435460927151187
1.1300000000000001,-10.059963183787854,-0.12518332522925568,0.6567719657464275,-0.05489529169879078,-0.0834495007781637,-0.006327972017239478
1.1325,-9.911769059130432,-0.030557252173907486,0.43373245970063773,-0.05441245625089108,-0.08670688417676412,-0.009495791931575223
1.135,-9.919869605956908,0.11798599222116608,0.44003619935044463,-0.05817697632129278,-0.08884691607097593,-0.008341922642585532
1.1375,-10.075801023874392,0.11837459051027596,0.7170590200877359,-0.05824998979450485,-0.09001338136689002,-0.00295350667282393
1.1400000000000001,-10.120754,0.072932,0.854854,-0.053756,-0.08364280878119691,0.000916
1.1425,-10.096487032167023,0.05451493972641825,0.800252869316044,-0.054586367919366614,-0.08383609955363601,-0.0004678257163429656
1.145,-9.992400185806451,-0.037369562431640024,0.5369058620813185,-0.05767303802171672,-0.09284082028057387,-0.006143564168978351
1.1475,-10.025592502938569,-0.03283175527242497,0.5360625466602763,-0.05660683539216855,-0.09644826748892364,-0.0052659719410848484
1.1500000000000001,-10.108381756882872,0.1877310126925033,0.7965987971068722,-0.05818673812412492,-0.089339,-0.00776685319645359
1.1525,-10.107603,0.205643,0.810617,-0.058032,-0.08924749902521824,-0.007789
1.155,-10.067304205789226,0.13565978178922514,0.7382948284215436,-0.06000831327400474,-0.09079455709601879,-0.0061801419578453864
1.1575,-9.976743195794981,-0.0334308613200138,0.5840137451825415,-0.06395963139969085,-0.094531,-0.0021928597788084376
1.16,-9.951719401407768,-0.10946437656876978,0.5580064366112986,-0.060436255708999354,-0.09561547913707573,-0.0014592761483347406
1.1625,-9.88543062486616,-0.19586937513384053,0.4068785636407087,-0.05988391086258209,-0.09713468804283133,-0.0037080049256398386
1.165,-10.01702975240723,-0.018668637164604297,0.730682410447192,-0.0650264791056137,-0.09114512648905805,-0.009069712702188348
1.1675,-9.931729240895887,0.026148990654873375,0.6217933564391809,-0.06400743380345696,-0.0920946616830317,-0.006146976908220416
1.17,-9.800491738962918,-0.026244071138519974,0.33388381129595884,-0.06296762217317214,-0.09690315229083814,-0.0040682045573318774
1.1725,-9.984419125702598,0.025716041285967908,0.5818188347935169,-0.06484064869355785,-0.0997736668609267,-0.0070666899650809
1.175,-10.060668511864403,-0.08293482881356112,0.8144697813559284,-0.06117922711864409,-0.09212780508474576,-0.000916
1.1775,-9.939201673262906,-0.08918585403121249,0.5904279951644666,-0.06269365823769507,-0.09481459140216086,-0.0019159287394957944
1.18,-9.873377480080345,-0.09416301251236063,0.4471684682076637,-0.06377116630098888,-0.0973312590018541,-0.003390652988257052
1.1825,-9.915063170464979,-0.0994097288679459,0.46679163734656504,-0.06342909339615604,-0.09913012276751401,-0.005247764255424641
1.185,-10.077426464158453,-0.05196183227646814,0.7105184388687028,-0.06070636393512105,-0.09938349791181023,-0.005333610452359642
1.1875,-10.17619144652189,0.007385812333062361,0.990776650563233,-0.06171595947044478,-0.09496120171873186,-0.006651735454651028
1.19,-9.926542834213201,0.03247666782360679,0.6573260287119322,-0.06452644572335019,-0.08935548183375608,-0.005816396605329985
1.1925000000000001,-9.85108891262304,-0.07213640896320977,0.5476945309125711,-0.06646231860487319,-0.10039534069756342,-0.004327186870520754
1.195,-10.06422839210703,-0.05217021266443651,0.6644966122631022,-0.06187156303232988,-0.10269071848383506,-0.0036892572129319794
1.1975,-10.181591639273394,-0.12532215091285298,0.9390330321913051,-0.06185,-0.10396474920211538,-0.00336
1.2,-9.895207757159655,-0.011304452292501224,0.5096641486480179,-0.06427838617446503,-0.10201653943098986,-0.007145700634845903
1.2025000000000001,-9.724927223104826,0.08942979248508934,0.2792533767393164,-0.0668557990210641,-0.10334242544259105,-0.010549470829172933
1.205,-9.71760111580513,0.09698571004281704,0.38186657994991463,-0.06560766480407204,-0.10224772348711306,-0.004707502590288314
1.2075,-9.950396895032542,-0.03446216519701834,0.6507368577967124,-0.06514482103419715,-0.098502,-0.0018876630505265985
1.21,-10.005499592470589,-0.08522628952700965,0.7306832133013244,-0.06625488659783915,-0.09643341913085243,-0.003946763956782749
1.2125000000000001,-9.863402167250415,-0.15761246392294395,0.5070714945709291,-0.06465493239929922,-0.09270421366024546,-0.0031231014010511806
1.215,-9.895387037943252,-0.10602941102109853,0.6786994186563254,-0.06308967736114479,-0.09859727349987893,-0.0064041947222896545
1.2175,-10.083962733034395,-0.03015810440192459,0.8896397220237131,-0.0625153044347928,-0.10334906261298271,-0.0074708174903157345
1.22,-10.120061971245395,0.016149751739060296,0.8537417702997313,-0.0617722172175028,-0.102014,-0.005741827328097449
1.2225,-9.89649512360413,0.060546952873230905,0.5454270780877096,-0.06309650437574871,-0.10182482503714357,-0.005514454071411541
1.225,-9.779172928045872,0.07394675489727454,0.5105172869565241,-0.0675823892021024,-0.10180281361681803,-0.003066116770186263
1.2275,-9.990497640591212,-0.011175796298969608,0.6672555112232722,-0.07039983416486419,-0.10388209631819278,-0.0011112018312905334
1.23,-10.300337946310194,-0.16084526606941807,1.0322128704784241,-0.06735298923076927,-0.10317756703564733,-0.0009556088430268768
1.2325,-10.181024797566172,-0.18361395719973148,0.9444358162949675,-0.06463559486089114,-0.09784219614566836,-0.0033184490748698363
1.235,-9.849693194414083,0.08590355217771183,0.5859852931835494,-0.0665109725606332,-0.1046085056931332,-0.007086522052591428
1.2375,-9.932254220177185,0.05446699450370507,0.5757599052974147,-0.06712897200024108,-0.1093099770746701,-0.004970633761224568
1.24,-10.023584069196142,0.005414046045016095,0.641324419678456,-0.06727607446945338,-0.11070900514469455,-0.00403448218649517
1.2425,-10.073788694224346,-0.01494648586157235,0.7653617405155178,-0.0670354546062052,-0.10630526932696929,-0.005623819312649169
1.245,-9.930915843575095,-0.1605587971923345,0.6248206750772086,-0.06944471515208249,-0.10200101959756719,-0.0029287121197937842
1.2475,-9.996991899178873,-0.1088638715294103,0.7776965792941213,-0.06891971877070827,-0.1047557290756303,-0.006128874842737178
1.25,-10.094238577667175,-0.017526885686762472,0.9317549232560006,-0.06761549337721763,-0.10631614497872682,-0.007992420085092718
1.2525,-10.063405565953117,0.07564447933132355,0.8228021530067626,-0.06672800214534465,-0.10356899356396607,-0.005495592848850811
1.2550000000000001,-9.756301656137055,0.020709750439433326,0.3843233324845149,-0.06899288779320714,-0.10159680780523013,-0.002980488098587236
1.2575,-9.734601277996857,-0.028427777342660436,0.4500961870155912,-0.06899842467854717,-0.105069,-0.002575179499210629
1.26,-10.001967232478131,-0.07836817796982337,0.7883962373228443,-0.06865315969471028,-0.10597136214407327,-0.004276
1.2625,-10.14999740527517,-0.10032283530306856,0.8891292167385203,-0.06976379680446357,-0.10566471270606159,-0.005758088409839992
1.2650000000000001,-10.02359995555945,-0.06327555241875721,0.8117999252696204,-0.07074817131213773,-0.10088124630950279,-0.007986742504830413
1.2675,-9.852226743317683,-0.041258331653632144,0.6558878388210757,-0.071166,-0.10302029980177467,-0.005791504246217847
1.27,-9.951859606919244,-0.035858531393574866,0.707368793035125,-0.07002183527349143,-0.115840771359952,-0.00532911042209548
1.2725,-10.085031357944953,0.04198163141284375,0.767815597504586,-0.0686365010642202,-0.11823701886238544,-0.006472880513761504
1.2750000000000001,-10.131225150740237,0.03911506244952622,0.7953453485868052,-0.06803986971736202,-0.11112860215343182,-0.003837152624495142
1.2775,-10.030588769736587,-0.011805691313210638,0.7001322889444307,-0.06734733778888674,-0.10720324650644095,-0.001066016858296393
1.28,-9.996298436341675,-0.14815907578947263,0.7309335031578966,-0.07335185611734252,-0.1057684281967214,-0.0027888528041416093
1.2825,-10.082213842486349,-0.04395614771697599,0.8232061467456763,-0.07234294029975596,-0.11299182332055303,-0.0105375896549321
1.285,-10.005762992306066,0.061177421854292424,0.5804994934635712,-0.07409704587057395,-0.11138245721123344,-0.0052473776475377475
1.2875,-9.964389891310347,0.06892161958619983,0.7135740651034658,-0.07306747834482788,-0.10659333489655197,-0.001585884689654937
1.29,-10.052097351405951,-0.08642480200096167,1.0226017086132473,-0.07429717933781188,-0.108429,-5.946672744722097e-05
1.2925,-10.110599846253175,-0.1859523571563303,1.1130242827469528,-0.07332242966025872,-0.10965782876556637,-0.0020771260403819724
1.295,-9.972086596110312,-0.08420106707070836,0.5677137046015741,-0.07531097084495741,-0.115455908693282,-0.009036787404200795
1.2975,-9.886074135120387,-0.03807255153599613,0.4942833325299513,-0.07722664416083479,-0.11507646624125219,-0.0070408195279325625
1.3,-9.973190276409259,-0.0034655284359073647,0.736633859380645,-0.073609,-0.11061277886319094,-0.005956
1.3025,-10.265043350550116,0.006449989137951783,1.1817388051263458,-0.07378195167694353,-0.11176251954056343,-0.005956
1.305,-10.104062461987615,-0.018759923212357237,0.8864324663329956,-0.07369098710227735,-0.1091413803685522,-0.005306579274161146
1.3075,-9.864094445879857,-0.11747478254416983,0.547087541187285,-0.07187590857950532,-0.1144538003674913,-0.003949950091872823
1.31,-9.979864655994684,-0.12109440717349507,0.7444728978198556,-0.07162954850465904,-0.11637,-0.0037368936133707624
1.3125,-10.313247,-0.121951,1.023434,-0.070097,-0.11640057703317057,-0.001985
1.315,-10.313247,-0.121951,1.023434,-0.070097,-0.11680489409664926,-0.001985
1.3175000000000001,-9.92756736157804,0.03597869831904293,0.5562733001029244,-0.07713241965694678,-0.11272197063464842,-0.011626600343052839
1.32,-9.931380164411951,0.08904636477286906,0.7818165451773564,-0.07591835953640319,-0.11392390024579965,-0.0062042601337896144
1.3225,-10.119946844338852,0.049185229642427275,1.053083772104632,-0.0743107438348932,-0.1153178842476602,-0.003495828514518819
1.325,-10.205642,-0.196078,1.127451,-0.073304,-0.11603504197944063,0.000153
1.3275000000000001,-10.157192794967218,-0.1961889046681759,1.0194660177623849,-0.0734173156392232,-0.11552354257595664,-0.0007249643798406373
1.33,-9.985343059250933,-0.16178221295430864,0.64400246702986,-0.07342954132552058,-0.12416265912740537,-0.005199092919471109
1.3325,-10.112012076692602,-0.043090170038321454,0.9136922747973535,-0.07279591029613287,-0.12777891399837407,-0.007387600436650829
1.335,-10.161880890079319,0.10088841887373144,1.009000005241118,-0.07490972149428936,-0.118202,-0.00853043070114222
1.3375000000000001,-9.906552059896958,0.06698573134657652,0.8065876020357571,-0.0739520122884476,-0.11916856281579635,-0.0032426202109395
1.34,-9.71868769325387,0.057906869881604935,0.3062190255834232,-0.07648487776924959,-0.12227026570752,-0.004276
1.3425,-10.034578238646484,0.02806309150489375,0.7554094058771187,-0.076053,-0.116981,-0.0027213294390025762
1.345,-10.071618695400497,-0.13890931269812246,1.037612300584196,-0.07532757716888323,-0.11640047170947958,-0.0012561076334487043
1.3475,-10.032491383118806,-0.1974337045485386,1.1535124136432833,-0.07623426576801744,-0.11533198733792789,-0.0038791790865549923
1.35,-9.81017597523141,-0.08125498780721105,0.7294766415576049,-0.08343084015320788,-0.11873084928183898,-0.010186016980529839
1.3525,-9.893719062159095,-0.016873401628787373,0.5942503140719734,-0.08408802388257562,-0.13048466702651518,-0.009643665946969658
1.355,-10.043663933992491,-0.02178663234042498,0.8238389466207747,-0.07761573727158949,-0.12787938381727165,-0.005786310262828579
1.3575,-10.082495,-0.088474,0.976207,-0.076969,-0.11828139185853866,-0.000611
1.36,-9.99562953146691,-0.09193428895941928,0.8682172883467437,-0.07757368998894684,-0.11774921172588088,-0.003355713753355731
1.3625,-9.80520379239944,-0.09431939085593952,0.6266390633302157,-0.07859449784845646,-0.129962,-0.009021698924228183
1.365,-9.894861988474899,-0.031132101294024314,0.7318127285641425,-0.0761990075123506,-0.12952223307729083,-0.006654780701195218
1.3675,-10.003681585478287,0.0539721324187066,0.8935985874483823,-0.07500902092570595,-0.12666677781628322,-0.006311029565630287
1.37,-9.85533,-0.014347,0.677905,-0.079871,-0.12045160376818605,-0.003818
1.3725,-9.839899076255099,-0.023329429632739936,0.702894335376009,-0.07975329933076832,-0.12461098135944972,-0.0042298560242509595
1.375,-9.829426881798405,-0.050855942712110226,0.8595992040125695,-0.07825203988397389,-0.12465745806139715,-0.005211148175006043
1.3775,-9.996439222682762,-0.03676101385729816,1.0059352231042786,-0.07626807305378697,-0.12395501898572987,-0.003935837795828681
1.3800000000000001,-10.085113255994738,-0.07545833909389173,1.0360921968483179,-0.07846016207485224,-0.12581624199606017,-0.006906611661195064
1.3825,-9.876318558579875,-0.05484297633136401,0.8484748925443706,-0.0781076035502959,-0.12242732071005935,-0.007767935857988131
1.385,-9.726034717971979,-0.12392705661738515,0.6429722046598034,-0.07930338029878474,-0.1285631570647883,-0.006828619701215264
1.3875,-9.782926941726268,0.01729216328086039,0.7482302964234478,-0.07795132598950903,-0.13115784701955197,-0.007359156986170625
1.3900000000000001,-9.723263897018331,0.07116840787031498,0.6864924649609286,-0.07814312197501999,-0.1291751124145628,-0.00669328948817427
1.3925,-9.666636749036316,0.04708743951753802,0.6005338084430847,-0.08007450085907711,-0.128282,-0.005799061676307725
1.395,-9.913927653541618,-0.021679249104537668,0.8937768907613436,-0.08305952338619327,-0.12664395454990135,-0.00528317354477315
1.3975,-10.052782985164647,-0.17416182440207886,1.129924485268636,-0.07901239708838831,-0.12476433164644693,-0.003485348006932274
1.4000000000000001,-9.917630008431018,-0.055558790526929636,0.829027353463573,-0.08143374616933126,-0.12778876504440492,-0.009603969236234727
1.4025,-9.803997173883895,0.12421378357056748,0.5868993860772398,-0.08573541320378908,-0.12572852197230966,-0.012452370454213916
1.405,-9.80732842885889,0.1593203466023759,0.6599539235937025,-0.08302006574734809,-0.12113441810350374,-0.0031871972420442723
1.4075,-9.966597764294175,-0.07580763203903665,1.004546509571271,-0.08143309823631924,-0.12407052520041827,0.0021229099477170594
1.41,-10.192574159677731,-0.18716801618009213,1.2769138292512052,-0.08611689228435998,-0.11989247260663548,-0.0068027347488148265
1.4125,-10.182328,-0.191296,1.245217,-0.086437,-0.1265100000000003,-0.00733
1.415,-10.04677411055093,-0.15596543611363856,1.044229696474643,-0.08597655593156489,-0.13340814907549844,-0.007284166667713073
1.4175,-9.80103702935802,-0.038555948441955624,0.6934678885223482,-0.084526512218297,-0.1371753842855403,-0.007354964638811053
1.42,-10.047224356499177,0.05806402081623425,1.0969847831186659,-0.08315705846661947,-0.1324456592498231,-0.007166373616419038
1.4225,-9.898910225268429,-0.04581568334807702,0.8274930441085495,-0.08458265378931028,-0.13062499811550857,-0.005576270304914639
1.425,-9.733868824828244,0.02453634769012121,0.5413378794124668,-0.08759078715944085,-0.12579229414830603,-0.007607856811182176
1.4275,-9.968688158768224,0.008623693745480804,0.8799367153855107,-0.0855577660795521,-0.12404806965123058,-0.005295875338854588
1.43,-10.225779775333917,-0.17493768007358002,1.2716771103319182,-0.08526597496600805,-0.1308067730592657,-0.0005264309493718832
1.4325,-10.298505025204557,-0.21667558559131023,1.2466192704350623,-0.0887556333215421,-0.1326919586982664,-0.0102512842259169
1.435,-9.880292809562446,-0.012156016778292294,0.6322585544072239,-0.08528683856269856,-0.12825351006599858,-0.010186423915912828
1.4375,-9.64780611764706,0.06313838235294117,0.4849209705882353,-0.0827185294117647,-0.13268341176470588,-0.002991294117647059
1.44,-9.985577178391768,0.03433814023696552,1.2159336448643703,-0.08617077538461525,-0.131847587875143,-0.0029105648499428067
1.4425000000000001,-10.153006367848853,-0.049174734903749365,1.395310691139513,-0.09189525774004552,-0.12693996627526033,-0.004661291464785205
1.445,-9.966364011045696,-0.161165704216321,0.7698872527781624,-0.09309521860732234,-0.13290757001196477,-0.0030803378511606093
1.4475,-9.767516337681302,-0.1623733576473432,0.4134818108028162,-0.09252934262430268,-0.1380631996458889,-0.0053305782973563105
1.45,-10.02260435001122,0.011596355203111874,0.9815248777137684,-0.08985059967083113,-0.133932,-0.008650534764719066
1.4525000000000001,-10.145025865418177,0.025888645040630466,1.1928597557494638,-0.09035414878359778,-0.13351320966120744,-0.009182229953743999
1.455,-9.982239793346267,-0.009392469763757464,0.9039658527281366,-0.08774672099676374,-0.1324266619676377,-0.0053013152200646445
1.4575,-9.67771055823233,-0.09631056707068275,0.45494602813269736,-0.08788317852068928,-0.13765998056499829,-0.0033468145821123163
1.46,-9.918807119341988,-0.05133936761904703,1.006521042946867,-0.09023568560724127,-0.13928979530263688,-0.004497491922865042
1.4625000000000001,-10.133341173342643,-0.11497081374739422,1.2826638023028683,-0.08920714368457788,-0.13383679364968626,-0.0030457251919052135
1.465,-9.887486168231941,-0.11634517865022928,0.8379227513984568,-0.09293049018219172,-0.1360066241416473,-0.009980925429818361
1.4675,-9.842583940426534,-0.012507831186519686,0.6682671272722981,-0.09372887440084836,-0.1419804408389302,-0.0084208655308118
1.47,-9.875679094792163,0.014716428456761566,0.6446344649211649,-0.09260531592928815,-0.1457561017295748,-0.0057445291925466106
1.4725,-9.99424446600719,-0.0678058498823515,0.8507687564849592,-0.08850614521008417,-0.14011625818007298,-0.0038959515198078247
1.475,-10.06854956880377,-0.11692528465527581,1.1710975402239259,-0.0879717251384797,-0.12686627817324667,-0.004459305633470818
1.4775,-10.005510051175571,-0.17576515169465828,1.1538727689770931,-0.08930640778625962,-0.12402786436641267,-0.004167582564885502
1.48,-10.240922008552241,-0.25044520772293516,1.288060339173045,-0.08863559314406881,-0.14527525450818693,-0.004414796178584048
1.4825,-10.187394847178622,-0.17754363351796099,1.226432089587619,-0.08681102017656311,-0.146608,-0.00827980811222627
1.485,-10.131515,-0.123147,1.165112,-0.085674,-0.145585530481437,-0.010996
1.4875,-9.99694865824816,-0.017783406423345444,0.9525159932846469,-0.0845996827737225,-0.14261743883211672,-0.00866837781021871
1.49,-9.941812705882072,0.030844052893292506,0.8896529342898054,-0.0860532842754834,-0.14354646774170446,-0.002566240255430902
1.4925,-10.12503426944667,-0.08182707783251451,1.1644425099140825,-0.08862349182266023,-0.1430201045022343,-0.001164763592622093
1.495,-10.099544732883812,-0.046184673955860414,0.9857740387290685,-0.08707583446034467,-0.133321,-0.006395665107931096
1.4975,-9.794453595012756,-0.0780245851311778,0.7130463838216816,-0.09358994464824723,-0.13315242792663104,-0.007080059196656764
1.5,-9.783288050628366,0.005427622980251352,0.956313768043088,-0.09349316624775583,-0.1362692168761221,-0.006881521005385997
1.5025,-9.983572860260615,0.03210575297297491,1.30252383135135,-0.09122371431467174,-0.14010872612934366,-0.004967953156370578
1.5050000000000001,-10.047822,-0.026303,1.341463,-0.093462,-0.14080561637130815,-0.00733
1.5075,-10.003371934520926,-0.07648937023547256,1.180866855108698,-0.09263807330803973,-0.1385763675639867,-0.0031174199337547824
1.51,-10.034893573392957,-0.12583463052326052,1.0997480935310273,-0.0910763255354201,-0.1400217223001491,-0.0006729363677728129
1.5125,-10.23657727912408,-0.15526278248175268,1.246793118248165,-0.09066159416058371,-0.14519110423357687,-0.004163440291970491
1.5150000000000001,-10.205934611599968,-0.06437511454707573,1.144440414388439,-0.0946368108962968,-0.142179,-0.009485487862126614
1.5175,-9.95053729594304,0.019499668706998135,0.7575434621114853,-0.09613773798339274,-0.14291827971530263,-0.009446865954922673
1.52,-9.626338236675524,-0.0012783957543550046,0.4528915264481862,-0.09660222925302626,-0.14492095374667846,-0.004576381015648058
1.5225,-9.850243094448155,-0.034144584682272404,0.793690646622063,-0.093768,-0.14274461505016733,-0.003665
1.5250000000000001,-10.109752860172469,-0.1225902703928463,1.313884934749286,-0.0927969160012774,-0.1361098770041517,-0.0036207809964867387
1.5275,-10.088017946624426,-0.11510050725800426,1.3679486351003123,-0.09100302775079211,-0.130572,-0.004220392875748126
1.53,-10.029533890923089,-0.08467126933354852,1.2058761985147144,-0.09370197575747856,-0.13382762198091278,-0.005550407785708501
1.5325,-9.954821095617225,-0.19229335306220077,0.9892945012822993,-0.09440569431578945,-0.14425006729186587,-0.002124087665071695
1.5350000000000001,-10.019975474616313,-0.12664752787949973,0.9742422200334929,-0.09535040127181431,-0.15079749624671238,-0.007482651800143561
1.5375,-10.096189501016367,0.04842544330981431,1.2407236464665579,-0.09239788877197175,-0.14277357818964476,-0.007566812220494636
1.54,-9.810146361689961,-0.06824429091486925,0.8038907803049534,-0.0930551235832275,-0.14539298649936486,-0.0019406724650572443
1.5425,-9.82267412152953,-0.19142221765790532,0.730118731457833,-0.096059,-0.15511743023557534,-0.005803
1.545,-10.019031833232592,-0.06857913686415337,0.9678890453442063,-0.09410202685855938,-0.14839771200127944,-0.00409081534180874
1.5475,-9.99275176290455,-0.1510836066265927,1.0437494558980673,-0.08921186381341684,-0.143248,-0.0014207528636697832
1.55,-10.06740303106241,0.0737929269175916,1.1980682444973745,-0.09609342363030038,-0.14071255435921856,-0.012597233825631275
1.5525,-9.973615351844142,0.0402915853385544,1.0794669320523353,-0.09462299358227487,-0.1452536138057492,-0.007829120110782179
1.555,-9.876036497576166,-0.04411672977174845,0.9741056230197715,-0.09209944137140681,-0.150682255287938,-0.0026298014287079886
1.5575,-9.860802670594916,-0.1083033234560952,0.9167695563739876,-0.09191694521246492,-0.1488266607082152,-0.004573112917846638
1.56,-9.982826974840414,-0.16664650772738265,0.9285536005615455,-0.0975067444588434,-0.148288,-0.00720486716582689
1.5625,-10.053045566095033,-0.14367686072406813,1.0570016922115042,-0.09631188823389306,-0.14995442533047518,-0.008490380671668454
1.565,-10.038195339405565,-0.11684712935762274,1.1173070136816916,-0.09408296538830305,-0.14825598096836068,-0.008928638398849479
1.5675000000000001,-9.858092406285914,-0.08221029303623263,0.9648068681224409,-0.09131256576990741,-0.14232657915327862,-0.008611238334701501
1.57,-9.91464970394955,0.019214805438612773,1.1317801935359222,-0.09384541074289474,-0.15413167708739456,-0.008461699461053351
1.5725,-10.037493591390259,0.05590083738884899,1.2906491031898366,-0.09760112278052221,-0.15379932913196892,-0.007415636316160854
1.575,-9.788995090914868,-0.11324559507623685,0.9761935138977185,-0.09310862839898347,-0.15231353695997454,0.00029266928208394427
1.5775000000000001,-9.74255725319576,-0.19750104801422946,0.8029340631506898,-0.093768,-0.1546115661542115,-0.00464356615421151
1.58,-10.166101535584628,-0.11493081022710772,1.3174118350822577,-0.09466293341144379,-0.1582851720022469,-0.008615762195650356
1.5825,-10.238084043683397,-0.06754789054230342,1.2958323084371635,-0.09659390980894741,-0.15544818003085323,-0.0070129069419722625
1.585,-10.049853011164187,0.030340843707732382,1.0608309502482849,-0.09625128807125398,-0.15298977026562635,-0.008702408046031415
1.5875000000000001,-9.884090719049372,0.0038630248050406657,1.0780169676197415,-0.09882234786483433,-0.14572252417378415,-0.004645203564797085
1.59,-9.763519646465161,-0.1208342458180106,0.9898138008144647,-0.09488600902533356,-0.15257489000078953,-0.00025512871912259164
1.5925,-9.926009340090902,-0.1246514570935773,1.1994479881552291,-0.0980597805523832,-0.15943905266052893,-0.005051410959095666
1.595,-10.025466214097811,-0.0664173267068164,1.2770669134377284,-0.09752467314863893,-0.1504442872271742,-0.0037876966128643904
1.5975000000000001,-9.771281837313497,-0.17903850758455817,1.0493834563972113,-0.09517164390501356,-0.15033227428160315,-0.0035843324826103067
1.6,-9.752172157737535,-0.156443744582133,0.9806127420400383,-0.10012984315220853,-0.16277899453447756,-0.010835114903082378
1.6025,-9.923244582572304,0.04805152441100362,0.9824608801316713,-0.10090706432165521,-0.16891650878909006,-0.011298958466964364
1.605,-9.928837247316688,-0.01348716000636141,0.8945578569301749,-0.09563603779226978,-0.16454840630507403,-0.003556453017337397
1.6075,-9.767558003571757,-0.12269027070593795,0.810640238073848,-0.09399129675549302,-0.15443534446002818,-0.0007141860121549415
1.61,-10.052439301195896,-0.06237671773195314,1.342756936123723,-0.10053985665979402,-0.15111388045360818,-0.006377884412371037
1.6125,-10.066566435036496,-0.16979939416058606,1.2508578233576622,-0.09837129927007295,-0.16035816058394178,-0.004445715328467119
1.615,-9.921924132519226,-0.07462786389186729,1.0640600706688423,-0.09927919934747145,-0.15943288285248194,-0.010835758760195727
1.6175,-9.887484504504389,-0.01630585807230981,1.1099749467718802,-0.10326523654400505,-0.15780822587325877,-0.008087766428859097
1.62,-9.903760728661595,-0.04286084455612799,1.2086756184510163,-0.10289203545567148,-0.1584401677130892,-0.006541842092844888
1.6225,-9.95007527041135,-0.06844108616548138,1.3130550204444458,-0.10107709922458626,-0.16098020620330994,-0.005778273229314417
1.625,-10.027200576519581,0.01154510210619044,1.2750305099703692,-0.10097263057579882,-0.16755851613678227,-0.005276390406022263
1.6275,-9.93269704825623,-0.06114159265480253,0.9758476325836424,-0.10227195799288269,-0.16663741301067606,-0.004529731971530209
1.6300000000000001,-9.907667027883786,-0.13948793711057633,0.7456660018208463,-0.09913408237933831,-0.16909649778531063,-0.005632545301049209
1.6325,-10.108415110775054,-0.1735120291068008,1.2946490304678846,-0.10037968573723988,-0.16380711334120926,-0.006228381649338548
1.635,-10.224530461884092,-0.06442117742268871,1.7763607040655052,-0.09553267533190239,-0.1493305950266317,-0.008716873811908716
1.6375,-9.96990742866466,-0.09352115369184241,1.4599081238187492,-0.09741872219939567,-0.1551790178368575,-0.004289101341389611
1.6400000000000001,-9.804913802564776,-0.10067692414888188,0.8516091680833822,-0.10239544059156339,-0.17583614053002514,-0.008328124748387065
1.6425,-10.062576830015738,-0.1167888424541189,1.1504621613214625,-0.10078083668589385,-0.17311048471945414,-0.00657212587309901
1.645,-10.18024991575042,-0.20819837364811764,1.5256112136930862,-0.09409901969645866,-0.1594969514783586,-0.004045945924676783
1.6475,-9.934697106288777,-0.2869918616421373,1.4456666564165053,-0.0925318036686532,-0.15734976592142047,-0.0052195304902078275
1.6500000000000001,-9.775333373574245,-0.15331091666927327,0.9074442688138227,-0.10364414259230154,-0.1724966189787906,-0.013715893857030656
1.6525,-9.95220841379375,0.021836831919185656,0.9141132054968442,-0.09889304165374593,-0.17247364926473888,-0.010866075320647454
1.655,-9.825042983686831,-0.11744368764412935,1.1272114810960865,-0.09630339574377232,-0.158214,-0.004094520669039167
1.6575,-10.030920807462183,-0.0757798909411771,1.473236054554618,-0.10297329793277304,-0.1550842057478992,-0.008014333731092393
1.6600000000000001,-10.19827800303011,-0.09512542486220599,1.6551462787701,-0.1055795751792254,-0.15493051139079217,-0.008266257817428244
1.6625,-10.180199238725777,-0.2572889396410307,1.389672243123718,-0.09973135984785438,-0.16312145196719424,-0.0019028465945562945
1.665,-10.014727206843231,-0.035596548489611524,1.237134133514684,-0.10449411796707263,-0.15767912901932638,-0.014690274073013961
1.6675,-9.911415420019292,0.10831507981191152,1.2809209473619485,-0.10378936710151919,-0.153174,-0.011313898512177522
1.67,-9.714369483741086,0.04309241494587612,0.9963795362266994,-0.09754428412808146,-0.16588076719649741,-0.0007916291361443001
1.6725,-9.805394971241117,-0.0501015769202297,1.1283247225073283,-0.10303453351897249,-0.17313194781236946,-0.0025832935619959593
1.675,-9.912807612441334,-0.08658782583724395,1.2763879151698356,-0.10711542174846865,-0.17263902263940797,-0.005577217961976006
1.6775,-9.96120499493302,-0.07234734026791981,1.3027118759294942,-0.10444203779083433,-0.16330254234547592,-0.0065050251938895565
1.68,-9.982824683494327,-0.14914436318962554,1.4522870976596394,-0.10148601317990265,-0.16601334954943267,-0.0051728736401943694
1.6825,-10.008121955919249,-0.16686004134749666,1.5578175193071209,-0.10496400522279294,-0.16937430199020467,-0.009762098922470572
1.685,-10.01899178200125,0.03468125947698127,1.2644189300876838,-0.1040331802787347,-0.17451092599123078,-0.010000172151581464
1.6875,-9.8893921419058,0.048472587359244465,0.9521149451507447,-0.10361044581668483,-0.172417,-0.00440734374621625
1.69,-9.826636,0.038857,1.033596,-0.10736,-0.1712795352301256,-0.000916
1.6925000000000001,-9.848309753753341,0.012335318303842897,1.0743768264647593,-0.1085012595153869,-0.16880296506421147,-0.0015474534674099736
1.695,-10.003373330495592,-0.127929,1.3666819252574234,-0.114537,-0.17154348635445069,-0.004887
1.6975,-10.088319551644423,-0.13326328834604398,1.5753291815538613,-0.11201030032411814,-0.17145427707816968,-0.005341144151572937
1.7,-10.010522113821915,-0.12499087833214136,1.609536187379647,-0.10258800340574512,-0.170584,-0.008085066332457987
1.7025000000000001,-10.000301339843341,-0.0609890109660618,1.4733718196344474,-0.1070519416187991,-0.1728071586422984,-0.009442317075717854
1.705,-9.960922881388798,-0.1066478649233647,1.130351079974967,-0.10812807958711285,-0.18253945831717236,-0.006245530359712141
1.7075,-9.871282697954545,-0.12041098568182063,0.9707020585227346,-0.10472611909090902,-0.1807735368181817,-0.0038007507954545615
1.71,-9.894643474867276,-0.1962426451612907,1.3138392221592656,-0.10328603701464109,-0.1735879455731461,-0.005256773531722398
1.7125000000000001,-9.938965248160542,-0.1596597804586655,1.4119092867176426,-0.10476044457716209,-0.169821,-0.006842729670329925
1.715,-10.0517480407604,-0.06245133387088934,1.593165487676834,-0.10656595658455446,-0.1705587395073268,-0.010694051386930754
1.7175,-10.109051989755686,-0.0003161369791779504,1.6372356060608964,-0.1064415143242267,-0.17275285445179928,-0.011611713226621669
1.72,-9.967779067902255,0.015033652834023026,1.471522246359888,-0.10488506948905106,-0.1752442429070136,-0.005959954909552567
1.7225000000000001,-9.820659,-0.156026,1.273912,-0.107665,-0.17993141070911758,-0.002291
1.725,-9.886551048764211,-0.10627427300325307,1.3100193140586545,-0.10719738242072632,-0.18239070288484444,-0.003821334196932532
1.7275,-9.991383274413899,-0.0056984675311282165,1.3087216640497903,-0.10565739339910732,-0.17871973355414622,-0.0070580329292928515
1.73,-9.650010669195572,-0.14647016923985245,0.9204239922656806,-0.10869362804428033,-0.17202033647232498,-0.009449255498154847
1.7325,-9.91599767078249,0.07019837459596914,1.4559152935100448,-0.10475194231236042,-0.169668,-0.008061430469498643
1.735,-9.968900422549696,-0.015722987015839157,1.6781178878704957,-0.10790279398643042,-0.17192489699321523,-0.005425930774907648
1.7375,-9.909202081737268,-0.1686140408686343,1.652878741568752,-0.112613772232111,-0.17549658224753778,-0.003703993758158365
1.74,-9.716127664857995,-0.09375719588576799,1.0812029576369058,-0.10890700554840735,-0.1787102980919504,-0.006402707456456925
1.7425,-9.653030690314218,-0.11571686015405336,1.1144227559408129,-0.1062307608411786,-0.17551366338183144,-0.0069229456412764935
1.745,-9.980119671179036,-0.006349520572779613,1.5796282896993055,-0.1049383436181382,-0.177456,-0.005885876811455896
1.7475,-10.03467,0.011956,1.610473,-0.104611,-0.17647566074688795,-0.005956
1.75,-9.924473352026919,-0.017540208940874852,1.374005478769428,-0.10583843791059125,-0.1764958862361801,-0.006125368690914918
1.7525,-9.678110095356722,-0.08652123062049853,0.8856280687891973,-0.10922082191959095,-0.177749464773414,-0.006021534241227134
1.7550000000000001,-9.8900376198703,-0.09643188560311988,1.575400463203641,-0.11043920796368357,-0.17458286477302204,-0.0031943960181582123
1.7575,-9.910430594282953,-0.22565539783679356,1.721242623718006,-0.11223851414775486,-0.1743591393143409,-0.0038502128826655713
1.76,-9.812974411340436,-0.1891159968898073,1.3640365450850667,-0.11462030543488629,-0.17643020104945142,-0.009306586904118307
1.7625,-9.734540379803352,-0.1276311262232493,0.8727207705957113,-0.11100858410641982,-0.18048810880277613,-0.010130072296124958
1.7650000000000001,-9.880211950829791,-0.1335997021704498,1.3044056976753307,-0.11311396766969227,-0.1797044239055343,-0.009221332624307205
1.7675,-9.956038522805049,-0.010631277643753687,1.5613869964095357,-0.11236933183730727,-0.17244692566619876,-0.009245610883590357
1.77,-9.877937579158438,0.03220202133991533,1.3994220094405252,-0.11367493116126,-0.1708217634273625,-0.0065219712364832936
1.7725,-9.805849281664202,0.001424974780899313,1.2666271376858629,-0.11390433681930084,-0.17413838575086152,-0.003797774820285655
1.7750000000000001,-9.929547710466943,-0.18583766972736415,1.5852067950172415,-0.11318445872767148,-0.17801531034158555,-0.0003369595111250927
1.7775,-10.008123441796474,-0.27544033079249325,1.6446891116634363,-0.11204545825582729,-0.17529852223763495,-0.0021272965366688065
1.78,-9.959349,-0.21999,1.44548,-0.114537,-0.17583040867608415,-0.007636
1.7825,-9.941834011868682,-0.19663673416552452,1.4250921470378248,-0.11430028164274125,-0.18112371836225188,-0.007754281667706892
1.7850000000000001,-9.888082370526961,-0.07506431465778408,1.3777183893761458,-0.11288112196244698,-0.1826293502119927,-0.007238816268927736
1.7875,-9.981331482450326,-0.09035891834437113,1.5148927667549574,-0.11275310258278153,-0.18152471907284742,-0.004288594635761594
1.79,-9.84122766682119,-0.0976234320397352,1.244542444317877,-0.11487369129801328,-0.17449891266225157,-0.004421402688741724
1.7925,-9.804720446801737,-0.15820691987940186,1.4226877914954148,-0.11301,-0.17547743910757355,-0.001527
1.795,-9.989429797090558,-0.19117936341335562,1.7130926109848612,-0.11296642294271453,-0.18058909719356606,-0.002309962944299119
1.7975,-10.143634227243542,-0.2794958409366444,1.800449626411485,-0.11264518777606079,-0.18845631805063615,-0.0052826718554620684
1.8,-9.905841903417292,-0.17118605855927663,1.3540224781485592,-0.1112030462377667,-0.19081898875340922,-0.010901272132199626
1.8025,-9.701517042255123,0.060667696003789844,1.108141042255123,-0.11086605792253937,-0.18722718881914013,-0.011549255781120489
1.805,-9.713575688647776,0.04202572414413479,1.1817654348575466,-0.1144521084471551,-0.18673701074392096,-0.0039584695674505345
1.8075,-9.94486120741652,-0.12877379776230302,1.590266817032956,-0.11493670407175734,-0.18853059863094526,-0.0017625333317599409
1.81,-10.225966594278486,-0.14290813077287973,1.9148844351446122,-0.11416385048838308,-0.1853468385079816,-0.005213534382803848
1.8125,-10.060128710144927,-0.1933095536231884,1.590286420289855,-0.11339715942028986,-0.18442413333333335,-0.004940927536231884
1.815,-9.863612781906761,-0.02446001757789354,1.4585639418224279,-0.12050672176153639,-0.198378,-0.008867777409229106
1.8175000000000001,-10.041474672215218,0.07302099522247159,1.521278889504577,-0.12149488171347429,-0.1987359924802777,-0.010421086733985532
1.82,-9.968178743772395,0.0640622662787981,1.345813099252961,-0.1200574909937165,-0.19514423637654166,-0.008228157584361098
1.8225,-9.801695285155578,-0.0005977285504689643,1.125241147928156,-0.11808682916266126,-0.18972596725524915,-0.005000006693650385
1.825,-9.70697282248866,-0.1790114883713781,1.3128470326800323,-0.11778947977864881,-0.18304669362846826,-0.003749050634078852
1.8275000000000001,-9.889355652902184,-0.18028843630202923,1.7196000820754322,-0.1188320274822838,-0.18183487753685781,-0.003983982090087161
1.83,-10.07418500219598,-0.20173312654231548,1.8543929596057707,-0.11596225851592401,-0.18744373848985926,-0.004113804971898676
1.8325,-9.92579528090032,-0.2081790570775254,1.3908874648374405,-0.11807619461236156,-0.19502459425509108,-0.009252642515184014
1.835,-9.824164757689212,-0.012093645341329937,1.244912482879016,-0.11828738923841843,-0.19262849828111434,-0.009954783060531974
1.8375000000000001,-9.793375570453493,-0.049745624421349784,1.2611765115730043,-0.11875154820500719,-0.19482674163911232,-0.006969451180916431
1.84,-10.07333181850571,-0.051920685491752994,1.604492751319801,-0.1204429541338833,-0.1953263159390859,-0.0071565298286801705
1.8425,-10.049899342504679,-0.13149439821161338,1.6891060741245292,-0.12080476041198496,-0.184023,-0.00550376041198495
1.845,-9.900735959440174,-0.29020332248847286,1.5170591468263084,-0.1162518826114392,-0.18709508369549377,-0.0030383108712886612
1.8475000000000001,-10.00775345458055,-0.17828082777240908,1.6158747240116107,-0.11721672871745478,-0.19617676879459992,-0.009429989932497919
1.85,-10.074961708769393,-0.08638173304462704,1.6613850477324603,-0.11891086146998671,-0.1943798603392276,-0.00980099886924089
1.8525,-9.947655326223265,-0.050120470091657696,1.465094884070502,-0.11770024883666276,-0.19244495753701535,-0.008263600225616908
1.855,-9.800846943405919,-0.10941760310760104,1.361704040797638,-0.11909370817899018,-0.19736174966259867,-0.006956444406157788
1.8575,-9.85484092699461,-0.15342918323878132,1.507252466326747,-0.12098949991143038,-0.19946270113704392,-0.0052445448330341
1.86,-9.920176670611378,-0.11029514559760878,1.572852112462033,-0.11806629380124312,-0.1934299445495318,-0.0048552725596033575
1.8625,-9.920073578947369,-0.17333097954040658,1.596990528984442,-0.11737978858413663,-0.19389386849518175,-0.004067971386212128
1.865,-9.976873673985816,-0.1966477870070925,1.7450575306855791,-0.12134821784397164,-0.19853371187706853,-0.008471611754137104
1.8675,-10.029257899313327,-0.10265386941656932,1.7367568119855996,-0.122173,-0.20193165274429764,-0.011606
1.87,-9.91307966898622,-0.013290943748433353,1.4291832984167498,-0.12204752003754692,-0.20389112396745934,-0.010685722284105014
1.8725,-9.679243154338875,0.014365286665888054,1.018923600460524,-0.12165085976043725,-0.204334,-0.007733597995115617
1.875,-9.677187,-0.095648,1.196796,-0.121257,-0.20132066713046323,-0.004581
1.8775,-9.725018889166957,-0.11949106674685425,1.3067509086463014,-0.12099622541472177,-0.19266511298025132,-0.004152636883303482
1.8800000000000001,-9.991819586781062,-0.2788776760514937,1.917923567725198,-0.12194077562231953,-0.19707590334764133,-0.0036344338197442524
1.8825,-9.83724766044923,-0.0928722743171787,1.356944945570194,-0.12579961146463703,-0.2087938010098387,-0.010938792562341502
1.885,-9.860733153254362,0.01734242967504385,1.2784541894285266,-0.12333577869697454,-0.213803,-0.010377247642068169
1.8875,-9.930571152317881,-0.02919952803531939,1.5296114490066175,-0.12011494304635764,-0.21255224679911716,-0.0039007412803532507
1.8900000000000001,-9.896172790967732,-0.11395837870968659,1.6924974883870922,-0.12065019225806478,-0.20331983806451567,-0.003067882580645333
1.8925,-9.762063712269724,-0.2536842620108315,1.6301767613293239,-0.12533408216736905,-0.1962437116050574,-0.006430876479229457
1.895,-9.937757321309721,-0.12285921559700898,1.7488259439433298,-0.12375522920425026,-0.20415490911609607,-0.007834622262101527
1.8975,-9.959990480275861,-0.10257218537931155,1.7714083809655203,-0.1214871462068964,-0.21185391199999995,-0.007198617103448217
1.9000000000000001,-9.945881652282152,-0.022394698755182938,1.5846338531120263,-0.12902374854771786,-0.2122334464730288,-0.009752573443983375
1.9025,-9.831528071591347,0.003135055952841033,1.420573503261285,-0.12902660581532407,-0.21006182546168997,-0.008261940117877961
1.905,-9.715583811235055,-0.15601409653799841,1.2460586413032686,-0.12628125866944864,-0.218232,-0.004431788492095373
1.9075,-9.880207418041087,-0.144668,1.5176559204299986,-0.122937,-0.21547049779264238,-0.00733
1.9100000000000001,-9.965699763550921,-0.13080103608955929,1.827333266206231,-0.12428652709555368,-0.20032069753390075,-0.006022723292336579
1.9125,-9.821628945953758,-0.10365474306358644,1.6030347606936353,-0.12815983901734113,-0.20050627630057904,-0.0023082277456646576
1.915,-9.995955501660722,-0.23509985008803452,1.8194677469426652,-0.13361074050916022,-0.2092623772924102,-0.005981576188436915
1.9175,-9.939620050789586,-0.2407296836396289,1.761152066150255,-0.13115304448967377,-0.209374,-0.005614693081113445
1.92,-9.887612,-0.236729,1.700143,-0.129045,-0.2065545038641581,-0.00504
1.9225,-9.795780532595833,-0.14282544268522007,1.4943847028783883,-0.13001520932269486,-0.2099189764832925,-0.004245929869818192
1.925,-9.849030129836594,-0.062313626448783736,1.543700578636918,-0.1292159754005579,-0.20961753819051396,-0.003413587389398153
1.9275,-10.181818175571117,-0.06736653284812208,2.1017972646814367,-0.12500870576971645,-0.20192125941453332,-0.0017056679692343299
1.93,-10.15789091837434,-0.2956417742788946,2.0842935707511456,-0.1264324697424926,-0.206931,0.0009604693443029922
1.9325,-9.872069,-0.398733,1.584768,-0.133779,-0.20922828019260198,-0.007178
1.935,-9.851992450781223,-0.3146422860588649,1.6138951276372333,-0.13239187594590285,-0.2164066612060459,-0.006967687879077155
1.9375,-9.733143725485714,-0.13349249805714286,1.5924335026285714,-0.12777947337142856,-0.206778,-0.005933736685714286
1.94,-9.667639627236298,-0.15393354227224715,1.5910976016806067,-0.12932393888980542,-0.20657594130347673,-0.0071105280141425375
1.9425000000000001,-9.775893999436812,-0.061828568405174825,1.8622335410329651,-0.1334825183584677,-0.20606458685706647,-0.009845251738956319
1.945,-9.870426071589486,0.01053409097290986,1.8818924168477251,-0.1287812090404376,-0.20339311804083804,-0.00899021378886959
1.9475,-9.799137015519573,-0.1788554351812474,1.6875331275930394,-0.12397400762687293,-0.2126304491928468,-0.0017205408458192872
1.95,-9.694389898129588,-0.21028350958882752,1.564731863183647,-0.130954761549996,-0.21147839957383016,-0.01153668084602634
1.9525000000000001,-9.624188845763646,-0.0836658880709953,1.5397081924334208,-0.13255263568425935,-0.20442738814572645,-0.011501834806164962
1.955,-9.448183798801216,-0.05029979685636503,1.3006265193559752,-0.12907610639885234,-0.2079666458090229,-0.006705347010999562
1.9575,-9.615618977335425,0.057100240231074614,1.5648404345071674,-0.13234980888193523,-0.20992631873390288,-0.007617281737874575
1.96,-10.01755636171357,-0.04509914661975842,2.1985914070606616,-0.12987076867729835,-0.19642574840838029,-0.003547745062539185
1.9625000000000001,-9.976731383177071,-0.3236907999493444,2.183932769495765,-0.1292217246516356,-0.19803323263238143,0.0008057378768676212
1.965,-9.852941,-0.403515,1.908178,-0.136528,-0.2125674290829333,-0.003665
1.9675,-9.85459440438966,-0.3416880643513589,1.886313382809955,-0.13582400841072279,-0.2144502945907132,-0.004298761474389715
1.97,-9.783567087320037,-0.03289504534258352,1.676757091438937,-0.1316180745596468,-0.20822869803674213,-0.005569157032247964
1.9725000000000001,-9.59018657806265,-0.12010981816945918,1.487515500577836,-0.13115358573440178,-0.20675540399126,-0.0003539794513235345
1.975,-9.783534206727541,-0.15692167063911905,1.8485988605478194,-0.13392360768861128,-0.20391307900048025,-0.004658488707352194
1.9775,-9.88299978607348,-0.26214362246742845,1.9510707604366664,-0.134696,-0.19790095344993555,-0.003665
1.98,-9.72493965115418,-0.3577509396851522,1.8184943726888678,-0.13428155376631598,-0.20445222357092,-0.004784303384225907
1.9825000000000002,-9.840330255649313,-0.2520530405279193,2.0554869301437755,-0.1333525499976433,-0.20811359947207148,-0.008248100485505767
1.985,-9.89792653183713,-0.15455253804560323,1.9594609975700072,-0.1332902736872963,-0.20926266422149875,-0.00986543586319206
1.9875,-9.813871935768503,-0.16563938235294082,1.4321973399430776,-0.12924744535104352,-0.21702186015180255,-0.00755356992409872
1.99,-9.829195844083124,-0.16566537633248954,1.6475053059657376,-0.12896793886383703,-0.20539179631247428,-0.005877497717077777
1.9925,-9.84570288373618,-0.194125734356852,1.9081012486189584,-0.13027522602696479,-0.1941828311964045,-0.002914956696222548
1.995,-9.909086164704759,-0.3057002832190462,2.156009762952365,-0.12894483181587327,-0.20204545655238124,-0.0036663043682541637
1.9975,-9.893494697918728,-0.2663514271364794,1.866892825961951,-0.1340138010335917,-0.20914545290110423,-0.007785357275076369
2.0,-9.995361019993652,-0.19194042748333862,1.959301640431609,-0.13156021358298953,-0.21254152173913043,-0.007982047603935259
2.0025,-9.725484272406788,-0.18902598115253258,1.6124220880000126,-0.12887596029830492,-0.2091803155254231,-0.006371064569491534
2.005,-9.830742196227416,-0.21161110537824046,1.7195473855392698,-0.13254353538799404,-0.21331668064909742,-0.013745281112737463
2.0075,-9.875024109057993,-0.1495204105437243,1.852818863677502,-0.12767160731881033,-0.20981654835556113,-0.007854191689095884
2.0100000000000002,-9.833096647899803,-0.15022967905560522,1.8599361082300212,-0.12421943794528204,-0.20636973363962632,-0.002902
2.0125,-9.706602897863007,-0.22170694053366205,1.7012020112972197,-0.12610439422432781,-0.20398731687651664,-0.004365703731085421
2.015,-9.825739296335255,-0.14137682418898426,1.8473629249640173,-0.1328723546768061,-0.20902834490089797,-0.009617620218428614
2.0175,-9.944573623972254,-0.19352530650723496,2.074980426602877,-0.13239465394714794,-0.2104085681262708,-0.0044318943632668355
2.02,-9.85591275393401,-0.20808117848984767,1.6896987472715739,-0.13021980807106603,-0.21768755548857868,-0.006811565697969562
2.0225,-9.8866794226003,-0.18686717451190893,1.7169414208538938,-0.13600645011370954,-0.21687900387470505,-0.009056203188157044
2.025,-9.853057387706501,-0.07389947693628379,1.7307263370521342,-0.13325790317528435,-0.21249831385968693,-0.00939984185797038
2.0275,-9.990724602509104,-0.11786939442723748,2.11033877803637,-0.13231390428181727,-0.21167203739999926,-0.00159655896363595
2.0300000000000002,-9.890524091076623,-0.3131902310405432,1.8269917645085667,-0.13454093822206156,-0.21743772795861938,-0.006066926486226738
2.0325,-9.617879069719953,-0.33911319084007663,1.3051054966272142,-0.1339195414063472,-0.22208920166770418,-0.006378807143746121
2.035,-9.819686454541932,-0.012747034152020387,1.6133467659649485,-0.13111811005847931,-0.2164200166861593,-0.013697739064328062
2.0375,-9.863274542551675,0.0608607826086973,2.003256993157533,-0.130878,-0.20333487384176718,-0.009017862722736789
2.04,-9.662308663629183,-0.21917745585800164,2.0569922227613326,-0.13230954556213026,-0.20299642126232778,0.003917060749507297
2.0425,-9.69104718170667,-0.3355794285852446,1.8626371743846213,-0.13478389152326473,-0.2179309650409859,-0.0010018597676475297
2.045,-9.786698237930754,-0.3956143756317763,1.7499347816949151,-0.13490990114868676,-0.227547,-0.005441439752590587
2.0475,-9.884878054472566,-0.41444330823867137,1.750481669756565,-0.130025730577566,-0.22511349976133738,-0.005230807684964076
2.05,-9.739554651911027,-0.25902924238722863,1.732237113753132,-0.12769486322055087,-0.213582252443609,-0.007935705325814314
2.0525,-9.7772483603238,-0.11976385324127506,1.7947532154029648,-0.1344557567289611,-0.21452144549934582,-0.010319243271038902
2.055,-10.024214159121264,-0.11809144937638673,2.1024528887181133,-0.13487168449448786,-0.21914307232440958,-0.006145984548031077
2.0575,-10.074987391814552,-0.24287619919242373,2.159245596231311,-0.12993994433200384,-0.2207407756380857,-0.0011335600598208616
2.06,-9.955016575096822,-0.25706644065856515,2.131411510548014,-0.12961714572481392,-0.2190509748710309,-0.007058958381811114
2.0625,-9.791627971801926,-0.26506715130674,1.8527557372764787,-0.13368544429160936,-0.21785054676753784,-0.00911678266850069
2.065,-9.784431154310106,-0.2907253991880815,1.7132883518968987,-0.133855366511478,-0.22941534507289554,-0.008893791439387714
2.0675,-9.928007015251342,-0.1515947132601398,1.7572673242117993,-0.13567806910688152,-0.23247830638848316,-0.013373909019033934
2.07,-9.841800855377459,0.0725173230700434,1.9366866031244532,-0.13310844197027127,-0.21444197538909993,-0.007981037221412869
2.0725000000000002,-9.632951234446447,0.032738885119528036,1.915728329282694,-0.1322977703516178,-0.21265573674904656,-0.0033272770825793323
2.075,-9.554023961717228,-0.20446149263949176,1.8464574225035113,-0.13637310792311327,-0.22295117855468563,0.0024644356439626385
2.0775,-10.025544632441925,-0.1779102189288801,2.288428256526635,-0.13600981611264873,-0.22602,-0.006744560009628124
2.08,-9.848986193361329,-0.24047519854164665,1.867306022880231,-0.133321,-0.22665903955932476,-0.006872
2.0825,-9.607171254658684,-0.09783079637844123,1.655470082835933,-0.13403182994970064,-0.2283617023233533,-0.0077098351137725
2.085,-9.881672606607221,-0.035081345847015416,2.3092620990708506,-0.1383551795588925,-0.2288690021210699,-0.0029469607883626514
2.0875,-9.732660378059478,-0.2083870938040459,1.9029602758204174,-0.13622116031275924,-0.2307737091102949,-0.0012451057931524635
2.09,-9.589255845144697,-0.24992904088195975,1.6034093097106061,-0.14112564371152847,-0.232129,-0.007957413431326343
2.0925000000000002,-9.585126,-0.229555,1.611669,-0.143095,-0.23073078901544386,-0.009927
2.095,-9.655875726877412,-0.22858355519157064,1.754139627739498,-0.14210243093869707,-0.22989190934865905,-0.008272537681991937
2.0975,-9.846461949871347,-0.23004541602982026,2.1406453936227017,-0.1404467556859449,-0.230449,-0.004983671987496005
2.1,-9.758930294457445,-0.2464774272287271,2.022633679999986,-0.14346726669789203,-0.23242107284933666,-0.010408609117876597
2.1025,-9.546204280740557,-0.1812489150562856,1.704339073605208,-0.13645536355266435,-0.237627,-0.008401106209657186
2.105,-9.772234087811038,-0.037454512357343504,1.8373042654724037,-0.14077736913938255,-0.237627,-0.0055464895696913175
2.1075,-9.852463262607646,-0.13879805531827444,1.948874874842514,-0.14360216393616373,-0.2278969544522737,-0.004725831079795262
2.11,-9.895319848672258,-0.2474395692862745,2.058112417958533,-0.14389632145592673,-0.220828,-0.004487489805348917
2.1125,-9.850801656559113,-0.3203805070350672,2.183696609426493,-0.14018356651961958,-0.2224986382632914,-0.004610228697469474
2.115,-9.928265639142774,-0.23263645973119568,2.2542111393824897,-0.14605422307301213,-0.23800028002906062,-0.013404898583364761
2.1175,-9.940453850225635,-0.12711231252279676,2.0873906916322498,-0.14381119316610638,-0.239154,-0.011942233463754035
2.12,-9.885441454646157,-0.12088655746744886,1.9214097624478206,-0.14073609216695424,-0.23928240529107173,-0.008048268969088068
2.1225,-9.729012058969833,-0.273647216477956,1.8025304197076577,-0.138208,-0.239612,-0.0035365541438516944
2.125,-9.714457685523312,-0.12561928007825235,1.9699956675089665,-0.13911832173133354,-0.23668357817085098,-0.010729037495924356
2.1275,-10.032536156470591,0.002142034156233305,2.3588943383799394,-0.1407953266055932,-0.22728262366441673,-0.009783157926712326
2.13,-9.803299859499303,-0.3057103624846398,2.275599646490323,-0.13729777052905065,-0.2333468256542272,-0.005585622050070629
2.1325,-9.796267498753771,-0.23090855083970072,2.221688314170072,-0.13934233777383262,-0.23578872137759618,-0.010098367349547025
2.1350000000000002,-9.77545301897983,-0.12001006115831257,2.1233168042252193,-0.1414486427279301,-0.2372616872552013,-0.012888044527271195
2.1375,-9.58510886394134,-0.010735434262768975,1.7857630987239237,-0.14244247396030227,-0.237932,-0.009685163894138515
2.14,-9.42868914494073,-0.14811046915819165,1.641837616592037,-0.14255786707699683,-0.23144399612740946,-0.004080000847802634
2.1425,-9.5721185257022,-0.26742341196424313,1.9919052304305163,-0.14362913509291933,-0.223729,-0.004198111884262639
2.145,-9.79480347761034,-0.22364166142736874,2.5330267661317185,-0.1442492867253117,-0.22563399452918234,-0.006832502091333281
2.1475,-9.60464934563419,-0.12511894268110157,2.079900006228144,-0.1457517756314181,-0.23432093775187282,-0.007989940605051113
2.15,-9.603538222454766,-0.12430616080244908,1.871384938139571,-0.148593,-0.24325848552928264,-0.01237
2.1525,-9.510125301893826,-0.1963455167862168,1.6595257309516767,-0.14786886012434292,-0.24011756785270225,-0.01114701289335329
2.1550000000000002,-9.566176685034963,-0.278962657342643,1.9251800467132874,-0.14164627608391608,-0.23554523020978937,-0.0038218198601409218
2.1575,-9.542681,-0.150646,1.929699,-0.141415,-0.22865058936065027,-0.013286
2.16,-9.627941790291516,-0.16159556270328526,2.0221132115280933,-0.14383936286284182,-0.23058935366983715,-0.01052608011353124
2.1625,-9.880285929113013,-0.2112353525035858,2.2908168531473434,-0.15097296974248905,-0.22787623063900847,-0.002019584787792104
2.165,-9.708228656702826,-0.39807495470414167,2.055533489063115,-0.14813459157462205,-0.23447563324128856,-0.0048082994806049936
2.1675,-9.655081150066923,-0.28358215212555477,2.0234279333579472,-0.15253322668820687,-0.23074481819524575,-0.013128909097622883
2.17,-9.839574581976784,0.007041161153710973,2.2697461351107946,-0.14768368120998945,-0.23057457820612035,-0.008691665860007237
2.1725,-9.850775035772527,-0.017149119939590268,2.386928107398094,-0.14752556722697496,-0.2294489872169096,-0.0022027064116757126
2.1750000000000003,-9.823995671356347,-0.1877386628045728,2.4065416093793495,-0.1542035925517246,-0.2273595614712621,-0.005178864183908203
2.1775,-9.663818939891195,-0.2938340235513242,2.02112873421004,-0.15100971556146464,-0.23319412199685804,-0.0036278937604253157
2.18,-9.547152446956527,-0.24458228745338464,1.950894537888253,-0.15038228397515574,-0.239612,-0.010098781863355654
2.1825,-9.70745587935093,-0.10186803929803014,2.258556179890629,-0.1494600197704188,-0.23041591449005305,-0.011931845380130998
2.185,-9.776891203286025,-0.06958639371491913,2.4384819960643336,-0.14755345090192365,-0.22524997631977306,-0.008096784538000399
2.1875,-9.651299469414733,-0.20038408388414855,2.4049292695589473,-0.1471565328686456,-0.23136807931738973,-6.863369787285176e-05
2.19,-9.641266645384798,-0.3031296921991905,2.053893614346757,-0.15468278282582812,-0.23926629180843467,-0.008440580570248669
2.1925,-9.685620313829391,-0.33756487318481304,1.998512471668245,-0.14698104807583,-0.23421010677725174,-0.0032913281327021007
2.195,-9.707242993520884,-0.4203538730587864,2.148466777426062,-0.14395797934155383,-0.23347197888902163,-0.001938652879204794
2.1975000000000002,-9.835746169040295,-0.3376157542509268,2.3993533982303967,-0.1462199920318358,-0.2355696416807104,-0.006984513993446576
2.2,-9.81321609356607,-0.17403077517338217,2.3327244482180114,-0.14745414680698318,-0.22745884219086362,-0.009452789045681899
2.2025,-9.63032204517138,-0.22067193482378014,2.018916831325098,-0.14880542973143007,-0.2365152659278979,-0.004720585779498154
2.205,-9.715902750855959,-0.26536053709137203,2.308505322305662,-0.14897053234145777,-0.23767343426129137,-0.007971859979207747
2.2075,-9.852090540951762,-0.21919890074676607,2.406569755145205,-0.1474884821801025,-0.23289152831042054,-0.005732194972748697
2.21,-9.723920462993988,-0.27782503402382774,2.0737436217577043,-0.14699695561401438,-0.23365431453108407,-0.003991228064173664
2.2125,-9.566762676470574,-0.35917688039215934,1.7421696549019319,-0.14724092745098027,-0.2356180450980394,-0.003776282352940901
2.215,-9.83588529863451,-0.30216683502662245,2.4351385224616102,-0.149204,-0.22803525143125652,-0.00901
2.2175000000000002,-9.841161972264864,-0.2866921785524481,2.767814553205267,-0.1490144178975872,-0.21947394099950937,-0.008209894588871731
2.22,-9.62770377802208,-0.33514407932068546,2.3670855922923524,-0.14900975515362486,-0.23425081789966468,-0.004738575876140543
2.2225,-9.61190466243879,-0.2606633434589492,2.184646330765712,-0.15256562587854078,-0.24386003783245372,-0.00935095110417693
2.225,-9.625659325536992,-0.24929601126492187,1.9697098432458298,-0.148898,-0.237779,-0.0009224732219569908
2.2275,-9.593472826982026,-0.40843242724692824,2.1531230747398333,-0.15006846804162738,-0.23646812484389768,-0.0025040619867552896
2.23,-9.813600420599348,-0.34188276104465165,2.5309884406113823,-0.152716,-0.22933829816825133,-0.009274379270670353
2.2325,-9.722804216403318,-0.23265295835920474,2.240399362924505,-0.14846727328509757,-0.23143671476951794,-0.008622168108297372
2.235,-9.717348925989661,-0.12221223844603524,2.0922897292615192,-0.14569548508482905,-0.23701152024588087,-0.006822355249569923
2.2375000000000003,-9.936810665226774,-0.04854923657310317,2.387359898056162,-0.14806509114470925,-0.24558569143268352,-0.0032789100071996084
2.24,-9.864110529051134,-0.2593228561531951,2.471877193751081,-0.15183718248929678,-0.23237328980462324,-0.0023816390846106723
2.2425,-9.774485604056645,-0.3570729774503144,2.5440494688393995,-0.14898001226996826,-0.22964708296155306,0.001837656940839669
2.245,-9.623384,-0.474653,2.280009,-0.153327,-0.24078235838655487,-0.005803
2.2475,-9.602392525173599,-0.2457743915084672,2.1980735471572443,-0.14995368364498154,-0.2367077786135797,-0.002083629868467741
2.25,-9.59622748785872,-0.11001136889870003,2.1286858883165727,-0.14871563502575424,-0.2362824006213719,0.0006451501103752759
2.2525,-9.632253416735566,-0.23065241673556544,2.149113569779039,-0.15300245200285098,-0.24405237810406288,-0.00021080601568060326
2.255,-9.724065019349093,-0.27655230693826477,2.429663253545607,-0.15308039532349982,-0.23976306963240449,-0.002041999772106545
2.2575,-9.830098062515166,-0.24627962015995247,2.5709805787449027,-0.14950243881754186,-0.24263804641628278,-0.0010561819626842379
2.2600000000000002,-9.807208856936384,-0.0911827538007174,2.374141387452585,-0.15668613105402188,-0.24380407077551022,-0.002739265906362465
2.2625,-9.790059378990955,-0.19731650481463264,2.292825413360911,-0.1580038347385388,-0.243888,-0.00032670790140428875
2.265,-9.592965197000717,-0.3445367158962048,1.9820273816519842,-0.154070415815282,-0.24851739532492295,-0.004674568812188133
2.2675,-9.712326449408499,-0.22550890841898247,2.248016787556884,-0.1568795250960296,-0.2432671171512044,-0.005861043419704015
2.27,-9.83721994170219,-0.11502599122180104,2.5455393671440225,-0.16010073610421957,-0.23690153412519752,-0.006091058175199963
2.2725,-9.857316450959669,-0.2081571031538483,2.593343245682501,-0.1571510434359891,-0.23741757364858584,7.53526909066871e-05
2.275,-9.751738698093355,-0.33087747475345497,2.3157903980933585,-0.15913448803418806,-0.24598363353057182,-0.0021944926364231483
2.2775,-9.849965189331456,-0.2809841371347573,2.321266414446419,-0.15839650660063687,-0.24925208977714958,-0.007220097686594185
2.2800000000000002,-9.740724546630082,-0.4619070859304279,2.281224951031871,-0.1556616638980888,-0.23909375898481058,-0.001609394387065773
2.2825,-9.863046872488919,-0.33291807542219,2.645586362555603,-0.1538288062666668,-0.233809,-0.008722259000000707
2.285,-10.047057262884412,-0.012406316075956485,2.9174545999392025,-0.15559053652523067,-0.23461581558328826,-0.010930512798697035
2.2875,-9.747201236942772,-0.03844400239112632,2.367373917796732,-0.1558515623398804,-0.24322769637916372,-0.002274826490179232
2.29,-9.554597670601504,-0.21985568609962564,2.0089475492763196,-0.1554008483176692,-0.2547750531203008,-0.000305
2.2925,-9.755041464846904,-0.3598375437467536,2.415362660300974,-0.155532522947587,-0.25257783939802825,-0.0012264743020238033
2.295,-9.957994032937151,-0.32872726358690446,2.7826901568651556,-0.15147612231808796,-0.244804,-0.006986476069636938
2.2975,-9.893489391070482,-0.14060885338465734,2.6901841889824287,-0.1514887893961985,-0.24513010789511652,-0.010886414625932143
2.3000000000000003,-9.805287614257104,-0.12011069154333917,2.6941945421553255,-0.15979712101768112,-0.2466029541083285,-0.009016338011040173
2.3025,-9.507139835063835,-0.28026182639718417,2.305026200042549,-0.157451,-0.24753920777305116,-0.0029647809787232433
2.305,-9.618762036613482,-0.3839754665879222,2.343520497848721,-0.1572868061825726,-0.2561707360229805,-0.005373420338334601
2.3075,-9.79703717952044,-0.1815616658963136,2.586741358680081,-0.1566325285453299,-0.24679,-0.013834089659739129
2.31,-9.755083704298482,-0.07914044116079126,2.7503388382409275,-0.15644927345472287,-0.24690352234758578,-0.003600082906844321
2.3125,-9.471531821579775,-0.2871844998185557,2.346574507923068,-0.16030150127011006,-0.25082395355026005,-0.0004921918471029393
2.315,-9.444735850432098,-0.40813098134568077,2.1528546729135813,-0.1654829669876543,-0.2699223988333334,-0.007317735456789976
2.3175,-9.502629,-0.333572,2.113821,-0.166155,-0.2650833042567065,-0.013592
2.32,-9.494078497744457,-0.29509528996922846,2.2012979247194213,-0.16426479053271287,-0.2532905903275201,-0.010567444804672668
2.3225000000000002,-9.533434389270433,-0.2529841988174023,2.5070833829948103,-0.16108179163567135,-0.24805058249880946,-0.0029273645112067323
2.325,-9.679619026340648,-0.4023474213666544,2.6240912958211227,-0.16425451930411902,-0.2552549209900164,-0.0035265711723560574
2.3275,-9.647720691992872,-0.43807798565975675,2.473775917913421,-0.16242252897688172,-0.258091,-0.0036778259158270345
2.33,-9.427306,-0.515901,2.003826,-0.158061,-0.25631459881978674,-0.005345
2.3325,-9.479202645648876,-0.4733568092138745,2.15914905371336,-0.15792050458124052,-0.2513131034925827,-0.006258526980492985
2.335,-9.754511059262342,-0.24936211942075318,2.9152213646499767,-0.1573032782814625,-0.25109841064085126,-0.009441554002720304
2.3375,-9.641566437960364,-0.30127928810197663,2.4363000069405674,-0.15890399022662854,-0.2564629635977329,-0.0045647348441925
2.34,-9.450762995880462,-0.3314224552541986,2.003664122064529,-0.16043573956899643,-0.2583565836266226,-0.006398080035718478
2.3425000000000002,-9.503479752738103,-0.30762736378926786,2.2049666978482767,-0.15908829505812538,-0.25153953232747867,-0.006013237269353258
2.345,-9.764951067158286,-0.2971961058731457,2.8383500389899483,-0.16098023029756978,-0.24851462270539415,-0.005502895193835507
2.3475,-9.968719626355732,-0.2856660176261793,3.123096910908457,-0.1622737432091889,-0.24775154849982584,-0.008598406877827928
2.35,-9.922217635294103,-0.3600724235294138,2.860867194117617,-0.15992012352941165,-0.25123934117647123,-0.006059270588235178
2.3525,-9.597963501284841,-0.39001580209258163,2.2101309980302406,-0.1571604785781767,-0.266185,-0.004020708833254695
2.355,-9.776422,-0.285748,2.648254,-0.158825,-0.2619885315573771,-0.008247
2.3575,-9.77509645613591,-0.29030398543878033,2.6563720208318666,-0.1576822276555363,-0.25089938837258335,-0.00651170982542516
2.36,-9.7173860457533,-0.37266368969282376,2.6652838717698755,-0.1522111776499266,-0.2544396308922475,0.0020594718673821342
2.3625000000000003,-9.705656313378904,-0.45867434356918385,2.72932943225974,-0.15553028149541376,-0.2594980202210228,-0.004240341359040517
2.365,-9.76046632168978,-0.3939830787314777,2.8342262175193795,-0.15537699088020748,-0.2647767612096963,-0.005377273447870272
2.3675,-9.45094450727633,-0.4733433862311638,2.4010914829534302,-0.15944911629534597,-0.2645474877219183,-0.00766211177884076
