time,acc_x_g,acc_y_g,acc_z_g,gyro_x_rad_s,gyro_y_rad_s,gyro_z_rad_s
1765407756.221087,-8.882710,2.160449,4.191176,-0.007789,-0.005651,0.000764
1765407756.221337,-8.751793,2.089311,3.971185,-0.008094,-0.008399,-0.000458
1765407756.221587,-8.738641,2.156862,3.980750,-0.007636,-0.010690,-0.003054
1765407756.221837,-8.906025,2.141320,4.196556,-0.010385,-0.009316,-0.003665
1765407756.222140,-8.993303,2.130559,4.304758,-0.006872,-0.007025,-0.001222
1765407756.222340,-8.809181,2.110234,4.077594,-0.007178,-0.002138,0.001527
1765407756.222540,-8.579028,2.064801,3.925155,-0.009163,-0.004734,-0.001222
1765407756.222740,-8.353658,2.083333,3.742826,-0.010537,-0.010232,-0.004429
1765407756.222940,-8.263988,2.388809,3.737446,-0.009163,-0.008399,-0.012065
1765407756.223128,-8.144428,2.771999,3.851028,-0.010843,-0.000764,-0.014661
1765407756.223378,-7.887373,3.103778,3.592778,-0.015730,0.008552,-0.005345
1765407756.223628,-7.869440,3.235891,3.480989,-0.020311,0.006720,0.003207
1765407756.223878,-8.029650,3.387135,3.760162,-0.020922,0.006567,0.005956
1765407756.224076,-8.176709,3.542563,4.100310,-0.026420,0.016646,0.009774
1765407756.224276,-8.009325,3.742228,4.039335,-0.038179,0.031612,0.010385
1765407756.224476,-8.095408,3.917383,4.127809,-0.048106,0.028558,0.013592
1765407756.224676,-8.597560,4.178622,4.440459,-0.056658,0.029627,0.013286
1765407756.224876,-8.819344,4.295791,4.634146,-0.063988,0.048258,0.015577
1765407756.225075,-8.927546,4.392036,4.442850,-0.081092,0.048258,0.023824
1765407756.225325,-8.839071,4.105690,4.448828,-0.101251,0.045204,0.029169
1765407756.225575,-9.026780,4.176231,4.609038,-0.113468,0.037415,0.022907
1765407756.225825,-9.183404,4.328670,4.519368,-0.124311,0.038332,0.019700
1765407756.226053,-9.100907,4.280248,4.378287,-0.138514,0.039706,0.024435
1765407756.226303,-9.093734,4.145145,4.054877,-0.146760,0.039706,0.023213
1765407756.226553,-9.093734,4.145145,4.054877,-0.146760,0.040928,0.023213
1765407756.226803,-9.286225,3.737446,4.117647,-0.164017,0.054367,0.022449
1765407756.227060,-9.463174,3.609516,4.188187,-0.167530,0.054367,0.009774
1765407756.227310,-9.362145,3.621473,3.823529,-0.170584,0.039554,0.004123
1765407756.227560,-9.404591,3.465447,3.539574,-0.180511,0.039554,-0.002291
1765407756.227810,-9.404591,3.465447,3.539574,-0.180511,0.047495,-0.002291
1765407756.228091,-9.574366,3.447513,3.617886,-0.178678,0.053756,-0.013439
1765407756.228341,-9.709468,3.485174,3.860593,-0.184787,0.051924,-0.017104
1765407756.228591,-9.760879,3.290292,3.783476,-0.194255,0.054062,-0.025351
1765407756.228841,-9.717837,3.438546,3.411047,-0.195782,0.054520,-0.028100
1765407756.229069,-9.604255,3.326159,3.329148,-0.201738,0.057116,-0.037415
1765407756.229319,-9.833213,3.243663,3.961023,-0.205251,0.066890,-0.040775
1765407756.229569,-9.866092,3.112745,3.898852,-0.210443,0.066890,-0.047495
1765407756.229819,-9.786584,2.982424,3.695600,-0.218995,0.054672,-0.056658
1765407756.230127,-9.686751,3.098995,3.532998,-0.220980,0.053909,-0.070097
1765407756.230377,-9.763867,3.281922,3.524629,-0.220980,0.054367,-0.074067
1765407756.230627,-9.670013,3.256814,3.711143,-0.227242,0.061545,-0.070097
1765407756.230877,-9.839788,3.191056,4.044715,-0.231060,0.066737,-0.069028
1765407756.231130,-9.461978,2.981827,3.522835,-0.237932,0.059407,-0.073609
1765407756.231380,-9.891200,2.908895,4.331659,-0.246484,0.057116,-0.081551
1765407756.231630,-9.811094,2.889167,4.269488,-0.245721,0.067959,-0.088117
1765407756.231880,-9.283834,3.176112,3.284911,-0.259770,0.053756,-0.092088
1765407756.232127,-9.597081,3.153993,3.649569,-0.273820,0.055741,-0.096059
1765407756.232377,-9.775226,3.146819,4.280248,-0.273820,0.076053,-0.096059
1765407756.232627,-9.427904,2.830583,3.884504,-0.266643,0.063072,-0.073304
1765407756.232877,-9.502629,2.306313,4.117049,-0.282983,0.063072,-0.085216
1765407756.233116,-9.502629,2.306313,4.117049,-0.282983,0.067348,-0.085216
1765407756.233366,-9.375896,2.297943,3.292683,-0.282220,0.055894,-0.093615
1765407756.233616,-9.649688,2.067790,4.530128,-0.281609,0.085216,-0.103389
1765407756.233866,-9.312529,2.416905,3.895265,-0.270461,0.096975,-0.095753
1765407756.234090,-8.632233,1.851387,2.864658,-0.285885,0.064752,-0.080481
1765407756.234340,-8.632233,1.851387,2.864658,-0.285885,0.071624,-0.080481
1765407756.234590,-9.326876,1.744380,3.693208,-0.269544,0.096822,-0.098349
1765407756.234840,-8.737445,1.398852,3.600549,-0.271224,0.090866,-0.091172
1765407756.235169,-8.802007,1.587757,3.530607,-0.274126,0.091172,-0.109650
1765407756.235419,-9.022595,1.505261,3.444524,-0.268017,0.099571,-0.108429
1765407756.235669,-8.641199,1.130440,3.207795,-0.259465,0.097738,-0.104305
1765407756.235919,-8.706360,1.117886,3.451697,-0.255800,0.117133,-0.123395
1765407756.236158,-8.571257,1.435916,3.532400,-0.249233,0.140499,-0.132100
1765407756.236408,-8.104973,1.237446,2.816834,-0.248775,0.134849,-0.123547
1765407756.236658,-8.295074,1.102343,3.370396,-0.250302,0.136834,-0.138361
1765407756.236908,-8.555714,1.656504,3.276542,-0.236710,0.170279,-0.147371
1765407756.237092,-8.565279,1.506456,3.200621,-0.222050,0.173791,-0.127213
1765407756.237342,-8.605331,0.841702,4.192969,-0.219301,0.189368,-0.132100
1765407756.237592,-8.865375,1.191415,4.158297,-0.207694,0.191964,-0.151189
1765407756.237842,-8.627449,1.461621,3.740435,-0.212581,0.186161,-0.149051
1765407756.238108,-8.574843,1.218316,3.658536,-0.204640,0.198378,-0.152869
1765407756.238441,-7.922046,1.409612,3.160569,-0.194713,0.224035,-0.156382
1765407756.238775,-7.631516,1.364180,2.942372,-0.196088,0.218842,-0.158367
1765407756.239080,-7.631516,1.364180,2.942372,-0.196088,0.220980,-0.158367
1765407756.239330,-8.359635,1.712099,3.098995,-0.197462,0.218079,-0.165086
1765407756.239580,-8.933523,1.844811,4.039933,-0.186467,0.247248,-0.163254
1765407756.239830,-8.972978,1.823290,4.087159,-0.163712,0.250913,-0.155618
1765407756.240052,-8.762552,1.620636,3.707556,-0.179136,0.250913,-0.145539
1765407756.240302,-8.962218,1.376136,4.075203,-0.179289,0.261145,-0.162948
1765407756.240552,-9.451816,1.487326,4.384265,-0.164017,0.279776,-0.174707
1765407756.240802,-8.551529,1.337876,3.210784,-0.157451,0.281151,-0.160352
1765407756.241121,-8.389525,1.401841,3.359636,-0.154702,0.283594,-0.172264
1765407756.241371,-8.684838,1.565040,3.593974,-0.150731,0.301920,-0.186467
1765407756.241621,-9.390841,2.015782,4.192969,-0.133474,0.291383,-0.171653
1765407756.241871,-8.570062,1.513630,3.364419,-0.142790,0.302226,-0.172111
1765407756.242126,-8.464251,1.801769,3.194643,-0.130878,0.303447,-0.175318
1765407756.242459,-8.144428,1.230273,3.206599,-0.138514,0.320093,-0.169057
1765407756.242793,-8.519846,1.395863,3.772118,-0.123089,0.310930,-0.178067
1765407756.243134,-8.724294,1.637972,3.450502,-0.132558,0.336129,-0.197157
1765407756.243384,-8.528812,1.779651,3.405069,-0.124617,0.334449,-0.188452
1765407756.243634,-7.524509,1.880679,2.379244,-0.115759,0.333685,-0.187841
1765407756.243884,-8.385341,2.043280,3.241272,-0.114690,0.362090,-0.185092
1765407756.244106,-8.870156,2.070779,3.707556,-0.107360,0.362090,-0.168904
1765407756.244356,-8.495934,1.330105,2.875418,-0.103389,0.359952,-0.162490
1765407756.244606,-8.784672,1.646341,3.405069,-0.085827,0.380111,-0.182496
1765407756.244856,-9.071017,1.291248,3.668699,-0.086132,0.394314,-0.185703
1765407756.246393,-8.353060,1.642754,3.311812,-0.075900,0.393550,-0.191964
1765407756.246643,-8.464849,2.550215,2.986609,-0.066279,0.413709,-0.198226
1765407756.246893,-9.510998,2.581301,4.271879,-0.053756,0.401186,-0.168752
1765407756.247143,-9.380678,1.980512,4.241989,-0.033139,0.440434,-0.150731
1765407756.246471,-8.348875,1.468197,2.369081,-0.029932,0.440434,-0.157145
1765407756.246721,-8.336919,1.581181,2.844332,-0.022602,0.428827,-0.171195
1765407756.246971,-9.039932,1.817312,4.042324,-0.009927,0.429286,-0.177151
1765407756.247221,-8.732662,1.884266,3.878527,-0.005192,0.439976,-0.174860
1765407756.247120,-8.485173,2.379244,3.046389,0.013439,0.425315,-0.161574
1765407756.247370,-8.032041,1.611669,2.974653,0.000000,0.425315,-0.147524
1765407756.247620,-8.707555,1.454447,3.500119,0.013439,0.413861,-0.163559
1765407756.247870,-8.928741,1.847202,3.552128,0.028558,0.443641,-0.172264
1765407756.248115,-8.701577,1.880679,3.148015,0.028558,0.452957,-0.172264
1765407756.248365,-8.308225,1.869918,2.422286,0.024740,0.474337,-0.165544
1765407756.248615,-8.574843,2.262075,2.972262,0.028863,0.474337,-0.161727
1765407756.248865,-8.932328,2.189144,2.916069,0.024129,0.486096,-0.134238
1765407756.249118,-8.947871,1.425753,4.057269,0.016188,0.504727,-0.135154
1765407756.249368,-8.488760,1.464610,2.898134,0.017257,0.498771,-0.164017
1765407756.249618,-9.016020,2.172405,2.870636,0.015577,0.488998,-0.167072
1765407756.249868,-9.716641,2.022955,4.233620,0.023213,0.511752,-0.160505
1765407756.250132,-10.031085,2.351745,4.458990,0.038943,0.538172,-0.150578
1765407756.250382,-9.930654,1.682807,4.164275,0.034208,0.526566,-0.134238
1765407756.250632,-11.006694,1.227881,5.182328,0.045357,0.526566,-0.147677
1765407756.250882,-11.006694,1.227881,5.182328,0.045357,0.536645,-0.147677
1765407756.251139,-9.736967,1.502869,3.923959,0.062003,0.519083,-0.167988
1765407756.251389,-9.065040,1.440698,3.935915,0.070402,0.531300,-0.175624
1765407756.251639,-8.727880,2.380440,3.225729,0.103236,0.497092,-0.165392
1765407756.251889,-8.835485,1.872310,2.814442,0.105527,0.497092,-0.145691
1765407756.252101,-8.774508,1.357006,2.899330,0.107512,0.490372,-0.146913
1765407756.252351,-9.131993,1.451458,2.656623,0.102931,0.515112,-0.177609
1765407756.252601,-9.658057,1.799378,3.308823,0.101251,0.518930,-0.179747
1765407756.252851,-10.416068,2.027738,4.604256,0.103236,0.578489,-0.174860
1765407756.253163,-11.013868,2.039694,4.876853,0.116217,0.578489,-0.162948
1765407756.253413,-11.013868,2.039694,4.876853,0.116217,0.583834,-0.162948
1765407756.253663,-8.975369,1.823290,2.348159,0.118813,0.582765,-0.143095
1765407756.253913,-8.474413,1.546509,2.308704,0.142637,0.582765,-0.135001
1765407756.254153,-8.321377,1.293639,2.396580,0.163712,0.570854,-0.132710
1765407756.254403,-7.802486,1.286466,2.941176,0.177151,0.574213,-0.143706
1765407756.254653,-6.801171,1.237446,2.196317,0.167377,0.598953,-0.166308
1765407756.254903,-6.846604,1.988283,1.408417,0.199295,0.570243,-0.154243
1765407756.255115,-7.173600,1.490315,2.231587,0.195935,0.561232,-0.135765
1765407756.255365,-7.173600,1.490315,2.231587,0.195935,0.552375,-0.135765
1765407756.255615,-8.955045,1.667862,2.004424,0.218232,0.580780,-0.147219
1765407756.255865,-10.205642,1.874701,3.915590,0.227700,0.583834,-0.154702
1765407756.256088,-9.293997,1.860354,4.088355,0.225104,0.645837,-0.151036
1765407756.256338,-7.943566,2.235772,2.642874,0.211512,0.607964,-0.125838
1765407756.256588,-7.943566,2.235772,2.642874,0.211512,0.613767,-0.125838
1765407756.256838,-8.720706,1.700143,3.118125,0.211512,0.621250,-0.123395
1765407756.257032,-8.339311,1.105930,2.549019,0.219453,0.630108,-0.111636
1765407756.257282,-8.142036,0.428025,3.627450,0.211207,0.616668,-0.137903
1765407756.257532,-9.819464,0.900287,4.222859,0.219148,0.637132,-0.175166
1765407756.257782,-10.144667,1.517217,3.830105,0.229685,0.586431,-0.154243
1765407756.258079,-11.775465,1.071258,5.520085,0.236710,0.579406,-0.163712
1765407756.258329,-11.675034,1.342659,5.572094,0.273362,0.627511,-0.175013
1765407756.258579,-10.826158,1.417384,3.253228,0.269239,0.582765,-0.162337
1765407756.258829,-10.277976,1.378527,3.254423,0.261450,0.582765,-0.192270
1765407756.259082,-9.253944,2.302726,2.275227,0.287259,0.620181,-0.193950
1765407756.259332,-7.991989,2.110234,1.935676,0.279776,0.626137,-0.156382
1765407756.259582,-7.923242,2.187948,2.097680,0.278555,0.630108,-0.153480
1765407756.259832,-8.244858,1.944046,1.421569,0.282831,0.651335,-0.161268
1765407756.260055,-8.758368,1.545911,1.707317,0.297491,0.651335,-0.139583
1765407756.260388,-8.834887,0.866212,3.788259,0.323300,0.662178,-0.144775
1765407756.260722,-9.294595,1.496891,4.230033,0.333838,0.669966,-0.170431
1765407756.261065,-8.922764,1.535150,2.641081,0.338114,0.666454,-0.168293
1765407756.261315,-7.949545,1.279292,1.029412,0.332311,0.650419,-0.178067
1765407756.261565,-9.286225,2.812051,1.859158,0.375835,0.613156,-0.180205
1765407756.261815,-8.745216,1.946437,2.702056,0.361327,0.631940,-0.150884
1765407756.262141,-7.796508,1.553682,2.019368,0.344986,0.689056,-0.160199
1765407756.262391,-7.445002,1.412004,0.218795,0.331853,0.688292,-0.175013
1765407756.262641,-9.001673,1.545313,2.859875,0.313985,0.647823,-0.176235
1765407756.262891,-10.100429,1.758728,3.877331,0.331242,0.690889,-0.182649
1765407756.263099,-8.970588,1.787422,3.003945,0.330784,0.710742,-0.163559
1765407756.263349,-8.836680,1.492109,2.785748,0.330325,0.689820,-0.156840
1765407756.263599,-10.048421,0.817790,4.639526,0.337808,0.657902,-0.172111
1765407756.263849,-11.021042,0.924199,4.099712,0.362854,0.627206,-0.185703
1765407756.264106,-8.471424,0.836920,1.358202,0.370337,0.664621,-0.203876
1765407756.264356,-8.424197,1.117886,2.122190,0.387136,0.638354,-0.223424
1765407756.264606,-10.667144,2.063606,4.392634,0.387441,0.612392,-0.215330
1765407756.264856,-11.372548,1.979914,4.812290,0.378584,0.612392,-0.208305
1765407756.265091,-10.914633,1.765901,3.084050,0.396757,0.672563,-0.200517
1765407756.265341,-7.621353,1.686394,-1.042563,0.406836,0.673326,-0.179442
1765407756.265591,-7.650644,1.686394,1.206360,0.406836,0.610560,-0.179442
1765407756.265841,-9.225250,1.895026,2.333811,0.427300,0.677450,-0.216552
1765407756.266067,-9.389048,1.739000,3.060736,0.433256,0.677450,-0.202655
1765407756.266317,-9.002869,1.438307,2.687709,0.439365,0.694859,-0.178525
1765407756.266567,-8.205403,1.204567,2.204686,0.460898,0.668134,-0.188299
1765407756.266817,-8.478000,1.026423,2.073170,0.472046,0.631787,-0.195171
1765407756.267072,-8.555714,1.132233,1.449067,0.451888,0.616974,-0.200669
1765407756.267405,-9.367526,1.782640,1.754543,0.429744,0.636827,-0.226936
1765407756.267739,-11.389285,1.830464,4.085365,0.422719,0.653320,-0.222355
1765407756.268029,-10.842896,1.648135,4.188187,0.419359,0.691499,-0.200822
1765407756.268279,-9.442251,1.109517,2.196915,0.432493,0.659887,-0.196240
1765407756.268529,-7.474892,0.387972,0.805834,0.397826,0.659582,-0.225562
1765407756.268779,-7.308703,1.037183,0.436394,0.437838,0.668134,-0.238543
1765407756.269086,-8.388927,1.089192,2.418699,0.467617,0.653931,-0.220064
1765407756.269336,-10.249280,0.783118,4.660449,0.461356,0.662789,-0.238237
1765407756.269586,-11.135818,1.503467,4.515781,0.467923,0.662789,-0.260534
1765407756.269836,-11.211142,1.175275,3.021879,0.461967,0.628275,-0.236558
1765407756.270029,-9.872069,0.933764,2.680535,0.471741,0.626137,-0.242514
1765407756.270279,-9.009444,0.680296,1.762314,0.481362,0.616058,-0.256411
1765407756.270529,-7.736130,1.086203,0.627690,0.484263,0.612851,-0.268628
1765407756.270779,-7.560975,1.807149,1.121473,0.501826,0.612851,-0.273057
1765407756.271131,-7.560975,1.807149,1.121473,0.501826,0.616974,-0.273057
1765407756.271381,-9.296986,1.556073,1.783835,0.523512,0.621555,-0.230296
1765407756.271631,-8.659731,1.153754,0.704208,0.535423,0.650724,-0.236863
1765407756.271881,-7.547823,1.206360,0.474653,0.538172,0.660498,-0.243430
1765407756.272128,-7.881395,0.820182,1.494500,0.500146,0.660498,-0.256869
1765407756.272378,-7.881395,0.820182,1.494500,0.500146,0.665385,-0.256869
1765407756.272628,-7.498804,1.783835,0.955882,0.483653,0.609796,-0.264810
1765407756.272878,-6.623027,1.015064,0.123147,0.480751,0.609796,-0.254120
1765407756.273125,-7.118005,2.097083,-0.783118,0.495717,0.614989,-0.267406
1765407756.273458,-7.425872,1.311573,-0.304878,0.494954,0.610254,-0.250913
1765407756.273792,-8.882113,1.098756,2.380440,0.514654,0.631482,-0.253509
1765407756.274093,-10.098636,1.302009,2.547824,0.531911,0.655000,-0.266337
1765407756.274343,-11.195002,1.544117,3.412243,0.519388,0.641103,-0.264352
1765407756.274593,-11.482542,1.863343,3.554519,0.530842,0.675159,-0.273362
1765407756.274843,-10.008368,1.773075,2.411525,0.539241,0.665080,-0.255342
1765407756.275087,-9.440458,1.065280,1.638570,0.529009,0.650724,-0.245873
1765407756.275337,-8.568268,0.434003,2.535270,0.559400,0.616363,-0.266490
1765407756.275587,-8.912003,0.838713,2.275825,0.543365,0.616363,-0.285579
1765407756.275837,-9.262314,1.276901,1.753945,0.543365,0.601244,-0.285579
1765407756.276067,-9.374700,1.681014,2.208871,0.577115,0.603382,-0.305127
1765407756.276317,-9.723815,2.642276,0.748446,0.589485,0.585667,-0.274889
1765407756.276567,-10.157221,2.192730,1.612864,0.562454,0.561232,-0.258396
1765407756.276817,-10.630678,1.290053,2.637494,0.519999,0.593303,-0.287718
1765407756.277050,-10.887732,1.527977,2.217838,0.531453,0.599411,-0.285579
1765407756.277300,-11.235651,1.243424,2.896939,0.502589,0.623999,-0.292452
1765407756.277550,-10.488999,1.563247,1.561454,0.509309,0.632398,-0.302073
1765407756.277800,-10.868004,1.800573,3.582017,0.502284,0.661567,-0.298866
1765407756.278121,-10.301888,1.261956,2.654232,0.514654,0.655153,-0.281456
1765407756.278371,-9.403395,1.067671,1.627212,0.536645,0.642783,-0.284205
1765407756.278621,-8.285508,0.924199,0.776542,0.541227,0.615294,-0.309556
1765407756.278871,-8.411047,1.465806,0.778336,0.537409,0.593150,-0.309251
1765407756.279107,-9.768650,1.752750,1.859158,0.527177,0.602619,-0.319330
1765407756.279357,-11.758726,2.068388,3.365614,0.528857,0.603840,-0.318566
1765407756.279607,-11.496889,1.538139,4.002869,0.524122,0.655611,-0.299019
1765407756.279857,-11.431132,1.212338,3.448111,0.559094,0.641561,-0.296422
1765407756.280115,-11.086800,0.814204,2.245337,0.529620,0.647670,-0.309556
1765407756.280448,-11.523194,0.910449,2.633907,0.544281,0.633162,-0.329256
1765407756.280782,-10.624102,1.590148,2.803682,0.575435,0.656069,-0.327271
1765407756.281050,-8.602343,1.282281,2.187948,0.564745,0.642019,-0.324217
1765407756.281300,-7.370874,1.631994,0.551769,0.537409,0.572533,-0.322384
1765407756.281550,-8.504900,1.153754,1.516619,0.500910,0.572533,-0.326049
1765407756.281800,-9.923481,1.660091,2.210067,0.517250,0.565967,-0.335518
1765407756.282124,-10.141079,0.969632,1.814921,0.497855,0.578337,-0.336281
1765407756.282374,-10.142276,1.389287,1.125060,0.478613,0.582002,-0.353080
1765407756.282624,-10.192491,1.410808,1.474773,0.485943,0.601550,-0.364381
1765407756.282874,-9.502629,1.726446,1.860354,0.509614,0.585514,-0.332769
1765407756.283086,-10.135101,1.621831,1.469392,0.513279,0.604146,-0.326355
1765407756.283336,-9.453609,1.367766,-0.202654,0.517403,0.628275,-0.323148
1765407756.283586,-8.485173,1.012673,-0.354495,0.517556,0.638354,-0.321162
1765407756.283836,-7.771400,0.394548,1.093974,0.509614,0.625221,-0.328493
1765407756.284093,-10.158416,1.134624,2.664992,0.513279,0.615447,-0.366519
1765407756.284343,-10.443566,1.579388,2.382233,0.506713,0.619875,-0.356134
1765407756.284593,-9.770443,1.652917,1.144189,0.526566,0.603535,-0.334907
1765407756.284843,-8.917980,1.327116,0.838116,0.513432,0.604757,-0.334907
1765407756.285105,-8.420013,0.527857,-0.598996,0.496175,0.589485,-0.329104
1765407756.285355,-9.943806,0.775944,2.338594,0.521221,0.602313,-0.351248
1765407756.285605,-10.306671,1.650526,1.282879,0.540921,0.631024,-0.363923
1765407756.285855,-9.531323,2.180774,1.032998,0.525344,0.611171,-0.345139
1765407756.286107,-9.746531,1.700143,1.394070,0.476169,0.631177,-0.345750
1765407756.286440,-10.451936,1.375538,1.933285,0.482125,0.612545,-0.328035
1765407756.286774,-10.619319,0.651602,1.841822,0.460440,0.616363,-0.331853
1765407756.287029,-9.575562,0.754424,1.102941,0.460287,0.596204,-0.359647
1765407756.287279,-10.329388,1.044357,1.911764,0.458149,0.558942,-0.374460
1765407756.287529,-9.548659,0.971425,1.813725,0.438143,0.558942,-0.370795
1765407756.287779,-9.548659,0.971425,1.135820,0.438143,0.541074,-0.370795
1765407756.288086,-8.616690,0.857843,0.099833,0.476780,0.556651,-0.367741
1765407756.288336,-9.539692,0.688666,-0.676112,0.476322,0.551000,-0.368352
1765407756.288586,-10.490194,1.000119,1.023434,0.471741,0.564592,-0.389579
1765407756.288836,-11.087995,1.098756,1.869918,0.453720,0.564592,-0.390190
1765407756.289073,-11.087995,1.098756,1.869918,0.453720,0.583071,-0.390190
1765407756.289323,-9.359158,1.266140,-0.100430,0.445015,0.629497,-0.403324
1765407756.289573,-8.760161,1.373744,-0.074127,0.454942,0.629497,-0.380111
1765407756.289823,-8.760161,1.373744,-0.074127,0.454942,0.597426,-0.380111
1765407756.290097,-10.598395,0.400526,2.614777,0.450360,0.581696,-0.381027
1765407756.290347,-10.598395,0.400526,2.614777,0.450360,0.565814,-0.381027
1765407756.290597,-9.594092,0.639646,0.316236,0.475406,0.587194,-0.406836
1765407756.290847,-8.481586,1.678025,-1.036585,0.477086,0.587194,-0.397368
1765407756.291102,-9.963533,1.417384,1.232664,0.448986,0.564134,-0.386372
1765407756.291352,-10.541606,1.340865,2.674557,0.431424,0.603535,-0.388358
1765407756.291602,-10.089071,0.775944,1.909373,0.422413,0.603382,-0.383013
1765407756.291852,-7.770802,0.682688,-1.573410,0.385151,0.548862,-0.403171
1765407756.292146,-8.434958,1.322334,0.489598,0.379653,0.548862,-0.436616
1765407756.292396,-10.304877,1.353419,2.801291,0.395077,0.578337,-0.412945
1765407756.292646,-9.661644,1.171688,1.669058,0.384845,0.586278,-0.391565
1765407756.292896,-9.241988,1.135820,0.408297,0.372322,0.565967,-0.408974
1765407756.293060,-11.123264,0.746054,1.942850,0.381485,0.499077,-0.403782
1765407756.293393,-11.598516,0.759206,3.518651,0.416152,0.513890,-0.405462
1765407756.293727,-10.104613,0.646820,1.158536,0.402560,0.537561,-0.411418
1765407756.294102,-9.555235,0.969034,0.175753,0.375224,0.489456,-0.430965
1765407756.294352,-10.043041,1.212936,1.273314,0.376140,0.489456,-0.441197
1765407756.294602,-9.907937,1.326518,1.172884,0.383929,0.504117,-0.405309
1765407756.294852,-9.002869,1.038976,-0.823171,0.371864,0.540463,-0.402407
1765407756.295127,-9.685556,0.711382,-0.350311,0.371864,0.529467,-0.402407
1765407756.295377,-10.217599,0.905069,1.524390,0.359036,0.554666,-0.426231
1765407756.295627,-10.272595,1.291248,1.210545,0.387136,0.554666,-0.425162
1765407756.295877,-10.272595,1.291248,1.210545,0.387136,0.566730,-0.425162
1765407756.296113,-9.368124,1.665471,1.001913,0.355676,0.548252,-0.406073
1765407756.296363,-11.160926,0.686274,2.497608,0.357051,0.492816,-0.387899
1765407756.296613,-11.125655,0.302487,1.337876,0.372933,0.488998,-0.402407
1765407756.296863,-9.524150,0.572692,-0.128527,0.374613,0.500146,-0.422871
1765407756.297162,-8.204207,0.365854,-1.117886,0.335976,0.494801,-0.440892
1765407756.297412,-10.593018,1.490913,1.247011,0.327882,0.477849,-0.455553
1765407756.297662,-10.535029,1.553682,1.557269,0.302836,0.508698,-0.437380
1765407756.297912,-10.558344,1.248804,1.820301,0.283136,0.502895,-0.416152
1765407756.298125,-10.624102,0.489000,1.616451,0.268933,0.498313,-0.424704
1765407756.298375,-11.835842,0.572692,1.813725,0.272446,0.478307,-0.437532
1765407756.298625,-12.113819,0.301889,3.148015,0.271224,0.482584,-0.441656
1765407756.298875,-11.975729,0.786705,2.889167,0.265421,0.494648,-0.455858
1765407756.299095,-11.538138,1.322334,2.742707,0.268323,0.468534,-0.451277
1765407756.299345,-11.538138,1.322334,2.742707,0.268323,0.439670,-0.451277
1765407756.299595,-10.779530,0.645624,1.302009,0.279929,0.428217,-0.434936
1765407756.299845,-9.783595,-0.102224,0.642037,0.286343,0.410654,-0.433256
1765407756.300082,-9.460185,0.187709,-0.031086,0.278249,0.392175,-0.457385
1765407756.300332,-9.460185,0.187709,-0.031086,0.278249,0.379347,-0.457385
1765407756.300582,-9.071017,1.079627,-0.319225,0.251371,0.379653,-0.465174
1765407756.300832,-9.438664,1.524390,-0.156624,0.253814,0.388663,-0.452651
1765407756.301100,-9.094930,0.701817,0.438785,0.226020,0.392328,-0.430355
1765407756.301350,-9.483500,0.260641,-0.060976,0.226936,0.380722,-0.441808
1765407756.301600,-9.222859,0.218795,-0.487805,0.226936,0.388510,-0.441808
1765407756.301850,-9.005857,0.407700,-0.227164,0.214261,0.387441,-0.469450
1765407756.302126,-9.665230,1.113104,1.012673,0.223882,0.403324,-0.468992
1765407756.302376,-9.916306,1.376136,1.502869,0.228005,0.364839,-0.444557
1765407756.302626,-10.329985,0.826160,2.156862,0.222508,0.364839,-0.435089
1765407756.302876,-9.403395,0.290531,-0.564323,0.229685,0.353386,-0.431424
1765407756.303107,-9.526542,0.074127,0.321616,0.228616,0.346819,-0.447459
1765407756.303357,-9.276661,-0.167384,0.346724,0.222660,0.347124,-0.461661
1765407756.303607,-10.747249,0.729316,1.359995,0.224798,0.332311,-0.473115
1765407756.303857,-10.540410,1.284074,1.156145,0.215635,0.332311,-0.480446
1765407756.304169,-9.872069,1.481349,-0.954089,0.193797,0.323300,-0.449750
1765407756.304502,-10.314442,0.734696,1.591344,0.193797,0.327271,-0.438449
1765407756.304836,-9.765661,0.147059,1.022836,0.186619,0.362243,-0.436769
1765407756.305127,-9.537301,-0.040650,0.971425,0.170584,0.313679,-0.444863
1765407756.305377,-9.597081,0.689861,0.140483,0.154396,0.313679,-0.479071
1765407756.305627,-10.542801,1.328909,0.631277,0.147982,0.308029,-0.463952
1765407756.305877,-10.747249,1.174079,1.739598,0.145539,0.321010,-0.430355
1765407756.306135,-9.434480,-0.014347,0.978001,0.126144,0.330020,-0.429744
1765407756.306385,-9.041725,0.082496,0.275586,0.120951,0.288787,-0.448070
1765407756.306635,-9.497847,-0.205643,0.233142,0.120951,0.240375,-0.458607
1765407756.306885,-10.231348,0.587637,1.617049,0.127976,0.245873,-0.471283
1765407756.307156,-9.522954,0.925394,0.278575,0.135765,0.271377,-0.461661
1765407756.307356,-9.481109,0.763988,0.976805,0.108734,0.225409,-0.450666
1765407756.307556,-9.569583,0.295313,0.129723,0.107207,0.202655,-0.450819
1765407756.307756,-10.706598,0.147059,1.190220,0.115606,0.190132,-0.453415
1765407756.307956,-10.328191,0.311454,1.313964,0.110872,0.220828,-0.470519
1765407756.308114,-9.542084,0.497370,-0.008369,0.113774,0.178373,-0.466243
1765407756.308364,-9.730989,0.488403,0.140483,0.102931,0.178373,-0.465479
1765407756.308614,-10.833332,0.865017,0.573888,0.113621,0.170126,-0.472046
1765407756.308864,-9.720228,0.640842,0.389766,0.099724,0.194408,-0.445473
1765407756.309082,-10.288138,0.673123,0.661167,0.089797,0.196088,-0.450208
1765407756.309332,-10.800453,0.249283,1.230273,0.083841,0.180205,-0.447917
1765407756.309582,-10.436392,0.370038,1.207556,0.073151,0.180205,-0.448528
1765407756.309832,-10.393352,1.095170,0.235533,0.074067,0.189826,-0.454178
1765407756.310228,-9.823050,0.809421,0.005380,0.049480,0.175929,-0.431424
1765407756.310478,-10.084887,1.019847,0.660569,0.053145,0.166003,-0.428369
1765407756.310728,-10.161406,0.506934,0.673721,0.047800,0.166003,-0.414472
1765407756.310978,-9.781204,-0.047824,0.112386,0.033598,0.166003,-0.412334
1765407756.311479,-10.463892,0.035868,0.916427,0.036805,0.164628,-0.431576
1765407756.311729,-10.923002,-0.010760,1.770684,0.032681,0.140041,-0.430660
1765407756.311979,-11.078430,0.740076,1.767097,0.032223,0.140041,-0.435700
1765407756.312229,-11.078430,0.740076,1.767097,0.032223,0.124158,-0.435700
1765407756.313501,-10.309659,0.718556,0.854256,0.023671,0.102778,-0.406989
1765407756.313751,-10.643829,1.099952,1.391081,0.031307,0.092088,-0.409738
1765407756.314001,-10.263031,0.622908,0.255261,0.020159,0.080176,-0.383318
1765407756.314251,-10.278573,0.278575,0.472262,0.010385,0.080176,-0.385914
1765407756.313575,-10.278573,0.278575,0.472262,0.010385,0.081245,-0.385914
1765407756.313775,-10.634863,0.522477,1.345648,0.006872,0.073762,-0.379500
1765407756.313975,-10.528454,0.866810,1.316356,0.010232,0.078496,-0.386983
1765407756.314175,-9.716641,0.909852,0.032281,-0.005651,0.037874,-0.369573
1765407756.314375,-10.439979,0.784314,0.969632,-0.009774,0.037874,-0.347582
1765407756.314121,-10.453131,0.511717,0.835724,-0.005345,0.041233,-0.351248
1765407756.314371,-10.398134,0.398135,0.836920,-0.007789,0.045357,-0.341168
1765407756.314621,-9.874461,0.322812,0.043639,-0.016035,0.045357,-0.346971
1765407756.314871,-9.783595,0.288737,0.276781,-0.018631,0.030085,-0.336892
1765407756.315134,-10.056790,0.668340,0.755619,-0.028405,0.030085,-0.349110
1765407756.315384,-10.503945,1.323529,0.542205,-0.018631,0.028558,-0.336587
1765407756.315634,-10.294117,0.720947,1.108321,-0.033292,0.033598,-0.311694
1765407756.315884,-9.923481,0.954089,0.845289,-0.027031,0.019548,-0.311389
1765407756.316105,-10.060975,0.990555,0.950502,-0.044593,0.018173,-0.297644
1765407756.316355,-9.719033,0.588833,0.423242,-0.054825,-0.010385,-0.282525
1765407756.316605,-9.839190,0.353898,0.441176,-0.061392,-0.014508,-0.285885
1765407756.316855,-9.909132,0.285748,0.789096,-0.062766,-0.004123,-0.288939
1765407756.317154,-9.973098,0.680296,0.323410,-0.060476,-0.011759,-0.283441
1765407756.317404,-9.973098,0.680296,0.323410,-0.060476,-0.026267,-0.283441
1765407756.317654,-10.277378,0.548183,0.653993,-0.075289,-0.027031,-0.280387
1765407756.317904,-10.026302,0.379005,0.552367,-0.081703,-0.033903,-0.264810
1765407756.318117,-9.764465,0.398135,0.756217,-0.090866,-0.038179,-0.280234
1765407756.318367,-9.973696,1.192611,0.576279,-0.082009,-0.029474,-0.275806
1765407756.318617,-9.973696,1.192611,0.755021,-0.082009,-0.043524,-0.275806
1765407756.318867,-9.570778,0.673721,0.535629,-0.098044,-0.051465,-0.242361
1765407756.319086,-9.673599,0.834529,0.621712,-0.106138,-0.049786,-0.242819
1765407756.319336,-9.860114,0.739479,1.160928,-0.106443,-0.051618,-0.226478
1765407756.319586,-9.597081,0.687470,0.616930,-0.109192,-0.056352,-0.216399
1765407756.319836,-9.793160,0.556552,0.827953,-0.122173,-0.067653,-0.222202
1765407756.320102,-9.698708,0.538618,1.012673,-0.129351,-0.052687,-0.216704
1765407756.320352,-9.603060,0.380201,1.286466,-0.134085,-0.061697,-0.208610
1765407756.320602,-9.544475,0.561334,1.073051,-0.136834,-0.079412,-0.219453
1765407756.320852,-9.489478,0.862028,0.729316,-0.138666,-0.079412,-0.212887
1765407756.321068,-9.641318,0.853061,0.976207,-0.141873,-0.067501,-0.191048
1765407756.321318,-9.550453,0.474653,1.367766,-0.138208,-0.071624,-0.181427
1765407756.321568,-9.366928,0.326997,1.040172,-0.151342,-0.068570,-0.186925
1765407756.321818,-9.366928,0.326997,1.040172,-0.151342,-0.077274,-0.186925
1765407756.322177,-9.293399,0.437590,0.796270,-0.155007,-0.073457,-0.179289
1765407756.322427,-9.472739,0.546389,1.241033,-0.152869,-0.059712,-0.170431
1765407756.322677,-9.537301,0.552965,1.532161,-0.160047,-0.051618,-0.165392
1765407756.322927,-9.375298,0.733501,1.309182,-0.162796,-0.055894,-0.158367
1765407756.323127,-9.365732,0.640842,1.130440,-0.166003,-0.060781,-0.140499
1765407756.323460,-9.285029,0.205643,1.108321,-0.167835,-0.061392,-0.131489
1765407756.323794,-9.427904,0.084888,1.324127,-0.173638,-0.059712,-0.139430
1765407756.324158,-9.360353,-0.020325,1.151363,-0.176998,-0.049175,-0.139277
1765407756.324408,-9.159492,0.160808,0.882353,-0.179289,-0.043677,-0.136376
1765407756.324658,-9.026780,0.135103,0.739479,-0.174860,-0.040623,-0.125380
1765407756.324908,-9.209109,-0.220588,1.195002,-0.179289,-0.033903,-0.117133
1765407756.325154,-9.307747,-0.549976,1.209947,-0.171959,-0.030391,-0.116370
1765407756.325404,-9.360353,-0.569106,1.246413,-0.166461,-0.024435,-0.115606
1765407756.325654,-9.090745,-0.685079,1.021042,-0.164934,-0.027489,-0.116675
1765407756.325904,-9.146938,-0.469273,0.887135,-0.163254,-0.029016,-0.115301
1765407756.326106,-9.228837,-0.638450,0.918221,-0.157603,-0.019853,-0.107970
1765407756.326356,-9.099712,-0.930775,0.752032,-0.157603,-0.019853,-0.107970
1765407756.326606,-9.152318,-1.064682,0.967240,-0.142637,-0.002138,-0.095906
1765407756.326856,-9.139167,-1.102343,0.952893,-0.136528,-0.002138,-0.093157
1765407756.327126,-9.139167,-1.102343,0.952893,-0.136528,-0.009316,-0.093157
1765407756.327376,-9.283834,-1.495696,0.729316,-0.110108,-0.012065,-0.075289
1765407756.327626,-9.463772,-1.669656,0.865017,-0.100029,-0.003360,-0.072998
1765407756.327876,-9.432089,-1.605691,0.939742,-0.087812,0.009316,-0.073457
1765407756.328124,-9.289812,-1.620038,0.865614,-0.080634,0.016341,-0.069028
1765407756.328374,-9.321496,-1.648733,0.732903,-0.069791,0.015577,-0.059101
1765407756.328624,-9.346603,-1.801769,0.753826,-0.061087,0.015577,-0.054214
1765407756.328874,-9.616212,-1.721066,0.981588,-0.048106,0.022297,-0.045662
1765407756.329078,-9.641318,-1.890244,0.796867,-0.038179,0.031918,-0.036499
1765407756.329328,-9.878646,-1.769488,0.743663,-0.032223,0.025045,-0.034667
1765407756.329578,-10.280965,-1.545313,0.887135,-0.025504,0.025962,-0.031918
1765407756.329828,-10.732305,-1.428742,1.258967,-0.020922,0.030085,-0.025656
1765407756.330136,-10.899090,-1.482544,1.184840,-0.014508,0.030085,-0.019090
1765407756.330336,-10.951097,-1.438307,1.254184,-0.010537,0.022449,-0.012065
1765407756.330536,-10.749640,-1.219512,0.878766,-0.011606,0.018937,-0.013897
1765407756.330736,-10.808225,-0.822573,0.765184,-0.005803,0.005803,-0.014966
1765407756.330936,-10.310257,-0.593018,0.358680,-0.005956,0.003512,-0.004123
1765407756.331158,-10.047226,-0.304878,0.221186,-0.008399,0.003512,0.005040
1765407756.331408,-10.160210,-0.329388,0.768771,-0.011606,0.002902,0.005040
1765407756.331658,-9.693925,-0.553563,0.041846,-0.012217,0.009621,0.023671
1765407756.331908,-9.148731,-0.713773,-0.807030,-0.012675,0.003818,0.030849
1765407756.332147,-9.383667,-0.527260,-0.517695,-0.008094,0.011606,0.024893
1765407756.332347,-10.115973,-0.569106,0.598398,-0.005345,0.011606,0.032529
1765407756.332547,-10.115973,-0.569106,0.598398,-0.005345,0.021228,0.032529
1765407756.332747,-9.540888,-0.894309,-0.332975,0.005651,0.010690,0.027489
1765407756.332947,-10.052606,-0.380201,0.316834,0.007789,0.010690,0.014813
1765407756.333098,-10.345527,-0.119560,0.423242,0.014966,0.016952,0.032070
1765407756.333298,-10.337157,-0.192492,0.371832,0.019700,0.015119,0.037263
1765407756.333498,-10.294117,-0.456121,0.443568,0.017562,0.014966,0.031460
1765407756.333698,-10.402916,-0.380201,0.588235,0.024282,0.009316,0.026420
1765407756.333898,-10.234934,-0.090866,0.301291,0.032834,0.005803,0.017104
1765407756.334102,-10.218794,0.296509,0.352702,0.032834,0.005498,0.017104
1765407756.334302,-10.159015,0.395744,0.313247,0.030543,0.004734,0.017257
1765407756.334502,-10.202055,0.369440,0.349115,0.034361,0.000305,0.019395
1765407756.334702,-10.089668,0.367049,0.129125,0.033903,-0.002902,0.015577
1765407756.334902,-10.047822,0.386179,0.147657,0.033139,-0.002291,0.011301
1765407756.335041,-10.028693,0.621114,0.245098,0.029627,0.000000,0.005956
1765407756.335291,-10.204447,0.760999,0.437590,0.027947,-0.001527,0.006109
1765407756.335541,-10.246890,0.789694,0.456121,0.023518,-0.003665,0.005651
1765407756.335791,-10.199066,0.893113,0.376614,0.019090,-0.007025,0.002902
1765407756.336054,-10.118362,0.839909,0.273792,0.013439,-0.007025,0.000764
1765407756.336254,-10.044236,0.714969,0.199665,0.009774,-0.012828,0.002749
1765407756.336454,-10.111190,0.707197,0.334170,0.004581,-0.014203,-0.001680
1765407756.336654,-10.159015,0.741272,0.475251,-0.000305,-0.010843,-0.004887
1765407756.336854,-10.007172,0.694644,0.306074,-0.005803,-0.008705,-0.001374
1765407756.337132,-9.927068,0.544596,0.253467,-0.008247,-0.015424,-0.001374
1765407756.337332,-9.993423,0.416069,0.327594,-0.012217,-0.014813,-0.003360
1765407756.337532,-9.949186,0.242707,0.233142,-0.014661,-0.016493,-0.003054
1765407756.337732,-9.855929,0.188905,0.175753,-0.016952,-0.014203,-0.007178
1765407756.337932,-9.831419,0.274390,0.200263,-0.016646,-0.014966,-0.012370
1765407756.338113,-9.827234,0.381396,0.309660,-0.019548,-0.013592,-0.013134
1765407756.338363,-9.815877,0.462697,0.271999,-0.023060,-0.013592,-0.011148
1765407756.338613,-9.817072,0.390961,0.151841,-0.022907,-0.010385,-0.008094
1765407756.338863,-9.826636,0.205643,0.159015,-0.027336,-0.015119,-0.006414
1765407756.339117,-9.886416,0.009565,0.300096,-0.027031,-0.015424,-0.006414
1765407756.339317,-9.993423,-0.082496,0.426829,-0.030543,-0.006720,-0.012675
1765407756.339517,-9.882831,-0.059780,0.288737,-0.027794,-0.011912,-0.012828
1765407756.339717,-9.837996,-0.039455,0.254663,-0.028100,-0.010385,-0.013134
1765407756.339917,-9.985652,0.069345,0.420851,-0.029474,-0.009927,-0.015882
1765407756.340142,-10.205642,0.075921,0.676710,-0.027031,-0.011148,-0.014508
1765407756.340392,-10.133906,-0.068149,0.487805,-0.031307,-0.014508,-0.006567
1765407756.340642,-10.029889,-0.255858,0.295313,-0.030085,-0.012981,-0.006261
1765407756.340892,-9.968913,-0.228360,0.359278,-0.029627,-0.013286,-0.009621
1765407756.341143,-10.031085,-0.198470,0.591822,-0.029169,-0.013286,-0.010996
1765407756.341343,-10.026302,-0.228360,0.553563,-0.025809,-0.014050,-0.008858
1765407756.341543,-9.891200,-0.329986,0.353898,-0.026420,-0.011606,-0.006261
1765407756.341743,-9.812290,-0.368245,0.343137,-0.024129,-0.013286,-0.007483
1765407756.341943,-9.802725,-0.381994,0.320421,-0.022144,-0.013592,-0.013134
1765407756.342113,-9.811692,-0.284553,0.331779,-0.020922,-0.011301,-0.010843
1765407756.342313,-9.760879,-0.248087,0.261239,-0.017410,-0.010690,-0.008399
1765407756.342513,-9.708273,-0.381396,0.301291,-0.015730,-0.011606,-0.006109
1765407756.342713,-9.793758,-0.398135,0.338953,-0.015730,-0.008399,-0.007178
1765407756.342913,-9.818267,-0.399330,0.329986,-0.013286,-0.008247,-0.008399
1765407756.343148,-9.833811,-0.426829,0.306074,-0.008552,-0.007789,-0.005345
1765407756.343398,-9.833811,-0.426829,0.306074,-0.008552,-0.010690,-0.005345
1765407756.343648,-9.830223,-0.297107,0.362267,-0.006414,-0.002749,-0.005040
1765407756.343898,-9.740554,-0.284553,0.300096,-0.005651,-0.002138,-0.002749
1765407756.344091,-9.870873,-0.256456,0.398135,-0.006720,-0.005803,0.001222
1765407756.344291,-9.909132,-0.325203,0.408895,-0.003665,-0.006720,0.001222
1765407756.344491,-9.922284,-0.365854,0.428025,-0.001374,-0.002138,-0.001527
1765407756.344691,-9.900167,-0.272597,0.347920,0.000611,-0.003360,-0.000764
1765407756.344891,-9.950979,-0.135701,0.379005,-0.002138,-0.003360,-0.002596
1765407756.345039,-9.934240,-0.052606,0.376614,-0.003818,-0.004429,0.002291
1765407756.345239,-9.985652,-0.074127,0.430416,-0.002596,-0.002749,0.007178
1765407756.345439,-9.933643,-0.162602,0.378407,-0.001527,-0.005192,0.007789
1765407756.345639,-9.901959,-0.208034,0.310258,-0.003054,-0.004429,0.005345
1765407756.345839,-9.910329,-0.070540,0.248685,0.000305,-0.004429,0.004429
1765407756.346081,-9.910329,-0.070540,0.248685,0.000305,-0.002138,0.004429
1765407756.346281,-9.991630,-0.035270,0.379005,-0.001985,-0.000916,0.009316
1765407756.346481,-9.958751,-0.124940,0.358680,-0.004123,-0.000916,0.011148
1765407756.346681,-9.955761,-0.113582,0.320421,-0.001222,-0.002291,0.008399
1765407756.346881,-9.870873,-0.104615,0.230153,0.000764,-0.005192,0.008858
1765407756.347145,-9.870873,-0.104615,0.230153,0.000764,-0.006109,0.008858
1765407756.347345,-10.007172,-0.060378,0.330583,0.002291,-0.005192,0.007178
1765407756.347545,-9.986848,-0.054400,0.351506,-0.001222,-0.005192,0.007483
1765407756.347745,-9.991630,-0.003587,0.304280,0.002443,-0.003971,0.008247
1765407756.347945,-9.943806,0.017934,0.282162,0.002902,-0.003818,0.007941
1765407756.348109,-9.959349,0.013152,0.328790,0.001069,-0.004123,0.007025
1765407756.348309,-9.988641,-0.010760,0.361669,0.001527,-0.005498,0.007636
1765407756.348509,-10.026302,0.014347,0.380201,0.002749,-0.005498,0.005040
1765407756.348709,-10.058583,0.095648,0.387374,0.000916,-0.005956,0.002443
1765407756.348909,-10.008965,0.142276,0.356289,0.001222,-0.005345,0.002291
1765407756.349122,-9.961740,0.163797,0.247489,0.000764,-0.004734,0.003054
1765407756.349322,-9.934240,0.115973,0.276781,-0.001222,-0.006261,-0.000305
1765407756.349522,-9.936632,0.143472,0.316834,-0.000153,-0.009774,-0.000458
1765407756.349722,-9.892395,0.164993,0.294118,-0.001374,-0.008094,0.002138
1765407756.349922,-9.882831,0.245098,0.237924,-0.002749,-0.007789,0.000153
1765407756.350108,-9.832614,0.210426,0.157819,-0.004581,-0.007789,0.000916
1765407756.350308,-9.875656,0.157221,0.301291,-0.002291,-0.012981,0.001374
1765407756.350508,-9.927068,0.169775,0.358680,-0.003665,-0.013439,-0.001374
1765407756.350708,-9.933643,0.221784,0.360473,-0.003665,-0.007330,-0.001374
1765407756.350908,-9.864896,0.227164,0.264228,-0.007330,-0.007025,-0.001680
1765407756.351071,-9.893590,0.175753,0.294118,-0.008094,-0.007941,-0.002749
1765407756.351271,-9.893590,0.175753,0.294118,-0.008094,-0.010690,-0.002749
1765407756.351471,-10.036465,0.158417,0.450741,-0.012828,-0.008094,-0.005192
1765407756.351671,-9.910927,0.129125,0.271401,-0.012217,-0.004887,-0.001985
1765407756.351871,-9.838593,0.131516,0.230153,-0.013744,-0.007789,-0.003054
1765407756.352062,-9.870873,0.072932,0.325203,-0.017104,-0.008858,-0.003054
1765407756.352262,-9.870873,0.072932,0.325203,-0.017104,-0.008094,-0.003054
1765407756.352462,-9.869678,-0.029292,0.292922,-0.014355,-0.010232,-0.005345
1765407756.352662,-9.879243,0.042444,0.364658,-0.012370,-0.004734,-0.008399
1765407756.352862,-9.908535,-0.008967,0.335366,-0.014355,-0.006261,-0.006414
1765407756.353054,-9.916306,-0.069345,0.339550,-0.012828,-0.006261,-0.002902
1765407756.353254,-10.005977,-0.063367,0.419656,-0.015730,-0.006567,-0.004887
1765407756.353454,-9.990434,-0.087279,0.422047,-0.012217,-0.006567,-0.005498
1765407756.353654,-9.913317,-0.051411,0.326399,-0.013897,-0.008858,-0.009163
1765407756.353854,-9.888808,0.000598,0.243902,-0.015424,-0.006720,-0.005803
1765407756.354122,-9.891797,-0.032281,0.334170,-0.014508,-0.006720,-0.004276
1765407756.354322,-9.951577,-0.053802,0.424438,-0.012370,-0.008094,-0.004429
1765407756.354522,-9.985652,-0.089072,0.355093,-0.013897,-0.005956,-0.007178
1765407756.354722,-9.950979,-0.073529,0.303682,-0.013134,-0.006567,-0.005040
1765407756.354922,-9.901362,-0.090866,0.318627,-0.013897,-0.006109,-0.006109
1765407756.355125,-9.983260,-0.123147,0.430416,-0.012370,-0.004581,-0.003971
1765407756.355325,-10.016738,-0.187709,0.434601,-0.012065,-0.005803,-0.003818
1765407756.355525,-9.977880,-0.160210,0.271401,-0.010537,-0.005345,-0.004887
1765407756.355725,-9.895982,-0.131516,0.241511,-0.012523,-0.006261,-0.003971
1765407756.355925,-9.915112,-0.108800,0.307867,-0.012523,-0.006720,-0.003971
1765407756.356102,-9.991630,-0.096844,0.380201,-0.010385,-0.009774,-0.000764
1765407756.356352,-9.978478,-0.148254,0.326399,-0.010690,-0.005956,-0.001833
1765407756.356602,-9.895982,-0.204448,0.266021,-0.008858,-0.006109,0.000153
1765407756.356852,-9.869678,-0.194883,0.264825,-0.009468,-0.006109,-0.003207
1765407756.357122,-9.895982,-0.141081,0.291726,-0.009163,-0.006261,-0.003054
1765407756.357322,-9.950381,-0.124342,0.353898,-0.005040,-0.010079,-0.003665
1765407756.357522,-9.934240,-0.104615,0.315638,-0.007330,-0.009927,0.000000
1765407756.357722,-9.959349,-0.138690,0.344931,-0.006720,-0.006567,0.002902
1765407756.357922,-9.903154,-0.144668,0.272597,-0.005345,-0.004276,0.004429
1765407756.358072,-9.923481,-0.133907,0.309660,-0.007330,-0.007941,0.004429
1765407756.358272,-9.943208,-0.130320,0.318627,-0.004734,-0.007330,0.003360
1765407756.358472,-10.077712,-0.096844,0.516499,-0.003971,-0.010079,0.000458
1765407756.358672,-10.118960,-0.052606,0.511717,-0.003054,-0.005651,0.001833
1765407756.358872,-10.075322,-0.077714,0.406504,-0.003207,-0.005651,0.003512
1765407756.359092,-9.942610,-0.036466,0.227164,-0.003818,-0.005956,0.003207
1765407756.359292,-9.936632,-0.040053,0.279173,-0.007178,-0.009621,0.001833
1765407756.359492,-10.015541,-0.007174,0.437590,-0.008552,-0.007178,0.002596
1765407756.359692,-10.094451,0.003587,0.483022,-0.007636,-0.005192,0.003665
1765407756.359892,-9.922284,-0.001793,0.316236,-0.003818,-0.005192,0.003512
1765407756.360063,-9.867287,0.010760,0.341942,-0.004429,-0.007178,0.000305
1765407756.360263,-9.862504,0.033477,0.271401,-0.007178,-0.004887,0.002596
1765407756.360463,-9.919893,0.037064,0.285748,-0.006109,-0.008094,0.004123
1765407756.360663,-9.970109,0.017934,0.381396,-0.007025,-0.008705,0.002749
1765407756.360863,-9.974294,-0.007771,0.433405,-0.005956,-0.006720,0.002138
1765407756.361051,-9.921089,0.025108,0.309660,-0.005956,-0.007330,0.002138
1765407756.361251,-9.894786,0.022119,0.274988,-0.004429,-0.007330,0.001374
1765407756.361451,-9.888808,-0.011956,0.273792,-0.007636,-0.007330,0.001527
1765407756.361651,-9.918698,-0.040650,0.316834,-0.007636,-0.008552,0.000305
1765407756.361851,-9.959349,0.017934,0.399330,-0.006414,-0.004429,-0.001222
1765407756.362092,-9.925871,0.100430,0.292922,-0.004581,-0.005040,0.000764
1765407756.362292,-9.875058,0.090866,0.216404,-0.005651,-0.009468,0.000916
1765407756.362492,-9.938425,0.078910,0.282162,-0.007025,-0.009468,-0.000305
1765407756.362692,-9.961740,0.069345,0.426829,-0.009316,-0.007178,-0.001069
1765407756.362892,-9.981467,0.013152,0.388570,-0.008247,-0.006872,-0.000916
1765407756.363061,-9.893590,0.037661,0.235533,-0.009316,-0.005651,-0.000153
1765407756.363261,-9.887015,0.072932,0.263032,-0.009468,-0.010537,-0.001985
1765407756.363461,-9.940817,0.082496,0.374223,-0.010843,-0.010537,-0.000916
1765407756.363661,-9.985652,0.028097,0.379603,-0.011454,-0.009316,0.000153
1765407756.363861,-9.950979,-0.001196,0.325203,-0.009010,-0.005651,-0.001985
1765407756.364081,-9.838593,-0.022716,0.257054,-0.010079,-0.005498,-0.001222
1765407756.364281,-9.838593,-0.022716,0.257054,-0.010079,-0.006414,-0.001222
1765407756.364481,-9.923481,0.000000,0.328192,-0.012523,-0.004734,-0.004581
1765407756.364681,-9.970109,-0.014347,0.363462,-0.008858,-0.007178,-0.002902
1765407756.364881,-9.974891,-0.014945,0.338355,-0.009468,-0.005803,-0.003360
1765407756.365121,-9.919893,0.002391,0.301291,-0.012217,-0.005803,-0.004123
1765407756.365321,-9.919893,0.002391,0.301291,-0.012217,-0.009774,-0.004123
1765407756.365521,-9.941415,-0.047226,0.301291,-0.011301,-0.007330,-0.001222
1765407756.365721,-10.032280,-0.107604,0.387374,-0.006720,-0.006261,-0.004887
1765407756.365921,-9.736967,-0.276781,0.608560,-0.009621,-0.007941,-0.001833
1765407756.366143,-9.109277,-0.105213,-0.156026,-0.008858,-0.004276,-0.007941
1765407756.366343,-9.109277,-0.105213,-0.156026,-0.008858,-0.010537,-0.007941
1765407756.366543,-10.428022,0.344333,1.140005,-0.011148,0.001833,-0.000764
1765407756.366743,-10.234337,-0.179340,1.086800,-0.008858,0.013134,0.021380
1765407756.366943,-9.729196,-0.362865,0.469273,-0.015272,-0.000305,0.000458
1765407756.367113,-9.658057,-0.256456,0.105213,-0.016952,-0.000305,-0.011454
1765407756.367313,-9.665230,-0.329986,-0.196078,-0.003971,-0.003207,0.001222
1765407756.367513,-9.982065,-0.072932,0.441774,-0.000305,-0.003054,-0.007025
1765407756.367713,-10.157221,0.376614,0.873386,-0.010232,0.017715,-0.014813
1765407756.367913,-10.060975,0.368245,0.615734,-0.017562,0.016646,0.004887
1765407756.368031,-9.857722,-0.387972,0.092061,-0.008858,-0.006261,0.022297
1765407756.368231,-9.863102,-0.830344,0.193687,-0.007178,-0.008858,0.002443
1765407756.368431,-10.133308,-0.223577,0.780727,-0.004429,0.006414,-0.020769
1765407756.368631,-9.929459,0.425036,0.332377,-0.009010,0.016493,-0.017257
1765407756.368831,-9.929459,0.425036,0.332377,-0.009010,0.000305,-0.017257
1765407756.369055,-9.848756,-0.096844,0.227164,-0.007330,-0.000305,0.013897
1765407756.369305,-9.996411,-0.461502,0.643233,-0.008858,0.007483,0.005651
1765407756.369555,-9.940817,-0.402917,0.406504,-0.007636,0.004887,-0.005803
1765407756.369805,-9.780606,-0.075323,-0.045433,-0.004123,0.002902,-0.010385
1765407756.370084,-9.780606,-0.075323,-0.045433,-0.004123,0.005651,-0.010385
1765407756.370284,-9.907937,0.246294,0.478240,-0.005040,0.008094,0.001527
1765407756.370484,-9.984456,0.033477,0.600191,-0.009163,0.008247,0.004123
1765407756.370684,-9.785987,-0.242707,0.124342,-0.009316,0.002902,0.006109
1765407756.370884,-9.661644,-0.249283,-0.044237,-0.007025,-0.001833,-0.002596
1765407756.371064,-9.821855,-0.047824,0.325203,-0.004429,0.006567,-0.006567
1765407756.371264,-9.941415,0.126734,0.542205,-0.007789,0.009621,-0.004429
1765407756.371464,-9.945002,0.225968,0.291726,-0.010232,0.009163,0.000458
1765407756.371664,-9.909731,0.112386,0.113582,-0.008247,0.007941,0.005803
1765407756.371864,-10.010758,-0.148254,0.368245,-0.005345,0.007941,0.009621
1765407756.372059,-10.046627,-0.289933,0.566117,-0.007330,0.005956,0.001680
1765407756.372259,-10.021520,-0.153635,0.449546,-0.009163,0.002749,-0.008705
1765407756.372459,-9.916904,0.157819,0.181731,-0.008858,0.006261,-0.009621
1765407756.372659,-9.827832,0.328790,0.245696,-0.007178,0.009316,-0.000305
1765407756.372859,-9.849951,0.120756,0.345528,-0.005803,0.009316,0.006872
1765407756.373062,-9.954566,-0.185318,0.315638,-0.009927,0.005345,0.006567
1765407756.373262,-10.019128,-0.227164,0.245696,-0.010232,0.002749,-0.001069
1765407756.373462,-10.019128,-0.227164,0.245696,-0.010232,0.006414,-0.001069
1765407756.373662,-9.938425,0.106408,0.255261,-0.005651,0.008399,-0.005192
1765407756.373862,-9.966521,0.154232,0.370636,-0.009468,0.005651,-0.002902
1765407756.374037,-10.021520,0.119560,0.353898,-0.011148,0.004581,0.000458
1765407756.374237,-10.135101,0.017934,0.436992,-0.007330,0.003665,0.003360
1765407756.374437,-10.102222,-0.170971,0.472860,-0.008399,0.004887,-0.001222
1765407756.374637,-9.998206,-0.222382,0.367049,-0.011606,0.003360,-0.003665
1765407756.374837,-9.959349,-0.002989,0.237924,-0.009468,0.002596,-0.009010
1765407756.375081,-10.051410,0.166786,0.226566,-0.009927,0.000916,-0.005192
1765407756.375281,-10.068149,0.063367,0.381396,-0.008094,0.003360,0.001374
1765407756.375481,-10.059779,-0.045433,0.479436,-0.008094,0.006109,0.003054
1765407756.375681,-10.088473,-0.057389,0.410091,-0.009927,0.004887,0.001069
1765407756.375881,-10.028693,-0.121353,0.300096,-0.009927,0.001527,-0.001222
1765407756.376045,-10.045432,-0.088474,0.365854,-0.006414,-0.002291,-0.003054
1765407756.376245,-10.046029,-0.070540,0.404711,-0.008094,-0.000305,-0.007178
1765407756.376445,-9.952174,0.056193,0.227164,-0.009316,-0.000305,-0.002902
1765407756.376645,-9.876852,0.046628,0.096844,-0.009621,-0.001222,0.000000
1765407756.376845,-9.915112,-0.050813,0.179340,-0.007636,-0.003971,0.003207
1765407756.377056,-10.068746,-0.156624,0.436394,-0.007636,-0.002749,0.003207
1765407756.377306,-10.162600,-0.132114,0.547585,-0.009774,-0.002749,-0.003054
1765407756.377556,-10.048421,-0.087279,0.291726,-0.011454,-0.002749,-0.005192
1765407756.377806,-9.962935,0.021521,0.138092,-0.006414,-0.003360,-0.003971
1765407756.378057,-10.028693,0.052009,0.352702,-0.007483,-0.002291,-0.000916
1765407756.379073,-10.127330,-0.007174,0.491392,-0.009010,-0.001833,-0.000916
1765407756.383106,-10.153036,-0.089670,0.469871,-0.012065,-0.003360,0.000611
1765407756.386142,-10.046627,-0.135701,0.253467,-0.007636,-0.002443,-0.000153
1765407756.388062,-9.902557,-0.141081,0.212817,-0.004734,-0.003054,-0.003512
1765407756.389142,-9.881634,-0.034672,0.292324,-0.007789,-0.005956,-0.004429
1765407756.393194,-9.942013,-0.006576,0.346724,-0.008094,-0.005956,-0.003207
1765407756.396089,-9.942013,-0.006576,0.346724,-0.008094,-0.006872,-0.003207
1765407756.398118,-9.885818,0.016738,0.243902,-0.008094,0.000000,0.001527
1765407756.400111,-9.901959,-0.017934,0.286944,-0.008094,-0.001069,0.001833
1765407756.403107,-9.965326,-0.086083,0.381994,-0.008552,-0.008858,-0.001069
1765407756.406150,-10.020324,-0.094452,0.351506,-0.009163,-0.008858,-0.002443
1765407756.408084,-9.900167,-0.002989,0.254663,-0.007330,-0.005803,-0.003207
1765407756.411189,-9.825441,0.030488,0.193687,-0.006261,-0.005040,-0.002138
1765407756.411689,-9.863700,0.068149,0.310856,-0.005956,-0.007789,0.000458
1765407756.416047,-10.047822,-0.015543,0.459110,-0.010996,-0.005956,0.002749
1765407756.418227,-9.994021,-0.078910,0.449546,-0.010232,-0.005956,0.002749
1765407756.421093,-9.884624,-0.094452,0.276184,-0.008552,-0.000916,0.000611
1765407756.423130,-9.787182,-0.041846,0.181731,-0.009010,-0.008247,-0.001527
1765407756.426152,-9.881634,0.064562,0.278575,-0.007636,-0.008247,-0.001527
1765407756.426652,-9.953370,0.031086,0.355093,-0.006109,-0.006414,-0.002443
1765407756.431088,-9.929459,0.020923,0.332377,-0.007178,-0.004734,0.002443
1765407756.433048,-9.861309,-0.005978,0.256456,-0.007636,-0.002443,0.003207
1765407756.436069,-9.878048,-0.037064,0.225371,-0.009163,-0.005803,-0.000458
1765407756.438132,-9.937828,-0.083094,0.375418,-0.008858,-0.008552,-0.001833
1765407756.441094,-9.989238,-0.058584,0.494978,-0.008705,-0.005345,-0.001222
1765407756.443135,-9.854136,0.011956,0.307867,-0.008552,-0.003971,-0.002596
1765407756.446150,-9.797942,0.062171,0.197872,-0.009621,-0.003665,0.000000
1765407756.448074,-9.919296,0.033477,0.364658,-0.008247,-0.003512,-0.001069
1765407756.451075,-10.094451,-0.037064,0.551172,-0.007483,-0.005192,0.002902
1765407756.454179,-10.043041,-0.075921,0.476447,-0.007483,-0.001833,0.002902
1765407756.456097,-9.869678,-0.092659,0.297704,-0.007941,-0.004123,-0.003512
1765407756.458056,-9.807508,-0.039455,0.222382,-0.009316,-0.004123,-0.004429
1765407756.461090,-9.852343,0.041846,0.326399,-0.007025,-0.003971,-0.001069
1765407756.463108,-9.890601,-0.003587,0.381396,-0.008094,-0.001069,0.000916
1765407756.466131,-9.928263,-0.044835,0.393352,-0.010232,-0.001833,0.000916
1765407756.468092,-9.842180,-0.025108,0.276184,-0.010843,-0.002596,0.000458
1765407756.469046,-9.806910,-0.039455,0.211621,-0.010690,0.002443,-0.000153
1765407756.473100,-9.812290,-0.032879,0.284553,-0.010232,0.000305,0.000916
1765407756.476051,-9.878048,-0.027499,0.333572,-0.010385,0.000305,-0.000458
1765407756.478234,-9.882831,-0.010760,0.312052,-0.008705,-0.003054,-0.001222
1765407756.480363,-9.898373,0.007771,0.266021,-0.009468,-0.000916,-0.000916
1765407756.483124,-9.884624,-0.067551,0.301291,-0.006872,0.000611,0.002443
1765407756.486109,-9.918099,-0.088474,0.362267,-0.006872,0.003512,0.002749
1765407756.486609,-9.989238,-0.050813,0.437590,-0.008705,0.000153,-0.001833
1765407756.489162,-9.999401,-0.052606,0.411884,-0.005651,0.004123,-0.002749
1765407756.493125,-9.859515,-0.021521,0.252272,-0.006720,0.002596,-0.001985
1765407756.496149,-9.829028,-0.016738,0.237924,-0.008858,-0.001374,-0.000611
1765407756.498182,-9.884026,-0.027499,0.301291,-0.008399,0.001069,-0.000153
1765407756.501135,-9.973696,-0.051411,0.357484,-0.007330,0.003207,0.000305
1765407756.503164,-9.959946,-0.077116,0.347920,-0.006261,0.003818,-0.000764
1765407756.506120,-9.846962,-0.054998,0.228360,-0.006720,0.003512,0.002443
1765407756.508150,-9.774031,-0.005380,0.261239,-0.006414,0.001985,0.000458
1765407756.511454,-9.898971,-0.028694,0.313845,-0.007330,-0.002443,0.002138
1765407756.513518,-9.968913,-0.063965,0.325203,-0.009316,-0.001374,0.003512
1765407756.516162,-9.902557,-0.083094,0.269010,-0.007483,0.001069,0.000764
1765407756.518135,-9.825441,-0.095050,0.200263,-0.005803,0.004581,0.000000
1765407756.521146,-9.874461,-0.062769,0.209230,-0.003360,0.001833,0.000611
1765407756.522128,-9.900764,-0.025705,0.312649,-0.004734,-0.000153,-0.000764
1765407756.526072,-10.034670,0.014347,0.407700,-0.005192,0.004276,0.001985
1765407756.528067,-10.013150,-0.025705,0.360473,-0.007178,0.004276,0.000458
1765407756.531068,-9.980869,-0.074127,0.270206,-0.005956,0.004429,0.000458
1765407756.533117,-9.955761,-0.054998,0.249880,-0.004429,0.001833,0.000458
1765407756.536082,-10.001194,-0.031086,0.275586,-0.003054,-0.000916,-0.000458
1765407756.537058,-10.071137,0.035868,0.449546,-0.005651,0.000611,0.000305
1765407756.541096,-10.069942,0.001196,0.400526,-0.006567,0.002596,0.001833
1765407756.542100,-9.985652,-0.039455,0.304280,-0.008247,0.001985,0.003360
1765407756.544148,-9.884026,-0.051411,0.215806,-0.007025,-0.001374,0.001069
1765407756.548124,-9.937828,-0.052606,0.293520,-0.005803,-0.001374,0.000153
1765407756.551115,-10.014346,-0.019130,0.376016,-0.005192,-0.000611,0.000000
1765407756.553097,-10.104613,0.013152,0.404113,-0.005498,-0.001222,0.000611
1765407756.556056,-10.049019,-0.007771,0.356289,-0.008399,0.001985,0.002443
1765407756.558050,-9.927666,-0.043042,0.262434,-0.007178,0.003665,0.003512
1765407756.561061,-9.950381,-0.056193,0.296509,-0.007636,-0.003818,0.001680
1765407756.563086,-9.979673,-0.054998,0.335366,-0.007330,-0.001527,0.000458
1765407756.566060,-9.979673,-0.030488,0.378407,-0.006872,-0.003971,0.000764
1765407756.568053,-9.966521,0.009565,0.311454,-0.006414,-0.003207,0.000916
1765407756.571086,-9.880439,0.021521,0.249283,-0.005040,-0.004734,0.000458
1765407756.573073,-9.829028,0.000000,0.182927,-0.006109,-0.004276,0.002443
1765407756.576103,-9.832614,0.003587,0.170971,-0.007941,-0.006109,0.004887
1765407756.578147,-9.915112,0.008369,0.287542,-0.008552,-0.006109,0.001374
1765407756.581117,-9.913916,-0.032879,0.328790,-0.007483,-0.004887,0.000764
1765407756.583123,-9.879243,-0.070540,0.236729,-0.007025,-0.004429,-0.000611
1765407756.586065,-9.839190,-0.022716,0.184122,-0.007941,-0.002902,0.002291
1765407756.588152,-9.939023,-0.005380,0.312052,-0.008858,-0.006567,0.001069
1765407756.591089,-10.068149,0.001793,0.437590,-0.006261,-0.006567,-0.000153
1765407756.593087,-10.068149,0.001793,0.437590,-0.006261,-0.002749,-0.000153
1765407756.596120,-10.002390,-0.017934,0.335366,-0.007483,-0.000458,0.001374
1765407756.598104,-9.881036,-0.001196,0.252272,-0.009010,-0.000611,0.000916
1765407756.601124,-9.881036,-0.001196,0.252272,-0.009010,-0.004276,0.000916
1765407756.603145,-10.063366,0.007174,0.422645,-0.005345,-0.006567,-0.003054
1765407756.606177,-10.063366,0.007174,0.422645,-0.005345,-0.002749,-0.003054
1765407756.606677,-9.894786,-0.037064,0.254663,-0.007178,-0.002291,0.002749
1765407756.611163,-9.802128,-0.068149,0.211621,-0.006720,-0.002291,0.001069
1765407756.613247,-9.800931,-0.033477,0.252272,-0.008705,-0.003971,0.000764
1765407756.616124,-9.911524,-0.070540,0.304878,-0.007025,-0.008705,-0.001833
1765407756.618110,-9.858918,-0.011956,0.289335,-0.005345,-0.003665,-0.001527
1765407756.621149,-9.824244,0.055595,0.252272,-0.004734,-0.001222,-0.001069
1765407756.623119,-9.769248,0.084888,0.242707,-0.009774,-0.002596,0.002138
1765407756.626106,-9.794355,0.023912,0.200861,-0.011148,-0.003207,0.001680
1765407756.626606,-9.867287,-0.003587,0.358082,-0.009163,-0.001069,0.002138
1765407756.629092,-9.952174,-0.063965,0.382592,-0.010079,-0.001069,0.003971
1765407756.633120,-9.929459,-0.087279,0.328790,-0.011301,-0.001680,0.001680
1765407756.636107,-9.849353,-0.058584,0.245696,-0.010537,-0.001680,-0.000458
1765407756.638119,-9.831419,-0.026303,0.277379,-0.008247,-0.000153,0.000611
1765407756.640183,-9.989238,-0.010760,0.443568,-0.008552,0.000000,0.001833
1765407756.643151,-10.093256,-0.044237,0.541607,-0.009621,-0.002443,0.002291
1765407756.646142,-10.093256,-0.044237,0.541607,-0.009621,0.002443,0.002291
1765407756.648124,-9.870276,-0.045433,0.264228,-0.007789,0.003360,0.001527
1765407756.651096,-9.791965,-0.064562,0.185916,-0.009621,0.000153,-0.000611
1765407756.653097,-9.886416,0.013152,0.344333,-0.008094,0.000611,-0.000611
1765407756.654167,-9.970109,0.034672,0.436394,-0.005956,0.000611,0.002749
1765407756.658088,-9.970109,0.034672,0.436394,-0.005956,0.005498,0.002749
1765407756.659125,-9.769846,-0.077116,0.188307,-0.004276,0.000153,0.002443
1765407756.663089,-9.909132,-0.060976,0.370636,-0.002596,0.000153,0.002902
1765407756.664225,-10.088473,-0.071736,0.517097,-0.003818,0.003054,0.001527
1765407756.668085,-9.969511,-0.034075,0.321616,-0.003818,0.001527,0.000000
1765407756.671142,-9.837397,0.023912,0.192492,-0.005345,0.001833,0.001222
1765407756.673066,-9.850550,0.058584,0.239120,-0.007178,0.002902,0.004887
1765407756.676084,-10.010161,-0.017934,0.434003,-0.008399,0.004123,0.005651
1765407756.678061,-10.076518,-0.034672,0.468077,-0.010537,0.001069,0.005498
1765407756.679106,-9.922284,-0.124940,0.271999,-0.011148,0.004276,0.005345
1765407756.683092,-9.791367,-0.104017,0.154830,-0.008247,0.004429,0.004123
1765407756.686138,-9.855330,-0.037064,0.276184,-0.006720,0.001374,0.004123
1765407756.688065,-10.002390,-0.013152,0.423242,-0.005498,0.003054,0.002902
1765407756.690140,-9.917501,-0.077714,0.225968,-0.007636,0.007178,0.006261
1765407756.693100,-9.768052,-0.141081,0.078910,-0.001985,0.007178,0.006109
1765407756.694104,-9.824244,-0.067551,0.192492,-0.001069,0.000916,-0.000611
1765407756.698195,-10.026302,0.005978,0.442372,-0.006261,0.001069,-0.003054
1765407756.701126,-10.015541,0.095648,0.405308,-0.004276,0.005040,0.003360
1765407756.703109,-9.924676,0.095648,0.196078,-0.004276,0.005651,0.003360
1765407756.706180,-9.947392,0.057389,0.244500,-0.005345,0.005803,0.005803
1765407756.706680,-10.088473,-0.035270,0.442372,-0.005651,0.004276,0.004887
1765407756.711111,-10.205642,-0.160210,0.519488,-0.009163,0.007025,0.002596
1765407756.713107,-9.971304,-0.135103,0.212219,-0.008247,0.007025,0.000305
1765407756.716180,-9.775226,-0.012554,0.093257,-0.006414,0.004581,0.002138
1765407756.718158,-9.862504,0.088474,0.283357,-0.008705,0.003360,0.003054
1765407756.721174,-10.087874,0.011956,0.411286,-0.007789,-0.001527,0.007178
1765407756.721674,-10.041844,-0.151841,0.284553,-0.007789,0.001527,0.007330
1765407756.726112,-9.881036,-0.170373,0.163797,-0.005345,0.001527,0.001222
1765407756.728087,-9.863102,0.013749,0.266619,-0.001833,0.002902,-0.002138
1765407756.729144,-10.029292,0.109995,0.416069,-0.001069,0.001833,0.001680
1765407756.733109,-10.050214,0.156624,0.383788,-0.001069,0.003054,0.006261
1765407756.736125,-10.049019,0.037064,0.381994,-0.003512,0.003665,0.005498
1765407756.739217,-9.957555,-0.069345,0.334768,-0.002443,0.003971,0.006720
1765407756.741139,-9.970109,-0.132712,0.277977,-0.001069,0.001833,0.005651
1765407756.742215,-10.063366,-0.066954,0.410091,-0.002749,0.000916,0.003971
1765407756.746172,-9.980272,0.011358,0.349115,-0.007025,0.005956,0.003360
1765407756.748176,-9.823050,0.071736,0.190698,-0.008094,0.004429,0.002596
1765407756.751097,-9.802725,0.083094,0.148852,-0.005345,0.004429,0.007941
1765407756.753066,-9.906144,0.040650,0.308465,-0.006414,0.001222,0.006109
1765407756.754149,-9.998206,-0.100430,0.355691,-0.005651,0.001069,0.006414
1765407756.758133,-9.895982,-0.172166,0.268412,-0.005498,0.003971,0.008094
1765407756.761147,-9.825441,-0.047226,0.212817,-0.005192,0.003512,0.001680
1765407756.763180,-9.803921,0.094452,0.229555,-0.005803,0.004123,0.001069
1765407756.766159,-9.868484,0.022119,0.292324,-0.003971,0.000153,0.007941
1765407756.768146,-9.962935,-0.018532,0.344333,-0.001680,0.002138,0.007178
1765407756.771119,-10.050214,-0.015543,0.438785,-0.003512,0.004276,0.003054
1765407756.773186,-9.941415,-0.075323,0.354495,-0.004887,0.004887,0.006567
1765407756.776124,-9.848158,-0.042444,0.210426,-0.003971,-0.001069,0.005345
1765407756.778151,-9.848158,-0.042444,0.210426,-0.003971,0.002291,0.005345
1765407756.779171,-9.885221,0.034672,0.337159,-0.006414,0.003054,0.006261
1765407756.783141,-9.997607,0.041846,0.383788,-0.003818,0.003054,0.008247
1765407756.786165,-9.997607,0.041846,0.383788,-0.003818,0.005498,0.008247
1765407756.788151,-9.990434,-0.041846,0.373027,-0.002443,0.005651,0.006872
1765407756.789146,-9.917501,-0.119560,0.277379,-0.001985,0.003818,0.005345
1765407756.793119,-10.001792,0.052606,0.386777,-0.003207,0.006720,0.001527
1765407756.796186,-10.075920,0.143472,0.417264,-0.007178,0.006720,0.003207
1765407756.796686,-10.071735,0.077714,0.410091,-0.005956,0.006261,0.008858
1765407756.801124,-9.936033,-0.066954,0.257652,-0.004429,0.005498,0.009163
1765407756.801624,-9.937828,-0.093257,0.285748,-0.003665,0.006414,0.006720
1765407756.806125,-9.869080,-0.114180,0.206839,-0.004887,0.010079,0.004581
1765407756.808096,-9.884026,0.023912,0.284553,-0.001680,0.005498,0.004276
1765407756.811146,-10.043041,0.139287,0.389766,-0.004581,0.007025,0.003818
1765407756.813202,-10.029292,0.020325,0.449546,-0.005498,0.005192,0.011148
1765407756.814192,-9.958152,-0.109995,0.296509,-0.007178,0.005192,0.009927
1765407756.819635,-9.958152,-0.109995,0.296509,-0.007178,0.006261,0.009927
1765407756.820135,-9.909731,-0.016738,0.239120,-0.006261,0.010843,0.006872
1765407756.823220,-9.860711,0.000000,0.224773,-0.002749,0.000458,0.009010
1765407756.826129,-9.901959,0.011956,0.308465,-0.005956,0.003360,0.007330
1765407756.828178,-9.985652,-0.008369,0.398733,-0.005956,0.003665,0.004581
1765407756.831146,-9.985652,-0.008369,0.398733,-0.005956,0.005040,0.004581
1765407756.833151,-9.869080,-0.016141,0.160210,-0.001985,0.002902,0.008399
1765407756.834166,-9.879243,-0.033477,0.267814,-0.002749,0.004887,0.007483
1765407756.837138,-9.949782,-0.000598,0.398733,-0.001374,0.007636,0.007636
1765407756.841154,-9.872667,-0.066954,0.295313,-0.004734,0.007636,0.007483
1765407756.843079,-9.872667,-0.066954,0.295313,-0.004734,0.004123,0.007483
1765407756.846099,-9.806311,-0.013152,0.123147,-0.003818,0.002443,0.007941
1765407756.848187,-9.776422,0.092061,0.129723,-0.003360,0.002443,0.009774
1765407756.851128,-10.031085,0.078910,0.444763,-0.004887,0.003054,0.008399
1765407756.851628,-10.096842,0.052606,0.434003,-0.003971,0.003054,0.006872
1765407756.856114,-10.044834,-0.077714,0.341942,-0.005956,0.004734,0.010690
1765407756.858148,-9.783595,-0.059780,0.106408,-0.005498,0.007483,0.007330
1765407756.861120,-9.965326,0.031086,0.387374,-0.003665,0.005498,0.007636
1765407756.863135,-10.006575,0.044237,0.322812,-0.003665,0.004581,0.007636
1765407756.866167,-10.083092,-0.025108,0.352702,-0.005956,0.002596,0.009927
1765407756.868160,-9.933045,-0.066954,0.194883,-0.005956,0.009927,0.009468
1765407756.871140,-9.738162,-0.042444,0.111191,-0.007330,0.009163,0.010079
1765407756.871640,-9.793160,-0.005380,0.222382,-0.005651,0.009163,0.008552
1765407756.876136,-9.793160,-0.005380,0.222382,-0.005651,0.005498,0.008552
1765407756.878136,-10.046627,0.002391,0.500956,-0.008858,0.006567,0.009774
1765407756.881181,-9.813485,-0.054400,0.162602,-0.006261,0.009468,0.010996
1765407756.883172,-9.653275,-0.033477,0.119560,-0.002291,0.007941,0.008858
1765407756.886139,-9.754900,0.007174,0.233142,-0.002596,0.004581,0.009316
1765407756.886639,-9.980869,0.010760,0.355093,-0.005345,-0.001222,0.008552
1765407756.889174,-9.942013,-0.031086,0.362267,-0.002291,0.003360,0.011148
1765407756.893105,-9.999999,-0.033477,0.383788,-0.004429,0.005040,0.007178
1765407756.896112,-9.949782,0.043042,0.308465,-0.005956,0.003971,0.007178
1765407756.898131,-9.806311,-0.054400,0.139885,-0.005345,0.003971,0.008247
1765407756.901192,-9.828429,0.099235,0.193687,-0.002596,0.001833,0.007636
1765407756.903177,-9.892395,0.106408,0.232544,-0.006414,0.003207,0.007330
1765407756.906166,-10.010758,0.086083,0.426829,-0.006414,0.004429,0.010079
1765407756.908153,-9.881634,0.043042,0.169775,-0.004734,0.007025,0.011148
1765407756.911177,-9.958152,0.008967,0.370038,-0.007789,0.007025,0.009927
1765407756.913106,-9.722619,0.026303,0.023912,-0.007178,0.010385,0.011301
1765407756.914235,-9.933045,-0.035868,0.338355,-0.005803,0.004581,0.011759
1765407756.918294,-9.825441,0.076518,0.145863,-0.005803,0.010690,0.011759
1765407756.921157,-10.040649,0.005380,0.379005,-0.003818,0.005498,0.012981
1765407756.924183,-9.982663,0.005978,0.350311,-0.002443,0.011454,0.013592
1765407756.926157,-9.973696,-0.096844,0.346126,-0.003054,0.005192,0.011301
1765407756.928125,-9.894786,-0.015543,0.245098,-0.008094,0.009927,0.007483
1765407756.931125,-9.955761,-0.010760,0.166188,-0.001985,0.005345,0.008247
1765407756.933146,-9.982065,-0.005978,0.310258,-0.003818,0.002138,0.011454
1765407756.936126,-10.126732,0.066954,0.471066,-0.004734,0.000916,0.007941
1765407756.938134,-10.081299,0.052009,0.510521,-0.009927,0.011454,0.010537
1765407756.941100,-9.878646,-0.064562,0.156624,-0.005498,0.008552,0.014508
1765407756.942184,-9.935436,-0.125538,0.173362,-0.006109,0.001680,0.010385
1765407756.944195,-10.064561,-0.014347,0.397537,-0.007636,0.005345,0.006261
1765407756.948221,-10.107603,0.054998,0.496174,-0.005498,0.008399,0.010385
1765407756.951188,-9.848756,0.058584,0.195481,-0.006414,0.008399,0.009927
1765407756.953118,-9.788378,0.133907,0.150646,-0.006720,0.007178,0.010232
1765407756.956115,-9.797942,-0.014347,0.198470,-0.004429,0.012828,0.014050
1765407756.958190,-9.809300,-0.108800,0.240316,0.000153,0.007178,0.018631
1765407756.959193,-9.910927,-0.143472,0.309660,-0.002443,0.003818,0.011301
1765407756.963074,-9.992825,-0.022716,0.332377,-0.006261,0.009774,0.009468
1765407756.964157,-9.829028,-0.030488,0.143472,-0.004887,0.009010,0.011912
1765407756.968103,-9.693925,0.062171,0.109995,-0.002596,0.009010,0.015882
1765407756.971125,-9.803921,0.092061,0.251076,-0.006109,0.009010,0.011759
1765407756.973081,-9.970706,0.019727,0.390961,-0.003818,0.009927,0.015119
1765407756.976130,-9.968913,-0.132114,0.334170,-0.005192,0.010843,0.014355
1765407756.978153,-9.928263,-0.072334,0.291726,-0.006109,0.011759,0.008552
1765407756.981099,-9.823050,-0.059182,0.150048,-0.004887,0.013592,0.008858
1765407756.981599,-9.840983,0.057389,0.186514,-0.002291,0.007483,0.012981
1765407756.984218,-9.962935,0.100430,0.387374,-0.000764,0.008705,0.012523
1765407756.988099,-10.066953,0.057389,0.545791,-0.003054,0.015119,0.016952
1765407756.991170,-10.066953,0.057389,0.545791,-0.003054,0.018173,0.016952
1765407756.993168,-9.852343,-0.186514,0.187111,-0.003054,0.013286,0.013439
1765407756.996151,-9.923481,-0.004782,0.299498,-0.001680,0.012065,0.014355
1765407756.998192,-10.070539,0.038259,0.460306,-0.003360,0.009621,0.012370
1765407757.001114,-10.027497,0.020923,0.407700,0.001069,0.009621,0.014508
1765407757.003190,-10.027497,0.020923,0.407700,0.001069,0.010079,0.014508
1765407757.006203,-9.837397,-0.047824,0.166188,-0.000305,0.007789,0.017715
1765407757.008232,-9.760281,-0.131516,0.113582,0.001374,0.007789,0.016952
1765407757.011178,-10.058583,-0.134505,0.433405,0.000458,0.006567,0.013134
1765407757.013177,-10.078907,0.031086,0.444165,0.004429,0.012828,0.009621
1765407757.014161,-9.967718,0.077714,0.248685,0.002902,0.013592,0.012217
1765407757.018309,-9.776422,0.130320,0.071736,-0.000153,0.016188,0.014661
1765407757.021193,-9.845766,0.116571,0.222382,-0.002902,0.010537,0.016341
1765407757.021693,-9.977283,-0.022716,0.379005,-0.003665,0.011301,0.018021
1765407757.024123,-9.960544,-0.109995,0.301291,-0.004123,0.011301,0.018173
1765407757.028118,-9.997009,-0.040053,0.363462,-0.004123,0.014966,0.018173
1765407757.030220,-9.805116,0.051411,0.176949,-0.004887,0.012828,0.016493
1765407757.033196,-9.741151,0.068149,0.100430,-0.002596,0.012828,0.016341
1765407757.034180,-9.723217,0.078910,0.100430,-0.001222,0.006414,0.018631
1765407757.038191,-10.029889,0.041846,0.407700,-0.000764,0.011148,0.020769
1765407757.041155,-10.029889,-0.118364,0.365256,0.002596,0.015272,0.020617
1765407757.043136,-10.031085,-0.103419,0.321019,0.000611,0.012370,0.016646
1765407757.046161,-9.988043,0.039455,0.309660,-0.002596,0.016035,0.012828
1765407757.046661,-9.899570,0.095648,0.239718,-0.002902,0.013286,0.012828
1765407757.051155,-9.852941,0.068149,0.235533,-0.003054,0.009621,0.015272
1765407757.052126,-9.950979,0.119560,0.302487,0.000305,0.009621,0.019242
1765407757.056172,-9.979673,0.039455,0.365256,-0.001374,0.018021,0.021838
1765407757.058174,-9.848158,-0.016738,0.170971,0.001069,0.013286,0.022907
1765407757.061157,-9.848158,-0.016738,0.170971,0.001069,0.012981,0.022907
1765407757.063166,-9.936632,-0.087279,0.246294,0.003360,0.014813,0.018784
1765407757.066148,-10.022716,-0.029292,0.358680,0.003818,0.019090,0.016799
1765407757.068146,-9.757292,0.065758,0.124342,0.000916,0.018173,0.015119
1765407757.071214,-9.658655,0.143472,-0.029890,-0.001069,0.017410,0.016952
1765407757.072218,-9.638927,0.060378,0.015543,-0.000611,0.015272,0.021991
1765407757.076134,-9.875656,-0.028694,0.259445,-0.001680,0.011759,0.022907
1765407757.078169,-10.026900,-0.033477,0.388570,-0.003054,0.016188,0.016035
1765407757.081199,-9.824244,-0.021521,0.080703,-0.001833,0.017715,0.013439
1765407757.081699,-9.615613,0.104017,-0.013152,-0.000305,0.018784,0.015424
1765407757.086142,-9.775226,0.203252,0.124342,-0.003512,0.018326,0.018784
1765407757.088150,-10.211619,0.223577,0.729316,-0.004887,0.020311,0.021380
1765407757.089145,-10.162600,0.041846,0.457915,-0.004276,0.023824,0.023518
1765407757.093111,-9.945002,-0.115375,0.315041,-0.004276,0.016341,0.022755
1765407757.096143,-9.858918,-0.025108,0.202056,-0.003665,0.012828,0.016035
1765407757.097147,-9.962935,0.052606,0.329986,0.002443,0.013744,0.018784
1765407757.101164,-9.948587,0.063367,0.257652,0.002443,0.013592,0.018784
1765407757.103140,-9.994618,0.169775,0.297704,0.003207,0.014203,0.016188
1765407757.104142,-9.982065,0.102822,0.320421,-0.000153,0.017868,0.024740
1765407757.108153,-9.911524,-0.054400,0.108800,-0.000305,0.020159,0.028558
1765407757.111198,-9.941415,-0.096844,0.225968,-0.003512,0.015272,0.020159
1765407757.113234,-9.953967,0.031683,0.232544,-0.005803,0.020464,0.015730
1765407757.116204,-10.019726,0.053802,0.310856,-0.001374,0.019090,0.015730
1765407757.116704,-9.895982,0.153635,0.239120,-0.002902,0.015272,0.020311
1765407757.121137,-9.825441,0.112386,0.144668,-0.003512,0.020922,0.022755
1765407757.123132,-9.752509,-0.014945,0.115973,-0.003360,0.025045,0.022907
1765407757.126131,-9.799736,-0.073529,0.118364,0.000153,0.016493,0.022297
1765407757.128185,-10.007172,-0.025705,0.323410,0.001069,0.016188,0.016493
1765407757.131205,-9.942610,0.062769,0.303682,-0.002443,0.023518,0.017715
1765407757.131705,-9.813485,0.061573,0.162004,-0.001833,0.023976,0.021228
1765407757.135273,-9.747727,-0.041846,0.072932,-0.002596,0.019700,0.022144
1765407757.138135,-9.899570,0.013152,0.306074,-0.003512,0.021075,0.020311
1765407757.141147,-9.892395,0.047824,0.193089,0.001527,0.022144,0.021228
1765407757.143204,-9.977283,-0.026303,0.325801,-0.000458,0.018784,0.022144
1765407757.146131,-9.976685,0.063367,0.335964,-0.000153,0.020922,0.019853
1765407757.148133,-9.985652,-0.006576,0.366451,0.000611,0.021686,0.020159
1765407757.151169,-9.852941,0.072932,0.230751,0.000458,0.018784,0.020311
1765407757.153173,-10.005977,0.093257,0.337159,-0.001374,0.010079,0.023060
1765407757.156170,-10.005977,0.093257,0.337159,-0.001374,0.012981,0.023060
1765407757.158186,-9.955164,-0.116571,0.209828,0.004123,0.014508,0.025198
1765407757.161192,-9.928263,-0.077714,0.241511,0.004123,0.016646,0.017562
1765407757.163123,-9.960544,0.002989,0.229555,0.001069,0.015882,0.020617
1765407757.166180,-9.959349,0.002391,0.255858,0.000153,0.016341,0.021838
1765407757.166680,-9.967718,0.124342,0.283357,0.003971,0.015424,0.021380
1765407757.171204,-10.089071,0.101626,0.413080,-0.000764,0.026114,0.022755
1765407757.173166,-9.986848,-0.020325,0.290531,0.001680,0.026114,0.026573
1765407757.174175,-9.813485,-0.141679,0.044835,0.001833,0.019395,0.027642
1765407757.178127,-9.788976,-0.056791,0.089670,0.004734,0.017104,0.022602
1765407757.181129,-9.819464,0.021521,0.192492,0.002291,0.018937,0.020159
1765407757.183146,-9.819464,0.039455,0.164993,0.005956,0.018784,0.023366
1765407757.184170,-9.751313,0.095648,0.109995,0.000611,0.018784,0.020464
1765407757.188173,-9.778812,0.162602,0.108800,-0.002749,0.020769,0.021991
1765407757.191140,-9.725011,0.144668,0.066356,0.000153,0.019548,0.025198
1765407757.193163,-9.808702,0.084888,0.211621,0.001833,0.019548,0.025504
1765407757.194301,-9.958152,0.050813,0.339550,0.001833,0.021686,0.025504
1765407757.198184,-9.956359,-0.035868,0.257054,0.000000,0.020769,0.026114
1765407757.201248,-9.956359,-0.035868,0.257054,0.000000,0.022602,0.026114
1765407757.203193,-9.851745,0.105213,0.087279,0.007330,0.024435,0.028863
1765407757.204227,-10.025107,0.057389,0.452535,0.002749,0.024435,0.028100
1765407757.208180,-10.109993,0.004185,0.505739,0.003360,0.022602,0.028100
1765407757.211147,-9.982065,-0.056193,0.374223,0.002902,0.022907,0.028253
1765407757.213188,-9.785987,-0.004185,0.109995,0.002902,0.025045,0.028253
1765407757.214176,-9.734576,-0.020325,0.184122,0.000916,0.019395,0.023366
1765407757.218175,-9.892395,0.037064,0.363462,0.005040,0.019395,0.022907
1765407757.221130,-10.157818,0.225968,0.542802,0.003054,0.021686,0.019853
1765407757.223134,-9.979673,0.181731,0.248685,0.002291,0.030238,0.025656
1765407757.224205,-9.722619,0.057389,0.025108,0.001680,0.022144,0.030391
1765407757.228114,-9.858918,-0.025108,0.155428,0.001985,0.018479,0.026878
1765407757.231127,-9.875656,-0.053802,0.207437,0.001222,0.020006,0.023671
1765407757.233175,-9.741151,0.157819,0.123147,0.003818,0.020769,0.022755
1765407757.236142,-9.688545,0.240316,0.054998,0.002596,0.020159,0.022755
1765407757.238129,-9.751313,0.236729,0.145863,-0.000611,0.020159,0.030085
1765407757.239235,-9.774031,-0.022716,0.125538,0.002291,0.018326,0.032529
1765407757.243164,-9.915709,-0.114778,0.280368,0.001069,0.018326,0.026267
1765407757.246193,-10.017933,0.059780,0.296509,0.000153,0.031307,0.021075
1765407757.248210,-9.808702,0.046628,0.100430,0.000611,0.026267,0.025504
1765407757.251207,-9.659253,0.127929,-0.124342,0.003054,0.021838,0.023518
1765407757.253144,-9.659253,0.127929,-0.124342,0.003054,0.023671,0.023518
1765407757.256132,-9.930654,0.239718,0.393950,-0.001985,0.026878,0.028405
1765407757.258144,-9.851147,0.033477,0.143472,0.001374,0.031765,0.034056
1765407757.261119,-9.831419,-0.126734,0.085485,0.001680,0.026573,0.029169
1765407757.263134,-9.968913,-0.002391,0.154232,-0.000153,0.029169,0.022297
1765407757.266143,-10.210424,0.035868,0.539216,0.004887,0.030391,0.024129
1765407757.268197,-10.127929,0.108202,0.450143,0.008552,0.025504,0.024129
1765407757.271197,-10.001194,0.225968,0.224175,0.001374,0.026420,0.022602
1765407757.272163,-9.830223,0.212817,0.023912,0.000153,0.029627,0.027794
1765407757.276135,-9.915112,0.152439,0.188905,0.000458,0.023976,0.029322
1765407757.278117,-10.187708,0.059780,0.468675,-0.000153,0.024282,0.029627
1765407757.279165,-10.138689,-0.056193,0.349115,0.001680,0.028100,0.027794
1765407757.283176,-9.875058,-0.000598,-0.038259,0.001374,0.027184,0.028100
1765407757.286140,-9.738162,0.163797,-0.046031,0.006567,0.024893,0.025504
1765407757.288131,-9.985652,0.295911,0.403515,0.001374,0.026573,0.027031
1765407757.291131,-10.138689,0.152439,0.383190,0.000305,0.028100,0.031154
1765407757.293136,-9.934838,-0.015543,0.163797,-0.000916,0.025809,0.031765
1765407757.296178,-9.833811,0.029890,0.102822,-0.001069,0.027947,0.029322
1765407757.298158,-9.891200,-0.001196,0.211621,0.003971,0.024282,0.026573
1765407757.301179,-9.936033,0.050215,0.231946,0.005803,0.024282,0.026267
1765407757.303214,-10.074127,0.272597,0.384983,-0.001985,0.022144,0.019395
1765407757.306169,-10.156025,0.267814,0.337159,-0.002138,0.027184,0.025962
1765407757.308170,-9.911524,0.096844,0.101028,-0.004429,0.021991,0.033139
1765407757.311192,-9.863700,0.022119,0.184122,-0.004276,0.023824,0.024129
1765407757.313157,-9.901362,-0.016738,0.218795,-0.007483,0.023060,0.023976
1765407757.316165,-10.062170,0.001196,0.261836,-0.004887,0.020922,0.028711
1765407757.318195,-10.075920,0.159015,0.204448,0.004734,0.027947,0.024435
1765407757.321171,-10.101027,0.175155,0.335964,0.000764,0.027947,0.024893
1765407757.323189,-9.953370,0.072334,0.208632,0.003971,0.035277,0.033598
1765407757.326198,-9.871471,-0.040650,0.170971,0.000000,0.028405,0.031460
1765407757.328157,-9.937828,0.019130,0.240316,-0.001680,0.024893,0.023976
1765407757.331159,-10.015541,0.058584,0.245098,-0.002138,0.028405,0.024435
1765407757.333169,-10.015541,0.043042,0.301291,0.003054,0.028711,0.025656
1765407757.336180,-9.835006,0.198470,0.186514,0.001985,0.032834,0.025656
1765407757.336680,-9.893590,0.223577,0.430416,-0.000611,0.034514,0.025504
1765407757.341188,-9.814083,0.115375,0.038259,0.001374,0.034514,0.032529
1765407757.343164,-9.852941,-0.017934,0.209230,0.002138,0.026267,0.033598
1765407757.346160,-9.949782,-0.032281,0.288140,-0.000916,0.026267,0.025504
1765407757.348201,-9.879841,0.059780,0.193687,0.001833,0.030391,0.025656
1765407757.351177,-9.605451,0.144668,-0.138690,0.002749,0.033445,0.028711
1765407757.352171,-9.683763,0.264228,-0.102822,0.001527,0.029627,0.027184
1765407757.356237,-9.985652,0.132712,0.406504,0.000916,0.029016,0.033139
1765407757.358227,-10.051410,-0.117767,0.257054,0.009468,0.029016,0.036194
1765407757.361184,-9.780008,-0.108800,0.007174,0.005040,0.034972,0.032376
1765407757.363227,-9.736369,-0.029890,0.004782,0.000000,0.040317,0.028100
1765407757.366173,-9.979673,0.054998,0.335366,0.004734,0.035888,0.027642
1765407757.368221,-10.040649,0.104017,0.370038,0.008094,0.032987,0.029627
1765407757.371135,-10.049019,0.217599,0.297704,0.003207,0.035736,0.027336
1765407757.373137,-9.818865,0.192492,0.081301,0.003207,0.040623,0.027336
1765407757.376124,-9.720228,-0.011956,0.056791,0.003512,0.029474,0.037721
1765407757.377153,-9.872069,-0.043639,0.188905,0.000764,0.029474,0.031307
1765407757.381331,-9.872069,-0.043639,0.188905,0.000764,0.036346,0.031307
1765407757.383183,-9.765661,0.138092,-0.020325,0.002138,0.038790,0.032681
1765407757.386145,-9.623982,0.072932,-0.083692,0.004887,0.033139,0.036041
1765407757.388134,-9.787182,0.078910,0.069345,0.002443,0.035430,0.030391
1765407757.389134,-9.794355,0.157819,0.216404,0.006414,0.035430,0.033445
1765407757.393130,-9.789574,0.099833,0.082496,0.005498,0.032529,0.033750
1765407757.394139,-9.928263,0.090866,0.136896,0.004581,0.029474,0.031918
1765407757.398208,-10.095646,0.114778,0.343137,0.003207,0.032834,0.027489
1765407757.401194,-9.855330,0.288737,0.040650,0.007178,0.033292,0.032070
1765407757.403202,-9.751313,0.287542,-0.026303,0.002291,0.031765,0.032681
1765407757.406159,-10.040051,0.248685,0.210426,-0.001069,0.031460,0.032987
1765407757.407203,-10.237924,0.041846,0.321616,0.004734,0.039248,0.040775
1765407757.411218,-10.153036,0.033477,0.325203,0.001680,0.039248,0.036346
1765407757.413207,-9.928263,0.090866,0.051411,-0.001985,0.044746,0.029016
1765407757.416211,-9.878048,0.100430,0.052009,-0.000458,0.038179,0.030085
1765407757.418201,-9.862504,0.178742,0.098039,0.002596,0.035277,0.031612
1765407757.421159,-9.986848,0.363462,0.270206,0.001527,0.048106,0.029016
1765407757.423138,-10.111190,0.304878,0.373027,0.002138,0.048106,0.034056
1765407757.426147,-10.111190,0.304878,0.373027,0.002138,0.042913,0.034056
1765407757.427230,-9.896580,0.020325,0.150048,0.001985,0.038637,0.035430
1765407757.431136,-9.971304,0.020923,0.182927,-0.001985,0.041539,0.029322
1765407757.433158,-10.182925,0.081301,0.411884,-0.000153,0.041539,0.034819
1765407757.436165,-9.959349,0.197274,0.148254,0.002902,0.043830,0.030085
1765407757.438211,-9.959349,0.197274,0.148254,0.002902,0.047189,0.030085
1765407757.439240,-9.843375,0.193687,0.046628,-0.005040,0.046120,0.041539
1765407757.441202,-10.060975,0.135701,0.286346,-0.001374,0.039248,0.039095
1765407757.444238,-10.222381,0.040650,0.324008,-0.001985,0.036346,0.033292
1765407757.447207,-10.114776,-0.109397,0.383788,-0.001833,0.036346,0.033139
1765407757.451208,-9.766856,0.029890,0.038259,0.001680,0.043219,0.032529
1765407757.453174,-9.864896,0.141679,0.070540,0.000611,0.034819,0.030696
1765407757.456185,-10.125537,0.199665,0.423242,0.001985,0.031765,0.033750
1765407757.458243,-10.147655,0.188905,0.310856,0.001069,0.038332,0.036499
1765407757.461208,-9.905546,-0.067551,0.043042,0.000611,0.038332,0.037415
1765407757.462180,-9.540291,-0.082496,-0.321616,0.002596,0.038179,0.031154
1765407757.466150,-9.838593,0.100430,0.026303,0.008705,0.032987,0.027489
1765407757.468135,-9.999999,0.301291,0.242707,0.005956,0.038332,0.029780
1765407757.471159,-10.089071,0.408895,0.345528,0.005956,0.042150,0.029780
1765407757.473128,-9.744141,0.215208,-0.110593,-0.003360,0.044593,0.040928
1765407757.476160,-9.680773,0.015543,-0.111191,-0.000611,0.034972,0.039095
1765407757.478202,-10.021520,-0.002989,0.292922,0.000000,0.031918,0.034972
1765407757.481181,-9.994021,-0.083094,0.135103,-0.000611,0.035583,0.032987
1765407757.483210,-9.994021,-0.083094,0.135103,-0.000611,0.043677,0.032987
1765407757.486218,-9.727402,0.362267,-0.084888,0.003054,0.048258,0.032376
1765407757.487193,-10.058583,0.306671,0.333572,-0.003665,0.040928,0.039859
1765407757.491179,-10.313844,0.112386,0.408895,0.003054,0.037110,0.043524
1765407757.493171,-10.041844,-0.247489,0.129125,0.001527,0.042913,0.043219
1765407757.494164,-9.759683,-0.099833,-0.203252,0.003360,0.047953,0.031154
1765407757.498165,-9.673599,0.008369,-0.088474,-0.002138,0.039706,0.030085
1765407757.501120,-10.029889,0.318030,0.340746,0.001069,0.035583,0.029322
1765407757.502141,-10.121950,0.475849,0.221186,0.000764,0.047647,0.034514
1765407757.506172,-10.034073,0.253467,0.344333,0.000305,0.047647,0.046578
1765407757.508163,-9.655666,-0.044835,-0.162004,0.002291,0.041997,0.047495
1765407757.511193,-9.808702,-0.142276,0.130320,0.000611,0.034667,0.042608
1765407757.513203,-10.104015,-0.057389,0.288737,0.003818,0.037568,0.037721
1765407757.514165,-10.170969,0.008369,0.234338,0.007025,0.044593,0.035736
1765407757.518160,-9.949782,0.154232,0.102822,0.007178,0.044593,0.031460
1765407757.521220,-9.910329,0.389766,0.090866,0.004429,0.045662,0.034056
1765407757.523165,-9.932447,0.343137,0.258250,0.001222,0.044899,0.043219
1765407757.526142,-9.959349,0.075323,0.119560,0.001222,0.037263,0.043219
1765407757.528170,-10.105211,-0.016141,0.264228,0.004734,0.038790,0.041233
1765407757.531232,-10.023911,-0.039455,0.194285,0.006567,0.046120,0.040317
1765407757.533191,-9.778812,-0.017934,-0.056193,0.008399,0.041844,0.039706
1765407757.536286,-9.622189,0.166786,-0.186514,0.008552,0.037415,0.033445
1765407757.538352,-9.823050,0.337757,0.125538,0.007330,0.039248,0.033292
1765407757.541263,-9.918698,0.298900,0.155428,0.014355,0.044746,0.040928
1765407757.543305,-9.742945,0.203850,0.021521,0.006109,0.044440,0.040623
1765407757.546167,-9.619798,0.173362,-0.279770,0.002749,0.046731,0.038485
1765407757.548230,-9.675393,0.052606,-0.047824,0.008094,0.045051,0.040623
1765407757.551216,-9.757292,0.062171,-0.001196,0.011912,0.045204,0.040317
1765407757.553229,-9.970109,0.274988,0.139885,0.006109,0.043524,0.034819
1765407757.556198,-10.050214,0.358082,0.399330,0.001985,0.055436,0.034667
1765407757.558182,-9.823050,0.231349,0.052009,0.006720,0.052687,0.043371
1765407757.561173,-9.797942,0.178742,0.038259,0.004581,0.044440,0.041844
1765407757.563170,-10.121950,0.184720,0.346724,0.002596,0.044440,0.037721
1765407757.566193,-10.138091,-0.002391,0.338355,0.007636,0.048869,0.047800
1765407757.568180,-9.952174,-0.092659,0.000000,0.013134,0.045204,0.043219
1765407757.569197,-10.017933,0.085485,0.160210,0.006261,0.050855,0.031460
1765407757.573191,-10.001194,0.272597,0.167384,0.008858,0.052076,0.037568
1765407757.576187,-9.980869,0.322812,0.243305,0.009010,0.047495,0.041539
1765407757.578208,-10.068149,0.314443,0.129125,0.007178,0.044746,0.040775
1765407757.579204,-9.963533,0.058584,0.006576,0.003971,0.046578,0.045051
1765407757.583202,-9.857722,-0.062171,-0.144668,0.011759,0.048869,0.046273
1765407757.584240,-9.837397,0.024510,0.058584,0.011759,0.054214,0.046273
1765407757.588169,-9.857722,0.182927,0.254663,0.013286,0.058948,0.036652
1765407757.592200,-9.891200,0.224773,0.203252,0.011912,0.054978,0.043982
1765407757.593165,-10.039454,0.174558,0.228360,0.010996,0.051618,0.044746
1765407757.595279,-9.991630,0.119560,0.051411,0.010079,0.051618,0.044593
1765407757.598192,-9.991630,0.119560,0.051411,0.010079,0.049480,0.044593
1765407757.600264,-9.588115,0.101626,-0.308465,0.014813,0.054672,0.043982
1765407757.603188,-9.660448,0.149450,-0.058584,0.011454,0.053756,0.040623
1765407757.606249,-9.964130,0.240316,0.277379,0.009927,0.053909,0.038943
1765407757.608226,-10.019128,0.283357,0.271401,0.015577,0.053909,0.043677
1765407757.611244,-10.019128,0.283357,0.271401,0.015577,0.049786,0.043677
1765407757.613215,-9.860114,0.285748,-0.104017,0.009774,0.051007,0.039095
1765407757.614204,-9.793160,0.215208,-0.185916,0.010843,0.054672,0.047800
1765407757.618233,-9.780008,0.148254,-0.029890,0.014050,0.050396,0.050091
1765407757.621275,-9.831419,0.265423,0.060976,0.007483,0.055894,0.040164
1765407757.623263,-10.004781,0.404711,0.304878,0.007941,0.056658,0.041233
1765407757.625259,-9.747727,0.283357,-0.141081,0.010996,0.048411,0.049786
1765407757.628296,-9.776422,0.225968,-0.228360,0.005192,0.048411,0.046273
1765407757.630160,-9.806311,0.123147,-0.043042,0.006720,0.055436,0.045662
1765407757.633241,-10.037063,0.159015,0.070540,0.012217,0.052993,0.046578
1765407757.636227,-10.059779,0.243902,0.098637,0.011912,0.051160,0.043677
1765407757.638220,-10.061573,0.193687,0.236131,0.009774,0.061239,0.043524
1765407757.641203,-9.949782,0.193687,0.166188,0.014813,0.068417,0.048869
1765407757.643198,-9.982065,0.188905,0.199665,0.011606,0.054062,0.045204
1765407757.646223,-10.197272,0.235533,0.341344,0.009010,0.049786,0.041539
1765407757.648216,-10.095646,0.162602,0.038259,0.008552,0.055131,0.048411
1765407757.649215,-9.690338,-0.010760,-0.296509,0.008247,0.056352,0.046426
1765407757.653213,-9.709468,0.193687,-0.153037,0.006109,0.058032,0.042150
1765407757.656225,-9.709468,0.193687,-0.153037,0.006109,0.057727,0.042150
1765407757.658175,-10.179936,0.304280,0.338355,0.012370,0.049786,0.047953
1765407757.661244,-10.093256,0.204448,0.101028,0.011759,0.051007,0.048411
1765407757.663264,-9.787780,0.054998,-0.160808,0.012675,0.059712,0.048106
1765407757.666176,-9.791965,0.046628,-0.144668,0.018784,0.058643,0.045815
1765407757.667211,-10.029889,0.247489,0.240316,0.022144,0.054214,0.045815
1765407757.671217,-10.170969,0.451937,0.276184,0.018784,0.055131,0.040012
1765407757.673160,-10.066953,0.374223,0.133907,0.014355,0.060170,0.046578
1765407757.676209,-9.702294,0.247489,-0.234338,0.014966,0.058338,0.050091
1765407757.678178,-9.888210,0.153037,0.034672,0.016341,0.058338,0.048258
1765407757.681177,-9.858918,0.176949,0.082496,0.017562,0.055283,0.047495
1765407757.683158,-9.959349,0.059182,-0.114180,0.015272,0.059101,0.046731
1765407757.686212,-9.822452,0.312649,-0.148254,0.019242,0.061850,0.043982
1765407757.688274,-9.836202,0.449546,-0.050215,0.012981,0.064904,0.042761
1765407757.692196,-9.782400,0.373625,-0.064562,0.010843,0.058185,0.051465
1765407757.693178,-9.861309,0.150646,-0.090268,0.009927,0.054978,0.054825
1765407757.696207,-9.968913,0.030488,-0.014347,0.015424,0.053909,0.055436
1765407757.698197,-9.793160,-0.040650,-0.241511,0.014508,0.060170,0.046884
1765407757.702638,-9.835006,0.267217,-0.104017,0.020006,0.059101,0.042302
1765407757.703209,-9.939621,0.469871,0.124940,0.011606,0.063530,0.039859
1765407757.706205,-10.134504,0.476447,0.387972,0.011759,0.064904,0.052993
1765407757.708278,-9.922883,0.122549,-0.011358,0.009774,0.062156,0.055436
1765407757.711185,-9.797942,0.031086,-0.118962,0.014203,0.059712,0.049786
1765407757.713273,-9.739956,0.056791,-0.308465,0.012523,0.062156,0.048106
1765407757.714260,-9.965326,0.188905,0.084888,0.013897,0.055894,0.042150
1765407757.718192,-10.041844,0.567910,0.059780,0.014661,0.062156,0.042302
1765407757.721214,-9.949782,0.502152,0.014347,0.014661,0.063072,0.049022
1765407757.721714,-9.707077,0.357484,-0.308465,0.011912,0.064294,0.057727
1765407757.726189,-9.877449,0.026303,-0.222382,0.015119,0.054367,0.056658
1765407757.728255,-10.124342,0.050813,0.118364,0.015882,0.067959,0.045357
1765407757.731177,-10.104015,0.217001,0.096844,0.015272,0.067959,0.044288
1765407757.733279,-9.849353,0.265423,-0.115973,0.017257,0.057116,0.046731
1765407757.736222,-9.947392,0.363462,-0.089670,0.010996,0.057116,0.042608
1765407757.738243,-10.203848,0.440579,0.179938,0.006567,0.057574,0.049938
1765407757.741206,-10.312649,0.190100,0.326399,0.006567,0.066126,0.054978
1765407757.743188,-10.142874,0.057987,0.044237,0.011454,0.062308,0.053909
1765407757.746174,-10.037063,0.059182,-0.039455,0.010385,0.058643,0.047800
1765407757.748217,-9.833811,0.282162,-0.255858,0.011912,0.062614,0.045662
1765407757.751247,-9.833811,0.282162,-0.255858,0.011912,0.060934,0.045662
1765407757.753239,-9.850550,0.331181,-0.042444,0.017715,0.061392,0.051618
1765407757.756242,-10.130320,0.253467,0.280368,0.014661,0.059865,0.054214
1765407757.758194,-9.866092,0.085485,-0.147657,0.014355,0.060170,0.056810
1765407757.761177,-9.759683,0.053802,-0.227762,0.016952,0.056658,0.051618
1765407757.763213,-9.711859,0.205643,-0.228360,0.019548,0.058948,0.047647
1765407757.767215,-9.995216,0.362267,0.144668,0.016952,0.059712,0.051007
1765407757.768143,-9.848158,0.282162,-0.087279,0.020922,0.059712,0.055436
1765407757.771149,-9.933045,0.243902,-0.105213,0.018021,0.059559,0.050244
1765407757.773266,-9.922284,0.198470,-0.092659,0.015730,0.067806,0.051007
1765407757.776237,-9.997607,0.302487,0.156624,0.021838,0.058032,0.052229
1765407757.778214,-10.030487,0.389766,0.124342,0.012828,0.062308,0.048564
1765407757.781323,-9.823050,0.418460,-0.137494,0.012523,0.062308,0.053756
1765407757.783209,-9.687947,0.288140,-0.319225,0.020922,0.065821,0.059712
1765407757.786193,-9.906742,0.221186,-0.033477,0.021380,0.057574,0.057727
1765407757.788213,-10.074127,0.318030,0.227164,0.010996,0.059865,0.047647
1765407757.789242,-9.910329,0.371234,-0.080105,0.016188,0.065210,0.051924
1765407757.793204,-9.719033,0.284553,-0.285748,0.016799,0.062308,0.057421
1765407757.796214,-9.846365,0.282162,-0.187111,0.015577,0.056352,0.056352
1765407757.798184,-10.029889,0.142276,0.052606,0.010996,0.064446,0.054672
1765407757.801200,-9.901959,0.264825,-0.136298,0.013592,0.064446,0.050702
1765407757.801700,-9.901959,0.264825,-0.136298,0.013592,0.067806,0.050702
1765407757.806199,-10.093256,0.509326,0.274988,0.012981,0.064904,0.055283
1765407757.808189,-10.133906,0.231946,0.230751,0.012981,0.063988,0.055283
1765407757.811209,-10.092658,0.051411,0.077714,0.011912,0.067653,0.058185
1765407757.813162,-9.913317,0.055595,-0.101626,0.015119,0.067653,0.049633
1765407757.816240,-9.947392,0.346724,-0.022716,0.011606,0.065057,0.045662
1765407757.818190,-9.699903,0.492587,-0.271401,0.013134,0.065821,0.052534
1765407757.821214,-9.689142,0.389766,-0.289335,0.012217,0.062461,0.058796
1765407757.822205,-9.901362,0.142276,-0.023912,0.013286,0.063072,0.060781
1765407757.824174,-10.022118,0.076518,0.065160,0.016952,0.062156,0.054062
1765407757.828260,-9.851147,0.316236,-0.084290,0.016035,0.070097,0.047189
1765407757.831266,-9.642514,0.587040,-0.236131,0.016799,0.063072,0.050091
1765407757.833262,-9.684361,0.493185,-0.164993,0.018021,0.063072,0.060628
1765407757.836223,-10.004781,0.319225,0.035868,0.014203,0.057269,0.058338
1765407757.838237,-10.082495,0.200861,0.139885,0.014203,0.071166,0.050855
1765407757.841191,-9.891200,0.441176,-0.040650,0.015272,0.076816,0.046426
1765407757.843298,-9.758488,0.585844,-0.074127,0.008858,0.071624,0.054367
1765407757.846285,-9.957555,0.431612,-0.065160,0.009010,0.059865,0.056810
1765407757.848305,-9.887015,0.074725,-0.132712,0.009774,0.062003,0.054825
1765407757.851302,-9.665230,0.169775,-0.498565,0.013897,0.067653,0.047342
1765407757.853265,-9.681969,0.500956,-0.371832,0.008247,0.074831,0.040012
1765407757.856263,-9.879243,0.488403,0.035270,0.003818,0.071471,0.051160
1765407757.858246,-9.973696,0.337159,-0.063367,0.011301,0.071471,0.057727
1765407757.861264,-9.973696,0.337159,-0.063367,0.011301,0.074067,0.057727
1765407757.863257,-9.831419,0.175753,-0.154232,0.008705,0.078343,0.050702
1765407757.866239,-9.813485,0.203252,-0.141679,0.011912,0.074526,0.052840
1765407757.868202,-10.034670,0.402319,0.104615,0.015119,0.068570,0.047953
1765407757.869235,-10.080702,0.418460,0.017336,0.007789,0.076053,0.048564
1765407757.873223,-10.013150,0.393352,-0.205643,0.012370,0.078802,0.055741
1765407757.876202,-9.736967,0.063965,-0.325203,0.012828,0.080481,0.054978
1765407757.878178,-10.035867,0.304280,0.131516,0.013592,0.075442,0.045815
1765407757.881168,-10.222381,0.382592,0.423242,0.011606,0.078802,0.047342
1765407757.883191,-9.902557,0.312052,-0.261836,0.015577,0.075900,0.055741
1765407757.886164,-9.626971,0.347920,-0.588235,0.018631,0.066890,0.050244
1765407757.888201,-9.912720,0.378407,-0.047824,0.014203,0.071471,0.044288
1765407757.891221,-10.029889,0.316834,0.112984,0.012065,0.075442,0.057421
1765407757.893245,-9.946198,0.196078,-0.086681,0.011301,0.068111,0.053145
1765407757.896252,-10.005977,0.567312,-0.100430,0.010079,0.068111,0.043982
1765407757.898255,-9.885221,0.351506,-0.241511,0.009468,0.077122,0.056200
1765407757.901218,-9.781204,0.086681,-0.367049,0.014508,0.067348,0.060476
1765407757.903171,-9.903752,0.286944,-0.178742,0.014050,0.068875,0.045204
1765407757.906217,-10.225968,0.457915,0.340148,0.011606,0.078496,0.048106
1765407757.908235,-9.970706,0.324605,-0.141081,0.017715,0.076969,0.058490
1765407757.911231,-9.680176,0.162004,-0.583453,0.020769,0.066890,0.061545
1765407757.913223,-9.678980,0.015543,-0.444763,0.014050,0.072998,0.049022
1765407757.916233,-9.849353,0.222979,-0.150646,0.017562,0.072998,0.046731
1765407757.918206,-9.958152,0.475251,-0.101626,0.020006,0.077427,0.046273
1765407757.921230,-9.842777,0.614538,-0.222382,0.015577,0.077274,0.049786
1765407757.923240,-9.941415,0.444763,-0.203850,0.015577,0.081856,0.059407
1765407757.927681,-9.982065,0.072932,-0.067551,0.017715,0.068417,0.064904
1765407757.928264,-10.002390,0.191296,0.035868,0.011301,0.068417,0.049327
1765407757.931273,-10.019128,0.678503,-0.083692,0.007483,0.080940,0.042913
1765407757.933290,-9.716043,0.543400,-0.548780,0.014355,0.078649,0.057879
1765407757.934235,-9.655068,0.243902,-0.467480,0.016952,0.068417,0.064904
1765407757.938220,-10.231946,0.266619,0.148254,0.015119,0.086743,0.049175
1765407757.941249,-10.166186,0.492587,0.182927,0.013134,0.086743,0.050396
1765407757.943220,-9.753705,0.387374,-0.546389,0.014203,0.081703,0.059712
1765407757.946199,-9.533715,0.328790,-0.674318,0.010385,0.073609,0.054214
1765407757.948259,-9.805116,0.185318,-0.118962,0.011301,0.076816,0.054214
1765407757.949256,-9.928861,0.227164,0.076518,0.020311,0.078038,0.057421
1765407757.953240,-9.854136,0.451937,-0.119560,0.017257,0.078038,0.049327
1765407757.956216,-10.036465,0.533238,-0.008369,0.012523,0.081245,0.051924
1765407757.958214,-9.804518,0.240913,-0.438785,0.020617,0.075442,0.069486
1765407757.961211,-9.780606,0.044237,-0.211621,0.017104,0.069180,0.060323
1765407757.963217,-9.937828,0.383788,-0.064562,0.007178,0.079412,0.044440
1765407757.966238,-10.115973,0.589431,-0.015543,0.014050,0.080176,0.051924
1765407757.967245,-9.727402,0.408895,-0.506934,0.019242,0.072998,0.063377
1765407757.971247,-9.864299,0.525466,-0.294118,0.015272,0.074067,0.056658
1765407757.973223,-10.008368,0.383788,0.199665,0.017562,0.090713,0.057269
1765407757.974228,-10.008368,0.383788,0.199665,0.017562,0.085216,0.057269
1765407757.978188,-9.879841,0.380201,-0.233142,0.017715,0.069486,0.054672
1765407757.981171,-9.879841,0.380201,-0.233142,0.017715,0.077885,0.054672
1765407757.983203,-9.730989,0.309063,-0.428025,0.020769,0.080176,0.062308
1765407757.986178,-9.531323,0.359876,-0.590029,0.021991,0.080176,0.055741
1765407757.988213,-9.531323,0.359876,-0.590029,0.021991,0.081245,0.055741
1765407757.989184,-10.034073,0.676710,0.004185,0.021380,0.089186,0.061850
1765407757.993166,-9.820659,0.365854,-0.252272,0.012828,0.081551,0.065210
1765407757.996203,-9.753705,0.344333,-0.315638,0.007483,0.087201,0.058185
1765407757.998242,-9.673599,0.235533,-0.313247,0.013439,0.087201,0.055741
1765407757.999190,-9.606049,0.334768,-0.459110,0.016341,0.082009,0.058948
1765407758.003190,-9.780008,0.620516,-0.370038,0.012370,0.079871,0.053756
1765407758.006204,-10.107603,0.447154,0.123147,0.010690,0.087354,0.058185
1765407758.008202,-9.696316,0.194883,-0.461502,0.016035,0.090103,0.063988
1765407758.010401,-9.765661,0.310258,-0.458513,0.016341,0.081092,0.055741
1765407758.013280,-9.970109,0.382592,0.001196,0.013592,0.088270,0.051160
1765407758.016273,-10.121950,0.361071,0.073529,0.021075,0.092088,0.058643
1765407758.018238,-9.888808,0.260641,-0.242707,0.022602,0.092088,0.060018
1765407758.019284,-9.855330,0.462099,-0.222979,0.022602,0.090103,0.060018
1765407758.023266,-9.980869,0.618125,-0.108800,0.016188,0.091019,0.059254
1765407758.026222,-9.983858,0.345528,-0.126734,0.014661,0.081703,0.065515
1765407758.028183,-9.895982,0.233142,-0.298900,0.016952,0.081856,0.059254
1765407758.031260,-9.600669,0.338355,-0.541607,0.014508,0.089644,0.054672
1765407758.033299,-9.600669,0.338355,-0.541607,0.014508,0.089339,0.054672
1765407758.036192,-9.924676,0.381396,-0.407102,0.020617,0.084299,0.062156
1765407758.038193,-10.267216,0.340746,0.127929,0.020006,0.090255,0.060018
1765407758.041941,-9.960544,0.389766,-0.161406,0.019395,0.091935,0.057574
1765407758.043267,-9.876254,0.411884,-0.237924,0.015577,0.091935,0.058185
1765407758.046252,-9.876254,0.411884,-0.237924,0.015577,0.081551,0.058185
1765407758.048253,-10.111190,0.225968,-0.213415,0.022755,0.082314,0.056352
1765407758.049283,-9.991630,0.456719,-0.258250,0.024587,0.096822,0.051771
1765407758.053260,-9.693925,0.713773,-0.432807,0.019853,0.093157,0.051007
1765407758.056255,-9.813485,0.732305,-0.344333,0.013134,0.093157,0.062614
1765407758.058312,-9.935436,0.339550,-0.260641,0.012981,0.086437,0.068111
1765407758.061174,-10.182925,0.325801,0.034075,0.017562,0.082161,0.057727
1765407758.063239,-10.001194,0.467480,-0.350909,0.012217,0.090713,0.050855
1765407758.064249,-9.775226,0.502152,-0.581062,0.016799,0.091935,0.057727
1765407758.068192,-9.806311,0.627690,-0.628886,0.026573,0.083994,0.063835
1765407758.071172,-10.248685,0.524271,0.092061,0.008094,0.083230,0.061239
1765407758.073172,-10.363461,0.343137,0.106408,0.008399,0.097738,0.061545
1765407758.076228,-9.979075,0.229555,-0.382592,0.017715,0.097738,0.066584
1765407758.077278,-9.979075,0.229555,-0.382592,0.017715,0.089950,0.066584
1765407758.081249,-10.049019,0.208632,-0.266619,0.012828,0.088423,0.057727
1765407758.083211,-10.094451,0.386179,-0.127929,0.023366,0.091019,0.057269
1765407758.086223,-9.949782,0.535629,-0.390961,0.022907,0.088728,0.058490
1765407758.088239,-9.940218,0.557150,-0.307269,0.011606,0.091172,0.059254
1765407758.091235,-9.864896,0.402917,-0.410689,0.015882,0.094531,0.067959
1765407758.093255,-9.815877,0.269010,-0.504543,0.018479,0.086743,0.069180
1765407758.096231,-9.829028,0.303682,-0.516499,0.014050,0.081703,0.057574
1765407758.098237,-9.851745,0.497370,-0.407102,0.017257,0.090561,0.052229
1765407758.101291,-9.614418,0.549378,-0.604376,0.020159,0.090561,0.064141
1765407758.103231,-9.663438,0.388570,-0.653993,0.019700,0.084605,0.065973
1765407758.106174,-9.986848,0.428025,-0.285151,0.016341,0.081856,0.058796
1765407758.108209,-10.180533,0.451937,-0.132712,0.018631,0.089797,0.061697
1765407758.109291,-9.869678,0.263032,-0.533835,0.023213,0.094226,0.067959
1765407758.113213,-9.706479,0.280966,-0.622908,0.023824,0.094226,0.060781
1765407758.116231,-10.062768,0.530846,-0.028097,0.019395,0.094990,0.053298
1765407758.117703,-10.204447,0.543998,0.120756,0.018326,0.090713,0.063377
1765407758.120355,-10.119559,0.436394,-0.306074,0.019548,0.078802,0.067653
1765407758.123275,-9.939621,0.380799,-0.553563,0.019700,0.081398,0.063988
1765407758.124247,-9.691534,0.387374,-0.517695,0.019548,0.092852,0.062156
1765407758.128267,-9.797344,0.302487,-0.307269,0.024893,0.082161,0.063072
1765407758.129291,-9.940218,0.273792,-0.371832,0.021991,0.076816,0.061392
1765407758.133307,-9.864896,0.350311,-0.389766,0.023518,0.081703,0.058948
1765407758.136204,-9.696316,0.594811,-0.593018,0.022907,0.092393,0.057879
1765407758.138194,-9.895385,0.630081,-0.286944,0.024129,0.088423,0.064904
1765407758.141215,-9.949782,0.377810,-0.106408,0.026573,0.084605,0.066890
1765407758.142224,-9.942013,0.346126,-0.212817,0.028558,0.084605,0.065363
1765407758.145344,-9.702294,0.331181,-0.536824,0.023976,0.091630,0.063530
1765407758.148258,-9.456598,0.333572,-0.697035,0.022755,0.086285,0.059712
1765407758.151222,-9.653275,0.528455,-0.564323,0.031154,0.082620,0.060628
1765407758.153302,-9.922284,0.508130,-0.364658,0.026725,0.091477,0.062766
1765407758.154256,-9.776422,0.414873,-0.351506,0.025198,0.099418,0.065668
1765407758.158202,-9.579147,0.301889,-0.504543,0.031154,0.099418,0.071471
1765407758.161210,-9.579147,0.301889,-0.504543,0.031154,0.089339,0.071471
1765407758.162222,-9.846365,0.315638,-0.022119,0.028863,0.092241,0.062003
1765407758.166193,-9.868484,0.441176,-0.290531,0.038026,0.087201,0.065057
1765407758.168216,-9.548061,0.479436,-0.794476,0.032223,0.086132,0.060323
1765407758.171251,-9.636537,0.726925,-0.615734,0.030696,0.086132,0.060476
1765407758.173225,-9.797942,0.537422,-0.478240,0.031918,0.090713,0.071013
1765407758.176303,-9.866092,0.431014,-0.364658,0.030238,0.086896,0.071777
1765407758.178250,-9.941415,0.524271,-0.291726,0.026420,0.093615,0.059559
1765407758.180393,-9.608439,0.514108,-0.642037,0.025962,0.099418,0.067653
1765407758.183239,-9.246771,0.284553,-1.064084,0.030849,0.093157,0.072388
1765407758.186202,-9.587517,0.511717,-0.606767,0.030849,0.091783,0.059407
1765407758.188254,-10.092059,0.668340,0.019130,0.028405,0.103542,0.061392
1765407758.191209,-9.869080,0.459110,-0.227164,0.032834,0.103542,0.075747
1765407758.193229,-9.869080,0.459110,-0.227164,0.032834,0.094073,0.075747
1765407758.197164,-9.747727,0.587040,-0.543998,0.029780,0.096211,0.056200
1765407758.198207,-9.861309,0.615734,-0.418460,0.028711,0.100640,0.064294
1765407758.201203,-9.884026,0.637255,-0.510521,0.035736,0.098960,0.069639
1765407758.203271,-9.873264,0.688666,-0.459110,0.031612,0.098960,0.056352
1765407758.206238,-9.873264,0.688666,-0.459110,0.031612,0.111330,0.056352
1765407758.208258,-9.758488,0.631277,-0.652798,0.027031,0.105374,0.072082
1765407758.212281,-9.817670,0.476447,-0.566714,0.027947,0.092393,0.065515
1765407758.213292,-10.141079,0.587040,-0.124342,0.027642,0.103389,0.053909
1765407758.216275,-10.109993,0.714969,-0.109995,0.032987,0.113010,0.056505
1765407758.218209,-10.109993,0.714969,-0.109995,0.032987,0.105222,0.056505
1765407758.221283,-9.800333,0.679101,-0.633668,0.027794,0.097738,0.059407
1765407758.223243,-10.008368,0.768771,-0.292922,0.030696,0.097738,0.060018
1765407758.226332,-10.011955,0.682688,-0.278575,0.032834,0.098502,0.067501
1765407758.228262,-9.715446,0.560736,-0.589431,0.025656,0.098502,0.061239
1765407758.231285,-9.617407,0.658776,-0.824964,0.021228,0.099724,0.055894
1765407758.231785,-9.616212,0.689861,-0.766977,0.024129,0.097586,0.057727
1765407758.236236,-9.705881,0.870995,-0.590626,0.027642,0.092393,0.060476
1765407758.238336,-9.985053,0.782520,-0.324008,0.019242,0.099418,0.054062
1765407758.241213,-9.856527,0.567910,-0.534433,0.021380,0.101862,0.061697
1765407758.243247,-9.564202,0.460306,-0.962458,0.023213,0.097433,0.056047
1765407758.246208,-9.649688,0.632472,-0.740076,0.019090,0.099876,0.050549
1765407758.248248,-10.071735,0.674318,-0.150646,0.022602,0.108734,0.053145
1765407758.251347,-9.973098,0.714969,-0.249880,0.022602,0.107512,0.053145
1765407758.253259,-9.917501,0.724534,-0.371832,0.023060,0.099418,0.055741
1765407758.256237,-9.863102,0.781325,-0.465088,0.020159,0.107054,0.058796
1765407758.258236,-9.705284,0.381396,-0.594213,0.016493,0.103084,0.070860
1765407758.261285,-9.776422,0.234935,-0.635461,0.018479,0.091783,0.062461
1765407758.263321,-10.119559,0.538618,-0.273792,0.018479,0.098197,0.062461
1765407758.266304,-10.027497,0.551172,-0.340746,0.014355,0.103389,0.054520
1765407758.268258,-9.564202,0.505739,-0.881157,0.024129,0.104153,0.061850
1765407758.271661,-9.568387,0.718556,-0.763391,0.020769,0.105222,0.052534
1765407758.273255,-10.019128,0.655189,-0.071736,0.015730,0.110261,0.057269
1765407758.276319,-9.917501,0.406504,-0.343137,0.019853,0.102320,0.067806
1765407758.278249,-9.744739,0.404711,-0.754424,0.019090,0.098044,0.056047
1765407758.281290,-9.575562,0.600191,-0.807628,0.021991,0.107054,0.051313
1765407758.283283,-9.701099,0.700622,-0.731707,0.025809,0.106138,0.063072
1765407758.286227,-9.996411,0.426829,-0.417264,0.020159,0.097128,0.065668
1765407758.288221,-10.241510,0.500956,-0.032879,0.018173,0.101862,0.055436
1765407758.291228,-10.013150,0.605571,-0.338355,0.016493,0.121104,0.055741
1765407758.293197,-9.620994,0.417862,-0.854854,0.016646,0.111483,0.065057
1765407758.296191,-9.687947,0.355093,-0.834529,0.018326,0.101098,0.059101
1765407758.298182,-10.139884,0.342539,-0.184122,0.017562,0.107970,0.054214
1765407758.301193,-9.930654,0.482425,-0.424438,0.024740,0.120799,0.060781
1765407758.303218,-9.540888,0.589431,-0.826757,0.026114,0.119119,0.057116
1765407758.306218,-9.540888,0.589431,-0.826757,0.026114,0.112705,0.057116
1765407758.308210,-9.934240,0.541607,-0.516499,0.026420,0.108123,0.064446
1765407758.311230,-10.003586,0.510521,-0.301291,0.021838,0.112399,0.058185
1765407758.313266,-9.885221,0.606169,-0.298900,0.016799,0.116370,0.060628
1765407758.316221,-9.802725,0.600191,-0.355691,0.016646,0.116523,0.062461
1765407758.318225,-9.832614,0.545194,-0.522477,0.018173,0.104000,0.064294
1765407758.321225,-10.016738,0.527260,-0.619321,0.021380,0.098502,0.063225
1765407758.323225,-10.153036,0.344333,-0.400526,0.024587,0.106291,0.063377
1765407758.326309,-9.784791,0.206839,-0.646820,0.031307,0.111483,0.067959
1765407758.328272,-9.738162,0.368245,-0.579866,0.026878,0.114079,0.056047
1765407758.331285,-9.891200,0.383190,-0.644428,0.025962,0.112399,0.059407
1765407758.333285,-9.893590,0.328790,-0.743065,0.031918,0.106291,0.063225
1765407758.336340,-9.809898,0.557150,-0.752032,0.030543,0.122326,0.053756
1765407758.339679,-9.846962,0.700622,-0.489000,0.027642,0.122326,0.059865
1765407758.341263,-9.671208,0.459110,-0.731707,0.028558,0.118202,0.069028
1765407758.343320,-9.821257,0.445959,-0.714969,0.029932,0.107665,0.064141
1765407758.346247,-10.082495,0.571497,-0.389766,0.027642,0.108429,0.058948
1765407758.348231,-10.075322,0.560736,-0.340148,0.029780,0.105832,0.062156
1765407758.351291,-9.762672,0.587040,-0.927188,0.031765,0.105832,0.065515
1765407758.353303,-9.883428,0.615734,-0.850669,0.028863,0.098197,0.058338
1765407758.356239,-10.095646,0.638450,-0.528455,0.035430,0.115301,0.065210
1765407758.358198,-10.095646,0.638450,-0.528455,0.035430,0.116370,0.065210
1765407758.360343,-9.801530,0.329986,-0.758010,0.032681,0.116064,0.060781
1765407758.361207,-9.980869,0.627690,-0.613343,0.030085,0.116064,0.057574
1765407758.366242,-10.050214,0.536227,-0.491392,0.032070,0.109039,0.068111
1765407758.368228,-9.974891,0.536824,-0.595409,0.031765,0.101251,0.064141
1765407758.371223,-10.081299,0.743663,-0.567312,0.030696,0.112857,0.059101
1765407758.373219,-10.014346,0.719153,-0.493783,0.038485,0.108581,0.069944
1765407758.374229,-10.017933,0.499761,-0.392157,0.036957,0.108581,0.074678
1765407758.378218,-10.192491,0.450741,-0.423242,0.036805,0.099876,0.063683
1765407758.381229,-9.946198,0.644428,-0.674318,0.037263,0.110567,0.065821
1765407758.384226,-9.557627,0.577475,-1.139407,0.034819,0.113316,0.071013
1765407758.386205,-9.826636,0.600191,-0.665949,0.035277,0.108276,0.069944
1765407758.388230,-10.167382,0.615734,-0.206839,0.035736,0.108276,0.067653
1765407758.391236,-10.104613,0.553563,-0.460904,0.037568,0.109192,0.071471
1765407758.393270,-9.649688,0.407102,-1.025825,0.032223,0.100640,0.068111
1765407758.396296,-9.744141,0.570301,-0.896700,0.029474,0.100640,0.061545
1765407758.398223,-10.007172,0.588833,-0.413678,0.038943,0.106138,0.064904
1765407758.401298,-9.889405,0.705404,-0.551172,0.041386,0.108734,0.067959
1765407758.403283,-9.748923,0.795074,-0.792683,0.031612,0.110261,0.062766
1765407758.406217,-9.753705,0.885940,-0.740076,0.033445,0.104458,0.067959
1765407758.408194,-10.023911,0.628288,-0.494978,0.036652,0.104458,0.074678
1765407758.411263,-9.887612,0.463295,-0.509923,0.034361,0.105222,0.071929
1765407758.413259,-9.666426,0.650406,-0.873386,0.028253,0.111177,0.063683
1765407758.416289,-9.453012,0.648613,-0.968436,0.023824,0.110719,0.067501
1765407758.418300,-9.613222,0.726925,-0.954089,0.030085,0.107512,0.070250
1765407758.421233,-9.954566,0.802248,-0.380201,0.029169,0.110872,0.064904
1765407758.422237,-9.955761,0.725131,-0.335964,0.031918,0.114995,0.070555
1765407758.426233,-9.562408,0.542802,-0.918221,0.032834,0.102931,0.074067
1765407758.428261,-9.566593,0.633668,-1.113701,0.033903,0.102931,0.062614
1765407758.429344,-9.804518,0.744261,-0.650406,0.034819,0.113468,0.060476
1765407758.433657,-9.958152,0.781325,-0.419058,0.039859,0.118966,0.068264
1765407758.435727,-9.866092,0.788498,-0.552367,0.037568,0.112857,0.063225
1765407758.438241,-9.991630,0.921808,-0.432807,0.026420,0.115301,0.058796
1765407758.441296,-9.780008,0.804639,-0.810617,0.029474,0.119577,0.071013
1765407758.443313,-9.754900,0.611549,-0.813606,0.028711,0.109345,0.073304
1765407758.446226,-9.842777,0.564921,-0.594213,0.023671,0.110414,0.063377
1765407758.448308,-9.841581,0.767575,-0.752630,0.028253,0.116523,0.065057
1765407758.451295,-9.508607,0.614538,-1.192013,0.030543,0.115606,0.069028
1765407758.453334,-9.549257,0.732903,-0.997130,0.036652,0.113774,0.065363
1765407758.456304,-9.990434,0.775944,-0.279770,0.034361,0.122631,0.066126
1765407758.458217,-10.012553,0.526064,-0.512912,0.038332,0.109956,0.074831
1765407758.461231,-9.747129,0.383788,-1.016260,0.035277,0.109956,0.067806
1765407758.462251,-9.745336,0.593018,-0.975610,0.033139,0.130572,0.055283
1765407758.466265,-9.863700,0.882353,-0.471066,0.040623,0.130572,0.063988
1765407758.468303,-9.850550,0.787900,-0.395744,0.033750,0.117286,0.068417
1765407758.471699,-10.047822,0.868006,-0.481827,0.027184,0.109345,0.060476
1765407758.473263,-10.135101,0.896700,-0.680894,0.031460,0.113316,0.063835
1765407758.476266,-9.940218,0.625299,-0.914036,0.033598,0.117133,0.071166
1765407758.478242,-9.785389,0.613941,-0.828551,0.033445,0.116675,0.062156
1765407758.481246,-10.013150,0.842898,-0.517695,0.026267,0.117439,0.050244
1765407758.483275,-9.928263,1.005500,-0.839909,0.032834,0.117592,0.059101
1765407758.486234,-9.586321,0.986370,-1.205165,0.023518,0.116675,0.063225
1765407758.488289,-9.753705,1.024629,-0.930775,0.018479,0.123242,0.059101
1765407758.491296,-9.819464,0.695839,-0.524868,0.020922,0.132100,0.071166
1765407758.493287,-9.760879,0.324008,-0.779531,0.024282,0.119882,0.070250
1765407758.496230,-9.799137,0.579866,-0.938546,0.024893,0.113010,0.051618
1765407758.498274,-9.945600,0.870995,-0.619321,0.023060,0.123700,0.050855
1765407758.501259,-9.945600,0.870995,-0.835127,0.023060,0.127060,0.050855
1765407758.503292,-9.962935,0.863223,-0.565519,0.025504,0.119119,0.062614
1765407758.506247,-10.160210,0.727523,-0.370636,0.020617,0.122937,0.057574
1765407758.508257,-9.998802,0.662362,-0.716164,0.022297,0.121868,0.066584
1765407758.509256,-9.727402,0.543998,-1.077236,0.024587,0.126907,0.062003
1765407758.513220,-9.854136,0.791487,-0.573290,0.018784,0.124006,0.053756
1765407758.516285,-10.084887,0.765184,-0.251076,0.020159,0.125533,0.061087
1765407758.518210,-9.770443,0.588833,-0.807628,0.027336,0.119119,0.066432
1765407758.521226,-9.650884,0.693448,-1.118484,0.023824,0.125227,0.054825
1765407758.522318,-9.705284,0.651602,-0.888331,0.026114,0.125227,0.056200
1765407758.526268,-9.681969,0.492587,-0.901482,0.030391,0.119730,0.061087
1765407758.528255,-9.810495,0.587040,-0.821377,0.029169,0.114995,0.048869
1765407758.531242,-9.810495,0.587040,-0.821377,0.029169,0.121104,0.048869
1765407758.533320,-9.682567,0.894907,-0.989957,0.025809,0.130114,0.054672
1765407758.536271,-9.642514,0.870397,-1.007293,0.025351,0.126602,0.061087
1765407758.537289,-10.049617,0.839311,-0.291726,0.022907,0.126296,0.056505
1765407758.541274,-10.059181,0.628288,-0.551172,0.023824,0.136070,0.061697
1765407758.542246,-9.710664,0.310856,-0.866212,0.030085,0.125838,0.064446
1765407758.546257,-9.548061,0.545194,-1.052128,0.027184,0.124311,0.051771
1765407758.547284,-9.946198,0.653993,-0.535629,0.027794,0.124311,0.048564
1765407758.551241,-9.865494,0.558345,-0.781922,0.036652,0.125838,0.062156
1765407758.553229,-9.616212,0.612147,-1.194404,0.038637,0.118661,0.058948
1765407758.556217,-9.685556,0.681492,-0.934959,0.036041,0.129198,0.051771
1765407758.558270,-9.722619,0.609756,-1.053324,0.036499,0.130114,0.063988
1765407758.561238,-9.779410,0.448350,-1.065280,0.037874,0.122020,0.059712
1765407758.563312,-9.967718,0.689861,-0.642037,0.031765,0.129045,0.049327
1765407758.566275,-10.115973,0.819584,-0.532042,0.032376,0.131794,0.056352
1765407758.568249,-9.778812,0.744859,-1.095170,0.034056,0.129198,0.062614
1765407758.571274,-9.775226,0.688068,-1.175275,0.029322,0.129503,0.057269
1765407758.572304,-10.170969,0.692252,-0.560736,0.036346,0.134543,0.063683
1765407758.576252,-10.170969,0.692252,-0.560736,0.036346,0.136834,0.063683
1765407758.578247,-9.721423,0.612147,-1.053921,0.039554,0.135918,0.056047
1765407758.579618,-9.631754,0.745457,-1.274510,0.029780,0.135918,0.055589
1765407758.583296,-9.631754,0.745457,-1.274510,0.029780,0.126144,0.055589
1765407758.586230,-9.893590,0.655189,-0.884744,0.040775,0.126602,0.061392
1765407758.588257,-10.233739,0.821975,-0.377810,0.034514,0.135918,0.056963
1765407758.591256,-9.977283,0.766977,-0.808226,0.036499,0.119730,0.068570
1765407758.592317,-9.722619,0.504543,-1.110713,0.040012,0.119730,0.072693
1765407758.596249,-10.022118,0.557150,-0.988761,0.038179,0.115301,0.059712
1765407758.598252,-10.359874,0.790889,-0.575084,0.039095,0.125075,0.055436
1765407758.601211,-9.992825,0.882353,-0.926590,0.045662,0.136834,0.067348
1765407758.603222,-9.595885,0.781922,-1.389287,0.038026,0.128587,0.064599
1765407758.606233,-9.922284,0.805834,-0.854256,0.033139,0.123089,0.058643
1765407758.608277,-10.180533,0.738881,-0.613343,0.038943,0.130114,0.067959
1765407758.611266,-10.124342,0.615734,-0.665949,0.037263,0.124617,0.064294
1765407758.613244,-9.956359,0.773553,-1.114299,0.039859,0.124617,0.054978
1765407758.616370,-9.859515,0.894309,-1.111908,0.038332,0.127365,0.061239
1765407758.618232,-9.848158,0.919416,-1.095170,0.047037,0.119119,0.067806
1765407758.621302,-9.953370,0.841702,-0.801052,0.047800,0.122937,0.064599
1765407758.623267,-9.937828,0.819584,-0.829746,0.042913,0.126449,0.067959
1765407758.626268,-9.791367,0.766380,-1.067671,0.041692,0.126449,0.069180
1765407758.628305,-9.791367,0.766380,-1.067671,0.041692,0.120799,0.069180
1765407758.630285,-9.789574,0.787303,-0.960067,0.036346,0.117133,0.067653
1765407758.633293,-9.998802,0.593018,-0.566714,0.041539,0.123089,0.068570
1765407758.634300,-9.769248,0.703013,-1.153754,0.044899,0.125533,0.068417
1765407758.637254,-9.629362,0.477044,-1.103539,0.036957,0.122326,0.061392
1765407758.641310,-9.629362,0.477044,-1.103539,0.036957,0.126907,0.061392
1765407758.643305,-9.912122,0.808226,-0.665949,0.049786,0.124769,0.060018
1765407758.646561,-9.933643,0.824964,-0.724534,0.043219,0.128587,0.058796
1765407758.648358,-9.927068,0.952893,-0.842898,0.042150,0.130572,0.062919
1765407758.651302,-9.606049,0.679101,-1.077833,0.036194,0.130572,0.063683
1765407758.653303,-9.555235,0.814204,-1.098756,0.036194,0.124769,0.056963
1765407758.656218,-9.701099,0.895504,-0.970827,0.036194,0.128587,0.054367
1765407758.658252,-9.754900,0.964849,-0.889526,0.036346,0.130420,0.062003
1765407758.659286,-9.691534,0.835724,-0.845289,0.037263,0.130267,0.065973
1765407758.663379,-9.581538,0.806432,-0.961860,0.036499,0.132100,0.061087
1765407758.666245,-9.835006,0.853658,-0.833931,0.040164,0.122784,0.062461
1765407758.668245,-9.832614,0.664754,-0.973218,0.043066,0.124158,0.067653
1765407758.671289,-9.815279,0.758608,-1.089192,0.039859,0.122326,0.062766
1765407758.673235,-9.601266,0.795672,-1.128646,0.039706,0.132252,0.060323
1765407758.676301,-9.759683,0.866810,-0.940339,0.034514,0.130114,0.062919
1765407758.678290,-9.654470,0.777140,-0.989957,0.038026,0.129809,0.062766
1765407758.681305,-9.717837,0.804639,-1.062888,0.035583,0.135001,0.063530
1765407758.682274,-9.412958,0.665949,-1.496891,0.032070,0.135001,0.063683
1765407758.686216,-9.495455,0.743663,-1.375538,0.040470,0.132558,0.059101
1765407758.688286,-9.825441,0.961262,-0.936155,0.039248,0.135612,0.058032
1765407758.691331,-10.032877,0.885940,-0.673123,0.039095,0.143706,0.064446
1765407758.693303,-9.743543,0.732903,-1.123864,0.037415,0.145386,0.069791
1765407758.696229,-9.628765,0.492587,-1.241033,0.033139,0.138208,0.064752
1765407758.698229,-9.791367,0.571497,-0.801052,0.037263,0.136834,0.061545
1765407758.701251,-9.842180,0.528455,-0.991152,0.043677,0.134849,0.064599
1765407758.703256,-9.784791,0.582257,-1.050932,0.049327,0.133321,0.060018
1765407758.706294,-9.711859,0.612147,-1.208154,0.041844,0.138056,0.052687
1765407758.708330,-9.796746,1.018651,-0.868006,0.051160,0.138056,0.058643
1765407758.711265,-9.680773,0.794476,-1.114897,0.047647,0.139277,0.064752
1765407758.712311,-9.809898,0.768771,-1.097561,0.048106,0.134390,0.067348
1765407758.716325,-9.679578,0.596604,-1.215925,0.041386,0.141415,0.061850
1765407758.718288,-9.701099,0.658776,-1.064084,0.042761,0.139277,0.061850
1765407758.721299,-9.714250,0.669536,-1.076040,0.040928,0.143859,0.058032
1765407758.723303,-9.943208,0.854854,-0.770564,0.046273,0.140041,0.059559
1765407758.726297,-9.830223,0.836322,-0.885940,0.045509,0.140499,0.063683
1765407758.728314,-9.831419,0.581062,-1.005500,0.046426,0.127976,0.061697
