time,acc_x_g,acc_y_g,acc_z_g,gyro_x_rad_s,gyro_y_rad_s,gyro_z_rad_s
1765409421.612296,-7.112625,-3.790052,5.951696,-0.010385,-0.006872,0.001374
1765409421.612546,-7.161046,-3.764945,6.007292,-0.008399,-0.005498,0.001069
1765409421.612796,-7.106049,-3.757771,5.877570,-0.007178,-0.003207,-0.000916
1765409421.613046,-7.147297,-3.749402,5.913437,-0.007025,-0.001680,0.000153
1765409421.613346,-7.190339,-3.806193,5.970827,-0.008094,-0.004276,-0.000764
1765409421.613596,-7.104853,-3.779889,5.917025,-0.008858,-0.006109,-0.000458
1765409421.613846,-7.031921,-3.719512,5.823768,-0.009316,-0.008094,-0.000458
1765409421.614096,-7.076756,-3.762553,5.911047,-0.009010,-0.007025,0.000611
1765409421.614295,-7.161644,-3.803204,6.034791,-0.010232,-0.007636,0.000611
1765409421.614495,-7.212457,-3.809182,5.891917,-0.008247,-0.004581,0.000305
1765409421.614695,-7.178383,-3.807986,5.848876,-0.005956,-0.004581,0.001222
1765409421.614895,-7.168220,-3.794834,5.835723,-0.011301,-0.008705,0.004581
1765409421.615095,-7.289573,-3.890482,6.047943,-0.011606,-0.006261,0.005345
1765409421.615311,-7.270444,-4.169057,5.980392,-0.012523,-0.005498,0.004581
1765409421.615561,-7.130559,-4.426709,5.931970,-0.013134,-0.008399,0.001985
1765409421.615811,-7.191535,-4.258130,6.001912,-0.013286,-0.008705,-0.006567
1765409421.616061,-7.236967,-4.318507,6.225490,-0.009163,-0.009010,-0.001680
1765409421.616248,-7.025346,-4.580344,5.776541,-0.008705,-0.011912,-0.006872
1765409421.616498,-7.025346,-4.580344,5.776541,-0.008705,-0.021075,-0.006872
1765409421.616748,-7.198708,-4.870875,6.052127,-0.001527,-0.010996,-0.023213
1765409421.616998,-7.402558,-4.943806,6.469392,0.004123,-0.011301,-0.031765
1765409421.617331,-7.507173,-4.981468,6.511237,0.005192,-0.016493,-0.037415
1765409421.617581,-8.083451,-4.723816,6.926111,0.001680,-0.029169,-0.044746
1765409421.617831,-7.722380,-4.641319,6.078430,0.007636,-0.034819,-0.036805
1765409421.618081,-6.903992,-4.796747,5.297704,0.005956,-0.028100,-0.037721
1765409421.618307,-7.113821,-5.062171,5.848876,0.011148,-0.028100,-0.036194
1765409421.618557,-7.393590,-5.028096,6.569822,0.017715,-0.027642,-0.035125
1765409421.618807,-7.370874,-4.850550,6.409612,0.011759,-0.030696,-0.043982
1765409421.619057,-7.342180,-4.783596,6.517216,0.011759,-0.041692,-0.038332
1765409421.619260,-7.125776,-5.167982,5.579865,0.016493,-0.049633,-0.030238
1765409421.619510,-7.355929,-5.300095,6.225490,0.015119,-0.056352,-0.036041
1765409421.619760,-7.412721,-5.163797,6.359397,0.018784,-0.044288,-0.036805
1765409421.620010,-6.891439,-5.248684,5.796269,0.020617,-0.064904,-0.027794
1765409421.620231,-7.103060,-5.029890,5.851267,0.018937,-0.064904,-0.031001
1765409421.620481,-7.103060,-5.029890,5.851267,0.018937,-0.045662,-0.031001
1765409421.620731,-7.287780,-5.516499,6.403036,0.026420,-0.051313,-0.003971
1765409421.620981,-7.287780,-5.516499,6.403036,0.026420,-0.060476,-0.003971
1765409421.621287,-7.294356,-5.274987,6.502869,0.025809,-0.065821,-0.003512
1765409421.621537,-7.017574,-5.448349,6.241033,0.031460,-0.065821,0.008552
1765409421.621787,-7.036106,-5.374820,6.260161,0.025656,-0.076205,0.001527
1765409421.622037,-7.174796,-4.999401,6.521998,0.032223,-0.060781,0.009468
1765409421.622276,-6.944643,-5.081898,6.352223,0.032376,-0.061697,0.036499
1765409421.622526,-6.868722,-5.184122,6.311573,0.029322,-0.074220,0.042455
1765409421.622776,-6.825083,-5.276781,6.042562,0.026725,-0.081092,0.051771
1765409421.623026,-6.958392,-5.331779,6.488521,0.033445,-0.079260,0.062766
1765409421.623295,-7.099473,-5.316833,6.853180,0.035430,-0.075136,0.069180
1765409421.623545,-6.895026,-5.080105,6.520802,0.023976,-0.079412,0.074984
1765409421.623795,-6.839430,-4.776422,5.963056,0.022297,-0.092546,0.090103
1765409421.624045,-7.106049,-5.217000,6.770085,0.029474,-0.087354,0.122326
1765409421.624262,-7.042084,-5.720946,7.140721,0.029932,-0.073457,0.128282
1765409421.624512,-6.954208,-5.829746,6.775465,0.023824,-0.098655,0.127213
1765409421.624762,-7.024150,-5.694643,6.704925,0.034972,-0.098655,0.125380
1765409421.625012,-6.798182,-5.308464,6.432328,0.044288,-0.081703,0.137139
1765409421.625345,-6.556671,-5.341941,6.659492,0.037568,-0.094684,0.148898
1765409421.625595,-6.646340,-4.888211,6.767097,0.032834,-0.097586,0.155771
1765409421.625845,-6.304996,-5.309659,6.351027,0.035583,-0.099571,0.180969
1765409421.626095,-5.907460,-5.648015,5.967239,0.036346,-0.101862,0.181580
1765409421.626270,-5.907460,-5.648015,5.967239,0.036346,-0.097891,0.181580
1765409421.626520,-6.337278,-5.419655,6.480152,0.040164,-0.097280,0.198684
1765409421.626770,-6.765901,-4.942610,6.969751,0.040928,-0.097280,0.197462
1765409421.627020,-6.417384,-5.122549,6.679818,0.043219,-0.092393,0.225104
1765409421.627323,-6.479554,-5.371831,6.978718,0.044440,-0.092393,0.232740
1765409421.627573,-6.479554,-5.371831,6.978718,0.044440,-0.099571,0.232740
1765409421.627823,-6.698946,-5.470468,7.325442,0.051924,-0.103694,0.245873
1765409421.628073,-6.368961,-5.295313,7.028933,0.055894,-0.103694,0.246026
1765409421.628364,-6.274509,-5.199665,7.173003,0.056200,-0.103389,0.263894
1765409421.628614,-6.600908,-5.130917,7.502988,0.062614,-0.117592,0.274126
1765409421.628864,-6.556671,-5.105212,6.958990,0.059254,-0.100793,0.283441
1765409421.629114,-5.961860,-5.523074,6.569822,0.065973,-0.102320,0.297033
1765409421.629266,-6.180056,-5.394547,6.297225,0.070555,-0.108429,0.295659
1765409421.629516,-8.017694,-5.211022,8.387135,0.076205,-0.127518,0.294437
1765409421.629766,-7.724771,-5.206241,8.721304,0.077580,-0.079107,0.300851
1765409421.630016,-6.328311,-5.182328,7.069583,0.081245,-0.078038,0.318566
1765409421.630265,-4.539693,-5.253467,5.246293,0.078038,-0.097433,0.323759
1765409421.630515,-4.674796,-5.280966,5.601386,0.091783,-0.112857,0.335518
1765409421.630765,-4.543878,-5.624701,5.619320,0.103847,-0.097280,0.344681
1765409421.631015,-5.404112,-5.559540,6.351625,0.102320,-0.090255,0.333991
1765409421.631268,-5.612147,-5.310855,6.578192,0.114232,-0.086437,0.340710
1765409421.631601,-6.869918,-5.254662,8.066713,0.131183,-0.078649,0.355676
1765409421.631935,-7.254901,-5.344930,8.287899,0.135001,-0.066432,0.360563
1765409421.632347,-7.930415,-5.204447,8.738641,0.133016,-0.044288,0.366672
1765409421.632597,-8.576039,-5.332974,9.331658,0.154396,-0.045509,0.380569
1765409421.632847,-7.868244,-5.477044,8.859396,0.159283,-0.028863,0.380569
1765409421.633097,-8.035628,-5.053802,9.117048,0.157298,-0.041539,0.373086
1765409421.633340,-7.773791,-4.771640,8.727880,0.173486,-0.041539,0.383165
1765409421.633590,-6.616451,-4.753706,7.638689,0.177151,-0.039554,0.388205
1765409421.633840,-5.484217,-4.416546,7.162840,0.174707,-0.020617,0.382096
1765409421.634090,-4.671209,-4.433285,6.480152,0.174249,-0.018784,0.401797
1765409421.634268,-5.233141,-4.216881,7.476087,0.179442,-0.010996,0.405767
1765409421.634518,-5.604973,-4.143950,7.394786,0.181732,-0.010996,0.403018
1765409421.634768,-5.511716,-4.168459,7.275226,0.175318,-0.010385,0.414472
1765409421.635018,-5.859635,-3.931731,7.484457,0.174249,-0.021380,0.409127
1765409421.635344,-5.719751,-3.821138,7.339788,0.173791,-0.005345,0.419359
1765409421.635594,-5.631875,-3.797226,7.258488,0.175624,0.026114,0.431882
1765409421.635844,-5.191295,-3.940100,6.853180,0.174555,0.043524,0.443183
1765409421.636094,-5.269607,-4.212099,7.412721,0.169973,0.046731,0.447764
1765409421.636324,-5.308464,-4.291008,6.950023,0.171500,0.062308,0.445779
1765409421.636574,-5.193687,-4.120038,6.574605,0.180969,0.071166,0.450971
1765409421.636824,-4.849952,-3.725490,6.566235,0.183565,0.087965,0.454026
1765409421.637074,-5.269009,-3.839072,7.103060,0.176998,0.109498,0.461814
1765409421.637301,-5.686872,-4.145145,8.032639,0.188452,0.111941,0.478002
1765409421.637551,-5.455523,-4.360951,7.691295,0.187536,0.122020,0.479835
1765409421.637801,-5.621114,-4.567192,7.633906,0.189368,0.133321,0.481820
1765409421.638051,-5.345528,-4.943208,7.486250,0.199600,0.134543,0.487012
1765409421.638281,-5.887135,-4.768053,7.399569,0.209679,0.124158,0.481667
1765409421.638531,-6.070061,-4.469153,7.831181,0.213956,0.149662,0.478766
1765409421.638781,-5.934361,-4.402199,8.195838,0.224798,0.142790,0.497397
1765409421.639031,-5.699426,-4.997011,7.632711,0.227395,0.142790,0.504117
1765409421.639314,-5.699426,-4.997011,7.632711,0.227395,0.135154,0.504117
1765409421.639564,-6.072453,-4.798541,7.879004,0.240375,0.154396,0.487776
1765409421.639814,-5.896699,-4.483500,7.486847,0.247400,0.161727,0.493579
1765409421.640064,-5.344332,-4.014227,7.208272,0.246637,0.164170,0.487623
1765409421.640328,-5.112386,-3.631037,5.499760,0.245568,0.164170,0.490067
1765409421.640578,-4.977283,-3.314203,5.970827,0.252135,0.181427,0.502589
1765409421.640828,-5.838115,-3.571257,6.725250,0.251982,0.201738,0.512058
1765409421.641078,-5.692251,-3.762553,8.192252,0.244346,0.222508,0.503658
1765409421.641244,-5.219392,-3.400287,6.328311,0.243277,0.256411,0.505033
1765409421.641577,-5.101625,-3.144428,7.143710,0.246484,0.246942,0.520915
1765409421.641911,-6.125059,-3.060736,7.453371,0.250302,0.277791,0.530536
1765409421.642265,-5.423242,-3.658536,8.057149,0.250455,0.311083,0.543517
1765409421.642515,-4.491271,-3.950860,5.639048,0.246637,0.311083,0.535118
1765409421.642765,-4.505021,-3.694404,5.877570,0.246637,0.302226,0.535118
1765409421.643015,-5.278574,-3.717120,7.000238,0.256716,0.328645,0.530231
1765409421.643310,-5.423242,-3.507890,7.818626,0.263436,0.369573,0.535423
1765409421.643560,-4.191176,-3.450502,6.227283,0.257785,0.364381,0.541532
1765409421.643810,-4.292204,-3.120516,6.287063,0.252440,0.364381,0.540310
1765409421.644060,-4.292204,-3.120516,6.287063,0.252440,0.359189,0.540310
1765409421.644315,-4.636537,-3.656145,6.483739,0.263588,0.383318,0.552069
1765409421.644565,-5.384385,-3.178503,7.171209,0.266185,0.407447,0.540158
1765409421.644815,-4.765662,-3.073888,6.560855,0.259160,0.434325,0.549168
1765409421.645065,-4.410569,-3.100191,5.618124,0.255800,0.414777,0.556804
1765409421.645324,-4.410569,-3.100191,5.618124,0.255800,0.432340,0.556804
1765409421.645574,-5.196078,-2.653037,6.494499,0.258854,0.491899,0.565967
1765409421.645824,-4.493663,-2.797107,5.864418,0.251371,0.491899,0.571006
1765409421.646074,-4.811692,-2.876614,6.169296,0.247095,0.497702,0.565356
1765409421.646257,-5.278574,-2.662601,7.142515,0.246484,0.497702,0.559247
1765409421.646507,-5.277379,-2.296748,6.732423,0.240986,0.506560,0.558331
1765409421.646757,-4.868484,-2.179579,5.913437,0.236558,0.514043,0.563981
1765409421.647007,-4.895384,-2.164036,6.520802,0.234267,0.528551,0.571617
1765409421.647353,-5.243902,-2.322453,6.837039,0.228158,0.543365,0.580627
1765409421.647603,-5.896699,-2.558584,6.838234,0.228922,0.538936,0.579711
1765409421.647853,-5.957675,-2.725968,7.172404,0.229380,0.542143,0.578184
1765409421.648103,-6.039574,-2.864658,6.918938,0.233656,0.563065,0.576962
1765409421.648354,-6.111907,-2.788737,7.496412,0.232740,0.563065,0.571770
1765409421.648687,-6.111907,-2.788737,7.496412,0.232740,0.582765,0.571770
1765409421.649021,-5.829746,-3.093017,5.744858,0.229685,0.578184,0.578948
1765409421.649342,-5.914633,-3.002152,6.153754,0.242055,0.602313,0.571312
1765409421.649592,-5.983978,-3.302247,6.377929,0.246637,0.629649,0.580780
1765409421.649842,-5.819583,-2.962697,6.255977,0.249538,0.646143,0.563370
1765409421.650092,-6.030009,-2.895145,5.813007,0.256716,0.657444,0.566119
1765409421.650391,-6.588354,-2.750478,7.232185,0.268933,0.689514,0.575893
1765409421.650641,-7.205284,-2.350550,7.729554,0.268170,0.689514,0.567647
1765409421.650891,-6.675633,-2.655428,7.401960,0.254273,0.695165,0.569479
1765409421.651141,-5.829746,-2.360115,5.726924,0.256869,0.692721,0.558942
1765409421.651332,-5.750836,-1.972740,6.000716,0.260839,0.693332,0.558178
1765409421.651582,-5.786704,-1.837039,7.137733,0.253051,0.719905,0.553597
1765409421.651832,-5.643233,-1.433524,6.395265,0.242666,0.740674,0.558636
1765409421.652082,-5.189502,-1.631994,5.823768,0.238848,0.740521,0.571312
1765409421.652305,-4.597680,-1.664275,4.830224,0.233045,0.740521,0.569174
1765409421.652555,-5.270205,-1.578192,5.441175,0.224798,0.757015,0.566272
1765409421.652805,-6.018651,-1.526781,6.319942,0.215025,0.802830,0.568105
1765409421.653055,-6.340267,-1.603300,6.939263,0.206625,0.826043,0.581544
1765409421.653398,-6.353418,-1.691774,5.972023,0.194561,0.837344,0.577420
1765409421.653648,-5.581061,-1.744380,5.508130,0.194408,0.838718,0.583224
1765409421.653898,-5.628885,-2.196317,4.963534,0.202044,0.855822,0.604451
1765409421.654148,-5.787302,-2.919058,5.799856,0.208152,0.888351,0.608727
1765409421.654314,-6.009086,-3.077475,6.206958,0.208152,0.888351,0.608727
1765409421.654564,-5.755619,-3.119918,6.128645,0.214108,0.893085,0.588721
1765409421.654814,-5.005978,-2.895743,5.557746,0.221133,0.885144,0.586278
1765409421.655064,-5.061573,-2.861669,4.525346,0.227853,0.883617,0.578184
1765409421.655316,-4.872070,-2.513151,5.157818,0.235947,0.890183,0.581544
1765409421.655566,-5.547585,-2.113821,5.726924,0.234878,0.902401,0.574366
1765409421.655816,-5.108799,-2.167623,5.818985,0.231976,0.921337,0.572839
1765409421.656066,-4.860114,-2.041487,4.149928,0.224951,0.919047,0.564745
1765409421.656296,-5.650406,-1.538737,5.439382,0.221897,0.909884,0.556651
1765409421.656629,-6.829268,-1.254184,6.813725,0.217010,0.939816,0.563676
1765409421.656963,-6.960783,-1.104735,6.677426,0.198837,0.939816,0.558331
1765409421.657324,-5.891917,-1.245815,4.727402,0.185550,0.936151,0.574977
1765409421.657574,-5.633070,-1.588952,4.276661,0.187688,0.938136,0.583376
1765409421.657824,-6.144786,-1.795791,4.764466,0.194866,0.963335,0.584140
1765409421.658074,-6.244619,-1.862745,5.172166,0.191354,0.989144,0.581696
1765409421.658321,-6.183643,-1.837637,4.904351,0.187688,0.988074,0.570395
1765409421.658571,-5.460306,-1.875299,4.548063,0.187994,0.996016,0.583834
1765409421.658821,-5.980392,-1.928503,4.929459,0.200975,0.995099,0.594983
1765409421.659071,-5.871592,-2.164036,5.069942,0.203724,1.018312,0.595746
1765409421.659305,-5.717957,-2.496413,4.642515,0.197920,1.035111,0.593761
1765409421.659555,-5.841104,-2.590865,3.610114,0.212428,1.041983,0.589790
1765409421.659805,-6.615255,-2.323649,5.040649,0.224646,1.059088,0.580322
1765409421.660055,-7.810257,-1.871114,6.814920,0.222508,1.095129,0.571312
1765409421.660312,-7.421687,-1.929699,6.504064,0.215177,1.095129,0.579558
1765409421.660562,-7.311094,-1.892635,5.156025,0.217621,1.056491,0.577268
1765409421.660812,-7.400764,-2.083931,4.848158,0.225715,1.070541,0.570243
1765409421.661062,-7.459946,-1.657102,5.649210,0.233809,1.082606,0.567036
1765409421.661289,-7.229794,-1.422764,5.181730,0.212123,1.078941,0.547183
1765409421.661539,-6.782639,-0.768771,4.869679,0.205098,1.078941,0.540616
1765409421.661789,-6.782639,-0.768771,4.869679,0.205098,1.072527,0.540616
1765409421.662039,-5.972023,-0.267814,3.917981,0.199447,1.084591,0.557109
1765409421.662344,-5.948110,-0.050215,3.870157,0.181122,1.133002,0.565814
1765409421.662594,-6.402438,-0.393352,3.743424,0.176082,1.146441,0.588721
1765409421.662844,-6.382113,-1.235653,3.773314,0.173028,1.152245,0.587041
1765409421.663094,-6.382113,-1.235653,3.773314,0.173028,1.174388,0.587041
1765409421.663286,-7.275226,-0.742468,4.834409,0.161421,1.183551,0.575282
1765409421.663536,-7.280009,-0.915830,3.895265,0.157909,1.183551,0.591776
1765409421.663786,-7.280009,-0.915830,3.895265,0.157909,1.166905,0.591776
1765409421.664036,-8.465446,-1.790411,5.818985,0.171195,1.182635,0.601091
1765409421.664309,-8.475011,-2.100071,5.707197,0.162337,1.199434,0.593303
1765409421.664559,-8.195838,-2.168818,5.185318,0.163254,1.138958,0.567799
1765409421.664809,-7.353538,-1.655906,4.203730,0.179136,1.138958,0.569326
1765409421.665059,-7.420491,-1.422764,4.402797,0.186008,1.112233,0.563370
1765409421.665313,-7.408536,-0.973816,4.234218,0.174402,1.147052,0.561538
1765409421.665646,-7.706838,-1.531564,3.794834,0.178984,1.145372,0.580475
1765409421.665980,-7.207675,-1.491511,3.128288,0.173791,1.167516,0.558178
1765409421.666305,-8.164752,-1.121473,3.929937,0.171959,1.176985,0.552680
1765409421.666555,-8.093017,-1.432329,4.268292,0.169515,1.215775,0.556956
1765409421.666805,-7.752271,-1.154950,4.085365,0.173028,1.224785,0.548557
1765409421.667055,-7.401960,-1.015662,3.482783,0.170279,1.224785,0.541532
1765409421.667325,-7.244140,-0.496174,3.758966,0.174249,1.230283,0.544281
1765409421.667575,-7.719391,-0.731707,3.818149,0.167988,1.226770,0.562301
1765409421.667825,-7.779769,-1.165710,4.293399,0.168446,1.194852,0.551459
1765409421.668075,-7.359516,-0.865614,3.506097,0.160810,1.221120,0.532827
1765409421.668321,-6.440697,-0.705404,2.581898,0.164170,1.235780,0.542448
1765409421.668571,-6.062888,-0.329986,2.770205,0.164475,1.237155,0.542601
1765409421.668821,-7.081539,0.101626,3.578431,0.152564,1.213637,0.549779
1765409421.669071,-7.704447,-0.515304,3.574844,0.143401,1.243569,0.563370
1765409421.669316,-7.064801,-1.409612,2.371473,0.149051,1.243416,0.574519
1765409421.669566,-7.280009,-2.103658,2.324246,0.155007,1.243416,0.554818
1765409421.669816,-8.167742,-1.914156,3.307030,0.162490,1.238224,0.530384
1765409421.670066,-8.688426,-1.065280,3.736250,0.165544,1.271363,0.519083
1765409421.670301,-8.799616,-0.609756,3.210186,0.167224,1.258382,0.528857
1765409421.670551,-9.184600,-0.783118,4.068029,0.168293,1.264796,0.544281
1765409421.670801,-8.530008,-1.489718,3.534791,0.167377,1.257619,0.534049
1765409421.671051,-7.754064,-0.986370,3.418221,0.160352,1.273501,0.507018
1765409421.671287,-7.931611,-0.631277,3.156384,0.157298,1.280679,0.507629
1765409421.671537,-8.175513,0.285151,3.499521,0.150273,1.272585,0.514501
1765409421.671787,-9.436871,0.477044,4.195360,0.138208,1.252885,0.509462
1765409421.672037,-8.436751,0.141081,3.273553,0.128893,1.290147,0.537561
1765409421.672271,-7.477283,-0.946915,2.147298,0.134238,1.273043,0.556193
1765409421.672521,-8.344092,-1.114299,3.256814,0.136223,1.262964,0.519083
1765409421.672771,-8.672284,-0.854854,4.230033,0.131489,1.263422,0.508698
1765409421.673021,-9.071615,-0.155428,3.159971,0.131183,1.251663,0.509767
1765409421.673295,-8.595168,0.029890,1.840028,0.127365,1.238835,0.509462
1765409421.673545,-9.202533,0.060378,3.580224,0.119424,1.242805,0.518319
1765409421.673795,-9.971304,-0.630679,4.281444,0.116523,1.242347,0.525344
1765409421.674045,-9.135580,-1.000717,3.363223,0.104305,1.238529,0.506713
1765409421.674275,-9.135580,-1.000717,3.363223,0.104305,1.248150,0.506713
1765409421.674525,-7.674557,-0.492587,1.417982,0.113010,1.274570,0.522443
1765409421.674775,-7.615973,-1.215925,1.308584,0.119119,1.266629,0.534507
1765409421.675025,-9.176230,-1.196796,2.608799,0.122937,1.275792,0.518319
1765409421.675310,-10.261834,-1.756337,4.106886,0.132710,1.285566,0.517403
1765409421.675560,-9.918698,-1.675036,2.645265,0.150731,1.308779,0.503658
1765409421.675810,-8.947871,-1.385103,2.393591,0.153022,1.283122,0.489608
1765409421.676060,-9.330462,-0.789096,2.569345,0.143706,1.286635,0.474337
1765409421.676366,-10.516498,-0.893113,3.807986,0.150120,1.300838,0.479682
1765409421.676616,-10.005977,-0.724534,4.092539,0.158825,1.300838,0.466854
1765409421.676866,-9.429100,0.044237,3.650167,0.135612,1.315804,0.436921
1765409421.677116,-7.643471,0.792683,2.008608,0.128893,1.297020,0.461051
1765409421.677298,-7.643471,0.792683,2.008608,0.128893,1.233490,0.461051
1765409421.677548,-8.362624,-0.536824,2.136537,0.128434,1.226312,0.487776
1765409421.677798,-8.326159,-0.816595,2.064801,0.127671,1.265865,0.476628
1765409421.678048,-7.783954,-0.625299,1.067073,0.126907,1.285260,0.467465
1765409421.678319,-7.648851,-0.065758,0.514706,0.132252,1.259757,0.463647
1765409421.678569,-9.127809,0.510521,1.689383,0.124922,1.266782,0.464563
1765409421.678819,-9.293399,-0.180536,2.336202,0.118966,1.306488,0.477086
1765409421.679069,-9.509205,-0.949904,2.323051,0.117286,1.306488,0.475864
1765409421.679224,-9.759683,-0.424438,2.128766,0.119424,1.310917,0.443488
1765409421.679474,-9.366330,0.116571,2.672166,0.110414,1.330006,0.441350
1765409421.679724,-9.112864,0.072932,2.532879,0.105680,1.324203,0.468839
1765409421.679974,-9.015423,-0.679101,2.268053,0.108123,1.276708,0.478307
1765409421.680357,-8.775704,-1.120277,1.527977,0.107512,1.255023,0.463341
1765409421.680607,-8.540171,-0.979196,1.225490,0.125227,1.283581,0.459982
1765409421.680857,-7.526900,-1.203969,0.718556,0.131641,1.277166,0.466396
1765409421.681107,-9.216881,-0.499163,1.972740,0.131183,1.230893,0.440892
1765409421.681337,-9.886416,-0.300693,3.237685,0.131031,1.235780,0.438601
1765409421.681587,-9.146339,-0.359876,1.605691,0.120646,1.249372,0.439976
1765409421.681837,-8.833093,0.069943,1.380320,0.117744,1.236697,0.420581
1765409421.682087,-9.105690,0.438785,0.850072,0.109345,1.218371,0.427606
1765409421.682323,-9.840983,0.329986,1.445480,0.100029,1.218371,0.420733
1765409421.682523,-9.840983,0.329986,1.445480,0.100029,1.249067,0.420733
1765409421.682723,-9.300572,-0.731707,1.370158,0.095906,1.256397,0.439823
1765409421.682923,-9.464370,-0.224175,1.276901,0.090408,1.263116,0.406989
1765409421.683123,-9.838593,0.239120,1.759923,0.097738,1.246623,0.418595
1765409421.683310,-9.200740,0.178144,0.993544,0.100182,1.246623,0.428827
1765409421.683560,-8.619081,-0.042444,0.368245,0.102014,1.227076,0.439365
1765409421.683810,-8.755977,-0.454328,0.625299,0.096517,1.231199,0.432645
1765409421.684060,-8.654949,-0.784314,0.419058,0.100793,1.238987,0.418901
1765409421.684332,-9.160089,-0.700622,0.527260,0.103542,1.250288,0.420275
1765409421.684582,-10.406504,-0.352702,1.731229,0.114690,1.231810,0.405920
1765409421.684832,-10.675513,-0.023314,2.357723,0.104305,1.263727,0.404087
1765409421.685082,-9.832614,-0.613343,0.765184,0.114843,1.229672,0.430813
1765409421.685352,-8.977760,-1.272118,-0.180536,0.125533,1.229672,0.427606
1765409421.685602,-8.977760,-1.272118,-0.180536,0.125533,1.197143,0.427606
1765409421.685852,-10.830941,-0.795074,2.511955,0.124158,1.214553,0.377667
1765409421.686102,-10.224771,-0.276184,1.126853,0.131336,1.217454,0.378126
1765409421.686347,-9.286225,0.203252,0.098637,0.127671,1.211193,0.372170
1765409421.686597,-9.423719,0.563725,0.412482,0.122784,1.198823,0.380722
1765409421.686847,-10.412481,0.358680,1.105930,0.115606,1.199281,0.396299
1765409421.687097,-10.763988,-0.080105,1.183644,0.113010,1.196074,0.385303
1765409421.687320,-10.935556,0.101626,1.408417,0.108887,1.218065,0.369879
1765409421.687570,-10.161406,0.567910,0.902678,0.108734,1.217454,0.363312
1765409421.687820,-9.950979,0.916427,1.114299,0.092699,1.217454,0.374613
1765409421.688070,-9.950979,0.916427,1.114299,0.092699,1.189355,0.374613
1765409421.688361,-11.101147,-0.206839,1.282879,0.094990,1.162935,0.398742
1765409421.688611,-11.070061,-0.413678,1.541128,0.096517,1.190271,0.381943
1765409421.688861,-10.889525,-0.202056,1.652319,0.091324,1.129032,0.374308
1765409421.689111,-10.766378,-0.277379,1.905787,0.084910,1.129032,0.371406
1765409421.689312,-10.450740,0.151841,0.881157,0.087201,1.086118,0.365297
1765409421.689512,-9.682567,0.528455,-0.364658,0.091477,1.087646,0.372017
1765409421.689712,-9.471543,0.328790,-0.252272,0.092088,1.103833,0.388816
1765409421.689912,-9.238401,-0.866810,-0.389766,0.083689,1.080162,0.395383
1765409421.690112,-10.384384,-0.445959,0.313247,0.085674,1.064585,0.372933
1765409421.690343,-11.374340,-0.546389,0.359876,0.092852,1.083675,0.372628
1765409421.690593,-11.071854,-0.610952,0.664754,0.099724,1.105666,0.366214
1765409421.690843,-10.234337,-0.191296,-0.056193,0.092852,1.131017,0.348040
1765409421.691093,-10.234337,-0.191296,-0.056193,0.092852,1.104292,0.348040
1765409421.691282,-11.206957,0.274988,1.178862,0.100945,1.070236,0.354913
1765409421.691532,-10.949903,-0.379005,0.695839,0.093004,1.068861,0.353996
1765409421.691782,-9.425512,-0.370636,-0.973218,0.084758,1.084439,0.339183
1765409421.692032,-10.255857,-0.151841,0.414873,0.092852,1.027475,0.328645
1765409421.692318,-10.320420,0.290531,0.448948,0.091019,1.034500,0.323759
1765409421.692568,-10.321615,1.043759,0.263630,0.094226,1.025643,0.326507
1765409421.692818,-9.873264,0.582257,-0.423840,0.086590,1.033584,0.348040
1765409421.693068,-10.434001,-0.399330,-0.064562,0.086896,0.982119,0.357814
1765409421.693313,-10.423241,-0.520684,-0.618125,0.090866,0.993420,0.336892
1765409421.693563,-10.810616,0.016738,0.160210,0.095600,0.993420,0.321926
1765409421.693813,-10.881754,0.431612,0.479436,0.090713,1.011440,0.328645
1765409421.694063,-11.183643,0.054998,-0.120756,0.089950,0.978301,0.347735
1765409421.694275,-10.962457,-0.329388,-0.364060,0.094990,0.970665,0.346208
1765409421.694475,-11.296029,-0.562530,-0.621114,0.101098,0.970665,0.331547
1765409421.694675,-10.653992,-0.652798,-0.383788,0.104000,0.981660,0.328798
1765409421.694875,-11.244618,-0.297704,-0.266619,0.106596,0.959058,0.313832
1765409421.695075,-11.476564,-0.210426,1.032998,0.102167,0.951423,0.306960
1765409421.695305,-10.988162,0.039455,0.129125,0.107818,0.934929,0.306349
1765409421.695555,-10.723337,0.473458,-0.126734,0.107207,0.919352,0.304669
1765409421.695805,-10.728717,0.613343,-0.490196,0.090713,0.899041,0.305127
1765409421.696055,-11.975729,0.338355,0.980392,0.088270,0.884380,0.308640
1765409421.696275,-11.796987,0.206241,0.512912,0.095753,0.888962,0.312152
1765409421.696525,-11.927306,0.604974,1.296628,0.084910,0.865443,0.299324
1765409421.696775,-11.564442,0.688068,0.769966,0.074220,0.851699,0.293215
1765409421.697025,-11.357005,0.813606,0.163797,0.071777,0.817796,0.309556
1765409421.697301,-12.156263,0.487207,0.701817,0.077274,0.790001,0.309403
1765409421.697551,-11.769486,0.306074,0.706002,0.064294,0.791376,0.305585
1765409421.697801,-11.382113,0.056193,-0.818986,0.063683,0.768774,0.307723
1765409421.698051,-11.508248,0.202056,-1.793400,0.061239,0.758695,0.287565
1765409421.698309,-11.787420,0.368245,-0.707795,0.069180,0.761443,0.299019
1765409421.698559,-12.809659,0.459110,0.897298,0.068570,0.788016,0.300546
1765409421.698809,-12.340983,0.126734,1.102343,0.060934,0.788016,0.304669
1765409421.699059,-12.340983,0.126734,1.102343,0.060934,0.770454,0.304669
1765409421.699318,-11.637970,-0.643233,-0.312052,0.070708,0.737162,0.306043
1765409421.699568,-11.597919,-0.625299,0.436394,0.070708,0.725250,0.306043
1765409421.699818,-11.142394,-0.667743,-0.156624,0.071624,0.723570,0.286190
1765409421.700068,-10.920611,-0.692252,-0.260043,0.080176,0.723570,0.291383
1765409421.700339,-10.920611,-0.692252,-0.260043,0.080176,0.704328,0.291383
1765409421.700539,-11.362984,-0.245696,0.285748,0.087506,0.702037,0.271988
1765409421.700739,-11.365972,-0.224773,0.612147,0.087659,0.680046,0.270766
1765409421.700939,-11.951218,0.235533,0.696437,0.083994,0.657444,0.257022
1765409421.701139,-10.877569,-0.145863,-0.204448,0.078038,0.646754,0.263894
1765409421.701265,-10.838712,0.120158,-0.754424,0.081245,0.650113,0.253662
1765409421.701515,-10.607962,0.312052,-0.569106,0.088575,0.616821,0.252593
1765409421.701765,-11.426948,1.160330,-0.157819,0.080634,0.616821,0.250913
1765409421.702015,-11.562648,0.849474,-0.364658,0.071624,0.606742,0.270919
1765409421.702319,-11.227282,0.092659,-0.412482,0.075747,0.602160,0.284663
1765409421.702569,-10.771160,-0.448350,-1.174079,0.077274,0.594066,0.273362
1765409421.702819,-10.994738,-0.035868,-0.442372,0.075136,0.577726,0.257480
1765409421.703069,-11.244020,0.506337,-0.201459,0.078191,0.577726,0.256716
1765409421.703301,-10.971423,0.344333,-0.376614,0.078191,0.558636,0.256716
1765409421.703551,-10.087276,0.111789,-1.047346,0.071929,0.547488,0.270461
1765409421.703801,-10.414873,-0.079507,-0.597800,0.078496,0.518319,0.274126
1765409421.704051,-11.361787,-0.062171,-0.283357,0.073304,0.508545,0.264352
1765409421.704224,-12.168220,0.246294,0.858441,0.077733,0.495717,0.253662
1765409421.704424,-12.168220,0.246294,0.858441,0.077733,0.493579,0.253662
1765409421.704624,-11.994260,0.125538,0.418460,0.076358,0.438449,0.253051
1765409421.704824,-12.351744,0.129125,0.615734,0.070402,0.438449,0.246637
1765409421.705024,-12.097081,0.326399,0.376614,0.071624,0.402866,0.250455
1765409421.705311,-11.890244,0.408895,-0.387374,0.067501,0.402866,0.235947
1765409421.705561,-11.862145,0.734098,-0.193089,0.067501,0.387594,0.235947
1765409421.705811,-11.263749,0.676112,-0.865017,0.056810,0.390648,0.232892
1765409421.706061,-10.848875,1.131635,-1.547704,0.059101,0.380722,0.233961
1765409421.706288,-11.738999,1.387494,0.025705,0.043524,0.390190,0.226784
1765409421.706538,-12.346962,1.048541,0.584051,0.034514,0.400575,0.240986
1765409421.706788,-12.571734,0.533238,0.780727,0.043066,0.386067,0.247553
1765409421.707038,-12.071973,0.522477,-0.535031,0.034667,0.379195,0.229227
1765409421.707252,-12.637493,0.602582,0.300096,0.028558,0.348957,0.218842
1765409421.707502,-12.155665,0.754424,0.343735,0.033139,0.338877,0.212123
1765409421.707752,-11.743184,0.752032,-0.434003,0.032834,0.336129,0.215177
1765409421.708002,-10.643232,0.552965,-1.163917,0.021686,0.343001,0.217315
1765409421.708280,-11.597321,0.628886,0.506934,0.032070,0.296270,0.217773
1765409421.708530,-11.428741,0.105213,-0.142276,0.032223,0.296270,0.217163
1765409421.708780,-11.514825,0.178144,-0.565519,0.032223,0.279165,0.217163
1765409421.709030,-10.343135,0.041846,-1.790411,0.037263,0.298255,0.195935
1765409421.709351,-10.827354,0.313247,-0.804639,0.039095,0.268628,0.189063
1765409421.709601,-11.202772,0.609158,-0.765782,0.039859,0.267559,0.179289
1765409421.709851,-11.428741,1.076040,-0.822573,0.035583,0.255800,0.181580
1765409421.710101,-10.961261,0.799259,-1.204567,0.039248,0.261908,0.188146
1765409421.710354,-11.117885,0.606169,-0.789096,0.030696,0.252898,0.174707
1765409421.710604,-11.293637,0.503945,-0.674318,0.029322,0.262519,0.167072
1765409421.710854,-11.479554,0.801650,0.122549,0.026725,0.251829,0.154243
1765409421.711104,-11.990672,1.323529,0.463893,0.020159,0.251676,0.139277
1765409421.711324,-11.914752,1.801171,0.157819,0.010843,0.246331,0.146913
1765409421.711524,-12.073766,1.736609,0.687470,0.001222,0.232129,0.149204
1765409421.711724,-11.672046,1.316356,0.093257,-0.009163,0.224951,0.150120
1765409421.711924,-10.943327,1.168699,-0.645624,-0.014966,0.191659,0.139125
1765409421.712124,-11.218314,1.487326,-0.344333,-0.030238,0.191354,0.116523
1765409421.712289,-11.609277,1.946437,0.351506,-0.030543,0.192881,0.122784
1765409421.712539,-11.819103,1.905787,0.290531,-0.039248,0.186619,0.135918
1765409421.712789,-11.859158,1.472979,-0.119560,-0.053756,0.158214,0.129351
1765409421.713039,-11.663676,1.374940,-0.292922,-0.060170,0.157145,0.128129
1765409421.713327,-11.282878,0.948111,-0.235533,-0.056200,0.145844,0.132100
1765409421.713577,-11.221902,0.561932,-0.528455,-0.062003,0.127518,0.115148
1765409421.713827,-11.668459,1.068866,0.117767,-0.065668,0.131641,0.098197
1765409421.714077,-12.205283,1.540531,0.357484,-0.066279,0.122478,0.100487
1765409421.714322,-11.874700,1.381516,-0.532042,-0.076053,0.112705,0.107665
1765409421.714572,-11.192012,1.156145,-1.508249,-0.082314,0.107818,0.102320
1765409421.714822,-11.275106,0.884744,-0.864419,-0.075747,0.107360,0.103694
1765409421.715072,-11.013868,0.248685,-0.769966,-0.084910,0.115759,0.097433
1765409421.715268,-11.273314,0.888331,-0.873984,-0.093615,0.108734,0.066432
1765409421.715468,-11.699545,1.183644,-0.113582,-0.091172,0.115148,0.070250
1765409421.715668,-10.669536,0.969632,-1.164515,-0.085827,0.118813,0.085216
1765409421.715868,-10.719750,0.644428,-1.104735,-0.100335,0.106596,0.074984
1765409421.716068,-11.143589,0.587040,-0.054998,-0.101862,0.116675,0.058338
1765409421.716282,-11.205163,0.060976,-0.402917,-0.099876,0.094226,0.066890
1765409421.716532,-11.205163,0.060976,-0.402917,-0.099876,0.077274,0.066890
1765409421.716782,-10.644427,0.670732,-0.858441,-0.104000,0.085979,0.024282
1765409421.717032,-10.869200,0.853061,-0.397537,-0.103847,0.095295,0.037415
1765409421.717332,-11.270324,0.699426,-0.738881,-0.098655,0.063683,0.041233
1765409421.717582,-11.982901,0.619919,0.176949,-0.107970,0.070250,0.026878
1765409421.717832,-11.603298,0.374223,0.274390,-0.100029,0.089034,0.026114
1765409421.718082,-10.875177,0.255858,-0.454328,-0.095753,0.079412,0.020311
1765409421.718273,-10.574485,0.651004,-0.822573,-0.107207,0.052993,0.001985
1765409421.718473,-11.285269,1.017456,-0.003587,-0.107054,0.047953,0.001374
1765409421.718673,-11.506455,0.887135,0.249283,-0.099418,0.047800,0.024893
1765409421.718873,-11.387492,0.459110,-0.107604,-0.108887,0.039554,0.012065
1765409421.719073,-11.218314,0.115973,-0.214012,-0.111941,0.034361,0.002443
1765409421.719306,-10.844093,-0.043042,-0.810617,-0.104000,0.034361,-0.003818
1765409421.719556,-11.446077,0.210426,0.022716,-0.104000,0.023060,-0.003818
1765409421.719806,-11.317550,0.615734,0.118364,-0.111941,0.042761,-0.037263
1765409421.720056,-11.293637,0.874581,0.040650,-0.104305,0.043982,-0.025962
1765409421.720275,-10.446555,0.480631,-1.052726,-0.110872,0.018479,-0.018479
1765409421.720525,-11.187229,0.517695,0.166188,-0.111788,0.018479,-0.033139
1765409421.720775,-11.187229,0.517695,0.166188,-0.111788,0.040775,-0.033139
1765409421.721025,-10.674318,0.096844,-0.290531,-0.107665,0.019700,-0.034514
1765409421.721288,-10.263031,-0.047824,-1.181851,-0.113163,0.019700,-0.053603
1765409421.721538,-10.263031,-0.047824,-1.181851,-0.113163,0.018173,-0.053603
1765409421.721788,-10.735292,0.573888,-0.144668,-0.102473,0.025045,-0.049938
1765409421.722038,-10.673720,0.410091,-0.457915,-0.104153,0.008094,-0.048411
1765409421.722333,-10.725130,-0.108800,-0.441176,-0.112552,0.022602,-0.059865
1765409421.722583,-10.651602,-0.044835,-0.411286,-0.093462,0.022602,-0.054214
1765409421.722833,-10.613341,-0.532042,-0.459708,-0.098197,0.007789,-0.065973
1765409421.723083,-10.744859,0.107604,-0.447752,-0.098502,0.013744,-0.086285
1765409421.723303,-10.932567,0.367647,-0.131516,-0.091019,0.024893,-0.078496
1765409421.723503,-10.594810,-0.074127,-0.127929,-0.085827,0.016799,-0.064904
1765409421.723703,-10.732902,-0.080105,-0.165591,-0.090866,0.008552,-0.084452
1765409421.723903,-10.927784,-0.310856,-0.044835,-0.086285,0.013897,-0.084452
1765409421.724103,-10.759206,-0.550574,-0.075323,-0.080481,0.012675,-0.085827
1765409421.724317,-10.975608,-0.020923,0.325203,-0.074678,0.012675,-0.105527
1765409421.724567,-10.890720,0.209230,0.238522,-0.079718,0.019242,-0.104153
1765409421.724817,-10.755618,0.486609,-0.154232,-0.069333,0.007789,-0.092088
1765409421.725067,-10.787899,0.202056,0.229555,-0.068264,0.005192,-0.081856
1765409421.725269,-10.609755,-0.137494,0.024510,-0.070708,0.005345,-0.082314
1765409421.725519,-10.624102,-0.220588,-0.153635,-0.062461,0.005498,-0.085521
1765409421.725769,-10.681490,-0.179340,0.116571,-0.049786,0.004123,-0.085216
1765409421.726019,-10.624102,-0.080105,0.225968,-0.051771,0.000153,-0.087965
1765409421.726269,-10.765781,0.475849,0.319225,-0.054062,0.000916,-0.095142
1765409421.726469,-10.584648,0.731109,-0.004782,-0.047189,0.001069,-0.078496
1765409421.726669,-10.279171,0.303682,-0.268412,-0.041997,-0.007941,-0.051007
1765409421.726869,-10.279171,0.303682,-0.268412,-0.041997,-0.009468,-0.051007
1765409421.727069,-10.442370,-0.197274,-0.016738,-0.040470,-0.003054,-0.056047
1765409421.727305,-10.221185,-0.081301,-0.376614,-0.035430,-0.004429,-0.056047
1765409421.727555,-10.324006,0.236729,-0.179340,-0.031307,-0.004734,-0.061392
1765409421.727805,-10.573887,0.320421,0.695241,-0.032987,0.004429,-0.051160
1765409421.728055,-10.451338,0.235533,0.421449,-0.029627,0.003512,-0.043371
1765409421.728298,-10.230749,0.007174,-0.120756,-0.029322,-0.008858,-0.039859
1765409421.728498,-10.247488,-0.090268,-0.224175,-0.021991,-0.013592,-0.039706
1765409421.728698,-10.235533,-0.035868,0.054998,-0.016646,0.000305,-0.036194
1765409421.728898,-10.292920,0.276184,0.377810,-0.010996,0.000305,-0.036041
1765409421.729098,-10.313247,0.408895,0.321616,-0.016341,-0.000153,-0.027642
1765409421.729304,-10.169774,0.236729,0.077714,-0.016035,-0.007178,-0.014966
1765409421.729504,-10.199663,0.086083,0.122549,-0.011759,-0.013134,-0.012981
1765409421.729704,-10.133906,-0.003587,0.282759,-0.004581,-0.006109,-0.012675
1765409421.729904,-9.961740,0.076518,0.264825,-0.004581,-0.003207,-0.012675
1765409421.730104,-9.950979,0.124342,0.190100,-0.007789,-0.008094,-0.010232
1765409421.730252,-9.948587,0.087279,0.272597,-0.008094,-0.014203,-0.007636
1765409421.730452,-9.961740,0.092061,0.216404,-0.004734,-0.010843,-0.003512
1765409421.730652,-9.961740,0.092061,0.216404,-0.004734,-0.008399,-0.003512
1765409421.730852,-9.872069,0.096246,0.174558,-0.009927,-0.004123,-0.005651
1765409421.731052,-9.927068,0.121951,0.376614,-0.006872,-0.002902,0.000916
1765409421.731240,-10.180533,0.123147,0.731707,-0.004581,-0.005192,0.000000
1765409421.731490,-10.057388,-0.032879,0.429818,-0.008094,-0.000153,0.002749
1765409421.731740,-9.934240,-0.217001,0.300096,-0.005040,-0.004429,0.002902
1765409421.731990,-9.852343,-0.204448,0.229555,-0.006567,-0.006567,-0.001527
1765409421.732228,-9.892993,-0.052009,0.422047,-0.005345,-0.004581,-0.004429
1765409421.732428,-9.790769,0.081301,0.156624,-0.008399,-0.003207,-0.005651
1765409421.732628,-9.894188,0.139287,0.389766,-0.009316,-0.003207,0.000916
1765409421.732828,-9.971304,0.109995,0.456719,-0.007941,-0.004429,0.003818
1765409421.733028,-9.944403,-0.021521,0.385581,-0.008552,-0.007789,0.001680
1765409421.733248,-9.870276,-0.124940,0.144668,-0.007636,-0.003054,0.000611
1765409421.733415,-9.893590,-0.138690,0.253467,-0.005192,-0.003207,-0.003512
1765409421.733581,-9.989238,0.056193,0.451937,-0.008247,-0.003207,-0.004429
1765409421.733748,-10.025107,0.133907,0.459708,-0.008247,0.000916,0.000611
1765409421.733915,-9.972500,-0.002391,0.295313,-0.009468,-0.003360,0.005040
1765409421.734081,-9.972500,-0.002391,0.295313,-0.009468,-0.008399,0.005040
1765409421.734307,-9.977880,-0.186514,0.312649,-0.006261,-0.004581,-0.000611
1765409421.734507,-9.936632,-0.063367,0.300096,-0.006414,-0.004581,-0.005651
1765409421.734707,-9.915112,0.029890,0.300096,-0.007941,-0.006720,-0.004734
1765409421.734907,-9.972500,0.027499,0.339550,-0.007483,-0.005803,-0.001374
1765409421.735107,-9.984456,-0.022716,0.332377,-0.009316,-0.003818,0.001222
1765409421.735350,-9.961740,-0.154232,0.272597,-0.006109,-0.003207,0.000305
1765409421.735600,-10.001194,-0.090866,0.370636,-0.007025,-0.005956,-0.003360
1765409421.735850,-10.044236,0.016738,0.388570,-0.007483,-0.006261,-0.002902
1765409421.736100,-9.949782,0.049020,0.276184,-0.005498,-0.004581,-0.002443
1765409421.736244,-9.932447,0.022119,0.245098,-0.004581,-0.003665,-0.001069
1765409421.736444,-9.977283,-0.057389,0.363462,-0.007483,-0.008705,0.001527
1765409421.736644,-9.986848,-0.017336,0.366451,-0.006567,-0.005803,0.000916
1765409421.736844,-9.912720,-0.038857,0.243902,-0.007941,-0.003360,-0.001680
1765409421.737044,-9.965326,-0.003587,0.347920,-0.008399,-0.005803,-0.003360
1765409421.737303,-10.063366,0.025705,0.422047,-0.008094,-0.005803,-0.001069
1765409421.737503,-10.013150,0.056193,0.318030,-0.007178,-0.005345,-0.000764
1765409421.737703,-9.975489,-0.010760,0.285748,-0.009927,-0.007941,0.001374
1765409421.737903,-9.960544,-0.076518,0.379005,-0.008705,-0.009010,-0.001222
1765409421.738103,-10.011955,-0.033477,0.306671,-0.006872,-0.003818,-0.001222
1765409421.738235,-9.973696,-0.054400,0.306671,-0.006414,-0.003818,-0.000916
1765409421.738435,-9.949782,-0.045433,0.345528,-0.008858,-0.007636,0.000458
1765409421.738635,-10.004781,-0.033477,0.362865,-0.010690,-0.009163,0.000458
1765409421.738835,-9.945002,-0.060976,0.343137,-0.011148,-0.010079,0.002138
1765409421.739035,-9.887612,-0.137494,0.313845,-0.010843,-0.008705,-0.000916
1765409421.739492,-9.944403,-0.087279,0.383190,-0.007789,-0.008399,-0.004581
1765409421.739692,-9.974891,0.019130,0.340746,-0.005345,-0.007636,-0.000611
1765409421.739892,-9.872069,0.001196,0.261836,-0.007178,-0.010232,-0.002291
1765409421.740092,-9.925274,-0.042444,0.339550,-0.006414,-0.010232,-0.001374
1765409421.740292,-9.925274,-0.042444,0.339550,-0.006414,-0.006720,-0.001374
1765409421.740260,-10.026302,-0.015543,0.432209,-0.006261,-0.004276,-0.001985
1765409421.740460,-9.919893,-0.045433,0.288737,-0.009163,-0.005040,-0.002291
1765409421.740660,-9.895982,-0.020325,0.340148,-0.009010,-0.007483,-0.003818
1765409421.740860,-9.928263,-0.013152,0.335964,-0.008858,-0.006261,-0.001374
1765409421.741060,-9.928263,-0.013152,0.335964,-0.008858,-0.007330,-0.001374
1765409421.741259,-9.814680,0.000598,0.285748,-0.007178,-0.008858,-0.000611
1765409421.741459,-9.930654,-0.065758,0.343137,-0.008552,-0.009163,-0.004429
1765409421.741659,-10.002390,-0.028694,0.407102,-0.009774,-0.007941,-0.001374
1765409421.741859,-9.958152,0.019130,0.356887,-0.006109,-0.003971,-0.001374
1765409421.742059,-9.854136,-0.044835,0.283357,-0.007178,-0.003665,-0.001069
1765409421.742229,-9.898373,-0.084290,0.394548,-0.010232,-0.008552,-0.001222
1765409421.742429,-9.934240,-0.046628,0.306074,-0.005345,-0.008552,0.000000
1765409421.742629,-9.854136,0.000000,0.245098,-0.006261,-0.003360,0.000305
1765409421.742829,-9.866092,-0.039455,0.300096,-0.005956,-0.003360,-0.000764
1765409421.743029,-9.942013,-0.050215,0.390961,-0.007941,-0.008705,0.000611
1765409421.743280,-10.058583,-0.017336,0.416667,-0.008399,-0.007178,-0.001985
1765409421.743480,-9.919893,-0.026901,0.230751,-0.007483,-0.003360,-0.001680
1765409421.743680,-9.866092,-0.072932,0.272597,-0.008552,-0.006720,0.000611
1765409421.743880,-9.967718,-0.043042,0.407700,-0.007178,-0.006261,-0.003665
1765409421.744080,-10.019128,0.047824,0.425634,-0.008247,-0.006872,-0.001069
1765409421.744266,-9.927068,-0.034672,0.239718,-0.008399,-0.004887,0.000458
1765409421.744466,-9.937230,-0.013152,0.294118,-0.007941,-0.006414,-0.001527
1765409421.744666,-9.937230,-0.013152,0.294118,-0.007941,-0.007483,-0.001527
1765409421.744866,-9.991630,-0.019727,0.337757,-0.010690,-0.006567,-0.001374
1765409421.745066,-9.900764,-0.032281,0.277379,-0.008094,-0.007483,-0.000611
1765409421.745307,-9.949782,0.017934,0.340148,-0.010079,-0.007330,-0.001680
1765409421.745507,-10.022716,0.009565,0.419058,-0.004887,-0.008247,-0.002291
1765409421.745707,-9.969511,-0.011956,0.341942,-0.008858,-0.003360,-0.002443
1765409421.745907,-9.939621,-0.080105,0.323410,-0.009774,-0.006872,-0.001069
1765409421.746107,-9.964130,-0.110593,0.329388,-0.007789,-0.007941,0.000458
1765409421.746314,-9.960544,-0.002391,0.361071,-0.008552,-0.010232,-0.000916
1765409421.746514,-9.921686,-0.031086,0.308465,-0.008858,-0.007178,-0.002902
1765409421.746714,-9.954566,-0.075921,0.407102,-0.008094,-0.005956,0.000916
1765409421.746914,-9.981467,-0.063367,0.377212,-0.009163,-0.008247,-0.000611
1765409421.747114,-9.946795,-0.009565,0.328790,-0.008705,-0.006720,-0.002749
1765409421.747265,-9.887015,-0.046628,0.318030,-0.007483,-0.007636,-0.000916
1765409421.747465,-9.931850,-0.068149,0.371832,-0.010537,-0.007636,-0.001527
1765409421.747665,-9.982065,-0.045433,0.352702,-0.011148,-0.009163,-0.000916
1765409421.747865,-9.904947,0.021521,0.291726,-0.006414,-0.008094,-0.002291
1765409421.748065,-9.904947,0.021521,0.291726,-0.006414,-0.006261,-0.002291
1765409421.748271,-9.989837,-0.007174,0.439981,-0.006720,-0.007636,0.001222
1765409421.748471,-9.952772,0.005978,0.308465,-0.008094,-0.003818,-0.001069
1765409421.748671,-9.852941,-0.001793,0.223577,-0.006720,-0.004123,0.000153
1765409421.748871,-9.930654,-0.014347,0.389766,-0.009468,-0.006414,-0.000458
1765409421.749071,-9.964130,0.000000,0.377810,-0.006720,-0.007025,-0.000305
1765409421.749264,-9.956359,0.013152,0.348517,-0.007330,-0.005803,-0.002291
1765409421.749464,-9.888808,-0.062769,0.295911,-0.009163,-0.005498,0.000000
1765409421.749664,-9.946198,-0.050813,0.302487,-0.006109,-0.005803,-0.000611
1765409421.749864,-9.982663,-0.011956,0.332377,-0.006414,-0.007483,0.001680
1765409421.750064,-9.999999,-0.020325,0.454328,-0.008858,-0.004429,0.000916
1765409421.750331,-9.955761,-0.085485,0.396939,-0.009316,-0.005192,-0.000153
1765409421.750531,-9.913916,-0.038259,0.274390,-0.008094,-0.004276,-0.001527
1765409421.750731,-9.941415,-0.035270,0.328192,-0.008705,-0.006109,-0.000916
1765409421.750931,-9.964728,-0.049020,0.399330,-0.007789,-0.009468,-0.001527
1765409421.751131,-9.984456,-0.004782,0.358680,-0.008094,-0.009468,-0.001680
1765409421.751302,-9.964130,-0.016738,0.302487,-0.005651,-0.007636,-0.002902
1765409421.751502,-9.960544,-0.051411,0.326399,-0.009316,-0.005345,-0.002902
1765409421.751702,-9.928861,-0.035868,0.272597,-0.008705,-0.004734,-0.001069
1765409421.751902,-9.982065,0.014347,0.382592,-0.008247,-0.006872,-0.002443
1765409421.752102,-9.928263,-0.046628,0.329986,-0.010843,-0.006872,-0.001069
1765409421.752263,-9.928263,-0.046628,0.329986,-0.010843,-0.008858,-0.001069
1765409421.752463,-9.955164,0.045433,0.274390,-0.006109,-0.007178,-0.001985
1765409421.752663,-9.943806,-0.015543,0.280966,-0.009927,-0.005040,-0.000916
1765409421.752863,-9.899570,-0.072932,0.307269,-0.008399,-0.010079,-0.000458
1765409421.753063,-9.963533,-0.015543,0.393352,-0.007025,-0.009774,-0.001069
1765409421.753320,-9.965326,0.012554,0.368245,-0.007941,-0.004429,-0.000916
1765409421.753520,-9.958751,-0.050813,0.342539,-0.010232,-0.006720,-0.000458
1765409421.753720,-9.992825,-0.050215,0.368245,-0.008552,-0.009468,-0.002138
1765409421.753920,-9.964130,-0.004782,0.248685,-0.008552,-0.003512,-0.002138
1765409421.754120,-9.879243,-0.017336,0.351506,-0.007941,-0.005651,0.000000
1765409421.754247,-9.928861,-0.064562,0.378407,-0.009927,-0.010843,-0.000611
1765409421.754447,-10.003586,-0.031086,0.343137,-0.004123,-0.006109,-0.000611
1765409421.754647,-9.988641,-0.002989,0.333572,-0.005345,-0.006109,0.000000
1765409421.754847,-9.945002,-0.044835,0.375418,-0.010690,-0.003207,-0.000764
1765409421.755047,-10.033475,-0.000598,0.442372,-0.006872,-0.006261,-0.001374
1765409421.755246,-9.997607,0.005978,0.342539,-0.007941,-0.007178,0.001527
1765409421.755446,-9.934240,-0.065758,0.294118,-0.007789,-0.008705,0.000305
1765409421.755646,-9.919893,-0.059182,0.346724,-0.010079,-0.008705,-0.000916
1765409421.755846,-9.919893,-0.059182,0.289933,-0.010079,-0.007330,-0.000916
1765409421.756046,-9.904350,-0.011358,0.325203,-0.009621,-0.006261,0.000153
1765409421.756329,-9.883428,-0.063367,0.358082,-0.007789,-0.007483,-0.000916
1765409421.756529,-9.904350,-0.011358,0.274988,-0.007025,-0.006261,-0.001374
1765409421.756729,-9.970109,0.009565,0.328790,-0.007178,-0.004887,-0.000458
1765409421.756929,-9.970109,0.009565,0.328790,-0.007178,-0.004887,-0.000458
1765409421.757129,-10.000596,-0.014347,0.396939,-0.006872,-0.005192,-0.001069
1765409421.757303,-9.959349,-0.032281,0.304878,-0.006109,-0.005192,0.000000
1765409421.757503,-9.907339,-0.071138,0.272597,-0.009621,-0.007178,-0.001374
1765409421.757703,-10.025107,-0.011956,0.460306,-0.008552,-0.007483,-0.000764
1765409421.757903,-10.024508,0.008967,0.456121,-0.007025,-0.005192,-0.001833
1765409421.758103,-9.916306,-0.040650,0.240316,-0.006414,-0.004887,-0.002138
1765409421.758388,-9.901959,-0.072334,0.285748,-0.007789,-0.004123,-0.000611
1765409421.758588,-10.026900,-0.037064,0.400526,-0.007330,-0.005651,0.000611
1765409421.758788,-9.979075,0.020325,0.350311,-0.006109,-0.004887,-0.000916
1765409421.758988,-9.901362,-0.057987,0.292922,-0.007789,-0.005192,-0.001985
1765409421.759188,-9.916306,-0.043042,0.387374,-0.010996,-0.010079,-0.002138
1765409421.759341,-9.961740,-0.022716,0.240316,-0.006720,-0.007636,0.000916
1765409421.759541,-9.901362,-0.038259,0.310856,-0.007178,-0.003665,-0.001222
1765409421.759741,-9.903752,-0.060976,0.355093,-0.007941,-0.005345,-0.000916
1765409421.759941,-9.887612,-0.007174,0.298302,-0.007178,-0.008858,-0.001833
1765409421.760141,-9.908535,-0.038857,0.239120,-0.009316,-0.007025,-0.000458
1765409421.760352,-9.916306,-0.052606,0.318030,-0.009316,-0.007025,0.002138
1765409421.760552,-9.982065,-0.010760,0.344931,-0.012370,-0.009010,-0.002291
1765409421.760752,-9.916306,0.003587,0.246294,-0.010537,-0.005803,-0.002443
1765409421.760952,-9.872667,-0.057389,0.301889,-0.011454,-0.009468,-0.001527
1765409421.761152,-9.951577,-0.027499,0.364658,-0.010690,-0.006720,-0.002443
1765409421.761332,-9.977283,0.003587,0.313845,-0.010385,-0.005498,-0.000611
1765409421.761532,-9.958152,-0.011956,0.279770,-0.007330,-0.005345,0.000305
1765409421.761732,-10.001194,-0.060976,0.417264,-0.009621,-0.004276,-0.001222
1765409421.761932,-9.974891,-0.062171,0.395146,-0.007941,-0.006109,-0.000305
1765409421.762132,-9.967119,-0.019130,0.310856,-0.010385,-0.005651,-0.001069
1765409421.762343,-9.939621,-0.050215,0.306074,-0.010843,-0.006109,-0.001069
1765409421.762593,-9.927068,-0.062171,0.355093,-0.007025,-0.008552,-0.001222
1765409421.762843,-9.910329,-0.035868,0.290531,-0.003512,-0.008094,-0.002749
1765409421.763093,-9.931850,-0.052606,0.388570,-0.007789,-0.003818,-0.004429
1765409421.763290,-9.939621,-0.012554,0.386179,-0.009927,-0.006720,-0.000153
1765409421.763490,-9.923481,-0.013152,0.263032,-0.007636,-0.007178,0.002749
1765409421.763690,-9.913916,-0.040650,0.363462,-0.010690,-0.007483,0.000611
1765409421.763890,-9.982065,-0.074127,0.406504,-0.007483,-0.007330,-0.000764
1765409421.764090,-9.948587,0.019727,0.367049,-0.008705,-0.004734,-0.001374
1765409421.764381,-9.904350,0.013749,0.272597,-0.006872,-0.006109,-0.000153
1765409421.764581,-9.861309,-0.034672,0.322812,-0.010079,-0.006414,-0.000916
1765409421.764781,-9.925871,-0.011956,0.284553,-0.008705,-0.006567,-0.000458
1765409421.764981,-9.913916,-0.034075,0.294118,-0.009163,-0.005498,0.000305
1765409421.765181,-9.968913,-0.056193,0.396341,-0.009316,-0.005498,0.000305
1765409421.765310,-9.952772,-0.024510,0.386179,-0.010079,-0.005345,-0.000458
1765409421.765510,-9.927068,-0.028694,0.264228,-0.007178,-0.006567,-0.001985
1765409421.765710,-9.933643,-0.044237,0.308465,-0.006109,-0.006567,-0.001985
1765409421.765910,-9.975489,-0.062171,0.396939,-0.008858,-0.003054,0.002138
1765409421.766110,-9.940218,-0.032281,0.336561,-0.009927,-0.006261,-0.000611
1765409421.766247,-9.879841,-0.032281,0.238522,-0.005651,-0.003207,-0.000916
1765409421.766447,-9.887015,-0.078312,0.341942,-0.008094,-0.005803,-0.002749
1765409421.766647,-9.935436,-0.026303,0.334170,-0.008552,-0.010079,-0.002443
1765409421.766847,-9.910329,0.013749,0.240913,-0.009927,-0.008094,0.000305
1765409421.767047,-9.868484,-0.071138,0.296509,-0.008094,-0.005651,0.000764
1765409421.767299,-9.910329,-0.064562,0.313247,-0.009927,-0.005192,0.000000
1765409421.767499,-9.916904,0.003587,0.257652,-0.005956,-0.005040,-0.000458
1765409421.767699,-9.905546,-0.062171,0.269010,-0.009621,-0.005498,0.000916
1765409421.767899,-9.924676,-0.040650,0.379005,-0.011606,-0.007178,-0.001527
1765409421.768099,-9.956957,-0.010163,0.319225,-0.008858,-0.006261,-0.001374
1765409421.768314,-9.875656,-0.022716,0.282162,-0.005192,-0.005651,-0.000764
1765409421.768514,-9.937828,-0.031086,0.359278,-0.007025,-0.006720,-0.000764
1765409421.768714,-9.974891,-0.009565,0.349115,-0.005498,-0.006720,-0.001527
1765409421.768914,-9.945002,-0.022716,0.302487,-0.005345,-0.005956,-0.000458
1765409421.769114,-9.940218,-0.023314,0.381396,-0.010079,-0.005192,-0.000764
1765409421.769297,-9.978478,0.007174,0.396939,-0.007025,-0.007636,0.001069
1765409421.769497,-9.937828,-0.004782,0.227164,-0.007178,-0.005651,-0.001680
1765409421.769697,-9.939621,-0.044237,0.280368,-0.009468,-0.005651,-0.000764
1765409421.769897,-9.984456,-0.062171,0.437590,-0.009468,-0.008094,-0.000764
1765409421.770097,-10.003586,-0.014347,0.365854,-0.007178,-0.008247,-0.002443
1765409421.770260,-9.936632,-0.013749,0.355691,-0.007330,-0.006414,-0.001527
1765409421.770460,-9.936632,-0.013749,0.355691,-0.007330,-0.007941,-0.001527
1765409421.770660,-9.667622,-0.179340,0.522477,-0.012370,-0.006567,-0.000153
1765409421.770860,-9.667622,-0.179340,0.522477,-0.012370,-0.003971,-0.000153
1765409421.771060,-9.303562,0.194883,0.094452,-0.010690,-0.003512,-0.014661
1765409421.771280,-9.589908,0.423242,-0.021521,-0.007178,-0.003512,-0.006567
1765409421.771480,-9.589908,0.423242,-0.021521,-0.007178,0.012370,-0.006567
1765409421.771680,-9.671208,-0.129125,0.621712,-0.012828,0.007483,0.005498
1765409421.771880,-10.023911,-0.273792,0.807030,-0.017715,0.005345,-0.001069
1765409421.772080,-10.055594,-0.465088,0.065758,-0.008247,0.006109,0.001680
1765409421.772298,-9.965326,-0.072932,0.185318,-0.001374,0.006109,-0.009927
1765409421.772498,-10.125537,0.456719,0.850072,-0.005651,0.017257,-0.011148
1765409421.772698,-10.282758,0.446557,1.115495,-0.012981,0.020006,0.007178
1765409421.772898,-10.124342,-0.321616,0.406504,-0.011912,-0.001985,0.013592
1765409421.773098,-9.738162,-0.670732,-0.143472,-0.009010,0.004276,0.002443
1765409421.773268,-9.940218,-0.214012,0.424438,-0.004429,0.004276,-0.016188
1765409421.773518,-10.113581,0.423242,0.777140,-0.009010,0.014508,-0.014966
1765409421.773768,-10.031682,0.390961,0.414873,-0.008399,0.008858,0.003512
1765409421.774018,-9.781204,-0.078910,-0.044237,-0.008552,0.008858,0.011912
1765409421.774236,-9.932447,-0.357484,0.431014,-0.007025,0.007178,0.006261
1765409421.774436,-10.043041,-0.327594,0.669536,-0.008399,0.010996,-0.003665
1765409421.774636,-9.842777,-0.057987,0.151841,-0.008399,0.005498,-0.003665
1765409421.774836,-9.756096,0.235533,0.034672,-0.008094,0.002902,-0.007636
1765409421.775036,-9.878048,0.246294,0.375418,-0.005803,0.010232,-0.002596
1765409421.775307,-9.878048,0.246294,0.375418,-0.005803,0.011912,-0.002596
1765409421.775507,-9.895385,-0.192492,0.221186,-0.008247,0.012828,0.006872
1765409421.775707,-9.863700,-0.324008,0.202056,-0.007789,0.008399,-0.001527
1765409421.775907,-9.906742,-0.147657,0.327594,-0.006720,0.011454,-0.005651
1765409421.776107,-9.913916,0.191296,0.365854,-0.006720,0.011454,-0.005192
1765409421.776317,-9.913916,0.191296,0.365854,-0.006720,0.012217,-0.005192
1765409421.776517,-9.995216,0.053802,0.284553,-0.011606,0.009621,0.005956
1765409421.776717,-10.070539,-0.277379,0.389168,-0.006872,0.006109,0.008247
1765409421.776917,-9.966521,-0.345528,0.344333,-0.004276,0.011454,0.000000
1765409421.777117,-9.876852,-0.151841,0.291726,-0.009621,0.010537,-0.007483
1765409421.777304,-9.955761,0.178144,0.267814,-0.005956,0.003818,-0.008247
1765409421.777504,-9.995814,0.240316,0.229555,-0.006109,0.006109,0.000916
1765409421.777704,-10.057388,0.090268,0.461502,-0.007330,0.013744,0.005345
1765409421.777904,-10.043041,-0.306074,0.384983,-0.011759,0.004276,0.007636
1765409421.778104,-9.992825,-0.351506,0.138690,-0.007330,0.004276,-0.001222
1765409421.778308,-10.022716,-0.000598,0.208034,-0.008094,0.001680,-0.009927
1765409421.778508,-9.895982,0.195481,0.258250,-0.007025,0.011912,-0.003818
1765409421.778708,-9.924676,0.160808,0.350311,-0.009316,0.006414,-0.000153
1765409421.778908,-9.924676,0.160808,0.350311,-0.009316,0.000153,-0.000153
1765409421.779108,-10.058583,-0.069943,0.225371,-0.006261,0.004123,0.005040
1765409421.779271,-9.986848,-0.211621,0.222382,-0.009316,0.008858,-0.000305
1765409421.779471,-10.133906,-0.230751,0.429220,-0.006414,0.007483,-0.001833
1765409421.779671,-10.118960,-0.011956,0.370636,-0.007636,0.001222,-0.007636
1765409421.779871,-10.060975,0.282162,0.276184,-0.010537,-0.000305,-0.004887
1765409421.780071,-9.857722,0.142276,0.118364,-0.009010,0.004581,0.004123
1765409421.780268,-9.895982,-0.156624,0.248685,-0.008247,-0.001527,0.005040
1765409421.780468,-10.133308,-0.241511,0.490196,-0.009468,0.004429,0.000305
1765409421.780668,-10.111190,-0.063367,0.349713,-0.007789,0.004429,-0.002291
1765409421.780868,-9.947392,0.063367,0.145863,-0.008399,-0.000764,-0.003360
1765409421.781068,-10.017335,0.056193,0.297704,-0.008399,-0.003971,-0.001833
1765409421.781335,-10.090864,-0.050215,0.401124,-0.007636,-0.005345,0.002138
1765409421.781535,-9.991630,-0.101626,0.193687,-0.009010,-0.002443,0.001374
1765409421.781735,-9.985652,-0.020325,0.239120,-0.007941,-0.002443,-0.000764
1765409421.781935,-10.032280,-0.047824,0.377810,-0.008552,-0.004276,-0.001985
1765409421.782135,-10.071735,-0.054998,0.434003,-0.008399,-0.003665,0.000000
1765409421.782329,-9.997607,-0.004782,0.277379,-0.008705,-0.002443,-0.001985
1765409421.782529,-9.887612,-0.023912,0.167384,-0.008094,-0.011454,-0.002291
1765409421.782729,-9.886416,-0.029890,0.228360,-0.007789,-0.011454,-0.000916
1765409421.782929,-10.040649,0.020325,0.368245,-0.009316,-0.005803,-0.000611
1765409421.783129,-9.974891,-0.016738,0.343137,-0.006872,0.001222,-0.000611
1765409421.783321,-9.933045,-0.062171,0.329986,-0.007941,-0.004429,0.000153
1765409421.783571,-9.984456,-0.047824,0.295313,-0.006414,-0.009774,0.000764
1765409421.783821,-10.026302,-0.038259,0.347920,-0.006261,-0.007025,-0.002596
1765409421.784071,-9.947392,-0.050215,0.251674,-0.009316,-0.003512,-0.001069
1765409421.787282,-9.928263,0.002391,0.318627,-0.007178,-0.008705,-0.002291
1765409421.789398,-9.988641,0.031086,0.312052,-0.006567,-0.010385,-0.003207
1765409421.791319,-9.953370,0.001196,0.364658,-0.008858,-0.006414,0.000153
1765409421.794312,-9.922284,-0.132712,0.282162,-0.010385,-0.007178,0.002291
1765409421.796299,-9.909132,-0.135701,0.376614,-0.009163,-0.009927,-0.000305
1765409421.799306,-9.955164,0.023912,0.301291,-0.004734,-0.006567,-0.004123
1765409421.801304,-9.895385,0.046031,0.273792,-0.006872,-0.006567,-0.001985
1765409421.804254,-9.895385,0.046031,0.273792,-0.006872,-0.008705,-0.001985
1765409421.807294,-9.924676,-0.082496,0.350311,-0.008399,-0.004734,-0.000764
1765409421.809305,-9.897775,-0.108800,0.269010,-0.008247,-0.003971,0.000000
1765409421.811253,-9.848158,-0.111191,0.289933,-0.007025,-0.006109,0.000764
1765409421.814346,-9.913916,-0.031683,0.422047,-0.004581,-0.006109,-0.003665
1765409421.815315,-9.895982,0.003587,0.352702,-0.008247,-0.003971,-0.001833
1765409421.817313,-9.808702,-0.031683,0.197872,-0.008247,-0.006720,-0.001069
1765409421.821266,-9.824244,0.003587,0.300096,-0.007941,-0.005803,0.000916
1765409421.824302,-9.901959,-0.010760,0.388570,-0.008552,-0.007025,0.001680
1765409421.826243,-9.878048,-0.060378,0.283357,-0.005803,-0.007025,0.000458
1765409421.829216,-9.905546,-0.083692,0.253467,-0.006109,-0.005803,-0.000611
1765409421.831291,-9.955164,-0.050215,0.434003,-0.004734,-0.001069,-0.004123
1765409421.834290,-9.905546,-0.020325,0.395146,-0.006872,-0.001069,-0.002291
1765409421.836302,-9.905546,-0.020325,0.395146,-0.006872,-0.003054,-0.002291
1765409421.839295,-9.894786,-0.005978,0.328192,-0.006261,-0.001833,-0.001222
1765409421.841236,-9.902557,-0.044237,0.361071,-0.006567,-0.002443,-0.002291
1765409421.844247,-9.916306,-0.049617,0.263630,-0.006872,-0.002443,-0.002749
1765409421.846244,-9.915112,-0.027499,0.303682,-0.007636,-0.002443,0.001680
1765409421.849254,-9.915112,-0.027499,0.303682,-0.007636,-0.001069,0.001680
1765409421.851253,-9.895385,-0.040053,0.288140,-0.007941,-0.000916,0.000611
1765409421.854205,-9.863700,-0.043042,0.246294,-0.004429,-0.002291,-0.000611
1765409421.856246,-9.932447,0.000598,0.380201,-0.002596,-0.000153,0.000000
1765409421.857258,-9.998802,-0.029890,0.450741,-0.006109,-0.000153,-0.001985
1765409421.861282,-9.982065,-0.111191,0.325801,-0.002138,0.001680,0.002749
1765409421.864283,-9.874461,-0.144070,0.197274,-0.004123,-0.000305,-0.000764
1765409421.867263,-9.919893,-0.068149,0.319225,-0.003665,-0.000305,-0.002902
1765409421.867763,-9.895982,-0.011358,0.319225,-0.003054,0.000153,-0.002291
1765409421.871296,-9.842777,0.022716,0.265423,-0.002596,0.000153,-0.002902
1765409421.874225,-9.873264,-0.032281,0.298900,-0.005956,0.001069,-0.000458
1765409421.876280,-9.962935,-0.056791,0.356289,-0.005803,0.001985,0.001527
1765409421.879281,-9.918698,-0.134505,0.246294,-0.006109,-0.001069,-0.000458
1765409421.881272,-9.915112,-0.126734,0.263032,-0.004123,0.002443,-0.000764
1765409421.884218,-10.009563,-0.059780,0.402917,-0.004123,0.002443,-0.004123
1765409421.886295,-10.032280,-0.021521,0.450741,-0.006109,0.001985,-0.002443
1765409421.888277,-9.993423,0.022716,0.295911,-0.002749,0.003207,-0.001985
1765409421.891225,-9.952174,-0.017934,0.266619,-0.003512,0.002749,0.002749
1765409421.894262,-9.894786,-0.115375,0.273792,-0.003512,0.002596,0.002749
1765409421.896255,-9.916306,-0.187111,0.283357,-0.000305,0.001374,-0.000611
1765409421.897272,-10.019128,-0.147059,0.356887,-0.000305,0.003512,-0.001833
1765409421.902252,-9.991630,-0.010760,0.325203,-0.000458,0.002902,-0.003971
1765409421.904257,-9.924676,0.068149,0.263032,-0.001680,0.002138,-0.004429
1765409421.906252,-9.927666,0.068149,0.276184,-0.001680,0.002138,-0.004429
1765409421.909336,-9.961740,0.006576,0.340148,-0.002291,-0.001069,0.000611
1765409421.911256,-9.899570,-0.113582,0.259445,-0.001069,-0.000916,0.002443
1765409421.912303,-9.869678,-0.148254,0.179340,-0.003360,-0.001069,0.001680
1765409421.917388,-9.971304,-0.102224,0.301889,-0.002291,-0.004429,-0.001527
1765409421.919257,-10.011356,-0.046628,0.364060,-0.002443,0.001069,-0.001985
1765409421.922281,-9.980869,-0.013749,0.309063,-0.001680,-0.000764,-0.002291
1765409421.922781,-9.971304,-0.034075,0.325203,0.000153,-0.002138,-0.000764
1765409421.927373,-9.988641,-0.050215,0.355093,-0.001374,-0.002596,-0.000305
1765409421.929278,-9.998802,-0.062171,0.239120,-0.000611,-0.002596,0.000153
1765409421.932224,-10.011356,-0.083692,0.277379,-0.000916,-0.003207,0.000000
1765409421.934273,-9.947392,-0.081899,0.299498,0.001680,-0.001985,-0.003207
1765409421.936260,-9.917501,-0.001793,0.233142,0.003054,-0.002749,-0.000916
1765409421.939296,-10.003586,0.026303,0.325203,0.000000,-0.004581,-0.001985
1765409421.941321,-10.061573,0.032281,0.425036,-0.001374,-0.001069,-0.000916
1765409421.944270,-10.002390,-0.063367,0.295313,-0.004429,-0.002291,-0.000305
1765409421.946287,-9.945002,-0.164993,0.254663,-0.001680,-0.003818,0.000611
1765409421.949332,-9.945002,-0.164993,0.254663,-0.001680,-0.005345,0.000611
1765409421.951273,-10.007771,-0.049020,0.359876,0.002291,-0.007330,-0.003665
1765409421.954268,-9.967718,0.002391,0.316834,-0.000153,-0.002443,-0.001985
1765409421.956227,-9.984456,0.023912,0.322214,0.000916,0.003054,-0.001374
1765409421.959287,-10.016738,-0.023912,0.442372,0.000611,-0.003665,-0.002138
1765409421.961274,-10.033475,-0.081899,0.326399,0.002138,-0.005498,-0.001833
1765409421.964350,-9.925871,-0.104017,0.251076,0.003818,-0.001985,0.000611
1765409421.966302,-9.915112,-0.066356,0.282759,0.004581,-0.001680,-0.003512
1765409421.969329,-9.924676,-0.054998,0.297107,0.004887,-0.003360,-0.002443
1765409421.970295,-9.988043,0.003587,0.386179,0.003971,-0.003207,-0.001680
1765409421.974309,-9.979673,0.035868,0.422645,0.002291,-0.001222,-0.002443
1765409421.976326,-9.875656,-0.013152,0.287542,0.001374,-0.002902,0.001069
1765409421.979297,-9.858320,-0.109995,0.158417,-0.001069,-0.004123,0.002902
1765409421.981224,-9.890003,-0.088474,0.273195,0.000764,-0.004123,-0.003512
1765409421.984265,-9.922284,-0.025108,0.380201,-0.000764,-0.001222,-0.001985
1765409421.985287,-9.906742,-0.069943,0.273792,0.000764,-0.001222,-0.002138
1765409421.989301,-9.842180,-0.065758,0.297107,0.000764,-0.003818,-0.002138
1765409421.991305,-9.840386,-0.003587,0.288140,-0.001985,0.000764,-0.006567
1765409421.994252,-9.817670,-0.089670,0.174558,0.002596,0.000000,-0.000153
1765409421.996268,-9.873264,-0.188905,0.217599,0.004123,0.000153,0.000458
1765409421.999290,-9.935436,-0.162004,0.364658,0.008247,0.000916,-0.002902
1765409422.001301,-9.935436,-0.162004,0.364658,0.008247,0.002749,-0.002902
1765409422.004279,-9.974891,0.026303,0.347920,0.008705,0.004123,-0.005040
1765409422.006264,-10.035269,0.050215,0.456719,0.007178,-0.000458,-0.003665
1765409422.009251,-10.005977,0.014347,0.437590,0.007941,0.002291,-0.002443
1765409422.011268,-9.826636,-0.059182,0.238522,0.006261,0.005040,-0.001527
1765409422.014273,-9.795551,-0.098039,0.169775,0.006109,-0.002749,-0.003054
1765409422.016256,-9.968315,-0.080105,0.321616,0.006109,0.002902,-0.002443
1765409422.019245,-9.947989,-0.016738,0.381396,0.005040,0.002902,-0.001527
1765409422.021260,-9.900764,-0.033477,0.323410,0.005040,0.002138,-0.001527
1765409422.025018,-9.876254,-0.008369,0.278575,0.002749,-0.000611,-0.000458
1765409422.026215,-9.875058,-0.063367,0.258250,0.000764,-0.001985,0.000611
1765409422.029267,-9.915112,-0.137494,0.190100,0.001680,-0.001527,0.001069
1765409422.031230,-9.898373,-0.210426,0.246294,0.004276,-0.001527,-0.000153
1765409422.034207,-9.930654,-0.107604,0.270803,0.005803,0.003360,-0.003818
1765409422.036249,-9.949782,0.003587,0.336561,0.005803,0.004123,-0.006414
1765409422.039256,-9.966521,0.047226,0.356289,0.006567,0.000764,-0.005651
1765409422.041344,-9.901362,0.051411,0.241511,0.003512,0.005192,-0.005192
1765409422.044221,-9.894786,0.023912,0.190100,0.008094,0.005192,-0.000764
1765409422.047288,-9.894786,0.023912,0.190100,0.008094,0.001069,-0.000764
1765409422.049246,-10.019128,-0.141081,0.373027,0.009621,0.009010,-0.002138
1765409422.051330,-9.982663,-0.074127,0.270803,0.008399,0.009010,-0.003054
1765409422.054284,-9.937828,-0.090866,0.185318,0.008552,0.007025,-0.003054
1765409422.056280,-10.014346,-0.068747,0.457915,0.009163,0.008094,-0.005192
1765409422.059235,-10.074127,-0.072334,0.462099,0.007789,0.008094,-0.006567
1765409422.061356,-10.057388,-0.084888,0.290531,0.012981,0.005803,-0.004887
1765409422.064187,-9.958152,-0.083692,0.233142,0.012065,0.002291,-0.003360
1765409422.066218,-10.033475,-0.011956,0.450143,0.008858,0.003054,-0.004887
1765409422.069302,-10.009563,0.038259,0.445959,0.007178,0.005192,-0.004581
1765409422.071301,-9.995216,0.095648,0.289335,0.007330,0.000305,-0.003054
1765409422.074338,-10.132113,0.071138,0.462697,0.009774,-0.001985,-0.002291
1765409422.076262,-10.045432,-0.051411,0.337757,0.009316,-0.002138,0.000916
1765409422.079244,-10.040649,-0.225968,0.306074,0.009316,-0.001374,0.000916
1765409422.081231,-9.927068,-0.160210,0.218795,0.011606,0.000458,-0.006414
1765409422.084251,-9.994021,-0.042444,0.291726,0.008858,0.000916,-0.007483
1765409422.087262,-9.967718,-0.005380,0.265423,0.012370,-0.000611,-0.002902
1765409422.090328,-9.971304,-0.109995,0.321616,0.009316,-0.002596,-0.001985
1765409422.091245,-9.953967,-0.051411,0.268412,0.007941,0.005040,-0.005498
1765409422.094203,-9.835006,-0.062171,0.092659,0.012675,0.001527,-0.006567
1765409422.096272,-9.913916,-0.037064,0.325203,0.014508,-0.002291,0.000611
1765409422.099251,-9.991630,-0.087279,0.373027,0.010843,0.001222,-0.003665
1765409422.102243,-9.945002,-0.199067,0.261239,0.009010,0.002902,-0.001069
1765409422.104263,-9.852941,-0.193687,0.066954,0.012981,-0.003971,-0.006567
1765409422.106265,-10.099234,0.001196,0.432209,0.016035,-0.001527,-0.006567
1765409422.109259,-10.002390,-0.019130,0.421449,0.012675,-0.001680,-0.004734
1765409422.111264,-9.946795,-0.115973,0.144070,0.014966,-0.000916,-0.000458
1765409422.114283,-9.797942,-0.154232,0.133309,0.014813,0.000305,-0.000458
1765409422.114783,-10.045432,-0.102224,0.410091,0.015730,-0.004581,-0.008399
1765409422.117322,-9.993423,-0.026303,0.359278,0.016035,-0.002291,-0.006872
1765409422.121247,-9.919893,0.007174,0.154232,0.011301,-0.001833,-0.003512
1765409422.124291,-9.848158,0.083094,0.125538,0.011148,0.004429,-0.002138
1765409422.124791,-10.032877,0.016738,0.325203,0.014355,-0.001069,0.000000
1765409422.129236,-9.968913,-0.219990,0.303682,0.013439,0.002596,0.003207
1765409422.131281,-9.799137,-0.177547,0.132712,0.016188,0.007025,-0.005498
1765409422.132275,-9.917501,-0.161406,0.368245,0.012065,0.007636,-0.007330
1765409422.136274,-9.912720,-0.021521,0.210426,0.016188,0.001527,-0.004123
1765409422.139236,-9.974891,-0.005978,0.282162,0.018173,0.000458,-0.006109
1765409422.141229,-9.820659,-0.009565,0.273792,0.014813,0.007330,-0.005192
1765409422.144276,-9.952174,-0.025108,0.339550,0.014508,0.003054,-0.003207
1765409422.147252,-9.856527,-0.139287,0.166188,0.016952,-0.000153,-0.001985
1765409422.149309,-10.040649,-0.032879,0.467480,0.013592,-0.002749,-0.009316
1765409422.151174,-10.082495,0.031086,0.584648,0.014508,0.003512,-0.003665
1765409422.154229,-9.872069,-0.089670,0.255261,0.018937,-0.002596,-0.000305
1765409422.156253,-10.049019,-0.068149,0.380799,0.014355,-0.008858,-0.006261
1765409422.159237,-10.025107,-0.045433,0.328192,0.014203,-0.003665,-0.005803
1765409422.161285,-9.846962,-0.043639,0.156624,0.018326,-0.005651,-0.003360
1765409422.164263,-9.830223,-0.011956,0.233142,0.015577,0.001374,-0.006720
1765409422.166249,-9.907937,-0.025108,0.404711,0.015882,0.001374,-0.006567
1765409422.169264,-9.742945,-0.086083,0.062171,0.016188,-0.003818,-0.005040
1765409422.171265,-9.905546,-0.052606,0.193687,0.012370,-0.007178,-0.009316
1765409422.174240,-9.905546,-0.052606,0.193687,0.012370,0.008247,-0.009316
1765409422.176219,-9.989238,-0.080105,0.387374,0.016952,0.002443,-0.003207
1765409422.179267,-9.913916,-0.218197,0.297704,0.019395,0.000000,-0.005040
1765409422.181280,-9.882233,-0.038259,0.238522,0.019548,0.003512,-0.011759
1765409422.184241,-9.821257,-0.038857,0.240316,0.015882,0.008858,-0.007789
1765409422.186266,-9.830223,-0.008369,0.221186,0.018937,-0.003054,-0.006720
1765409422.187309,-9.930056,0.031086,0.298302,0.018173,0.002291,-0.006109
1765409422.191280,-9.628167,-0.156026,0.038259,0.017257,0.002291,0.000000
1765409422.192303,-9.710664,-0.176949,0.132712,0.019853,0.003054,-0.005803
1765409422.196306,-9.892993,-0.080105,0.419656,0.018173,-0.001069,-0.005803
1765409422.199304,-9.989238,-0.100430,0.415471,0.018326,-0.000458,-0.008399
1765409422.201273,-9.724413,-0.076518,0.066954,0.022297,-0.000611,-0.005498
1765409422.204325,-9.942610,0.007771,0.300096,0.019395,-0.000611,-0.010079
1765409422.206320,-9.961142,-0.065758,0.393352,0.019548,0.003054,-0.003054
1765409422.209325,-10.047822,-0.163797,0.368245,0.018173,0.003665,-0.004734
1765409422.212325,-10.051410,-0.051411,0.304280,0.021380,0.003665,-0.007025
1765409422.214252,-9.884026,-0.086083,0.197274,0.022144,0.007178,-0.002902
1765409422.217219,-9.990434,-0.153635,0.364658,0.023213,0.006109,-0.004429
1765409422.219248,-9.990434,-0.153635,0.364658,0.023213,0.003207,-0.004429
1765409422.221231,-10.004184,-0.090866,0.272597,0.023671,0.009468,-0.004276
1765409422.224239,-9.818267,-0.080105,0.168580,0.020311,0.009468,-0.006261
1765409422.226230,-9.818267,-0.080105,0.168580,0.020311,0.006414,-0.006261
1765409422.229237,-9.961740,-0.254663,0.297107,0.026114,0.005345,-0.004276
1765409422.231254,-9.961740,-0.254663,0.297107,0.026114,0.003512,-0.004276
1765409422.234285,-9.974891,-0.058584,0.465088,0.024893,0.001680,-0.003818
1765409422.236259,-9.793160,-0.062171,0.092061,0.029169,0.001680,-0.003207
1765409422.239259,-10.034670,-0.095648,0.395744,0.026267,-0.000153,-0.007025
1765409422.241271,-9.864299,-0.058584,0.216404,0.021991,0.009163,-0.007178
1765409422.244250,-9.877449,-0.119560,0.032281,0.026725,-0.001069,-0.005803
1765409422.246234,-9.911524,-0.173362,0.140483,0.024435,-0.001985,-0.006872
1765409422.249208,-10.109396,-0.024510,0.506337,0.024129,0.006720,-0.012828
1765409422.250230,-10.032280,-0.129125,0.466284,0.028558,0.017868,-0.004887
1765409422.254207,-9.979673,-0.113582,0.330583,0.031307,0.003207,-0.007178
1765409422.256187,-10.124939,-0.056791,0.554758,0.028405,0.003207,-0.013286
1765409422.259257,-9.964130,-0.159015,0.326997,0.029322,0.005192,-0.009774
1765409422.261227,-9.829028,-0.210426,0.004185,0.029169,0.005192,-0.009010
1765409422.264213,-9.843375,-0.182927,0.190698,0.032529,0.004276,-0.008247
1765409422.265271,-10.069344,-0.035868,0.474055,0.031765,0.003818,-0.012828
1765409422.269226,-9.947392,0.068747,0.320421,0.029169,0.008552,-0.011606
1765409422.272242,-9.947392,0.068747,0.320421,0.029169,0.011301,-0.011606
1765409422.272742,-9.763269,-0.099235,0.254663,0.034972,0.003360,-0.003818
1765409422.276209,-9.882233,-0.211621,0.318030,0.032834,0.004734,-0.005956
1765409422.279259,-9.848756,-0.173362,0.186514,0.037874,0.006261,-0.005040
1765409422.281272,-9.837397,-0.130320,0.274988,0.035125,0.003971,-0.013134
1765409422.284247,-9.837397,-0.130320,0.274988,0.035125,0.009468,-0.013134
1765409422.286188,-9.885221,-0.078910,0.259445,0.030543,-0.001985,-0.007025
1765409422.289195,-9.883428,-0.096844,0.149450,0.032529,-0.001985,-0.008094
1765409422.291227,-9.885221,-0.109995,0.295313,0.032834,0.011148,-0.008399
1765409422.292207,-9.853538,-0.194883,0.254065,0.035736,0.011148,-0.008094
1765409422.297286,-9.824244,-0.156026,0.070540,0.039554,0.003054,-0.008247
1765409422.299223,-10.031085,-0.062769,0.350311,0.037874,0.005040,-0.015119
1765409422.302245,-9.967718,0.016738,0.355093,0.033903,0.014508,-0.010079
1765409422.304205,-9.947392,-0.011358,0.282162,0.032987,0.009621,-0.004123
1765409422.306272,-9.963533,-0.117767,0.392755,0.033292,0.007636,-0.009468
1765409422.309261,-9.997607,-0.150048,0.381396,0.034208,0.009163,-0.009927
1765409422.311266,-9.820659,-0.265423,-0.141679,0.039706,0.010385,-0.006414
1765409422.314233,-9.752509,-0.172166,0.087279,0.039095,0.010385,-0.008552
1765409422.318225,-9.895982,-0.045433,0.423840,0.042761,0.013744,-0.006567
1765409422.319279,-9.964130,-0.126734,0.411286,0.042150,0.008552,-0.005345
1765409422.321238,-9.907937,-0.154232,0.194883,0.037721,0.014813,-0.009468
1765409422.324265,-9.839788,-0.164993,0.206839,0.041692,0.008858,-0.007789
1765409422.326270,-9.931850,-0.216404,0.408895,0.040623,0.010996,-0.010079
1765409422.327264,-9.986848,-0.187709,0.258847,0.040623,0.009621,-0.010079
1765409422.331231,-9.793160,-0.192492,0.188905,0.041692,0.010079,-0.007789
1765409422.334196,-10.040649,0.093855,0.354495,0.043371,0.013592,-0.016341
1765409422.336235,-10.045432,0.002391,0.461502,0.044899,0.011606,-0.004429
1765409422.339316,-9.890003,-0.072334,0.212817,0.042608,0.008705,-0.003971
1765409422.342285,-9.924676,-0.101028,0.387374,0.040928,0.013744,-0.008247
1765409422.344231,-9.756096,-0.177547,0.085485,0.044440,0.012217,-0.005956
1765409422.346262,-9.884026,-0.081899,0.163797,0.049633,0.004276,-0.007789
1765409422.349231,-10.008965,-0.041846,0.428025,0.045968,0.016493,-0.009468
1765409422.351233,-10.058583,0.037064,0.384983,0.047189,0.016493,-0.005498
1765409422.354179,-9.813485,-0.133309,0.058584,0.041233,0.014661,-0.003971
1765409422.356217,-9.931850,-0.076518,0.257054,0.044135,0.008094,-0.007636
1765409422.357238,-10.052606,-0.107604,0.487805,0.041844,0.012828,-0.007789
1765409422.361272,-10.068149,-0.257054,0.386179,0.044746,0.009621,-0.004581
1765409422.364180,-9.967119,-0.191296,0.245098,0.048411,0.010996,-0.006109
1765409422.366215,-9.913916,-0.030488,0.260641,0.045815,0.011759,-0.009163
1765409422.369247,-9.916306,-0.032281,0.178742,0.042302,0.014355,-0.006567
1765409422.371236,-9.895982,-0.075323,0.087279,0.048106,0.011301,-0.008247
1765409422.374244,-9.931252,-0.124940,0.395744,0.046578,0.015272,-0.008247
1765409422.376226,-9.950979,-0.111191,0.266619,0.051007,0.010385,-0.009163
1765409422.379252,-9.891200,-0.288140,0.152439,0.052993,0.006872,-0.008705
1765409422.381239,-9.772835,-0.157819,0.048422,0.053909,0.017257,-0.012828
1765409422.384239,-9.802725,0.003587,0.166786,0.052534,0.021228,-0.012981
1765409422.386219,-9.884624,-0.078910,0.353898,0.049786,0.018784,-0.010385
1765409422.389184,-9.958152,-0.007174,0.277379,0.051924,0.013286,-0.010690
1765409422.391191,-9.838593,-0.088474,0.143472,0.051160,0.016493,-0.009316
1765409422.394245,-9.652678,-0.095648,-0.094452,0.051160,0.018021,-0.008247
1765409422.396280,-9.928263,-0.198470,0.376614,0.051771,0.009010,-0.005345
1765409422.399203,-10.145862,-0.202654,0.651602,0.048717,0.019700,-0.011301
1765409422.401198,-9.982065,-0.053802,0.321616,0.055741,0.019700,-0.010385
1765409422.404248,-9.881634,-0.127929,0.014347,0.054825,0.012217,-0.012065
1765409422.406248,-10.192491,-0.013152,0.483022,0.059254,0.020159,-0.013134
1765409422.409315,-10.123145,-0.086681,0.486609,0.056658,0.020159,-0.011454
1765409422.411241,-9.864299,-0.106408,0.104017,0.058032,0.017257,-0.010537
1765409422.414227,-9.787780,-0.150646,0.167982,0.051771,0.015272,-0.013592
1765409422.416561,-10.126732,-0.017934,0.503945,0.054062,0.014355,-0.013439
1765409422.419041,-9.916306,-0.098039,0.336561,0.055283,0.019853,-0.011606
1765409422.421275,-9.777617,0.047226,0.065758,0.055894,0.019853,-0.013592
1765409422.424232,-9.912122,0.014347,0.266619,0.052534,0.012828,-0.009316
1765409422.426254,-10.053204,-0.200861,0.448350,0.055131,0.010537,-0.008247
1765409422.429223,-10.027497,-0.217599,0.180536,0.061239,0.012370,-0.007483
1765409422.431185,-9.746531,-0.230751,-0.003587,0.061239,0.022602,-0.007483
1765409422.434248,-9.962935,-0.063367,0.408297,0.055589,0.022602,-0.014355
1765409422.437202,-10.163795,0.008369,0.615734,0.058490,0.018937,-0.012675
1765409422.439229,-9.953370,-0.016141,0.364658,0.059101,0.017868,-0.011301
1765409422.441222,-9.738162,-0.080105,-0.034672,0.054672,0.017868,-0.010690
1765409422.444307,-9.738162,-0.080105,-0.034672,0.054672,0.015272,-0.010690
1765409422.445244,-9.807508,-0.289335,0.064562,0.064446,0.015730,-0.008247
1765409422.449211,-9.842180,-0.114180,0.237327,0.061087,0.023976,-0.014508
1765409422.451222,-9.801530,-0.002391,0.292922,0.058490,0.023671,-0.014050
1765409422.454215,-9.757890,-0.007174,0.086083,0.058490,0.017257,-0.009621
1765409422.456242,-9.757890,-0.007174,0.086083,0.058490,0.015424,-0.009621
1765409422.459224,-9.805116,-0.169775,0.101626,0.059101,0.023824,-0.011759
1765409422.462193,-9.725011,-0.307269,-0.058584,0.065668,0.022449,-0.008399
1765409422.464219,-9.875656,-0.274988,0.249880,0.062308,0.023671,-0.010385
1765409422.466219,-10.179338,-0.004782,0.581659,0.062003,0.023671,-0.017715
1765409422.469201,-10.011955,-0.065758,0.353898,0.065821,0.029322,-0.008858
1765409422.471228,-9.842180,-0.203850,0.109995,0.065515,0.015272,-0.007330
1765409422.474177,-10.026302,-0.216404,0.267217,0.064294,0.015272,-0.010996
1765409422.476260,-10.025107,-0.254065,0.317432,0.067348,0.023824,-0.014813
1765409422.479182,-9.861309,-0.148254,0.029292,0.073609,0.023824,-0.014203
1765409422.481233,-9.782400,-0.085485,0.204448,0.070555,0.023213,-0.014355
1765409422.484280,-10.029889,-0.013749,0.518293,0.068264,0.021991,-0.017257
1765409422.486250,-9.964130,-0.049020,0.181731,0.067501,0.021991,-0.011454
1765409422.490251,-9.868484,-0.089670,0.175753,0.067501,0.018631,-0.011454
1765409422.492251,-9.720228,-0.082496,0.047226,0.063835,0.018479,-0.012981
1765409422.494260,-9.763269,-0.303085,0.025108,0.068111,0.018479,-0.006720
1765409422.496248,-9.684361,-0.362267,-0.193687,0.072846,0.019548,-0.010385
1765409422.497256,-9.781204,-0.074127,0.015543,0.074678,0.024282,-0.016341
1765409422.501249,-9.781204,-0.074127,0.015543,0.074678,0.030085,-0.016341
1765409422.504231,-9.983260,0.032879,0.526064,0.072998,0.028253,-0.011148
1765409422.506283,-9.984456,-0.009565,0.469871,0.071471,0.024435,-0.009621
1765409422.509242,-9.976685,-0.103419,0.197274,0.070402,0.017257,-0.013134
1765409422.511347,-9.837397,-0.221186,-0.127929,0.071319,0.013134,-0.013134
1765409422.512242,-9.661644,-0.267814,-0.170971,0.076816,0.019395,-0.009774
1765409422.519106,-9.870873,-0.100430,0.115973,0.075136,0.023366,-0.017410
1765409422.519606,-10.129124,0.150646,0.600191,0.075289,0.029169,-0.016646
1765409422.521273,-10.153036,0.115375,0.631277,0.076969,0.022755,-0.007941
1765409422.524254,-9.890601,-0.047226,0.203850,0.074373,0.019242,-0.006872
1765409422.526245,-9.842180,-0.211621,0.028694,0.069333,0.017410,-0.006872
1765409422.529224,-10.092658,-0.423840,0.114180,0.075595,0.013744,-0.008858
1765409422.531207,-10.019128,-0.229555,0.239120,0.080481,0.013134,-0.016799
1765409422.534203,-9.872069,0.121353,0.136298,0.070097,0.028253,-0.025809
1765409422.536211,-9.644308,0.214012,-0.214012,0.070097,0.030696,-0.015424
1765409422.539248,-9.736369,0.093257,0.077116,0.075595,0.023824,-0.002138
1765409422.541208,-10.139286,-0.108800,0.662362,0.075289,0.028405,-0.008705
1765409422.544192,-10.139286,-0.108800,0.662362,0.075289,0.041233,-0.008705
1765409422.546207,-9.582136,-0.489000,-0.257054,0.077122,0.020006,-0.009316
1765409422.549213,-10.031085,-0.094452,0.228360,0.077885,0.015730,-0.022755
1765409422.552301,-10.249879,0.046031,0.759206,0.078954,0.024893,-0.020464
1765409422.554204,-9.982065,0.101028,0.457317,0.083230,0.035736,-0.009468
1765409422.556202,-9.634145,-0.172764,0.023314,0.076358,0.024129,-0.007941
1765409422.557221,-9.736967,-0.225968,-0.027499,0.074678,0.012523,-0.015730
1765409422.561168,-9.876852,-0.157221,-0.073529,0.084910,0.018631,-0.011912
1765409422.564239,-9.794355,-0.288140,0.101626,0.086590,0.026878,-0.011301
1765409422.566254,-9.898373,-0.068149,0.302487,0.078343,0.030849,-0.022144
1765409422.569206,-10.099831,0.088474,0.520086,0.079718,0.026114,-0.018631
1765409422.571288,-9.854136,-0.075323,-0.002391,0.086132,0.024282,-0.010385
1765409422.574203,-9.734576,-0.014945,-0.099235,0.084147,0.031460,-0.015424
1765409422.576218,-9.956957,-0.102224,0.331181,0.083536,0.031460,-0.017104
1765409422.579215,-10.059779,-0.179340,0.441176,0.090255,0.028863,-0.009468
1765409422.580172,-9.878646,-0.161406,0.292324,0.089034,0.028863,-0.015424
1765409422.582206,-9.928263,-0.038259,0.297704,0.077580,0.034208,-0.020464
1765409422.586199,-9.989837,0.014347,0.197872,0.078343,0.026573,-0.015730
1765409422.587190,-9.933045,-0.105213,0.251674,0.085063,0.023213,-0.015730
1765409422.592172,-9.869678,-0.118962,0.193687,0.080940,0.027336,-0.018784
1765409422.594222,-9.655068,-0.291726,-0.145863,0.084605,0.031001,-0.016188
1765409422.596195,-9.646699,-0.240316,-0.263032,0.084605,0.023824,-0.016188
1765409422.599231,-9.978478,-0.008967,0.125538,0.086285,0.030543,-0.022297
1765409422.602257,-9.823050,-0.044835,0.273792,0.080634,0.043524,-0.019700
1765409422.604213,-9.799736,-0.054998,0.263032,0.086590,0.040623,-0.017104
1765409422.606218,-9.977283,-0.095648,0.436394,0.084910,0.031765,-0.018021
1765409422.609208,-10.058583,-0.210426,0.439383,0.084147,0.031460,-0.019853
1765409422.612225,-9.897178,-0.260641,-0.087279,0.090713,0.029016,-0.014355
1765409422.614242,-9.778812,-0.351506,-0.086083,0.089034,0.029016,-0.016952
1765409422.616249,-9.974891,-0.130918,0.381396,0.085063,0.034361,-0.024282
1765409422.619853,-10.040649,0.054998,0.466284,0.088575,0.039095,-0.019242
1765409422.621337,-9.867287,-0.127929,0.197274,0.087965,0.034819,-0.014813
1765409422.624201,-9.705284,-0.129125,-0.127929,0.088423,0.029016,-0.015119
1765409422.626213,-9.821257,-0.359278,0.048422,0.093310,0.029016,-0.019548
1765409422.627228,-9.821257,-0.359278,0.048422,0.093310,0.036194,-0.019548
1765409422.630196,-9.815877,-0.255858,0.176949,0.098044,0.040012,-0.020464
1765409422.634243,-9.987445,0.032281,0.362865,0.093462,0.040928,-0.023518
1765409422.636279,-10.016139,0.136896,0.300693,0.091783,0.036652,-0.018937
1765409422.639157,-10.011955,-0.199665,0.439383,0.097586,0.033292,-0.009010
1765409422.641164,-10.040051,-0.344931,0.638450,0.096059,0.029627,-0.018479
1765409422.644170,-9.903752,-0.339550,0.182927,0.093921,0.019700,-0.020311
1765409422.646245,-9.715446,-0.239120,-0.319225,0.100945,0.019700,-0.020617
1765409422.649226,-9.934240,0.068149,0.043042,0.101556,0.019090,-0.027336
1765409422.651248,-10.114178,0.088474,0.286944,0.095448,0.031154,-0.018173
1765409422.654186,-9.952174,0.003587,-0.011956,0.095448,0.032529,-0.018173
1765409422.656237,-9.785389,-0.011358,-0.019727,0.092852,0.037874,-0.016341
1765409422.660213,-9.875656,-0.229555,0.193089,0.094837,0.037874,-0.012675
1765409422.661242,-9.977283,-0.258250,0.260641,0.100793,0.038637,-0.015577
1765409422.664186,-9.867287,-0.321616,0.208034,0.098502,0.034972,-0.018937
1765409422.666201,-9.829626,0.070540,0.075323,0.094684,0.036194,-0.025962
1765409422.669207,-9.754900,-0.002391,-0.150646,0.093310,0.029322,-0.017868
1765409422.670234,-9.762074,-0.053802,-0.051411,0.098655,0.031001,-0.015119
1765409422.674230,-9.853538,-0.143472,-0.001196,0.099418,0.036346,-0.016035
1765409422.676211,-9.983260,-0.295313,0.339550,0.098349,0.036499,-0.018479
1765409422.679206,-10.041844,-0.418460,0.353898,0.106596,0.036499,-0.013439
1765409422.681167,-10.037063,-0.425634,0.349115,0.107818,0.034208,-0.020159
1765409422.684185,-9.952174,-0.179340,0.095648,0.106443,0.033598,-0.029627
1765409422.686165,-9.977283,0.117767,0.120158,0.107360,0.033445,-0.027031
1765409422.689227,-10.057388,0.120756,0.289933,0.105527,0.030543,-0.021533
1765409422.691323,-9.934838,-0.065758,0.332975,0.097128,0.035583,-0.020311
1765409422.692325,-9.716043,-0.285151,-0.141081,0.101556,0.033750,-0.019090
1765409422.697209,-9.690936,-0.329986,-0.284553,0.107970,0.024893,-0.014661
1765409422.699874,-10.067551,-0.074725,0.364658,0.109039,0.032376,-0.027336
1765409422.701197,-10.034670,-0.020923,0.416069,0.108123,0.038026,-0.020159
1765409422.702189,-9.884026,0.016738,0.071736,0.106901,0.038026,-0.018631
1765409422.706254,-10.004781,0.112386,0.345528,0.106901,0.032376,-0.018631
1765409422.707246,-10.169774,-0.127929,0.469871,0.104611,0.035430,-0.013286
1765409422.711224,-9.932447,-0.225371,0.020325,0.112552,0.030849,-0.012370
1765409422.714245,-9.727402,-0.399330,-0.173362,0.106443,0.032987,-0.016341
1765409422.716212,-9.965326,-0.146461,0.162602,0.106596,0.035430,-0.024282
1765409422.719211,-10.099831,-0.124342,0.245098,0.105832,0.041233,-0.020617
1765409422.721221,-10.021520,-0.047824,0.190100,0.106749,0.037415,-0.023060
1765409422.724199,-9.935436,0.049020,0.172764,0.104305,0.040928,-0.020922
1765409422.726232,-10.027497,-0.199067,0.460306,0.104305,0.038790,-0.018784
1765409422.729208,-10.053802,-0.443568,0.142874,0.117286,0.037263,-0.010079
1765409422.730329,-9.841581,-0.423242,0.034672,0.114537,0.040164,-0.021686
1765409422.734198,-9.857125,-0.276781,0.137494,0.104458,0.045815,-0.030391
1765409422.737204,-10.008368,-0.072932,0.297107,0.113621,0.037721,-0.023824
1765409422.739197,-10.090864,-0.078910,0.356289,0.115606,0.031612,-0.022449
1765409422.741182,-9.960544,0.018532,0.199665,0.110719,0.041081,-0.023213
1765409422.744197,-9.851745,-0.121951,0.071138,0.113468,0.041692,-0.016952
1765409422.746192,-9.936632,-0.326399,0.049020,0.116370,0.031154,-0.011454
1765409422.749173,-10.167382,-0.276184,0.234338,0.117744,0.027794,-0.019548
1765409422.751173,-9.968913,-0.132114,0.197274,0.119577,0.042455,-0.022297
1765409422.754163,-9.747129,-0.070540,-0.274988,0.119271,0.045662,-0.017410
1765409422.756176,-9.833811,-0.054998,0.013152,0.115301,0.036346,-0.021533
1765409422.759231,-10.370635,-0.050813,0.902678,0.111177,0.056047,-0.024587
1765409422.761234,-10.179936,-0.100430,0.575681,0.120493,0.056047,-0.010232
1765409422.764278,-9.666426,-0.515304,-0.031683,0.124158,0.039859,-0.007941
1765409422.766225,-9.812290,-0.388570,0.138690,0.112857,0.028253,-0.026267
1765409422.769207,-10.062768,-0.149450,0.183525,0.119882,0.030849,-0.025809
1765409422.771229,-9.742945,-0.198470,-0.207437,0.122173,0.031765,-0.022449
1765409422.774210,-9.549855,0.077714,-0.370636,0.121104,0.030849,-0.025045
1765409422.776189,-9.843973,-0.094452,0.100430,0.114079,0.034667,-0.020617
1765409422.777200,-9.819464,-0.343137,-0.170971,0.121104,0.037415,-0.015119
1765409422.781231,-9.819464,-0.343137,-0.170971,0.121104,0.039859,-0.015119
1765409422.784195,-9.776422,-0.291726,0.182927,0.116217,0.056200,-0.031765
1765409422.787216,-9.966521,0.020325,0.526662,0.125838,0.051465,-0.023976
1765409422.789188,-9.884624,-0.040650,0.274988,0.125533,0.042913,-0.020311
1765409422.792223,-9.585126,-0.068149,-0.328790,0.116828,0.037568,-0.023060
1765409422.794154,-9.719630,-0.031086,-0.091463,0.126449,0.039401,-0.020311
1765409422.796214,-9.806311,-0.347920,0.165591,0.132558,0.042913,-0.006261
1765409422.799254,-9.910927,-0.352702,0.354495,0.129962,0.042913,-0.018784
1765409422.801224,-9.923481,-0.119560,0.179938,0.128434,0.048411,-0.025351
1765409422.804258,-9.787780,-0.096844,-0.157221,0.131336,0.038179,-0.018631
1765409422.806238,-9.714250,-0.098039,-0.091463,0.132710,0.031612,-0.018326
1765409422.809218,-9.803921,-0.037064,0.061573,0.125227,0.046120,-0.025962
1765409422.811241,-9.701099,-0.288140,-0.217599,0.131794,0.050855,-0.012981
1765409422.814197,-9.650884,-0.540411,0.005978,0.135918,0.047037,-0.013897
1765409422.816262,-9.944403,-0.215208,0.453730,0.129656,0.049175,-0.028405
1765409422.819281,-9.954566,-0.089670,0.231946,0.124617,0.049938,-0.026420
1765409422.821214,-9.954566,-0.089670,0.231946,0.124617,0.037568,-0.026420
1765409422.824237,-9.701099,0.007174,-0.302487,0.127824,0.037568,-0.022144
1765409422.827511,-9.701099,0.007174,-0.302487,0.127824,0.050244,-0.022144
1765409422.829200,-9.944403,-0.338953,0.220588,0.139430,0.046273,-0.010843
1765409422.830210,-9.863700,-0.343137,0.082496,0.138666,0.046273,-0.023824
1765409422.834200,-10.067551,-0.002391,0.351506,0.134238,0.048106,-0.031001
1765409422.836220,-9.985652,0.247489,0.175753,0.136528,0.051771,-0.019548
1765409422.839168,-9.870276,-0.011956,-0.069943,0.134085,0.038179,-0.012217
1765409422.840223,-9.840983,-0.198470,-0.216404,0.126755,0.056200,-0.017715
1765409422.844200,-9.947989,-0.341942,0.029890,0.136834,0.056200,-0.015730
1765409422.846197,-9.867885,-0.512912,0.237924,0.144928,0.056200,-0.009927
1765409422.849247,-10.159015,-0.112386,0.516499,0.136070,0.043677,-0.027184
1765409422.851214,-10.135699,0.027499,0.208034,0.125838,0.044899,-0.030085
1765409422.852270,-9.672404,-0.138690,-0.587040,0.137139,0.044746,-0.016952
1765409422.856226,-9.844571,-0.214012,0.055595,0.140957,0.045662,-0.016646
1765409422.859257,-10.034670,-0.406504,0.597800,0.132710,0.057269,-0.023671
1765409422.861253,-9.852941,-0.436394,-0.034672,0.136987,0.046578,-0.022297
1765409422.864196,-9.718434,-0.279770,-0.424438,0.139277,0.046578,-0.025809
1765409422.867208,-9.937828,-0.056193,0.068149,0.134696,0.047495,-0.029322
1765409422.869200,-10.190099,-0.078312,0.383788,0.140804,0.056047,-0.024740
1765409422.871462,-10.011955,-0.286944,0.340746,0.141415,0.059254,-0.023671
1765409422.874162,-9.782400,-0.139287,-0.032281,0.140346,0.059254,-0.024587
1765409422.876194,-9.861907,-0.086083,-0.142874,0.145233,0.045815,-0.027031
1765409422.880199,-9.861907,-0.086083,-0.142874,0.145233,0.044593,-0.027031
1765409422.881167,-9.854136,-0.153635,0.019130,0.148288,0.060934,-0.016188
1765409422.884206,-9.799137,-0.355691,0.039455,0.144164,0.063072,-0.017868
1765409422.886156,-9.909132,-0.368843,0.117767,0.150426,0.045662,-0.021380
1765409422.889164,-10.144667,-0.329986,0.260641,0.153633,0.045662,-0.028558
1765409422.891174,-10.144667,-0.329986,0.260641,0.153633,0.055436,-0.028558
1765409422.894182,-9.809898,0.011956,0.022716,0.148440,0.057269,-0.027336
1765409422.896347,-10.001194,-0.261836,0.260641,0.153938,0.052382,-0.017104
1765409422.899185,-10.114776,-0.364658,0.364658,0.149051,0.041233,-0.021838
1765409422.900305,-10.043638,-0.246891,-0.100430,0.147371,0.056963,-0.030696
1765409422.904210,-9.805116,-0.113582,-0.269010,0.147371,0.053298,-0.028558
1765409422.906225,-10.148253,-0.027499,0.505739,0.148135,0.048869,-0.022144
1765409422.907246,-10.270204,-0.065758,0.552367,0.145997,0.056352,-0.022449
1765409422.910195,-10.270204,-0.065758,0.552367,0.145997,0.063225,-0.022449
1765409422.914190,-9.314322,-0.601387,-0.765782,0.157603,0.053451,-0.016493
1765409422.916265,-9.934240,-0.273195,0.233142,0.161727,0.050244,-0.030085
1765409422.919233,-9.918698,0.046628,0.280966,0.161116,0.065668,-0.029016
1765409422.921289,-9.738760,0.086083,-0.141679,0.158214,0.057421,-0.025198
1765409422.924247,-9.789574,0.026303,-0.139885,0.157298,0.055436,-0.018631
1765409422.925274,-10.074127,-0.426829,0.285748,0.160199,0.049327,-0.011454
1765409422.927260,-9.949782,-0.636059,0.151841,0.167683,0.058185,-0.015882
1765409422.931228,-9.687947,-0.462697,-0.247489,0.165544,0.060476,-0.029016
1765409422.934188,-9.813485,-0.031086,0.022119,0.158672,0.055131,-0.031612
1765409422.936203,-10.102820,0.023912,0.181731,0.159741,0.049327,-0.024282
1765409422.939218,-9.959349,-0.127929,0.078312,0.165392,0.053756,-0.019090
1765409422.941171,-9.659253,-0.337159,-0.245696,0.157451,0.059559,-0.018173
1765409422.944201,-9.780008,-0.496174,-0.216404,0.160658,0.053451,-0.023366
1765409422.946178,-9.989837,-0.236729,0.220588,0.168141,0.053451,-0.026725
1765409422.949293,-10.172762,0.081301,0.345528,0.167683,0.057727,-0.026114
1765409422.951208,-9.888210,-0.168580,-0.037064,0.160352,0.061697,-0.013897
1765409422.954202,-9.899570,-0.413678,-0.148254,0.164323,0.047189,-0.018937
1765409422.956233,-10.176947,-0.307867,0.216404,0.170279,0.060018,-0.021686
1765409422.959216,-9.953967,-0.247489,-0.013152,0.163559,0.060018,-0.026878
1765409422.961186,-9.827832,-0.198470,-0.284553,0.168446,0.061239,-0.023366
1765409422.962204,-9.830223,-0.406504,-0.306074,0.174402,0.056505,-0.016493
1765409422.966193,-10.044236,-0.431612,0.151841,0.174860,0.058643,-0.024893
1765409422.969193,-9.947392,-0.228360,0.075921,0.176235,0.071777,-0.027489
1765409422.970202,-10.053204,-0.180536,0.247489,0.177762,0.063072,-0.028100
1765409422.974241,-10.081897,-0.128527,0.335964,0.169515,0.061850,-0.025962
1765409422.976228,-10.050214,-0.190698,0.222382,0.173333,0.053451,-0.019853
1765409422.979199,-9.894786,-0.542802,-0.160210,0.170737,0.050396,-0.020159
1765409422.981199,-9.809898,-0.222382,-0.322812,0.173333,0.049938,-0.029016
1765409422.984202,-9.911524,0.012554,-0.056791,0.174097,0.060170,-0.025962
1765409422.985223,-9.831419,-0.087279,-0.095648,0.174555,0.058032,-0.018479
1765409422.990286,-9.880439,-0.254663,-0.035270,0.174249,0.053603,-0.021838
1765409422.991201,-9.849353,-0.253467,0.027499,0.173333,0.058643,-0.026725
1765409422.994196,-9.867287,-0.258250,-0.145863,0.177762,0.060323,-0.023671
1765409422.995237,-9.897178,-0.334768,0.043042,0.177915,0.056200,-0.022755
1765409422.999240,-9.985652,-0.054998,0.197274,0.176845,0.054367,-0.029016
1765409423.001201,-9.915112,-0.095648,0.112984,0.176540,0.055741,-0.022449
1765409423.002208,-9.670013,-0.374223,-0.273792,0.180205,0.055741,-0.022602
1765409423.006153,-9.670013,-0.374223,-0.273792,0.180205,0.054825,-0.022602
1765409423.009175,-10.020324,-0.313247,0.236729,0.178373,0.059865,-0.023976
1765409423.011187,-9.649688,-0.276184,-0.407700,0.183412,0.061697,-0.021075
1765409423.012192,-9.518172,-0.402917,-0.622908,0.180816,0.065821,-0.023213
1765409423.016165,-9.948587,-0.155428,0.335366,0.181274,0.065821,-0.030391
1765409423.019176,-9.968913,-0.078910,0.310856,0.184634,0.069639,-0.020006
1765409423.020234,-9.677187,-0.188905,-0.255261,0.183260,0.057269,-0.020464
1765409423.022220,-9.621591,-0.069345,-0.498565,0.181274,0.058948,-0.025351
1765409423.026242,-9.988043,-0.284553,0.209230,0.185856,0.057879,-0.018784
1765409423.027271,-10.039454,-0.435198,0.288737,0.190895,0.066737,-0.019853
1765409423.031170,-9.797344,-0.194883,-0.005978,0.186619,0.068722,-0.029016
1765409423.034237,-9.850550,-0.004782,-0.166188,0.177915,0.057116,-0.033292
1765409423.036223,-10.094451,-0.117169,0.014347,0.186467,0.057116,-0.021838
1765409423.039179,-10.094451,-0.117169,0.014347,0.186467,0.061087,-0.021838
1765409423.041147,-9.960544,-0.251076,0.285151,0.182343,0.077122,-0.032223
1765409423.044179,-9.600669,-0.077714,-0.480631,0.185245,0.069486,-0.027184
1765409423.046186,-9.686751,-0.179938,-0.470469,0.186772,0.061392,-0.022297
1765409423.050150,-10.132710,-0.111191,0.285748,0.184329,0.061392,-0.029627
1765409423.051185,-10.132710,-0.111191,0.285748,0.184329,0.083078,-0.029627
1765409423.054199,-9.409372,0.002391,-0.566117,0.180205,0.075289,-0.021228
1765409423.057394,-9.395623,-0.098039,-0.803443,0.178373,0.050396,-0.027184
1765409423.059217,-10.058583,-0.127929,0.156624,0.178678,0.064446,-0.031154
1765409423.060206,-9.898373,-0.278575,0.174558,0.184329,0.085674,-0.017257
1765409423.064215,-9.898373,-0.278575,0.174558,0.184329,0.071013,-0.017257
1765409423.067177,-9.922284,-0.277379,0.019130,0.179594,0.064599,-0.041081
1765409423.069131,-10.164991,-0.087279,0.157819,0.187688,0.064599,-0.034819
1765409423.072161,-9.753705,-0.071736,-0.188905,0.192575,0.067653,-0.030696
1765409423.074163,-9.509803,0.067551,-0.553563,0.178220,0.067653,-0.038026
1765409423.077203,-9.769248,0.031683,-0.301291,0.174249,0.070708,-0.030238
1765409423.079205,-9.862504,-0.352702,-0.160210,0.187688,0.071624,-0.017868
1765409423.080177,-10.199663,-0.191296,0.546389,0.188605,0.074831,-0.027642
1765409423.084209,-9.884026,-0.151841,0.174558,0.175624,0.083536,-0.030543
1765409423.087204,-9.785389,-0.393950,-0.588235,0.177609,0.057421,-0.027336
1765409423.089170,-9.896580,-0.452535,-0.422645,0.189826,0.052382,-0.032987
1765409423.090196,-10.062768,-0.356289,0.260641,0.185703,0.073151,-0.041233
1765409423.094174,-10.064561,0.007174,0.208034,0.186619,0.088423,-0.040470
1765409423.096184,-10.064561,0.007174,-0.631875,0.186619,0.070250,-0.040470
1765409423.099172,-9.992227,-0.176949,-0.260641,0.190743,0.060781,-0.031154
1765409423.102154,-10.056191,-0.320421,0.316834,0.190590,0.077122,-0.029932
1765409423.104174,-9.975489,-0.148254,0.323410,0.190743,0.084910,-0.034972
1765409423.106214,-9.692730,-0.023912,-0.420851,0.189826,0.072846,-0.032681
1765409423.109203,-9.831419,-0.187709,-0.308465,0.189826,0.057421,-0.032681
1765409423.110181,-10.174556,-0.380201,-0.123147,0.189674,0.076664,-0.028711
1765409423.114178,-10.091461,-0.217599,0.212817,0.190285,0.076664,-0.031612
1765409423.116334,-9.927068,-0.115973,0.104615,0.181580,0.082161,-0.036499
1765409423.119248,-9.808702,-0.083692,-0.325203,0.180511,0.067348,-0.031460
1765409423.122194,-9.917501,-0.410091,-0.292922,0.186008,0.058643,-0.033903
1765409423.124322,-9.852941,-0.341942,-0.219990,0.191659,0.069639,-0.033598
1765409423.126178,-9.840983,-0.353898,-0.098039,0.191201,0.078343,-0.040317
1765409423.129196,-9.916306,-0.401722,-0.127929,0.194255,0.071471,-0.032070
1765409423.131188,-10.110592,-0.429220,-0.259445,0.193644,0.059254,-0.038332
1765409423.134191,-10.038258,-0.346724,-0.233142,0.195477,0.075289,-0.037263
1765409423.136167,-9.756096,-0.196078,-0.338355,0.197157,0.083689,-0.036346
1765409423.139204,-9.977283,0.025705,0.181731,0.200517,0.078802,-0.034208
1765409423.141241,-10.045432,-0.367049,0.368245,0.180816,0.075442,-0.029169
1765409423.144181,-10.089668,-0.459110,0.126136,0.196240,0.069180,-0.031460
1765409423.146177,-9.768052,-0.576279,-0.502152,0.194713,0.071624,-0.034361
1765409423.149167,-10.041844,-0.331779,-0.095648,0.199600,0.060628,-0.041386
1765409423.151186,-10.041844,-0.331779,-0.095648,0.199600,0.073151,-0.041386
1765409423.152177,-10.044834,-0.381396,0.124342,0.203418,0.068417,-0.032223
1765409423.156153,-9.780008,-0.376016,-0.306074,0.200669,0.062919,-0.037874
1765409423.159184,-9.906144,-0.151841,-0.235533,0.197615,0.059407,-0.045204
1765409423.161133,-10.010161,-0.107604,-0.225968,0.206778,0.074373,-0.033598
1765409423.164214,-9.838593,-0.556552,-0.144668,0.208916,0.068264,-0.023671
1765409423.166205,-10.052606,-0.167384,0.071736,0.200669,0.070708,-0.044593
1765409423.167208,-10.223577,0.076518,0.197872,0.203571,0.072846,-0.037568
1765409423.171158,-9.626971,-0.274988,-0.315041,0.202807,0.070097,-0.021228
1765409423.174138,-9.438664,-0.255858,-0.645624,0.199600,0.062614,-0.028558
1765409423.176172,-9.722619,-0.398135,-0.338355,0.193797,0.068570,-0.032376
1765409423.177156,-10.055594,-0.408895,-0.252272,0.208916,0.067042,-0.026420
1765409423.181173,-10.024508,-0.347920,0.066954,0.209221,0.076969,-0.030696
1765409423.182165,-9.922883,-0.301889,0.221186,0.202655,0.086437,-0.035736
1765409423.185161,-9.930056,-0.206241,-0.086083,0.203724,0.077274,-0.033292
1765409423.189195,-9.946198,-0.418460,-0.236729,0.210596,0.062766,-0.028405
1765409423.191213,-10.066953,-0.376614,0.011956,0.204945,0.072846,-0.036957
1765409423.194205,-9.840983,-0.367647,-0.206839,0.221286,0.085827,-0.031765
1765409423.196220,-9.546865,-0.618125,-0.530846,0.219453,0.073457,-0.022449
1765409423.199223,-9.958152,-0.229555,-0.087279,0.207236,0.063683,-0.046120
1765409423.201218,-10.122547,-0.020325,0.217599,0.209527,0.086896,-0.038943
1765409423.204203,-9.678382,-0.356887,-0.216404,0.213192,0.086590,-0.024129
1765409423.206232,-9.745934,-0.265423,-0.376614,0.209221,0.066279,-0.032376
1765409423.209314,-10.066953,-0.310258,0.295313,0.205862,0.066279,-0.037568
1765409423.212184,-9.950979,-0.336561,-0.252272,0.217621,0.076358,-0.025504
1765409423.214167,-9.648493,-0.441774,-0.671927,0.223271,0.071624,-0.030238
1765409423.216140,-9.658057,-0.205643,-0.301291,0.208916,0.078802,-0.043371
1765409423.219133,-10.071137,0.173362,0.305476,0.223424,0.084910,-0.034667
1765409423.221201,-9.608439,-0.266619,-0.353300,0.217010,0.084910,-0.023671
1765409423.224272,-9.608439,-0.266619,-0.496174,0.217010,0.072082,-0.023671
1765409423.226227,-10.200860,-0.171569,0.326997,0.211970,0.090866,-0.035736
1765409423.230901,-10.089071,-0.527260,0.142276,0.218842,0.085063,-0.016646
1765409423.231143,-9.913916,-0.611549,-0.547585,0.214108,0.084147,-0.034361
1765409423.234152,-10.035269,-0.444165,-0.097441,0.206778,0.084147,-0.048258
1765409423.236135,-9.990434,0.026901,0.059780,0.222355,0.098655,-0.030849
1765409423.239162,-10.077712,0.011956,-0.044237,0.220828,0.080634,-0.028253
1765409423.240196,-10.245097,-0.111191,0.195481,0.203265,0.080634,-0.033292
1765409423.244142,-10.245097,-0.111191,0.195481,0.203265,0.088728,-0.033292
1765409423.246148,-9.454207,-0.920612,-0.579268,0.229533,0.087659,-0.009621
1765409423.249122,-9.528933,-0.473458,-0.693448,0.220828,0.077885,-0.038332
1765409423.251140,-10.149448,-0.204448,0.022716,0.219453,0.091783,-0.041539
1765409423.252198,-9.820659,-0.420851,-0.313247,0.224646,0.091783,-0.021228
1765409423.256166,-9.769248,-0.260641,-0.248685,0.225257,0.080940,-0.036652
1765409423.259163,-9.925871,-0.267814,0.155428,0.207847,0.096517,-0.043219
1765409423.261183,-9.950381,-0.490794,-0.227164,0.225562,0.087354,-0.023213
1765409423.264164,-9.885221,-0.639646,-0.432807,0.236405,0.074678,-0.026267
1765409423.266185,-9.945002,-0.241511,-0.265423,0.224035,0.089034,-0.041844
1765409423.269161,-9.992825,0.056193,-0.076518,0.228311,0.100487,-0.032834
1765409423.270120,-9.820060,-0.399330,-0.257054,0.233045,0.076053,-0.019395
1765409423.274137,-9.930654,-0.228360,-0.339550,0.228158,0.076053,-0.032529
1765409423.276166,-10.159015,-0.328790,-0.054998,0.225104,0.093157,-0.035736
1765409423.279101,-9.728598,-0.600191,-0.850072,0.235641,0.095142,-0.018479
1765409423.281146,-9.615016,-0.539216,-0.638450,0.232892,0.082009,-0.035736
1765409423.284146,-10.136297,-0.266619,0.209230,0.219606,0.098960,-0.048869
1765409423.286188,-10.294117,0.142276,0.316236,0.229380,0.099724,-0.030849
1765409423.290206,-9.794355,-0.306074,-0.319823,0.236099,0.085521,-0.020159
1765409423.292216,-9.571974,-0.382592,-0.921808,0.224035,0.081703,-0.028558
1765409423.294150,-9.880439,-0.529651,-0.457915,0.234420,0.089034,-0.026114
1765409423.296150,-9.779410,-0.873386,-0.164993,0.250607,0.089492,-0.011912
1765409423.299201,-10.061573,-0.569106,0.056193,0.245262,0.089492,-0.036499
1765409423.301254,-10.143471,-0.245098,0.156624,0.233045,0.094837,-0.043982
1765409423.302211,-9.823050,-0.095050,-0.490196,0.242208,0.089797,-0.029016
1765409423.305244,-9.777617,-0.326399,-0.462697,0.240986,0.080787,-0.024587
1765409423.309267,-9.788378,-0.475849,-0.107604,0.229838,0.091324,-0.032987
1765409423.311206,-9.943208,-0.211023,-0.068149,0.244499,0.091324,-0.025504
1765409423.314161,-9.398014,-0.515304,-0.833333,0.244499,0.085979,-0.017257
1765409423.316189,-9.709468,-0.063367,-0.698230,0.246637,0.075442,-0.029780
1765409423.319193,-10.052007,-0.228360,0.029890,0.238390,0.093157,-0.024435
1765409423.321735,-9.966521,-0.361071,-0.040053,0.246026,0.098655,-0.015119
1765409423.324137,-9.730989,-0.598398,-0.237924,0.243583,0.095906,-0.024587
1765409423.325162,-9.877449,-0.481827,-0.294118,0.245873,0.087812,-0.034056
1765409423.329190,-10.142276,-0.376614,-0.037064,0.255953,0.089186,-0.028253
1765409423.331140,-9.704685,-0.530846,-0.468675,0.252287,0.091935,-0.025045
1765409423.332110,-9.546865,-0.316834,-0.748446,0.240986,0.094073,-0.040012
1765409423.336114,-9.870873,0.071736,-0.346724,0.244346,0.095448,-0.033903
1765409423.339133,-9.862504,-0.377212,-0.160210,0.249844,0.088117,-0.016952
1765409423.341128,-9.852343,-0.335366,-0.304878,0.248775,0.089644,-0.028863
1765409423.344158,-9.692131,-0.505141,-0.576279,0.241597,0.103847,-0.034667
1765409423.346109,-9.692131,-0.505141,-0.576279,0.241597,0.097433,-0.034667
1765409423.349156,-9.812290,-0.338355,-0.197274,0.257938,0.093310,-0.033445
1765409423.351140,-10.074127,-0.004782,0.268412,0.248164,0.102473,-0.041081
1765409423.354105,-9.730989,0.099235,-0.308465,0.252287,0.106138,-0.031154
1765409423.356116,-9.464370,-0.255261,-0.769966,0.249997,0.081092,-0.024129
1765409423.359122,-9.940218,-0.090866,-0.289933,0.243735,0.083994,-0.040012
1765409423.361126,-9.848158,-0.044237,-0.331779,0.250149,0.109956,-0.029932
1765409423.364149,-9.487684,-0.533238,-0.609158,0.247248,0.102473,-0.023518
1765409423.366106,-9.994618,-0.088474,-0.282162,0.245262,0.105985,-0.043982
1765409423.367115,-10.332376,0.200861,0.215208,0.244499,0.105985,-0.040012
1765409423.370187,-9.593494,-0.163797,-0.551172,0.251676,0.108581,-0.020311
1765409423.374232,-9.624580,-0.095050,-0.790292,0.244193,0.095906,-0.035277
1765409423.376197,-9.624580,-0.095050,-0.790292,0.244193,0.096822,-0.035277
1765409423.379196,-10.232543,-0.300096,0.154232,0.257174,0.102931,-0.025656
1765409423.381201,-9.863700,-0.052606,-0.510521,0.251066,0.103236,-0.036346
1765409423.384204,-9.906742,-0.069345,-0.233142,0.233503,0.106138,-0.042761
1765409423.386181,-10.081299,-0.217599,-0.266619,0.244652,0.097891,-0.030543
1765409423.389178,-9.751313,-0.616332,-0.490196,0.254731,0.090713,-0.031001
1765409423.391152,-9.662840,-0.368245,-0.659373,0.244041,0.109345,-0.048717
1765409423.394207,-9.780008,-0.155428,-0.352702,0.254425,0.109345,-0.041233
1765409423.395192,-9.695719,-0.773553,-0.356289,0.262214,0.094226,-0.031001
1765409423.399166,-10.029889,-0.424438,-0.489000,0.256105,0.084452,-0.053451
1765409423.402354,-10.016139,-0.048422,-0.356289,0.255494,0.107970,-0.056505
1765409423.402854,-9.756096,-0.020923,-0.626494,0.255342,0.108429,-0.034819
1765409423.405141,-10.118960,-0.185916,-0.108800,0.252593,0.090561,-0.038485
1765409423.409232,-10.501554,-0.322812,0.534433,0.243888,0.105985,-0.052229
1765409423.410158,-9.888210,-0.282162,-0.899091,0.257022,0.108734,-0.033139
1765409423.413210,-9.551649,-0.361071,-1.049737,0.260687,0.088728,-0.040164
1765409423.416195,-10.068149,-0.280966,-0.065758,0.241597,0.101862,-0.048411
1765409423.419205,-10.392157,-0.285151,0.312052,0.253356,0.107054,-0.037110
1765409423.421139,-9.800333,-0.587040,-0.576877,0.253356,0.103236,-0.037110
1765409423.424206,-9.837996,0.034075,-0.715567,0.257022,0.096059,-0.046120
1765409423.426214,-10.194881,-0.228360,-0.004782,0.247400,0.096059,-0.035736
1765409423.429167,-10.194881,-0.228360,-0.004782,0.247400,0.098960,-0.035736
1765409423.431113,-9.691534,-0.632472,-0.697035,0.248775,0.096517,-0.033445
1765409423.434128,-9.711859,-0.577475,-0.473458,0.244652,0.094837,-0.045509
1765409423.436167,-10.010758,-0.163797,-0.372429,0.254884,0.098197,-0.040470
1765409423.439133,-9.964130,-0.329986,-0.233740,0.255800,0.098197,-0.034972
1765409423.440160,-9.705881,-0.789096,-0.298900,0.248011,0.102625,-0.037721
1765409423.442093,-9.753705,-0.538020,-0.574486,0.260687,0.091019,-0.044746
1765409423.447158,-9.634743,-0.577475,-0.523075,0.267559,0.089186,-0.033139
1765409423.449138,-9.631156,-0.378407,-0.564323,0.265879,0.091477,-0.040623
1765409423.450136,-9.879243,-0.326399,-0.328192,0.259618,0.103084,-0.041081
1765409423.454191,-9.658057,-0.602582,-0.462697,0.262672,0.099266,-0.032223
1765409423.455242,-9.869678,-0.676710,-0.294118,0.261450,0.098349,-0.040470
1765409423.459205,-9.880439,-0.476447,-0.280966,0.259618,0.098349,-0.044593
1765409423.461189,-9.880439,-0.476447,-0.280966,0.259618,0.103847,-0.044593
1765409423.462155,-9.586919,-0.806432,-0.652798,0.268170,0.095753,-0.034819
1765409423.465202,-9.990434,-0.375418,-0.072932,0.266643,0.099724,-0.052382
1765409423.469173,-10.111190,0.033477,0.004782,0.273973,0.112094,-0.038790
1765409423.471161,-9.933643,-0.428623,-0.229555,0.268781,0.105069,-0.023518
1765409423.474124,-9.647297,-0.549976,-0.753228,0.257785,0.098044,-0.035888
1765409423.477183,-9.644905,-0.585844,-0.521282,0.258396,0.104611,-0.040012
1765409423.479157,-9.533117,-0.510521,-0.564323,0.276569,0.106749,-0.031154
1765409423.482148,-9.672404,-0.215208,-0.468675,0.277180,0.107818,-0.036652
1765409423.484141,-10.106407,-0.243305,0.034075,0.264810,0.107818,-0.037568
1765409423.486146,-10.106407,-0.243305,0.034075,0.264810,0.106749,-0.037568
1765409423.489136,-9.592299,-0.602582,-0.954089,0.278096,0.093462,-0.023976
1765409423.491119,-9.931850,-0.347920,-0.465088,0.265268,0.107818,-0.038943
1765409423.494148,-10.088473,-0.313247,-0.077116,0.268323,0.118202,-0.032681
1765409423.496180,-9.703490,-0.626494,-0.412482,0.268475,0.118202,-0.025504
1765409423.499145,-9.840983,-0.246294,-0.584051,0.262214,0.104916,-0.039248
1765409423.501158,-10.070539,-0.423242,-0.037661,0.255036,0.108734,-0.033903
1765409423.504198,-10.041844,-0.572095,-0.280966,0.266643,0.106443,-0.029474
1765409423.506165,-9.953370,-0.496174,-0.393352,0.272140,0.104305,-0.037874
1765409423.507168,-9.762074,-0.522477,-0.503945,0.266337,0.109345,-0.039248
1765409423.511182,-9.782997,-0.282759,-0.701817,0.278096,0.104458,-0.029474
1765409423.512169,-9.952174,-0.610952,-0.465088,0.276722,0.098807,-0.025656
1765409423.516174,-9.952772,-0.613343,-0.586442,0.265421,0.107970,-0.039248
1765409423.519164,-9.952772,-0.613343,-0.586442,0.265421,0.119577,-0.039248
1765409423.521166,-9.876852,-0.461502,-0.412482,0.274737,0.116828,-0.034819
1765409423.524212,-9.976088,-0.267217,-0.373027,0.272751,0.103847,-0.043677
1765409423.526197,-10.140482,-0.035868,-0.259445,0.272446,0.111025,-0.038790
1765409423.529132,-9.873863,-0.481827,-0.631875,0.286649,0.109956,-0.015730
1765409423.531143,-9.910329,-0.653993,-0.516499,0.283441,0.102931,-0.022449
1765409423.534118,-10.173361,-0.527857,-0.167982,0.278860,0.110108,-0.037415
1765409423.536168,-10.046627,-0.380201,-0.616930,0.285274,0.109803,-0.025809
1765409423.539118,-9.954566,-0.472262,-0.687470,0.282831,0.099113,-0.030085
1765409423.541127,-10.068149,-0.381994,-0.076518,0.279624,0.108887,-0.033903
1765409423.544150,-9.827832,-0.542205,-0.478240,0.281303,0.115148,-0.027031
1765409423.546201,-9.664633,-0.746054,-0.961262,0.287565,0.091477,-0.028100
1765409423.547166,-9.757890,-0.511717,-0.849474,0.281762,0.090866,-0.040928
1765409423.551161,-9.783595,-0.050215,-0.432807,0.289856,0.118813,-0.036041
1765409423.554174,-9.611428,-0.364658,-0.545194,0.284816,0.118813,-0.022144
1765409423.556147,-9.757292,-0.565519,-0.613343,0.280082,0.090866,-0.036652
1765409423.559141,-9.843973,-0.463893,-0.527260,0.279471,0.098807,-0.042302
1765409423.561162,-9.647297,-0.621114,-0.858441,0.289856,0.109039,-0.025351
1765409423.564153,-9.569583,-0.741272,-0.640842,0.285579,0.103236,-0.034514
1765409423.566152,-10.160808,-0.516499,-0.037064,0.278707,0.097891,-0.050244
1765409423.569189,-10.289334,-0.002391,-0.247489,0.288787,0.110567,-0.039706
1765409423.571117,-9.701099,-0.306074,-0.948111,0.295201,0.107207,-0.025045
1765409423.574147,-9.592896,-0.412482,-0.768771,0.290925,0.100029,-0.031307
1765409423.575172,-10.125537,-0.495576,-0.129125,0.288176,0.104916,-0.039706
1765409423.579121,-9.958152,-0.719751,-0.312052,0.298560,0.116675,-0.031460
1765409423.581103,-9.692131,-0.437590,-0.754424,0.299324,0.106443,-0.038790
1765409423.584106,-10.055594,-0.123147,-0.197274,0.284358,0.107207,-0.048564
1765409423.587105,-9.723217,-0.046628,-0.692252,0.290619,0.107207,-0.033903
1765409423.589087,-9.864896,-0.216404,-0.613343,0.297491,0.099724,-0.025504
1765409423.591134,-9.945002,-0.518890,-0.315638,0.288939,0.109345,-0.029627
1765409423.594144,-10.210424,-0.424438,-0.179340,0.295201,0.109650,-0.033139
1765409423.597112,-9.933045,-0.636059,-0.541607,0.302684,0.112399,-0.031307
1765409423.599124,-9.911524,-0.494978,-0.713773,0.299171,0.104611,-0.037568
1765409423.601117,-10.242706,-0.143472,-0.340746,0.293673,0.109803,-0.048411
1765409423.604208,-10.074127,0.007174,-0.300693,0.292452,0.116064,-0.038943
1765409423.606155,-9.732184,-0.039455,-0.846485,0.290314,0.118355,-0.038943
1765409423.609128,-9.996411,0.084888,-0.221186,0.288634,0.117592,-0.034056
1765409423.611107,-10.191893,-0.468675,-0.040650,0.285885,0.117592,-0.022602
1765409423.614108,-10.191893,-0.468675,-0.040650,0.285885,0.108276,-0.022602
1765409423.616107,-9.842180,-0.420851,-0.665949,0.290161,0.113163,-0.049480
1765409423.617167,-9.917501,-0.157819,-0.549976,0.286343,0.118508,-0.040317
1765409423.622152,-9.784791,-0.198470,-0.746054,0.285732,0.101404,-0.041233
1765409423.624173,-9.808702,0.011956,-0.742468,0.277486,0.106749,-0.048564
1765409423.626205,-9.837397,-0.141081,-0.468675,0.282372,0.124006,-0.038179
1765409423.629306,-9.585126,-0.477044,-0.936155,0.293063,0.123242,-0.020159
1765409423.631164,-9.708273,-0.793281,-0.963654,0.278249,0.105527,-0.039859
1765409423.634125,-10.355091,-0.402917,-0.148254,0.286649,0.115759,-0.055436
1765409423.636093,-10.223577,-0.237924,-0.294715,0.291994,0.129503,-0.040164
1765409423.637107,-9.742347,-0.252272,-0.707795,0.286954,0.120493,-0.038179
1765409423.641090,-9.950979,-0.249283,-0.491392,0.271530,0.111788,-0.043219
1765409423.644083,-10.334767,-0.521282,-0.298900,0.279165,0.111788,-0.030696
1765409423.646196,-9.970109,-0.790292,-0.746054,0.279165,0.112552,-0.030696
1765409423.649101,-9.821855,-0.454328,-0.640244,0.282831,0.117439,-0.047800
1765409423.651077,-9.856527,-0.506934,-0.341942,0.280234,0.124617,-0.043830
1765409423.654202,-9.795551,-0.714371,-0.681492,0.286649,0.103389,-0.041692
1765409423.655207,-9.748923,-0.427427,-0.864419,0.286038,0.105985,-0.055589
1765409423.659726,-9.748923,-0.427427,-0.864419,0.286038,0.120951,-0.055589
1765409423.661105,-9.942610,-0.203252,-0.348517,0.287565,0.106443,-0.036957
1765409423.664185,-9.852941,-0.726925,-0.394548,0.285121,0.106443,-0.032376
1765409423.665145,-9.858918,-0.768771,-0.682688,0.278860,0.117439,-0.049327
1765409423.669157,-9.636537,-0.466284,-1.002511,0.290008,0.117439,-0.048717
1765409423.671185,-9.636537,-0.466284,-1.002511,0.290008,0.115301,-0.048717
1765409423.674134,-10.054996,-0.283357,-0.300096,0.290161,0.113621,-0.044593
1765409423.676093,-10.098038,-0.470469,-0.154232,0.288481,0.124617,-0.036499
1765409423.679122,-9.571974,-0.830942,-0.979794,0.295811,0.118813,-0.027184
1765409423.681088,-9.507411,-0.621712,-0.962458,0.301004,0.115454,-0.036499
1765409423.684109,-9.907937,-0.667145,-0.373625,0.293215,0.123242,-0.035277
1765409423.686119,-10.010758,-0.747848,-0.447752,0.291230,0.123700,-0.033750
1765409423.689102,-9.880439,-0.598996,-0.608560,0.299019,0.119119,-0.040623
1765409423.691120,-9.458392,-0.741272,-1.000717,0.294132,0.128129,-0.040470
1765409423.694103,-9.630558,-0.271401,-0.888331,0.306654,0.130572,-0.041233
1765409423.696098,-9.839788,-0.503348,-0.432807,0.308334,0.130572,-0.028100
1765409423.697123,-9.856527,-0.662960,-0.510521,0.307265,0.125838,-0.030391
1765409423.701112,-9.904947,-0.441774,-0.453730,0.297797,0.134390,-0.041233
1765409423.704138,-9.714250,-0.671927,-0.774749,0.297797,0.128282,-0.041233
1765409423.706159,-9.884026,-0.769966,-0.848876,0.302073,0.115148,-0.035430
1765409423.709102,-10.040649,-0.759804,-0.496174,0.297491,0.122784,-0.046273
1765409423.711162,-9.894786,-0.645624,-0.578670,0.304974,0.150120,-0.042150
1765409423.714160,-9.662840,-0.481827,-0.759206,0.315817,0.134849,-0.034819
1765409423.715159,-10.003586,-0.442372,-0.282162,0.305127,0.127671,-0.038485
1765409423.719132,-9.780008,-0.424438,-0.734696,0.304669,0.131031,-0.029932
1765409423.721145,-9.603060,-0.558345,-1.115495,0.310320,0.126296,-0.029627
1765409423.722101,-9.603060,-0.558345,-1.115495,0.310320,0.130725,-0.029627
1765409423.726123,-9.720228,-0.460306,-0.689861,0.314596,0.126907,-0.039859
1765409423.729142,-9.379482,-0.983381,-1.275705,0.310778,0.126755,-0.035583
1765409423.730180,-9.349592,-0.522477,-1.655906,0.327271,0.122937,-0.036805
1765409423.732125,-10.090266,0.014347,-0.489000,0.328798,0.141415,-0.036041
1765409423.736480,-10.075322,-0.469273,-0.054400,0.314748,0.146150,-0.021686
1765409423.738861,-9.722022,-0.539813,-0.978001,0.317650,0.131183,-0.026420
1765409423.741134,-9.699306,-0.747250,-1.224294,0.311541,0.131794,-0.031154
1765409423.744094,-9.934240,-1.109517,-0.527260,0.323453,0.126144,-0.032070
1765409423.746086,-10.222381,-0.448350,-0.425634,0.325744,0.132405,-0.040012
1765409423.747156,-10.023911,-0.420851,-0.538020,0.317803,0.134085,-0.038332
1765409423.751136,-9.476326,-0.392157,-1.054519,0.325133,0.141721,-0.029627
1765409423.754146,-9.701099,-0.658776,-0.943926,0.324828,0.118966,-0.023824
1765409423.756286,-10.186513,-0.682688,-0.118364,0.315817,0.123547,-0.034208
1765409423.759180,-10.020324,-0.557150,-0.668340,0.317650,0.132405,-0.036499
1765409423.761165,-9.683165,-0.939742,-1.071258,0.317192,0.128434,-0.032681
1765409423.764178,-9.541486,-0.509326,-1.272118,0.326049,0.111941,-0.041081
1765409423.766100,-10.009563,0.003587,-0.337159,0.322231,0.126296,-0.041539
1765409423.769113,-9.631156,-0.411286,-0.807628,0.322384,0.140346,-0.022449
1765409423.771111,-9.705881,-0.593615,-1.099952,0.326660,0.120799,-0.023213
1765409423.774148,-10.033475,-0.716164,-0.561932,0.320857,0.127365,-0.034667
1765409423.776131,-9.716641,-0.704208,-0.762793,0.327882,0.133627,-0.032834
1765409423.777125,-9.424317,-0.679699,-1.058106,0.323911,0.122937,-0.035125
1765409423.781135,-9.738760,-0.255858,-0.854854,0.328187,0.115912,-0.037721
1765409423.782184,-10.013150,-0.222382,-0.762793,0.327271,0.126602,-0.026114
1765409423.786151,-9.821855,-0.652798,-0.919416,0.331089,0.129962,-0.021533
1765409423.787126,-9.690338,-0.736490,-0.763391,0.337198,0.135612,-0.027794
1765409423.791136,-9.800931,-0.706600,-0.487207,0.330936,0.133932,-0.036194
1765409423.794133,-9.881634,-0.807030,-0.624103,0.325133,0.134390,-0.038943
1765409423.796133,-9.797344,-0.638450,-1.102343,0.334449,0.123547,-0.040928
1765409423.799075,-9.822452,-0.302487,-0.890722,0.328798,0.122784,-0.050244
1765409423.802103,-9.783595,-0.045433,-0.979196,0.328340,0.135307,-0.047189
1765409423.804083,-9.818865,-0.313845,-0.747250,0.327118,0.134849,-0.036194
1765409423.805102,-9.754900,-0.559541,-0.881157,0.329104,0.133627,-0.035736
1765409423.809062,-10.226564,-0.526064,-0.336561,0.323148,0.128740,-0.042913
1765409423.810117,-10.125537,-0.538618,-0.575681,0.321926,0.136681,-0.048564
1765409423.814112,-9.794355,-0.187709,-1.076638,0.320704,0.137445,-0.046578
1765409423.816098,-9.864896,-0.319823,-0.728120,0.315359,0.137445,-0.046731
1765409423.819075,-10.050214,-0.017934,-0.645026,0.322690,0.136834,-0.046731
1765409423.821135,-9.879243,-0.424438,-0.719751,0.315665,0.127365,-0.035888
1765409423.822244,-9.989238,-0.007771,-0.566714,0.311541,0.136681,-0.045662
1765409423.826170,-9.868484,-0.193687,-0.795074,0.316886,0.128129,-0.037568
1765409423.827210,-9.655666,-0.725729,-0.746054,0.315512,0.128129,-0.030849
1765409423.831741,-9.655666,-0.725729,-0.746054,0.315512,0.123700,-0.030849
1765409423.832207,-10.184121,-0.211621,-0.399330,0.308487,0.150120,-0.049327
1765409423.835142,-9.700500,-0.193687,-0.851267,0.314443,0.150120,-0.041081
1765409423.839130,-9.700500,-0.193687,-0.851267,0.314443,0.127213,-0.041081
1765409423.842075,-9.751313,-0.908656,-1.021042,0.307265,0.129198,-0.047800
1765409423.844097,-9.872667,-0.801052,-0.758010,0.321315,0.138514,-0.045662
1765409423.846090,-9.704685,-0.836322,-0.946915,0.321010,0.129962,-0.042761
1765409423.849136,-9.976088,-0.298302,-0.692252,0.311389,0.129962,-0.062156
1765409423.851123,-10.099234,-0.233142,-0.587637,0.308029,0.139430,-0.050549
1765409423.854148,-9.742945,-0.480631,-1.078431,0.325286,0.132252,-0.033292
1765409423.856098,-9.752509,-0.708991,-0.729316,0.313068,0.129503,-0.043371
1765409423.857079,-9.829028,-0.756815,-0.625897,0.307723,0.136376,-0.051771
1765409423.862091,-9.842777,-0.628288,-1.086800,0.318261,0.136376,-0.048106
1765409423.864112,-9.512194,-0.529651,-1.441296,0.317345,0.134696,-0.049480
1765409423.866162,-9.628167,-0.207437,-1.020445,0.311389,0.136834,-0.052687
1765409423.869125,-10.118362,-0.193687,-0.240316,0.308792,0.144928,-0.040012
1765409423.871376,-9.824244,-0.681492,-0.648613,0.312916,0.136528,-0.028863
1765409423.874129,-9.784791,-0.833333,-0.928981,0.309251,0.126602,-0.039095
1765409423.876110,-9.797344,-0.995935,-0.903874,0.314901,0.134543,-0.042913
1765409423.879114,-9.606647,-0.949904,-1.113104,0.327729,0.132100,-0.038179
1765409423.881101,-9.605451,-0.730512,-0.962458,0.322842,0.132100,-0.046731
1765409423.884144,-9.965326,-0.361071,-0.474653,0.313832,0.137445,-0.050549
