time,acc_x_g,acc_y_g,acc_z_g,gyro_x_rad_s,gyro_y_rad_s,gyro_z_rad_s
0.0,-9.373504,1.058106,-2.960305,-0.007483,-0.005803,-0.001069
0.0025,-8.630245549511324,1.8582076995947556,-3.8399248598808104,-0.02183969215733016,0.005055404052443387,-0.01695234607866508
0.005,-8.505145910114503,1.4311134816030533,-3.4639858125190837,-0.1295553123282443,0.05999182786259542,-0.09852578229007634
0.0075,-8.36052740640884,1.3243056782320441,-3.778456991933701,-0.18396781226519338,0.04138367458563536,-0.20595048773480662
0.01,-8.499663065548141,2.3448561310962823,-4.278218936320306,-0.2888357707912298,0.04447937277407053,-0.28989192938036223
0.0125,-8.350979266831914,1.8782054283811,-4.316814774872192,-0.3287545963129357,0.05407328628969791,-0.31217085620449264
0.015,-8.773069234737847,1.369558031267875,-3.785670393555766,-0.4822651453956148,0.07239108922783602,-0.36704427618684465
0.0175,-9.773204899359426,1.1898358382206424,-3.2480414749466284,-0.5653811792882562,0.059999462135231565,-0.3910155189323843
0.02,-9.995318710903483,0.21630505366240643,-2.9051902408814447,-0.6231989378052005,0.05240554030850592,-0.38374702884089906
0.0225,-11.399071076883942,0.7616253032750401,-2.6106647518177,-0.7148785833386327,0.06213886346581878,-0.3438307541494436
0.025,-10.437337819656488,0.45907553625954445,-3.409275275954199,-0.7486187517175573,0.008064340648855,-0.2944359799618321
0.0275,-10.684405763683085,0.2990829428693791,-3.74464036745182,-0.8097191521199143,-0.055540535331905797,-0.2602341465524625
0.03,-10.005483868317821,0.25632162900500977,-3.91172532850394,-0.8378286418611309,-0.09569179126700056,-0.2116751852541159
0.0325,-11.364727555386086,0.3729175734223029,-2.2816327593517567,-0.9264528413346045,-0.14441981898951387,-0.17492126451858908
0.035,-9.682531529856746,0.6534325150716327,-4.0238697653868005,-0.9044884146704872,-0.18733145971346715,-0.160218095243553
0.0375,-9.96232301507634,0.6577773395038193,-4.3118069931297685,-0.9475388980916031,-0.23952958606870212,-0.1388667429389313
0.04,-9.497843716301235,0.7143219496663459,-4.905398754737852,-0.9849236883126787,-0.2571056192945662,-0.1109992086177311
0.0425,-11.766498,0.908656,-2.669775,-0.952186,-0.33341326003804683,-0.116064
0.045,-9.903401898265006,0.7499441086749253,-3.365127230314592,-0.9890854960915157,-0.39434866993326967,-0.10111771431839844
0.0475,-9.293555396717558,0.43859490793893074,-3.4671689056488537,-0.9925063035877864,-0.422719,-0.06693622526717559
0.05,-10.470664807054337,0.7688028530028652,-2.5296981517635864,-0.9747763746425164,-0.45045121696854146,-0.049415643279313734
0.0525,-10.502854395016744,0.7216677946148716,-2.0903891964099146,-1.0007111846751506,-0.5074344192364368,-0.05112592265237774
0.055,-9.76916521295129,1.280454686876791,-2.4170558637249258,-0.986787929226361,-0.5306969763323782,-0.036070334613180516
0.0575,-8.111913125653095,0.6592584519057825,-4.1187777655674624,-0.9956592304925053,-0.562912,-0.03508413319057821
0.06,-9.680151529083105,1.3385598847277973,-2.5153569283667547,-0.9913758648424069,-0.58979,-0.03238341395415479
0.0625,-10.495414559160306,1.7834002328244276,-1.038801189885496,-0.9777432528625954,-0.6228118692748091,-0.060826702290076334
0.065,-9.285933753385828,0.9602464107086616,-1.6651930371653558,-1.0124767143307085,-0.652404,-0.06267911622047248
0.0675,-9.10544428158978,0.6449545484740977,-1.3775280180837595,-0.9719831247977292,-0.6192983765223565,-0.06156168826117826
0.07,-8.6438352686749,1.478907278856042,-1.3955561728503558,-0.9467774714585325,-0.6220011521067684,-0.09639328034318405
0.0725,-10.698229,1.67384,0.5480637835114388,-1.000445,-0.6379783487022901,-0.100029
0.075,-10.501438581124878,1.7754774606291777,0.7687815645376523,-0.935746759389895,-0.6592312118207821,-0.11383137216396576
0.0775,-9.622227384695009,1.0375115002587798,-0.4838234802957492,-0.9435926117560074,-0.60384,-0.13275444850277263
0.08,-7.690977011297701,1.1645755712977095,-1.926613569465654,-0.9610329520610688,-0.5681595077862596,-0.14592601679389308
0.0825,-9.213414220381665,1.5159543358778702,-0.49326356477101374,-0.9052874874045801,-0.537409,-0.17933486916030533
0.085,-9.27205426196378,1.112519628865603,0.7274146175024021,-0.9208981448617729,-0.529220634928503,-0.21318650787416615
0.08750000000000001,-10.325537009160342,1.059783468893138,1.8756907797710476,-0.9331396690839703,-0.481362,-0.2389284881679395
0.09,-8.881707673517653,0.32583880636797635,0.2485430427836185,-0.8784419538226882,-0.4327409412392751,-0.22706842253574824
0.0925,-8.656695653740458,1.0280860283969473,0.66314490412214,-0.8896979450381679,-0.379374533129771,-0.2518947670229007
0.095,-9.108686120038131,0.8892751834890356,0.7008773475691102,-0.8798061474547187,-0.314137,-0.2853769821163013
0.0975,-10.361309160992375,0.8294584238931215,2.355312344847336,-0.8515134620610686,-0.27521225557251877,-0.2891260922900763
0.1,-9.308808263549631,0.6500388458015167,1.1613641501908556,-0.862974414503817,-0.21133066641221393,-0.296173052480916
0.10250000000000001,-8.892323617436714,0.9535224315102057,0.7806756497632422,-0.8253964368000002,-0.15087895768163256,-0.332316206497959
0.105,-7.924249012824428,0.9241519221755687,-0.15029865564883405,-0.7907495783969469,-0.10018352328244255,-0.34051108614503833
0.1075,-8.486885549742613,0.3869558510962813,1.2125598578074348,-0.7684433953479504,-0.03543,-0.3542184824404194
0.11,-9.784647066717557,0.8382582237404589,1.3931015116030538,-0.6859806030152671,0.022447248396946597,-0.355960352480916
0.1125,-9.313881582268836,0.4406904531935153,1.466875736129658,-0.6588903151572927,0.08723461734985727,-0.3742534242135367
0.115,-9.46765282184938,0.7654888655100023,1.2893291731172556,-0.5763575934413725,0.13740607561487148,-0.36776187809342187
0.11750000000000001,-10.598745560200667,0.34817703665551725,1.2923630198662286,-0.5285209393311036,0.16461530013377976,-0.37735977625418055
0.12,-10.47756684541983,-0.0129631154961838,0.9735489975572342,-0.4552180023664125,0.1658552669465648,-0.3612300941984735
0.1225,-11.461480690943748,-0.5576158993326997,1.5795082730219203,-0.3609569553479506,0.15302714680648224,-0.3488984819828409
0.125,-10.573090501908398,-0.5512442433206106,0.7136406746183206,-0.2866214589694656,0.12941731679389315,-0.2633319532442748
0.1275,-10.584648,-0.350909,0.466284,-0.196699,0.09356930409252658,-0.156076
0.13,-10.357560217121065,-0.6727828270352737,0.35889524110580656,-0.12925514005719718,0.055131,-0.0637211386844611
0.1325,-10.512514103742552,-1.1886581195232289,0.9937516294159782,-0.006349881239570612,0.006067891966626865,-0.009155415542312303
0.135,-9.916962472562576,-0.05070342741359406,0.26214828710370425,-0.0043240313706793395,-0.002749,0.018320764243146305
0.1375,-9.789710716805718,0.15530097234803736,0.11254936734207316,0.0033154379022645496,-0.0044757539928489175,-0.0035134533969011913
0.14,-9.889987009296792,0.03857595852204652,0.215727306936846,-0.019651838474374378,-0.004730927532777187,-0.00802661282479146
0.14250000000000002,-9.980588780500575,-0.13646730283670894,0.3102494705124892,-0.015333171918950943,-0.0036881238140642914,-0.006647362383790214
0.145,-9.827368686579263,-0.12691427251489473,0.21102770259833076,-0.006986680143027391,-0.0041239612872466,0.0012993312514897317
0.1475,-9.913707125905306,-0.074127,0.33417755944849153,-0.004349187809573348,-0.004272170863683677,0.0032720762122788907
0.15,-9.875638699642433,0.1212940629320631,0.24876951370679487,-0.0070869168057210545,-0.0031526805721096077,0.0013374765196662735
0.1525,-9.851006434564958,-0.03694334216924924,0.32096235413587443,-0.009566824505363536,-0.006684738688915338,-0.0023566676996424367
0.155,-9.847275931401335,-0.0884637558436606,0.2576964202097231,-0.012780936816015264,-0.006774494261201156,-0.0033092255862726414
0.1575,-9.898004264266984,-0.07505029439809308,0.25194849592371843,-0.0052638781883194465,-0.004221536734207386,0.000751949749702016
0.16,-9.897128470453463,-0.023171660811456714,0.3306760051551333,-0.00811458816229114,-0.00883870357995235,1.4489355608589331e-05
0.1625,-9.922491278188321,0.011467740166865914,0.3355657539928509,-0.009652655542312238,-0.005927693206197744,-0.002169983551847357
0.165,-9.99375422879619,-0.07103413907032105,0.4154035167103698,-0.007513067842669762,-0.007630803241954571,-0.0006985819308701132
0.1675,-10.052007,0.008967,0.465088,-0.009163,-0.008406767914183369,-0.000458
0.17,-9.19417310965437,0.2739963197139528,-0.02629969492250893,-0.007274018879618724,-0.00523585840285957,-0.01307186784266893
0.17250000000000001,-9.935734671275323,0.4865463387842528,0.4770530603098684,-0.007231691680572529,0.01643398379022569,-0.008759244624551904
0.17500000000000002,-9.853106822911688,0.26308030883054045,0.158143232935546,-0.008703906921241242,0.013106024343674959,-0.0013451307875892314
0.1775,-10.030656423504187,0.027322893825970973,0.32059096734208914,-0.008433414207389533,0.0043599439332543686,-0.002595978450536597
0.18,-9.981021187938024,-0.02310429311084883,0.2347874244100143,-0.005375161430274039,0.002955595995232735,-0.002013571251489777
0.1825,-9.906742,-0.163199,0.199067,-0.008858,-0.005121354463007163,-0.002596
0.185,-9.955410914459543,-0.04114661376158131,0.3472068606609019,-0.007946779833230387,-0.006162476244595431,-0.004532238122297715
0.1875,-9.8624165967858,0.04600723626769009,0.2659335967858,-0.00841586039817702,-0.004853138642360279,-0.0032235545694411128
0.19,-9.960928773280825,0.024828729192365895,0.3863241748391396,-0.009169106651317782,-0.008253066738564073,-0.0031033864913662516
0.1925,-9.948016136382915,-0.03669641201817643,0.3696136661884277,-0.009266308788851863,-0.008349633568009695,-0.00145412669372917
0.195,-9.902224341053467,-0.10563516843409887,0.3024073716850716,-0.008631923540160479,-0.007280046362119642,-0.0004245077270199402
0.1975,-9.858504582964871,-0.13988873448243533,0.2591261604824361,-0.007636,-0.006083359817330216,-0.0016671446182669975
0.2,-9.882831,-0.102822,0.335964,-0.007636,-0.006386511096887746,-0.004429
0.2025,-9.894647003581662,-0.028123678567333846,0.3372297860744986,-0.007150652578796553,-0.006190000372492847,-0.0031353285100286284
0.20500000000000002,-9.887384472366577,0.050256204592991155,0.3068961337358486,-0.00709517729380055,-0.007237305401617252,-0.0006446088625336912
0.20750000000000002,-9.865713736939956,-0.05844595213872882,0.30600372894656275,-0.008445332811136018,-0.007422665622272033,4.419624867301429e-06
0.21,-9.951674533784978,-0.08080565724104087,0.40018680646048127,-0.0070083747079037915,-0.0058636201472754175,0.0005545830338733469
0.2125,-9.963537974278706,-0.02563697374138557,0.32777703240275696,-0.005543479149632043,-0.00330699376241093,-0.0012675650274500563
0.215,-9.8795095299641,0.0072811802186684635,0.26741021674934723,-0.008798161109660571,-0.004182476752610966,-0.002375880411227157
0.2175,-9.912874770570754,-0.01881093267452831,0.3598327558726414,-0.00968378274528302,-0.006055524150943394,-0.0011766894575471697
0.22,-9.989679020874156,0.004857140138188042,0.4720611161152084,-0.007569115407188882,-0.006114850216598087,-0.0010778344507414018
0.2225,-9.964458701365059,0.015345766098935447,0.38893372512210367,-0.00663469326236694,-0.001069,-0.00045524350657482693
0.225,-9.783986056895271,-0.02617823659321622,0.16981311898984908,-0.008189082842287702,-0.0011165608814062923,0.00012326471898984676
0.2275,-9.959017476233115,-0.005358964048629903,0.4287993228830566,-0.00873262671555384,-0.0067818763296024496,-0.0018376374102662986
0.23,-9.967419403593695,-0.014029490389949016,0.3772563131184066,-0.009183273163446724,-0.0006515463268934478,0.0004444993125518542
0.2325,-9.89609461034491,-0.009572079196396802,0.26878394092923974,-0.009467881322745052,-0.0012207626454901058,0.0002549676780846263
0.23500000000000001,-9.853134267355248,-0.020019344430891248,0.23061187014970322,-0.01038268026930694,-0.001527,0.0006802285592079274
0.23750000000000002,-9.883977351507955,-0.05063502104013324,0.32063714937069726,-0.010723324910947496,-0.002802510472571869,0.0013798874851579158
0.24,-9.975264675584757,-0.05113186812089372,0.4355820286990802,-0.007601917976346921,-0.004361376977660982,0.0005903806570302271
0.2425,-9.815447573962624,0.020702131662971232,0.172661731802344,-0.00819687795375356,0.001176173728223002,-0.0040781219005384915
0.245,-9.78533325952909,-0.0008080138507021092,0.17795664756625487,-0.009295718287403651,-0.0009368104297328651,-0.0019645841706261258
0.2475,-9.8136255915823,-0.019826694733249904,0.2814533626390624,-0.009765236396314414,-0.004012503091798425,0.00016952720737117318
0.25,-9.925102479442057,-0.030323163814775768,0.42609042786473117,-0.008405445057172979,-0.005218317330305733,0.0012575998702457221
0.2525,-9.897390110692244,-0.036479145321100914,0.30731745497914914,-0.008166807906588826,-0.0011978917764803969,0.00023630171809841272
0.255,-9.811956621246708,-0.02040769492537307,0.2416647329587358,-0.010260076874451273,-0.0006535964881475034,-0.001555472238805971
0.2575,-9.894091598206995,0.011285965505749875,0.34211017949777117,-0.010224184172729403,-0.0036799731565360302,-0.001467934367519358
0.26,-9.988715898070621,2.895181167618388e-06,0.40957645874913395,-0.009363405917378257,-0.0012795579783059959,-0.00016275966305099926
0.2625,-9.873420275005882,-0.0804484177084149,0.23710395438789156,-0.008499856889655715,0.0017609328366402447,0.0004767438789114557
0.265,-9.911223430000001,-0.055555058876566955,0.33107374941176504,-0.008862915448408872,-0.0023156742574734837,-9.384625843781113e-05
0.2675,-9.97544871,-0.04308805143201535,0.39907698705882394,-0.00895897593056895,-0.002797872598842819,-0.0019278430954677067
0.27,-9.966566151482734,-0.027912647249272268,0.3709335853818916,-0.007946969722331457,-0.0022864062927711675,-0.0022523489026980157
0.2725,-9.863588674053853,-0.006836894326816439,0.22987783994098,-0.007169843127997078,-0.0007155793729251089,-0.001222
0.275,-9.834084243719904,0.00527605979316328,0.22154919652640853,-0.009070895618536355,-0.0009118422357306555,-0.0012824976079576864
0.2775,-9.948662502659525,0.0064280908037021075,0.38959111067706015,-0.009163,-0.0012801908524110695,-0.0005763594252313402
0.28,-10.016409691466375,-0.009418727300747779,0.4371770734028628,-0.009346018910336243,0.000611,0.0006718415846824356
0.28250000000000003,-9.93577261296177,-0.05731336563058269,0.27875362082171945,-0.00977218745266167,0.0011655740621650834,0.000305
0.28500000000000003,-9.871259942165091,-0.06142074383377768,0.218448889200422,-0.011579357629557805,0.0012107267879375569,-0.00029506445791900707
0.28750000000000003,-9.911596921317283,-0.021159489423983834,0.3424021116147324,-0.01185759346081199,-0.0014241086638338508,-0.0011682296742209608
0.29,-9.945888803855194,0.021031218238031377,0.33841862840602677,-0.008033770685385284,-0.002004775641612135,-0.000347429191576635
0.2925,-9.898678716268531,0.0114344999059904,0.21954467425334515,-0.008971209184042398,-0.00010140523562733655,0.0012273412173074484
0.295,-9.92152729364404,-0.038004440028151024,0.24584868403190402,-0.01040015647169222,0.0002382594213324961,0.0011256899218017025
0.2975,-10.005538728847469,-0.0908257758357908,0.38071935809366464,-0.009516451022767488,-0.00011449864810662651,-2.2890815146877047e-05
0.3,-10.01832947891397,-0.08220645664712051,0.3740167566230226,-0.008930346742710264,-0.0008163064342517558,0.0002826498513936926
0.3025,-9.923674210848429,-0.023868480395615073,0.22024918072450012,-0.007987436081982838,0.00021347722592946204,-0.000912989714013344
0.305,-9.922995849897958,0.007315374132653053,0.25255870673469316,-0.007288716581632659,-0.0009527547448979572,-0.0015637547448979572
0.3075,-10.044272582779264,0.0038301193218139165,0.3913645019388333,-0.00707674491441551,-0.0029612986420053493,0.0003206497996268297
0.31,-9.994889869654266,-0.025511195423738482,0.24299480646436944,-0.006625525648322759,-0.002749,0.0034956134316246647
0.3125,-9.935427419109663,-0.04127249294245385,0.20753173724212812,-0.008913349619978285,-0.002749,0.0028550466883821932
0.315,-9.94006054407211,-0.06089645134676566,0.24934067033934268,-0.010385,-0.003152959766702016,0.002443
0.3175,-10.053031347965941,-0.0776360832592242,0.40777280754493866,-0.010174696343424786,-0.003918338036896877,0.0012341842194891124
0.32,-10.033651066053556,-0.0607118554516355,0.36554395496291614,-0.009714989707237099,-0.004053655482863613,-0.0011866348973378102
0.3225,-9.879778484077432,-0.01613826752266566,0.17378295757902415,-0.00942509073266356,-0.005457283175692247,-0.0009825021024258704
0.325,-9.936632,0.04065,0.345528,-0.008399,-0.0077059470699432945,0.000458
0.3275,-9.936632,0.04065,0.345528,-0.008399,-0.0087465943289225,0.000458
0.33,-9.980559881391597,-0.0487870817960757,0.22805170732635105,-0.007991345491753949,-0.006019513176838801,0.0007695654652702547
0.3325,-9.913401536015408,-0.06538795727940303,0.1918312137281808,-0.00885916299506441,-0.004477007010954605,0.0008654987456362111
0.335,-9.937267583638686,-0.04830716801787381,0.2724905253878089,-0.010284045572933307,-0.005722740753271659,0.0006136591190552135
0.3375,-10.054155887839269,0.0076436064152278806,0.4465852465280232,-0.011235180331335902,-0.007914987381036276,-0.00010908135354248277
0.34,-10.041473387445137,0.026801240977094076,0.40323541551817854,-0.009693408726573751,-0.0054504604517058965,-0.0007305562870414889
0.3425,-9.918395301990273,-0.006575043809750264,0.22095618566717876,-0.009434352446922095,-0.0055823914363658375,0.00013235043055394877
0.34500000000000003,-9.912234520366324,-0.04309838949228817,0.21395641974293272,-0.010476570231362467,-0.007789,0.001955915565552695
0.34750000000000003,-9.991713292548656,-0.0631345432437444,0.38211549639481157,-0.010807461473586672,-0.007841591436515295,0.0005703898887858645
0.35000000000000003,-9.973973782843448,-0.06387808226837037,0.3616251515335438,-0.009894075782747555,-0.006937351565495179,-0.0021173586900958634
0.3525,-9.873772722943144,-0.042394216655518666,0.2109669118394652,-0.008150368628762512,-0.00636865177257522,-0.002286428762541829
0.355,-9.894101926939681,-0.02614372581587299,0.26679393407618934,-0.00984042292698413,-0.009651236780952362,-0.0007042581142857153
0.3575,-10.000237585927525,-0.04298297071274265,0.40389501391888605,-0.010342292171826233,-0.01186320416606671,-0.000611
0.36,-10.004671833397168,-0.069027449457941,0.3930781333069563,-0.01152559349529161,-0.011291579286223008,0.0005274419466645437
0.3625,-9.885716578766962,-0.08512518869316797,0.250739600523686,-0.010638899238276602,-0.008652089478695564,0.0022398992382766016
0.365,-9.825490573899229,0.0019255919525783584,0.2750806702880849,-0.01120532101481921,-0.010598533491404858,-0.0011168394925903948
0.3675,-9.950709319487848,0.0535737094060461,0.4092175951582688,-0.009876420310610555,-0.011453181979845878,-0.0017812898446947227
0.37,-9.961186202074146,0.06981113551732497,0.40924083329294914,-0.00970195513448025,-0.011313030210806884,-0.0011797267878200506
0.3725,-9.820008643101689,0.010270893399968454,0.1886902339291913,-0.010453708523331055,-0.007913937215003417,0.0004161159219317154
0.375,-9.928169348519123,-0.010174380346151821,0.3311457567994108,-0.009443139197222368,-0.009429791204166448,0.0017642771844915567
0.3775,-10.05044372386037,-0.053683576509240334,0.4809191955646819,-0.009174134948665298,-0.010537,0.0024362433675564673
0.38,-10.076413132976883,-0.11329526027362795,0.48677007192954835,-0.010139554219216858,-0.010537,0.0009262698285893975
0.3825,-9.961970222190187,-0.08823115857707478,0.3355683448779351,-0.009983199962799347,-0.009940400957916757,-0.0005576502766798429
0.385,-9.918870129610264,-0.015156436946270994,0.29915476147554143,-0.010500812747393755,-0.008647517151563752,-0.000764
0.3875,-9.978392942077893,-0.005452871073616119,0.36931403469317076,-0.010310552941176438,-0.01007734492083673,-1.1714781000677884e-06
0.39,-10.020058438553484,-0.02149066759260756,0.4070833111096881,-0.007161232783422687,-0.011721912789823164,0.0006274045027602078
0.3925,-9.891385895084722,-0.0397280152097103,0.2663481019156341,-0.0096115329311381,-0.007964744972959962,-0.0014531025309458057
0.395,-9.803084298151072,-0.024541079687325374,0.22042004442849245,-0.010539338297838392,-0.007231499542155236,-0.0013003811470048547
0.3975,-9.896984985426508,0.004093523045783566,0.36199498272771274,-0.009967888703614463,-0.009245460077108445,-0.0004922258987951916
0.4,-9.986492614698081,0.03842180883133104,0.4552743922608824,-0.011073836573568432,-0.00806926665626459,-0.0001308407551879958
0.4025,-9.905970347599242,0.04768213047258984,0.3343242200378047,-0.011992773194706985,-0.00468903708884688,0.0019491897164461358
0.405,-9.79560399978077,0.007631854898040379,0.20074775642137524,-0.011009884207302319,-0.005358384353993733,0.0029289051277504715
0.40750000000000003,-9.847353637086918,-0.08690131477555012,0.2759737458070707,-0.009854446351480403,-0.007616303710601761,0.0030874838681948227
0.41000000000000003,-9.964262662606489,-0.12531814259103932,0.39499489039946983,-0.009841236563672503,-0.008671052383579757,0.0018212643963804813
0.41250000000000003,-9.972563214290444,-0.11148369693224436,0.3572961416905755,-0.011696667612006205,-0.006550642407856957,0.001114268218936208
0.41500000000000004,-9.836963052903226,-0.04965780465060028,0.24459459354838778,-0.009225972613129865,-0.008147409213568052,-0.0005756056659363561
0.4175,-9.91457651922623,-0.023588293333333607,0.3302272376346609,-0.009413128989541556,-0.009639833989148375,0.000736142980262654
0.42,-10.058873500279892,0.01058893066535759,0.5107917770586801,-0.009730324635403884,-0.010729524085440723,-0.0010951823520746343
0.4225,-9.930574095302207,0.0021052964493949167,0.2760962845129202,-0.009924311448210458,-0.00570944384925344,-0.0005116155771510038
0.425,-9.880816979964093,0.052883904619987855,0.2509093601196886,-0.011628287731897061,-0.005118173105924591,-0.0005803819150209426
0.4275,-9.92245462931244,0.08667589176800741,0.34467078907390003,-0.012471859728718431,-0.007074936576239462,-0.00030605842376053383
0.43,-9.976809579796523,0.0706491182215815,0.4166169983337342,-0.012532714501321793,-0.009316,0.0018655383801970643
0.4325,-9.915478732285747,0.010161647906713579,0.26782404168459223,-0.013815596558360689,-0.008930781551001927,0.002902
0.435,-9.85575393140276,-0.047977139563074866,0.20311824256241773,-0.013853045749014458,-0.009819188416557158,0.003124299310118265
0.4375,-9.981812991308546,-0.09598253693867698,0.3927447693143409,-0.012114609488169966,-0.011308926243360697,0.0026511583775953645
0.44,-10.065031747798624,-0.10618594065666039,0.4990012048467791,-0.012818176976235147,-0.008247,0.00020726576610381351
0.4425,-9.978257900490172,-0.06411928286338255,0.3356151977384124,-0.01343284229070614,-0.007855206813880125,-0.001014108604707596
0.445,-9.841888343281177,-0.0012859877304413868,0.20943761830519003,-0.013686469824941904,-0.008585505998450822,-0.0001815365050348509
0.4475,-9.893580869108694,0.029749774911358263,0.3325931592370712,-0.012810552898887382,-0.011285867015527572,0.0011591539454701007
0.45,-9.979670315137794,0.03268000242017348,0.3669806459364502,-0.011052589710359904,-0.01149244827855414,-0.00014957918650948998
0.4525,-9.86899446390444,0.07021655563223958,0.1673469427847473,-0.012094297166988439,-0.010219559676640903,0.000345729555984585
0.455,-9.749385909988685,0.08772517339582993,0.04973515962502112,-0.01378199614999191,-0.008323454520769366,0.0029014468207531857
0.4575,-10.013089057548711,0.012369759748585434,0.4724284799497168,-0.011538207492143316,-0.002443,0.0019066944814582108
0.46,-9.993061102166353,-0.038192232256442894,0.41792636421537777,-0.012879958575319516,-0.002443,0.003080932637754042
0.4625,-9.893461735668023,-0.13837603252578784,0.24925922715278975,-0.013803871479971213,-0.0036518447109619052,0.00266963545214675
0.465,-9.851596427612236,-0.17241812022357106,0.24245954319129842,-0.012606274074163096,-0.006054170709778251,0.0012641370370815488
0.4675,-9.936766938429647,-0.14198838708447412,0.3754166022971552,-0.010426492696294483,-0.0074337599952341215,7.592725366373893e-05
0.47000000000000003,-10.060599802649362,-0.0603537228171236,0.45481587252670574,-0.00886813798528134,-0.006750728435546397,-0.0013163383904407676
0.47250000000000003,-9.957332855580907,0.005514946877765827,0.3075530470966217,-0.010713868703143207,-0.0055682695785797326,-0.0014567304214202677
0.47500000000000003,-9.896878604042973,0.06275077692041162,0.3007177704054552,-0.012895153009125608,-0.0068009432366871285,-0.0005438469908743925
0.47750000000000004,-10.023830561601214,0.06580433850138741,0.4794353842099088,-0.012403852947607392,-0.009135258094357094,0.0014997226339248345
0.48,-10.093256,0.058584,0.557747,-0.010843,-0.009951988671679195,0.002138
0.4825,-9.997337503619097,0.05030202640375155,0.4277372518696677,-0.011384284405434639,-0.009543151155464728,0.0027285799495010074
0.485,-9.826718987015488,0.013805849466335184,0.20354282537195995,-0.013770808930262404,-0.009935948074793335,0.0034955330487119866
0.4875,-9.917422533302453,-0.04657076975451549,0.3123902110236215,-0.014357943862899514,-0.013894969939786922,0.0030537534969893422
0.49,-9.977009058413705,-0.1445534452347713,0.33869256571700534,-0.012807343013959381,-0.014090075482233518,0.002349403908629452
0.4925,-9.864112474203731,-0.1498696626707052,0.22728188531802945,-0.012365912845528456,-0.008902851845475315,-0.0001937914044316891
0.495,-9.935060600688665,-0.1212245209734843,0.30455857666188413,-0.012280662764227642,-0.009838373979488812,-0.0010446206472182354
0.4975,-9.99816573615894,-0.027806765680647785,0.37667185610007353,-0.010526295305371603,-0.010537,-0.003172066431199406
0.5,-9.961562439050383,0.0620863555739743,0.29295992913385827,-0.0097852048428157,-0.009143941921733467,-0.0011843472263335505
0.5025000000000001,-9.91750131302481,0.11626608842557343,0.2011209463263347,-0.010556489336832118,-0.007311510663167882,0.0014639649188931518
0.505,-9.934052883495054,0.12498277939707955,0.20821455249175708,-0.01208316644371173,-0.00795356471973623,0.0015854870560527538
0.5075000000000001,-9.990712860773636,0.0854424787004772,0.2925530381816084,-0.012951855299754648,-0.010271541152272886,0.0018115002220405276
0.51,-9.96552649465327,0.008585744755370148,0.3375441679424976,-0.015019305670178883,-0.006737273292493661,0.004690392665196445
0.5125,-9.918712602006469,-0.12800539245655387,0.3013711574146143,-0.017724776700838767,-0.006216320059207246,0.003941701847486441
0.515,-9.962012277804945,-0.1293798484710268,0.36735079456608777,-0.01790067947809879,-0.008147226689326255,0.003414568361383693
0.5175,-9.992683773300692,-0.13664475581479477,0.39266450231399785,-0.01667451189356047,-0.009468,0.003592524708887679
0.52,-9.867837897174589,-0.10850023875511065,0.18759959946298932,-0.011785901128943684,-0.008280108039299457,0.0010669265124794037
0.5225,-9.89384913437481,-0.09434667035088809,0.2388574138768529,-0.013056068554341837,-0.009843341802648418,0.0009690244388844831
0.525,-9.907937,-0.086681,0.266619,-0.013744,-0.010863108657702292,0.000916
0.5275,-9.927044892652482,-0.03845631854373767,0.2842708705626468,-0.013604577437352253,-0.010125466401891305,0.0004977323120567588
0.53,-9.9556939452112,0.08696606387596936,0.28522469742762124,-0.01478695071033068,-0.007789,0.0006535187850024
0.5325,-9.962792837686337,0.07646788230425752,0.30025481858452474,-0.01556642366329658,-0.007525139214672008,0.0034738113707970444
0.535,-10.059372530785115,-0.003913604000000792,0.4780978679976008,-0.014918670909963997,-0.009955168403361385,0.004600634806722697
0.5375,-10.109944265796408,-0.04722923645509002,0.5552550859161687,-0.016538485485029904,-0.011179460910179686,0.003574836431137779
0.54,-9.999530130985914,-0.029898166419405167,0.39416593246635073,-0.01845149056651016,-0.008454539239436622,0.0008180188669796771
0.5425,-9.797694076721381,-0.1003767617422394,0.17550507672138185,-0.014503920114849127,-0.01138884460913373,0.0032008734839373766
0.545,-9.888702452559729,-0.12346826962457375,0.2665134525597284,-0.01433066279863481,-0.015119273447099034,0.002940703481228665
0.5475,-9.968314871589518,-0.12495254434018546,0.3566089724588101,-0.01393844361525185,-0.017768845479366076,0.0017570218044877027
0.55,-10.00134836787401,-0.06205917133858019,0.425231590236215,-0.012814761259842457,-0.01702212976377938,-0.0016667612598424576
0.5525,-9.818669858699241,0.05089090310145899,0.21749063162538146,-0.010656269317950452,-0.013306631227236706,0.0006803977513855932
0.555,-10.048418689905056,0.062123418788700105,0.4058072581801033,-0.013146441740873979,-0.01700804902282245,0.003347517466532992
0.5575,-10.102758882495724,0.025157048982721066,0.44055552212301696,-0.013335045668455505,-0.017857694257238894,0.0031582951654184114
0.56,-10.051918111571073,0.015524626425901392,0.3722021104446701,-0.013953388175960568,-0.015638752309283143,0.0025968908567337305
0.5625,-9.867590583006686,0.02552909096149412,0.18731202709246023,-0.015228480170624855,-0.011148,0.002617426562139728
0.5650000000000001,-9.789207319489435,-0.043928896923707356,0.15400591875168648,-0.016612277641548087,-0.01826978379764621,0.006024657289068414
0.5675,-9.942623338844195,-0.03879069647637448,0.2898044614860358,-0.016049893651853154,-0.017332272496047775,0.004618083358510449
0.5700000000000001,-9.98235131740086,-0.0649189082973716,0.31599030755475643,-0.014493007833238265,-0.01297573700838672,0.0043238414396222094
0.5725,-9.839365616988218,-0.10717446932462373,0.1827388159477423,-0.012224365295695788,-0.0052972552805318875,0.004512159393444525
0.5750000000000001,-9.762197372746973,-0.06505125110344119,0.1868113070861148,-0.012821444538961614,-0.004038898740069084,0.0016896470588234473
0.5775,-10.060777255795339,-0.0014296785605859793,0.5252059218555276,-0.014295309877395036,-0.008297992885727924,-0.0005375074762485995
0.58,-10.057117452294463,-0.005754546718326983,0.49825716803566733,-0.013190579045698229,-0.006428576833501436,0.0008226749684199135
0.5825,-10.00556389265763,0.009844854868592153,0.43624565384560876,-0.01246694866234532,-0.00504,0.001638784810842658
0.585,-9.87940920081109,0.06912282922138555,0.31787570195643655,-0.013868344386534616,-0.009358663844752339,0.0024153443865346158
0.5875,-9.889070837715106,0.0652024020793486,0.3009134806405365,-0.017282992495219935,-0.016646,0.004615819383365208
0.59,-10.04397394188841,0.001856172690308959,0.45462192561553866,-0.01868937049920945,-0.016968707924102093,0.004313775129884818
0.5925,-9.909947803391368,-0.014494704374846082,0.2671267662974104,-0.01690334916300864,-0.011737177663131952,0.004250073886066574
0.595,-9.888923531355857,-0.03428188945992581,0.2476493701267573,-0.017456211182244136,-0.013237507614303314,0.0033020887773119708
0.5975,-9.921578246895605,-0.0453459501734235,0.29596837495348877,-0.018102468050993463,-0.015340503328356543,0.0018452720202135845
0.6,-10.035065473727649,-0.04011631581843185,0.41744461348005546,-0.018631,-0.01592453314993126,0.0016342258596973554
0.6025,-9.929439214342102,-0.02776231065789437,0.2746752123552602,-0.018084530013157882,-0.012715590039473645,0.001414590039473645
0.605,-9.816848915866048,-0.0040157616279443906,0.16445464560166628,-0.01778432920365326,-0.01075901486300273,0.0005139876109597711
0.6075,-9.820461969368866,0.0037741797194945532,0.20944818768583656,-0.018173,-0.011669306171108099,0.002225077812061747
0.61,-9.886923871226175,-0.00916891002541304,0.3131027532147392,-0.01828175831003812,-0.01618388649301143,0.0022637673697585925
0.6125,-9.928847237669475,0.01173265691950727,0.32207037320141335,-0.017462388347379912,-0.014645282423353868,0.0008837836570172919
0.615,-9.918150486202368,-0.009348984124750773,0.1950347775706405,-0.014316823130495957,-0.008547511912299202,0.004055120748036117
0.6175,-10.025085198586002,-0.031029881955681043,0.4364660513893821,-0.013472208624692209,-0.011833148399577975,0.002553378944776615
0.62,-10.095868268105118,-0.024736776708160522,0.5879509394744121,-0.013956421410788377,-0.012476016044260033,0.0022165775933609935
0.6225,-10.076813829889977,0.01455972803705829,0.5563875744643783,-0.016035,-0.009196175576143488,0.003736827712796832
0.625,-9.843284265637434,0.003734210409040267,0.24164792901480184,-0.015118534776380711,-0.009698401082285533,0.005135183511061595
0.6275000000000001,-9.836076852881039,-0.01011550734830425,0.2612277463545222,-0.013784215403726726,-0.015904695805064546,0.004564165809842358
0.63,-9.992399260356807,-0.02645819460406889,0.41722823997496084,-0.014316301533646323,-0.01700846502660407,0.004227636782472609
0.6325000000000001,-10.007996162074578,-0.0381445267241588,0.38625100691849756,-0.015190675146362274,-0.015738947688570242,0.003506332855581294
0.635,-9.937597190895238,-0.021060068419047492,0.2806918367999993,-0.01691291604761905,-0.01269406081904762,0.005194588819047615
0.6375000000000001,-9.903230891128004,0.006005386894305865,0.23791141772427718,-0.016986853607026536,-0.015129280686864931,0.004467878278890757
0.64,-10.062454187491785,0.008600949550930978,0.4928857107119385,-0.01754904140197154,-0.018342716998904652,0.004786334414019719
0.6425,-10.002510433596814,-0.012929785997418675,0.3836711814377909,-0.019031012876744524,-0.011984577511434138,0.005212099969508628
0.645,-9.843233692453099,-0.06253847987018132,0.19009900103538332,-0.01669968964141534,-0.016646,0.004458184694055245
0.6475,-9.985351338636413,0.021674028021732534,0.3490455520911905,-0.01875328106104189,-0.02011597940343031,0.00216411210397356
0.65,-9.96865644931288,-0.0030340283796742376,0.3119840260147009,-0.01704754381591561,-0.017727165324384765,0.00361404461489295
0.6525,-9.933956637116381,-0.009929005555422497,0.24352526549043424,-0.015466635922493697,-0.015531326566373831,0.004558519682272244
0.655,-9.906796367246491,-0.0025653935126662315,0.22467809177633322,-0.015359815728962448,-0.014387592135518776,0.0051067673029566545
0.6575,-9.971046373987729,-0.04493569184049073,0.39125823024539763,-0.015968231595092044,-0.013690147423312893,0.007079123680981585
0.66,-10.014368419191904,-0.02442703688649618,0.439686585309663,-0.015494377080890048,-0.012552681404128829,0.006790319852196938
0.6625,-9.95400599378392,0.022478608288110446,0.3373559530833775,-0.01587480473606317,-0.010217609472126344,0.005633815885545123
0.665,-9.900461659938667,-0.0741227385137998,0.3883547410427004,-0.01929981638122196,-0.014847013229535277,0.009152834442085355
0.6675,-10.071995401846346,-0.029760478584572148,0.5061610219454266,-0.01753693560116381,-0.015476966885271679,0.00613087089722421
0.67,-10.08105524122444,-0.07098332300047644,0.49352585482643785,-0.016616315801236316,-0.015577,0.005730692306229198
0.6725,-9.992039339562115,-0.07636278901657277,0.37138437299625227,-0.016677005167533555,-0.014843408501270127,0.005436054109108512
0.675,-9.84232777415438,-0.023188427974455427,0.15082113832689417,-0.018795724591973532,-0.014945461357723008,0.0049776162579831425
0.6775,-9.910335408460341,-0.05713175766957812,0.22907409945208634,-0.02072230158152888,-0.016877308256968555,0.004598671793276723
0.68,-9.996369844881952,0.04299745591996955,0.41376168084193643,-0.020830443860744213,-0.01250488403041209,0.003609675799920033
0.6825,-9.963618772748278,0.06405077274827896,0.35856165224880415,-0.017421885886334462,-0.010835832195121943,0.007090104721671132
0.685,-9.871096330935574,-0.027603247148459565,0.24848200356302463,-0.017270347652661073,-0.014368531182072868,0.008317550879551772
0.6875,-9.915315074887253,-0.049684806788511754,0.303240197840019,-0.01728706954664135,-0.015684078210301447,0.00633769119392357
0.6900000000000001,-9.985776858823527,-0.07711856195470389,0.42392504432588235,-0.015740663249733954,-0.014405223620610974,0.006016081954704374
0.6925,-9.90757158177979,-0.03762522680241305,0.3127017564253393,-0.015264085067873315,-0.012327327571644044,0.006083017285067871
0.6950000000000001,-9.973657009616781,0.026783746488099613,0.3319368088261417,-0.018323066023396485,-0.013935167941912137,0.005752050488100082
0.6975,-9.992825,0.013749,0.396341,-0.016952,-0.01623368284335648,0.007025
0.7000000000000001,-9.935708685619044,-0.015023953095239868,0.33085015966666265,-0.01640315695238092,-0.016121534619047608,0.007847905380952432
0.7025,-9.84582741505271,-0.06812313724932585,0.2574836354547693,-0.01551445567050748,-0.01573,0.00927077216474626
0.705,-9.874461,-0.072334,0.361071,-0.01573,-0.016574306541213033,0.009163
0.7075,-9.92459002861071,-0.0605690675542688,0.36516311321273526,-0.016601075050651257,-0.01815163273516643,0.008291924949348741
0.71,-10.032177066501598,-0.002863291075294854,0.3779645325983025,-0.018784,-0.016744276720392488,0.006109
0.7125,-9.964735762301833,0.03905743627512131,0.3480913807514653,-0.018784,-0.01615196804393969,0.006234868530770196
0.715,-9.922906637572574,-0.01069022855157435,0.31619341776713855,-0.018563396544163068,-0.022907,0.0063463965441630694
0.7175,-10.013529169335142,-0.04847914105834431,0.41107271158751646,-0.018464429416553612,-0.021699844287652585,0.005622859918588857
0.72,-9.96827261688318,-0.014986160723293278,0.34081816895550904,-0.018352902225394582,-0.01625570965818072,0.005234413196922821
0.7225,-9.836988439999997,0.013327843636363646,0.22682949090908894,-0.016169261818181787,-0.012774705454545477,0.005794130909090893
0.725,-9.842808151552793,0.03359083468705168,0.2982960404204459,-0.015552058862876236,-0.014858279503105568,0.005207050740563781
0.7275,-10.025347758057755,0.054196316904748736,0.37254978019252183,-0.016676066744668417,-0.017463420405254497,0.00718466935063554
0.73,-10.001011849923948,0.018525883854704293,0.32987787307982797,-0.017442855023134602,-0.018825794052012967,0.0073547569324044024
0.7325,-9.937870763784229,-0.019887187096621968,0.25419166429401024,-0.017880623815056302,-0.019385996874925874,0.008183657602845333
0.735,-9.865915190591164,-0.05356699067517104,0.24284556386745385,-0.017617107134411947,-0.018326,0.008563804107031751
0.7375,-9.904365781918996,-0.059462047275794946,0.38347693823529294,-0.018089611258437832,-0.0169528794599806,0.006039661186113759
0.74,-9.830494071401134,-0.0038574216813605025,0.2748128834068016,-0.018875978781486148,-0.014034899124685132,0.005467692156801004
0.7425,-9.78681162752673,0.0561486964219524,0.18548411594203262,-0.018924389593727765,-0.015181156626277004,0.006949498080304173
0.745,-9.901226435146347,0.03102594648192182,0.345255283095843,-0.021235544389603997,-0.015584544389603997,0.00805041545625974
0.7475,-10.035702657500003,-0.02474996541667014,0.5069553625000061,-0.02255797429924237,-0.015035647367424024,0.006473249829545447
0.75,-10.059779,-0.050215,0.551172,-0.022144,-0.01247643843826025,0.006414
0.7525000000000001,-9.822091419661923,-0.0060426594955466685,0.18551314738762187,-0.01886473556870896,-0.020928294596064632,0.008090852701967684
0.755,-9.926047108987362,0.02470953100623905,0.35331214663893806,-0.01690043786274196,-0.021099394823228285,0.008005302588385858
0.7575000000000001,-10.004543826927641,0.04062585597287437,0.4760767457101021,-0.01585306300685833,-0.020522996097711264,0.00843147239885957
0.76,-10.003706550243901,0.012443720617222659,0.4593586063912383,-0.01758563205574914,-0.017657002996515663,0.01031410383275259
0.7625000000000001,-9.844571,0.046628,0.225371,-0.019242,-0.015127546872770679,0.005345
0.765,-9.916973449266042,0.035149761057156365,0.3213927368317159,-0.020313573087088057,-0.020492036650214956,0.007206036650214956
0.7675000000000001,-10.026561907529684,0.005735489024445891,0.4310268936810181,-0.020868507529685533,-0.023671,0.009929509587892845
0.77,-9.948511852030316,-0.034741994981454895,0.275794087914852,-0.01907580106434448,-0.021310395955491012,0.00825409946782776
0.7725,-9.863753091232189,-0.05738797746856713,0.24863464945515382,-0.01978678189438399,-0.017104,0.007084861089689863
0.775,-9.900030184163716,-0.026816881857536175,0.3584364882959477,-0.01744893311294768,-0.017835029327036615,0.0055229453758362575
0.7775,-9.980869,0.02894367310638106,0.427447826468087,-0.01917859276595744,-0.01882364076595746,0.0031625583829787258
0.78,-9.969231489559343,0.09346354768735868,0.3273362327243483,-0.019450155786426504,-0.01723715410743002,0.004485526979736285
0.7825,-9.95632418215306,0.01167116877946988,0.3151472819742185,-0.020626040320520216,-0.01611616723260943,0.007025
0.785,-10.01921325978894,-0.08515561766246137,0.4046945254241071,-0.022571945955724808,-0.018104212917559332,0.0069183325240022185
0.7875,-10.057326165733855,-0.06637444678238368,0.43888183336875974,-0.022619179690636388,-0.016958289172275456,0.006472001794780976
0.79,-9.933767390355595,0.028579253633999546,0.24976675448395544,-0.024976477779705082,-0.013081771864700874,0.006062455195143114
0.7925,-9.944840252406312,0.11722274715976272,0.31941917343195125,-0.022662829408284037,-0.018524715345167645,0.006328749664694288
0.795,-9.990443254289723,0.11943572093559787,0.4388964160611261,-0.021265922850459994,-0.020264230556681785,0.006825230556681784
0.7975,-9.940747851431231,0.021700621419595407,0.40884606270421336,-0.02206419245054686,-0.02111589704444965,0.009086319832441236
0.8,-9.85797309979296,-0.01752815238095239,0.26636723892339476,-0.025078677432712176,-0.017496659213250536,0.009904667494824044
0.8025,-9.929521958172304,-0.03470847655902968,0.30083330087555715,-0.02363390271857051,-0.01932088374728779,0.010765429493299306
0.805,-10.036694812398501,-0.05540832748504296,0.4750543719326783,-0.02438698859376244,-0.02044223819095469,0.008384492127303127
0.8075,-10.000985739903292,-0.008485588984572849,0.3675361964909054,-0.023743389675339625,-0.016310894386368877,0.007432495288970749
0.81,-9.804883171845653,-0.047442418819155424,0.15928742750348482,-0.024282,-0.01585661496978159,0.01038680442584845
0.8125,-9.81146507040842,-0.07222884865948384,0.1756445063893761,-0.02409612077173641,-0.021178370082686044,0.01009562440491105
0.8150000000000001,-10.0437540884936,0.031393397615832215,0.47709715189755636,-0.023149158910360866,-0.0235634556554131,0.008036184372526182
0.8175,-10.060591136569192,0.019823924075523774,0.465621526244531,-0.021333615970527277,-0.01695035299102003,0.00803182703200553
0.8200000000000001,-9.970612796768865,-0.025258599381900088,0.3281170538369728,-0.018003054327528432,-0.014917886122148635,0.008403408669773463
0.8225,-9.96394114214157,-0.05718561963225538,0.41927553678163776,-0.019093829746424717,-0.016278501281096047,0.006568276582141572
0.8250000000000001,-10.020592591627906,-0.011954947987170225,0.4812503546591759,-0.020829688869286312,-0.020826013937449893,0.007443027874899787
0.8275,-9.945875784039695,-0.018406926385089593,0.247953696725159,-0.022249801374803358,-0.02148092375166405,0.00799380013070313
0.8300000000000001,-9.883531489496086,0.056887768708172734,0.13387990495372404,-0.023639407746222578,-0.022144,0.007819948580017435
0.8325,-10.011028824911904,0.08476024307323514,0.33601518472492375,-0.022927034985017386,-0.021627895044947845,0.008618841725997839
0.835,-10.129174062618867,0.06727052190798667,0.6357709727034954,-0.02447427287890441,-0.01920272712109559,0.0095601465148484
0.8375,-9.802679052646628,-0.046265836433002666,0.12012766723889517,-0.027437717978063943,-0.020275891273247644,0.012623717978063942
0.84,-9.854902922783921,-0.06225370922902601,0.20237373412678583,-0.026036814267062332,-0.022428590251955736,0.009941802969517164
0.8425,-9.964740772285518,-0.06045421721460071,0.36126917686119875,-0.023781159627993435,-0.023852522092536615,0.008612365784701271
0.845,-10.122194435359987,-0.022464486455956195,0.5472421220786476,-0.020979816819637134,-0.022200653654051425,0.010052523185288586
0.8475,-10.028362179859052,0.018041627061312154,0.39622281530654824,-0.022099834644115614,-0.019610167935165602,0.008237145976039448
0.85,-9.825521691962795,0.0893902002861911,0.11943147650846679,-0.024693955815247616,-0.021243878670800503,0.007809188918037993
0.8525,-9.854137675126713,0.08178440488756554,0.1640275814539009,-0.025876924587745365,-0.024110051897679924,0.00831241120761451
0.855,-9.930434949316219,0.02612829738689485,0.3909906240583147,-0.02467675024799937,-0.020907309167260947,0.008094
0.8575,-9.857915041157549,0.021729549453375834,0.39048670456591,-0.027100431897106314,-0.0154074581350481,0.008446376077170444
0.86,-9.845993176662764,0.0197754413924643,0.3420819382611747,-0.028776788897729933,-0.01938129881816051,0.007842546267259541
0.8625,-9.94410592642182,0.0364869332514446,0.36588336523768644,-0.02783558449821884,-0.026265226065594064,0.006740292249109422
0.865,-10.070435125799348,0.025307008190729893,0.3529512036015981,-0.025088955013917478,-0.021035853689943144,0.010452494324095356
0.8675,-9.867763066720958,-0.004319958146588146,0.2540170315622977,-0.02227739388186841,-0.015577,0.012083723300570977
0.87,-9.884779483293082,-0.009894106891322653,0.37899761280726363,-0.02347683212206309,-0.015577,0.010884775828887019
0.8725,-9.939942733299274,-0.0063706343795611985,0.5359006399562104,-0.024670044262773746,-0.01886864607299305,0.009770218291970787
0.875,-9.974925959445738,0.00429557480738219,0.43740186782535984,-0.023663562145374187,-0.026406613808755898,0.010390948336618288
0.8775000000000001,-9.823297974401239,0.011408831815087065,0.11767417977900474,-0.023185086326225873,-0.025545482589738978,0.010773603736486899
0.88,-9.8280726721159,-0.0030102912895725604,0.2112780068252553,-0.0244065113575389,-0.027600852040779823,0.009595681366481843
0.8825000000000001,-10.015679191355158,-0.021696236940321217,0.4534476123961188,-0.0235469203481786,-0.02635929004471469,0.00883173939307218
0.885,-10.122809343107319,-0.02669706608819341,0.5983575731657974,-0.023444045895369057,-0.024010242987197714,0.008728438808281969
0.8875000000000001,-10.028974694553312,-0.007167333557772111,0.4931943886978338,-0.024478365348082284,-0.021075,0.009228515714801
0.89,-9.712311102062822,0.006795947763021745,0.09470941677296098,-0.024412402007157046,-0.023117788389662053,0.010335100787276359
0.8925000000000001,-9.632754581544768,-0.02880708806279368,0.0052762531816739205,-0.022797488071891713,-0.027536186740985198,0.01156527864861777
0.895,-9.847254050253268,-0.04469178164865246,0.30920499578641847,-0.023418725942894025,-0.026916326059041734,0.008346992779480554
0.8975,-9.947374284529653,0.01233399981153559,0.42300189980178926,-0.025240687369618143,-0.02064379625670193,0.007858346424045476
0.9,-9.83357968262044,-0.0015380371004044958,0.27528247271499173,-0.028991600225123846,-0.016846034398919452,0.008779408374606015
0.9025,-9.743920389752223,0.051217432937215195,0.1728170040991075,-0.029833403800818014,-0.023071359499639024,0.007919041308635988
0.905,-10.125118433339503,-0.03332212671600464,0.595899854611476,-0.028242318307123038,-0.022255948330249728,0.011504733362627233
0.9075,-10.113349458744008,-0.026499071509914277,0.5730012046830427,-0.027331960127848484,-0.018461648835750265,0.010685562902633925
0.91,-10.037223936942386,-0.04095953130933649,0.48012353777038586,-0.027875372453238047,-0.015795574418488646,0.010079
0.9125,-9.904930937911962,-0.07655288036413961,0.31676653636782726,-0.02956637453330264,-0.01597885856188059,0.010275449596681254
0.915,-9.950236201182824,-0.029564598759164538,0.35639660496334186,-0.027084412298767218,-0.01961114871968421,0.010743412298767218
0.9175,-10.029369540452425,0.01469257433393164,0.49394850549371716,-0.026839289077199284,-0.021438768071813337,0.01065313276840215
0.92,-9.917226001336221,0.024876858418051817,0.35435650060226176,-0.026725,-0.017104,0.011776560282662843
0.9225,-9.807137362738738,0.021318714653948315,0.22183066012082614,-0.026719157454160043,-0.023259730804451498,0.013275777935347115
0.925,-9.889852060540543,-0.025187603624802095,0.328795414435614,-0.026379634435612077,-0.025975359268680494,0.012681751573926857
0.9275,-9.975276864338749,-0.07629706879373716,0.3964636206001663,-0.026031447776064524,-0.028802641224054074,0.01147294733246354
0.93,-9.931183985226763,-0.05759473818585199,0.28813813430383456,-0.024391279054868313,-0.027125048747224698,0.009730706476371722
0.9325,-9.776361464112194,0.062282687530306566,0.22708860669360537,-0.022969885875921074,-0.019307955949607804,0.010592969755169952
0.935,-9.876852,0.086083,0.404711,-0.026573,-0.020397598534775095,0.011606
0.9375,-9.937409889826423,0.04639547757955642,0.396328456364513,-0.02687890718418515,-0.02849337994214079,0.011474937801350048
0.9400000000000001,-9.953775925488578,-0.023511354034282367,0.21593623692865888,-0.026926017113516037,-0.028200729460462804,0.010762609413065782
0.9425,-9.72193435688979,0.02906301360378635,0.01292126315077817,-0.02557410704530088,-0.024257811872887083,0.009914675321162946
0.9450000000000001,-9.886847374939268,0.023182233603674177,0.29106456524325297,-0.025504,-0.02615735012751563,0.010942452920771173
0.9475,-10.081328518339324,0.014430007797750166,0.4701659133665774,-0.02659884156326106,-0.029516342368085372,0.010843575999072229
0.9500000000000001,-10.060402709650011,0.0471770029314984,0.17903817871372865,-0.02900899058330837,-0.022449,0.012059492132814808
0.9525,-9.95089724869638,0.0378016105773257,0.12128588727729553,-0.02766776683936583,-0.022449,0.011005583858809447
0.9550000000000001,-10.08104102097942,0.057051851844395304,0.6139457075972905,-0.028535441098398284,-0.018381363304347545,0.01309708665446243
0.9575,-10.259917944389473,0.06194624133804536,0.863048050506948,-0.027878829361442842,-0.023759365108457265,0.012163211659761143
0.96,-10.273934478217265,0.06879184145888997,0.8223563008269199,-0.02894765141644391,-0.02682387104857727,0.010957867718912141
0.9625,-9.999434627467705,0.08357666078919332,0.3527306591065234,-0.030300576821898274,-0.028610154046688072,0.010511692309515375
0.965,-9.708339734254336,0.10651372637275176,-0.018504236161070005,-0.02772066820945405,-0.03375,0.012103735164730237
0.9675,-9.835972514269427,0.05559222803515984,0.1576721550392091,-0.029910329446424345,-0.033385832872416234,0.011584329446424343
0.97,-10.053743310369333,-0.06236186866760279,0.5190571937914926,-0.029979854960261825,-0.031199284600280538,0.010937709920523647
0.9725,-10.002780559840174,0.04177672162731693,0.4028359432957971,-0.029026824361302852,-0.028213731400895947,0.008526924460588479
0.975,-9.906750873128738,0.1585596810203256,0.3272018964687128,-0.0296785495894779,-0.025249549589477897,0.010893013343961717
0.9775,-9.976416467227304,0.23151775197798308,0.46365600002642754,-0.028125125948266386,-0.02508476226747397,0.01410985400990653
0.98,-10.260639,0.108202,0.950502,-0.028711,-0.029406013152145884,0.018326
0.9825,-10.19510323092678,0.06423668050972814,0.8217348722891475,-0.030519601353104855,-0.028666822020389334,0.016054368053753314
0.985,-9.926973039247832,-0.018886990588235723,0.3510965548312457,-0.03434257400192865,-0.03379026973963353,0.01111781783992284
0.9875,-9.762947621514714,0.05079232542209412,0.08472547211770295,-0.03131481731789667,-0.039269912204534616,0.012463992667631396
0.99,-9.897354335753727,0.062004980755315825,0.1563298249063781,-0.02945313021897809,-0.03990736940019045,0.012205449139955558
0.9925,-10.008136501564813,0.02367413845370133,0.36727513532407674,-0.03216700781481484,-0.03123161023148128,0.014966
0.995,-9.834560506914155,-0.07550069624129918,0.39538052765181236,-0.03262895741419314,-0.023047952312985044,0.015376085171613728
0.9975,-9.659913726683259,-0.11278671250621955,0.31517998371845285,-0.03202578633487378,-0.02239481886953461,0.01472737821542822
1.0,-9.704685,-0.069345,0.392755,-0.03146,-0.03211625200188413,0.010537
1.0025,-9.768544115617217,-0.05973774883253698,0.4183266755693751,-0.03174856494736839,-0.034361,0.011042284076554967
1.0050000000000001,-9.917673360286466,-0.007780109574311522,0.378430887409658,-0.032681,-0.03365535505270773,0.013279979975859089
1.0075,-9.794460804943437,-0.001772115426351556,0.13333590472205373,-0.033082258674127285,-0.03174159470137447,0.014106741325872717
1.01,-9.821591956988723,-0.06068134653459275,0.17854357769582474,-0.033126690697957935,-0.030751436434014026,0.012105702541907947
1.0125,-9.948758827675837,0.021515607339449853,0.33949576712537266,-0.03145316422018344,-0.02999945948012248,0.010871770948012182
1.0150000000000001,-10.05575001408,0.04206097615686637,0.6964115145098092,-0.03197993544156851,-0.023826250610195936,0.013264937982745185
1.0175,-10.007996650697226,0.09166113050620708,0.713503030907345,-0.03126677963705843,-0.022832906017192157,0.014267159426934043
1.02,-9.898246381639344,0.027186401579311223,0.38806254062341033,-0.035946742285846246,-0.030036093050103962,0.013208930981297622
1.0225,-9.864299,-0.014945,0.252272,-0.037263,-0.03745034474275567,0.013286
1.025,-10.031881687188857,0.08133032100936272,0.5373797694450821,-0.032222374583238185,-0.033867416647636636,0.01405187216259419
1.0275,-9.973549109778485,0.08562435825987683,0.4436185411829155,-0.03213078282256223,-0.0286562645124456,0.014326048805663402
1.03,-9.877648032935973,0.0723387980409824,0.32474375304140624,-0.03289442418841938,-0.02579360074143357,0.015240954789558734
1.0325,-9.908580960992676,0.06680255836240152,0.26237771410295463,-0.035860588549449415,-0.028816892618156943,0.016816447359713355
1.035,-9.95217871679435,-0.024354878788131334,0.37995756477580106,-0.03400476538489916,-0.025695308551557085,0.01799767687022495
1.0375,-9.979841648027783,-0.08474216774993588,0.5288700828082458,-0.03366795837261245,-0.02239953440833526,0.017879548002976742
1.04,-9.90110899339778,-0.07351733383547832,0.5109877161283424,-0.03599142959255088,-0.022543103896566056,0.01640610644682995
1.0425,-9.802900272913709,-0.048418459155133806,0.3676860020026504,-0.037058238069563126,-0.025698785134191764,0.014940738351185494
1.045,-9.751153338032786,0.016249638738966107,0.14649637846153873,-0.03543903477931911,-0.033607192522067994,0.013217902761664508
1.0475,-9.854123999577178,0.012419610749354092,0.2116475419121583,-0.03356342371623211,-0.034840550838618436,0.015286953431994451
1.05,-9.999870659508556,-0.015586589100641968,0.491661042656722,-0.03333443492012,-0.02605360283837465,0.015560649874300496
1.0525,-9.859244534193847,-0.07229253280661462,0.45812206950850065,-0.03214119525034451,-0.027563436720257083,0.013847489076711064
1.055,-9.7749792037365,-0.0231905657211438,0.2799446588696913,-0.032767871070314356,-0.035736,0.013815237456203515
1.0575,-9.848355233410881,0.040393322155237034,0.277478346413487,-0.03282576113458331,-0.03532299389508656,0.014223387248991371
1.06,-10.009666038814563,0.053425804085250404,0.38788086520846515,-0.03192691668014939,-0.03188958733042925,0.016341
1.0625,-10.052141453574365,-0.008369,0.4736887436318817,-0.032986672144617916,-0.02596078553820871,0.016129268693508628
1.065,-9.93039515743328,-0.018747292178864162,0.4119292266777334,-0.030814087828252918,-0.022450618128335726,0.015972148945558134
1.0675000000000001,-10.025549422103094,0.002016203463918474,0.5464548606185577,-0.029756232659793908,-0.02904822779381444,0.013623759917525846
1.07,-10.044348611036552,0.022577923846298538,0.569072458219307,-0.03178213652483604,-0.02919858592689785,0.015199572116213722
1.0725,-9.930148537587026,-0.02482483473533747,0.33748184745826876,-0.03057133224606575,-0.029184902660944204,0.017040493295183607
1.075,-9.793048415854784,0.006300446274721594,0.1907255199783278,-0.030238,-0.029678634505554042,0.017104
1.0775000000000001,-9.784418807035557,0.029646154997749103,0.19852451879444505,-0.0315010189113813,-0.0314271191542963,0.016156865065226955
1.08,-9.922226596337433,0.054713476136378544,0.36264630380427787,-0.033066785531399516,-0.03160140645794219,0.015657280576515487
1.0825,-10.032377565590432,0.10293748773184942,0.47459723634727136,-0.03361224740968851,-0.02845281796991584,0.015491651214023435
1.085,-10.077935400099314,0.0957598622546375,0.4904510659756416,-0.03519065346884937,-0.022184794249359943,0.016010224495306008
1.0875000000000001,-9.904241385271519,-0.012049865212002731,0.3356742319861271,-0.03682420954624332,-0.022689613091991623,0.019520725712868735
1.09,-10.084411641486867,-0.015003171774917872,0.5738710823202665,-0.03397106994554487,-0.028184321780443493,0.017688810215452547
1.0925,-10.230857668389584,-0.0027220851494705583,0.7156167654387632,-0.03315623853423342,-0.027184,0.016791436586306684
1.095,-10.083382365270612,-0.01995853841211931,0.45723169665525165,-0.03507505375656545,-0.026827668904620544,0.01756352880261858
1.0975,-9.883183784622382,0.0581833755356054,0.2436103337019691,-0.03359009103530805,-0.027752437926989507,0.01598209911190899
1.1,-9.904722775789224,0.06675919252951742,0.3745122184271846,-0.036451628869788734,-0.03452878245642225,0.018086739818459423
1.1025,-10.033056076000001,-0.01696791892917277,0.4089532725234091,-0.03575663008883549,-0.03527083373349337,0.01961148407683065
1.105,-10.041170841795346,-0.02701231977278251,0.40700400961036864,-0.03468960811584925,-0.034208,0.014853057111768967
1.1075,-9.929119886640114,0.05640128685258891,0.3836989765205908,-0.036689565258964135,-0.03218340440903084,0.012889717025232282
1.11,-9.816170612990296,0.08093005442033077,0.27986795946334464,-0.03639643479756921,-0.02825959416620652,0.015219717398784607
1.1125,-9.923766991106321,0.11422624056095065,0.3790190058971624,-0.03532017693875102,-0.033922908641975405,0.015413878916456965
1.115,-10.06217,0.16021,0.485414,-0.034514,-0.03693114208436439,0.017257
1.1175,-10.06217,0.16021,0.485414,-0.034514,-0.03610142924555449,0.017257
1.12,-10.00068553040645,0.02594621898465715,0.31045206326110686,-0.03565341437925043,-0.03252008674996036,0.020032793939585576
1.1225,-9.943298345289719,-0.01602530914018726,0.30146673158879167,-0.03647595368224291,-0.03101012302803744,0.018650505065420545
1.125,-10.017040620249121,-0.006915636218460558,0.5641922558288086,-0.034208,-0.032681,0.01724733854998403
1.1275,-10.139021770082032,0.05568382929157116,0.6341031917971759,-0.033540811454138786,-0.032347624190902355,0.015119
1.1300000000000001,-9.942874086014418,0.05635000738567803,0.3370089529911049,-0.03545057959339431,-0.03289085710367859,0.016765750563405568
1.1325,-9.774950574439675,0.034807900848831924,0.13656517783500338,-0.03766314227944674,-0.03421968177396285,0.018479
1.135,-9.925799138838348,0.06035947375787282,0.47843455501749765,-0.03557386496850944,-0.04044673592722188,0.017329960839748065
1.1375,-10.020286625721907,0.0898567440972423,0.5380890894159495,-0.0371576552505188,-0.040775,0.017164194817669735
1.1400000000000001,-10.01233763537405,0.11676477709845533,0.475814012773403,-0.03861667215011992,-0.038684677811027246,0.015937404778043986
1.1425,-9.819671903292445,0.13573412910377367,0.26512556177358193,-0.03906969423584899,-0.034772583273584984,0.015616527443396517
1.145,-9.89907420377324,0.10228656153002104,0.4754500777293528,-0.03883483865284974,-0.03498088855227065,0.019043203770192026
1.1475,-10.056911688546752,0.06279350412888278,0.6681454636239811,-0.04027774199966779,-0.03867513712672304,0.018963495691745578
1.1500000000000001,-10.065267581081864,0.07899122371212612,0.49500432187773347,-0.04365019906229839,-0.04288447234366742,0.015295341839067124
1.1525,-9.882318323577325,0.08780791472308533,0.2382141249088589,-0.04074100444001631,-0.03978784545273389,0.017829057392017896
1.155,-9.795341855658362,0.05917517480426951,0.2451244132384388,-0.03989528498220643,-0.041275145053380875,0.020755279857651285
1.1575,-9.998071366039213,0.029370196784314014,0.5590446475294085,-0.040666689137254894,-0.041692,0.01849064745098042
1.16,-10.156490879646908,0.023345371248422887,0.726040039646912,-0.04163190441361912,-0.04033966083228258,0.017653091450189097
1.1625,-10.143823272436263,0.03618701247184198,0.5796265886899618,-0.04169717204505018,-0.03714265455838758,0.01937348623592181
1.165,-9.854339306669841,0.05409551750357479,0.22811794472606023,-0.04357579922820411,-0.037194310462124874,0.019144924640304862
1.1675,-10.025510738423774,0.033233383470100034,0.4327775879075909,-0.04269450160269523,-0.04019559651546142,0.019373719730477676
1.17,-10.202108789139068,0.017364564824976475,0.6336456321948858,-0.03778908427625385,-0.03583569028382258,0.016993334607379555
1.1725,-10.050727908730199,0.030168461300995382,0.5725349022523081,-0.039500850054747814,-0.030584125272266824,0.017045224399835173
1.175,-9.859471559165252,0.0497685169768759,0.4462566544839214,-0.04091211088550481,-0.028685604963339037,0.01806822899041178
1.1775,-9.661261787912196,0.04916645274634194,0.24414651120000025,-0.04116805818048781,-0.0348397039658536,0.020195924136585365
1.18,-9.812338647617235,-0.008279385460288734,0.3484309594662788,-0.04047604447181428,-0.04299047357334608,0.019898628602558054
1.1825,-10.06325306969281,0.029076862450305874,0.6202050609613268,-0.04157904598482114,-0.039248,0.018703908030357704
1.185,-9.962542541908878,0.020428650310803872,0.4332798243386503,-0.04215,-0.038064647503344026,0.017562
1.1875,-9.77534929030007,0.04775805280297744,0.23354157641311935,-0.04215,-0.03632103570597813,0.01675760583856711
1.19,-9.945801024296221,0.06859534575470967,0.5880367798657877,-0.040346851745492865,-0.040128289096935776,0.016005829169698338
1.1925000000000001,-10.106297014289817,0.047351703586798355,0.6866816845910765,-0.036499,-0.04263007862266819,0.018949038106169085
1.195,-10.001578380227453,0.07242486166111539,0.5045176306398603,-0.03826040615738087,-0.036891424197587466,0.018387699290063193
1.1975,-9.854970391673307,0.09689211774900364,0.43687993768924294,-0.04021897637450199,-0.032803342888446226,0.019442458864541847
1.2,-9.76217741061376,0.03480933081700148,0.43267017275586667,-0.04013403103476088,-0.03851945298814399,0.021249065940801736
1.2025000000000001,-9.817439272446942,0.03797519386781253,0.41855574637632087,-0.03986738637193458,-0.04862447759815253,0.018297898040250657
1.205,-9.816401338900766,0.07180618299925434,0.16985323234020702,-0.04128262023377267,-0.04711698289977593,0.017702406048246758
1.2075,-9.627524734786455,0.06679185392032468,-0.038896376561790055,-0.0405242109438928,-0.039398845311640125,0.019307859370738128
1.21,-9.605685850082534,0.0307415730539672,0.13855068487618252,-0.0404497139111111,-0.038387146501587276,0.019309957003174612
1.2125000000000001,-9.928730659990569,0.09001471350968289,0.6534409893245313,-0.04170162489371772,-0.038878750684931206,0.0191761425129902
1.215,-10.116632200700971,0.06207325505177454,0.7334482501449645,-0.04542632209654306,-0.03662798259040955,0.019964843581328603
1.2175,-10.100429,0.015543,0.494978,-0.048717,-0.03963950562020301,0.018479
1.22,-9.995870668553387,0.03390613277593936,0.43089416470977615,-0.045988421022556465,-0.03815629154285718,0.019962870520300713
1.2225,-9.805932803491263,0.06211124185536457,0.36232286621444604,-0.04008935974064836,-0.0351462350124689,0.02316131423441398
1.225,-10.084853269349285,-0.0048881043458273935,0.8163934085537004,-0.0450309374108995,-0.03321326410669114,0.02317580717406303
1.2275,-10.015142980867301,-0.0052734645116251444,0.6539167678116284,-0.04377283167958348,-0.032959331668934506,0.02303274259243921
1.23,-9.817615104007208,-0.013834217757766581,0.16497191823503699,-0.04367189730751911,-0.039527333651508186,0.02169010269248089
1.2325,-10.011951565073263,-0.04171281517938273,0.44036062067709814,-0.04435165853461343,-0.04419188250631623,0.021257318564931786
1.235,-10.155364339133557,-0.01796292145563041,0.7023506304702806,-0.04204723514550331,-0.03727065408544927,0.020330345890648298
1.2375,-10.149853003953423,0.024439299151104647,0.7880293725442548,-0.03915749066213918,-0.0321693146737815,0.02000770133398017
1.24,-9.765542712611103,0.08432548745848469,0.362485458348886,-0.03964325163688121,-0.041386,0.02173843891507196
1.2425,-9.68588431538844,0.12462168026568704,0.18377917387260573,-0.04281534567666949,-0.04241339636104838,0.021228
1.245,-9.919188384879774,0.0680482689746966,0.39016237196835896,-0.04046510536539504,-0.04390477598182796,0.022594658767134165
1.2475,-9.999683773315724,0.005384643390157475,0.44412279256662596,-0.03897062240096048,-0.03897667439615832,0.023821613402160654
1.25,-9.711425773722627,0.15362566545012163,0.28867757299270075,-0.042579187347931875,-0.030552260340632603,0.02065382481751825
1.2525,-9.767013824198822,0.09245985200784967,0.31420063597122233,-0.042608,-0.03686315756703714,0.022082226998037906
1.2550000000000001,-9.876262881157668,0.051792918484170176,0.41610794019828307,-0.04309602470738733,-0.04239207412216199,0.02246787364246877
1.2575,-10.01448379879037,0.06274737949921508,0.5666828764194959,-0.04439042207814205,-0.04284534674730823,0.021314135057457332
1.26,-9.984456,0.09505,0.486609,-0.045204,-0.03175648811737499,0.020617
1.2625,-9.968907830662577,0.11757290819411101,0.5060803687919065,-0.04464711958177071,-0.029356915944993504,0.022510053119672524
1.2650000000000001,-9.997642257462168,0.13872981937197398,0.6252681692077375,-0.04408900548148164,-0.038026,0.02784071449919477
1.2675,-10.164583792220993,0.019254815469611775,0.7096186129355359,-0.046872878025782716,-0.03788412197421728,0.025509030909760422
1.27,-10.018921120403217,-0.008397573743846152,0.42268699253574826,-0.04602875551457371,-0.03716266921622254,0.022041598440259436
1.2725,-9.790880402199244,0.013470002427927341,0.22989197294732439,-0.04362077228561,-0.03690177228561,0.021894227714389997
1.2750000000000001,-9.979901663756232,0.09219062930449608,0.5893469843214817,-0.043885202305202424,-0.03867991775479605,0.022185256256414453
1.2775,-10.173573120846454,0.1259950332475605,0.7555864044967999,-0.042761,-0.04198462486473511,0.02535512101478914
1.28,-10.00440367956084,0.014619957767611477,0.36387475436413197,-0.04319816581884722,-0.04525262825251598,0.026455020347666922
1.2825,-9.865118422372793,0.005611838370762304,0.14622505911939668,-0.044403990879330016,-0.04264743922852433,0.02215348609567317
1.285,-10.001644348129132,0.14049412236269637,0.4882418272459072,-0.04561017001514547,-0.04072599059067359,0.0218259052594658
1.2875,-10.088737684456929,0.07766120145130893,0.6714227500936322,-0.04592694840823972,-0.03975701352996244,0.02381042467228445
1.29,-9.851704314956143,0.13331987061389283,0.31957580207630887,-0.045105696013273244,-0.02985678257406938,0.02148515217824133
1.2925,-9.81002724134007,0.11602071657404081,0.2870215016889211,-0.04401053172140022,-0.03543253887405264,0.02304601428846384
1.295,-9.863989522197796,0.1024345485714286,0.3922029749450467,-0.04470699472527463,-0.039590004835164797,0.023580449670329698
1.2975,-10.028470461968814,0.09529346352826366,0.625813867475632,-0.04813522751462003,-0.040623,0.022856076939571174
1.3,-10.074127,0.072932,0.600191,-0.050396,-0.03923494377777772,0.023213
1.3025,-9.987786178616824,0.052657051411215336,0.5044716565327121,-0.0501142913364486,-0.036416600205607476,0.023494939383177565
1.305,-9.802693019154393,0.020109559987470257,0.35547820576259437,-0.049175,-0.03828442627622914,0.024435
1.3075,-10.094754107624624,0.11435099572519486,0.7541691739739592,-0.04895352553210591,-0.04116656136506488,0.024656111989223232
1.31,-9.909758098608773,0.007402669718792387,0.3784289525209554,-0.04381103384311777,-0.039706,0.026485978628515087
1.3125,-9.892395,-0.000598,0.354495,-0.043524,-0.04007180445559338,0.026573
1.315,-9.941445539033479,0.00903056182654239,0.42698059059943094,-0.04370967893182734,-0.04189481508027421,0.025598413528035557
1.3175000000000001,-10.0664439130728,0.04786081881992774,0.592410213762452,-0.04463176205363998,-0.04510536812260526,0.022931256950191457
1.32,-9.960152556597098,0.0951111171947139,0.4304199419631924,-0.04790900639585145,-0.042919105129028225,0.021772286544017826
1.3225,-9.70474044814709,0.07866746284871673,0.17046536281830318,-0.05009553050274181,-0.041997,0.022602
1.325,-9.671233948841069,0.100619863582323,0.13926948994977245,-0.050390761107783046,-0.041997,0.022602
1.3275000000000001,-9.91744248897691,0.08758850009240862,0.5375833667942874,-0.05033077458305844,-0.04050789929152867,0.024169175058305955
1.33,-9.986550931929603,0.11814990095708824,0.5545472011484969,-0.05064764041988259,-0.034667,0.02482159318308114
1.3325,-9.844571,0.19847,0.384983,-0.047953,-0.03629821455251038,0.02306
1.335,-9.853163525228664,0.13602721405649834,0.3941490629913766,-0.04780638132381802,-0.04368624055426693,0.02488937943027056
1.3375000000000001,-9.93517557441666,0.07189495313746948,0.4942654801838038,-0.04777462224640314,-0.04866451101438746,0.025857230903155275
1.34,-10.123068868858168,0.06646500674414786,0.7657658403895025,-0.047879986684466753,-0.0459272960138212,0.02284207174807609
1.3425,-9.861392877620542,0.018667065514901597,0.5238677694208811,-0.04738181725224136,-0.044135,0.024426585747516338
1.345,-9.585736675616438,0.007263045777179386,0.17605753000237592,-0.04838437733787316,-0.046176432731015855,0.02349774986776466
1.3475,-9.714766367933539,0.059718444279944466,0.2803191585669966,-0.046678495705812756,-0.0519289130818503,0.023095787776987148
1.35,-10.055376445797107,0.11022403567632812,0.4896070315700493,-0.04461390850241542,-0.051375670772946753,0.023467863381642595
1.3525,-9.993291770674846,0.08380470846625729,0.4536774382822081,-0.04704332625766875,-0.046129736196318945,0.025119875337423336
1.355,-9.949096172997013,0.07006649946880397,0.4354640260160301,-0.047921207675624716,-0.04202325372622978,0.02641079786578657
1.3575,-9.941415,0.075323,0.444763,-0.046578,-0.04577405920839205,0.027031
1.36,-10.055300203212619,0.06564435248567635,0.6154297098996125,-0.049792342845729434,-0.046096254620762146,0.023734085889093166
1.3625,-10.146972984721367,0.0645061055972452,0.7406645340632282,-0.05130030033214404,-0.045815,0.02163632550129175
1.365,-10.07135639444267,0.09418054515490257,0.6195295822676465,-0.046731,-0.04486845305653147,0.023883419584797193
1.3675,-9.91116336721545,0.1243595898519454,0.4408164845102559,-0.04699014292076273,-0.042913,0.023911608120336266
1.37,-9.8033755490632,0.19028688511590905,0.2460736523023256,-0.0478,-0.045491489215624285,0.026573
1.3725,-9.919877214778735,0.16344074659805463,0.4750478816466651,-0.04800754294797029,-0.04919578805717534,0.026400085264722678
1.375,-10.05602873604061,0.12936437055837563,0.7638247360406092,-0.048391111675126906,-0.043337908629441625,0.025855598984771574
1.3775,-9.979365918790501,0.12422621641468946,0.6805901145572419,-0.04826766243340526,-0.04568698107991329,0.026254048322534165
1.3800000000000001,-9.856518067145956,0.07053648220008907,0.30563672218274096,-0.05202504963187548,-0.05452,0.022387278925941403
1.3825,-10.005493480326098,0.09987541992821145,0.41758064659244737,-0.05018252553385649,-0.05396148301028166,0.02351233282959182
1.385,-10.079734735266358,0.1455073088688886,0.753673020355147,-0.04766214792507905,-0.04591154013135483,0.024134677372901966
1.3875,-9.959763425727163,0.19733776397260983,0.6334215205360822,-0.04904608274126527,-0.04357683402586766,0.023289916767132924
1.3900000000000001,-9.883428,0.230153,0.554758,-0.049938,-0.04461436618537084,0.022755
1.3925,-9.883305063381389,0.212303303119263,0.4810203278636832,-0.050692711402359245,-0.05187924235910906,0.023069445923984327
1.395,-9.94415237325983,0.12011138962607816,0.3344678205592868,-0.052157730527324996,-0.05408213214125911,0.025587444077980213
1.3975,-10.104211176988139,0.066954,0.725482400220432,-0.04949162102312203,-0.042747262077393246,0.027476673343716396
1.4000000000000001,-10.127826430587666,0.09167936531377435,0.9457737236583914,-0.05272794110517516,-0.03700923482975862,0.023661509831751876
1.4025,-9.984035697843016,0.11588411293002897,0.7009102028649035,-0.055062207391973525,-0.04406206104889374,0.024213207391973524
1.405,-9.932329908106665,0.07976209832455165,0.3900637401903581,-0.0548129902115944,-0.0566109058947534,0.023023954934319142
1.4075,-9.910792872274689,0.21811398557940026,0.4447134503004347,-0.051276570815450714,-0.048033794678112154,0.025354367553647613
1.41,-9.76103024112058,0.16385238313079856,0.40106781010789405,-0.058287896369486794,-0.0423275518152566,0.025283241612720105
1.4125,-9.813708651546143,0.1997306683691391,0.357626739800301,-0.05882746547655069,-0.04556714735249635,0.025198
1.415,-9.902342019877944,0.18691857335658096,0.39032781687881657,-0.057176845684394004,-0.0493319701133392,0.026634359128160475
1.4175,-9.955261195694108,0.15128477965903364,0.5373477671310272,-0.05323003610326352,-0.047938411397954406,0.02883028227959088
1.42,-9.8604289238441,0.19122470710090833,0.4945682622957844,-0.05240186543513083,-0.041997,0.028310675109450057
1.4225,-9.837183401000935,0.12229649109446995,0.41957073496725683,-0.05237073172591224,-0.044222197544434544,0.029179702544434086
1.425,-9.977226398151132,0.010770883697752497,0.5327534117041876,-0.05508467937299035,-0.052382,0.028577782942122126
1.4275,-10.259296518088787,0.1478285858812148,0.8840236222039434,-0.054910930959235514,-0.04849922857142865,0.026210756704971565
1.43,-9.990274976992525,0.0811037349371194,0.6962243114482038,-0.05547963674407833,-0.03794388424041334,0.026977106908417602
1.4325,-9.702463675038423,0.07884064043420219,0.24899422104646934,-0.057964308476643696,-0.047434868315648894,0.025069361058665564
1.435,-9.806433687356071,0.098253000560761,0.3000840380593869,-0.059963529520359084,-0.056038828860360664,0.024691855389462163
1.4375,-9.92133377384819,0.04492920281486828,0.4354020363286419,-0.05664829941056177,-0.05274044039456273,0.027830226753278
1.44,-9.931308096054316,0.09101388443546192,0.5728513011234122,-0.05410705462216105,-0.04447879877475168,0.025551254289178118
1.4425000000000001,-9.7700040431016,0.20037486261800022,0.5982956439851097,-0.05871230290630096,-0.038659422134387854,0.02341743330853303
1.445,-9.70965262411398,0.2207793849688307,0.38527192790738574,-0.06015889923419413,-0.04890391294746238,0.02562100534283173
1.4475,-9.775907070745026,0.14710202250809845,0.28672201986117674,-0.059895238213789906,-0.055824305043961124,0.025958246765386384
1.45,-10.047666438023057,0.1790546309280027,0.5776041551237581,-0.05778617455454326,-0.049500121647988636,0.025868898911553556
1.4525000000000001,-10.043021126766403,0.07894239161195922,0.6763080049517352,-0.058224414951737635,-0.03922395586389995,0.029687285222007483
1.455,-10.013011355583618,-0.0017158856443817774,0.628117336065029,-0.06111129399415994,-0.045766234384026695,0.024916732459947778
1.4575,-10.060082071942341,0.089843152446847,0.5650296164900893,-0.06136321249729726,-0.050855,0.02261868645765772
1.46,-10.004320005192032,0.11031004810836625,0.5488658353848584,-0.057819383407171306,-0.0491379585147411,0.02765279685737053
1.4625000000000001,-10.031538656548031,0.12230732851825897,0.6956711154454607,-0.05826800935101185,-0.04501998036752719,0.02717075257036524
1.465,-9.950155750215938,0.06962905204141903,0.6939957121040292,-0.0595441022172274,-0.04299320650557916,0.02735826811270769
1.4675,-9.803084143297333,-0.035609220628750674,0.37164973678905094,-0.06105553820014388,-0.04608367363570938,0.027104606623470143
1.47,-9.769662973524607,-0.0557378058841256,0.1385259928223795,-0.05535572619798682,-0.05814293844495526,0.026109816219386607
1.4725,-9.996592829254272,0.058762015680723194,0.45372887056326866,-0.056047675749144946,-0.05181601823489226,0.02189090952793603
1.475,-9.96735532632643,0.21376262547212443,0.6751728287994511,-0.0554726507419067,-0.039361820728417214,0.024344249123201444
1.4775,-9.829154729588105,0.20345333110579272,0.4655646436745834,-0.06034258749615455,-0.04271592096051968,0.02654234604682966
1.48,-9.880517565795255,0.1444863280592264,0.4401534463429377,-0.06284942128960357,-0.0462466326986149,0.029169
1.4825,-10.034433505895104,0.12073450887919943,0.6412649792575054,-0.06257907364054231,-0.042913,0.028858400707130277
1.485,-10.152438,0.102224,0.814801,-0.058796,-0.04286567814670587,0.027794
1.4875,-10.083045403055548,0.10335741157407419,0.709389931527767,-0.05924641523148153,-0.04372608520833343,0.02718284256944438
1.49,-9.888032505265995,0.11594389187663513,0.3822055661079831,-0.05995741825101087,-0.049650046329976986,0.026135816535320686
1.4925,-10.08058914383121,0.1359672729609207,0.6135245565188092,-0.056841530913450136,-0.053452103965476214,0.02922525864301126
1.495,-9.978079975934929,0.10765864652319139,0.7039863959062406,-0.05535178175035889,-0.043339649048302,0.030146743835485497
1.4975,-9.8651432633171,0.057846015548552385,0.47720451014990484,-0.06046722055189546,-0.04663360402558969,0.028709026846175847
1.5,-9.782545751360642,0.009365520194786592,0.2677195903752506,-0.06558945373818391,-0.05037966256087081,0.027103573188198223
1.5025,-10.101847032638847,0.0390050200596045,0.4558823557545322,-0.058783194286101396,-0.053074456762395236,0.02832351506908697
1.5050000000000001,-10.194773155948196,0.07557840729959996,0.6952859083753156,-0.056172629887979594,-0.04269917363946882,0.02856184562485108
1.5075,-10.132482063660081,0.1780127775922488,0.8588685069847221,-0.05628877701080902,-0.034893330942974456,0.028885010749161312
1.51,-10.100232032587302,0.15370211638730105,0.8734190198666659,-0.062186992917460326,-0.04337975933968258,0.02876419650158732
1.5125,-10.10839548617301,0.05098033980349663,0.6043902947999151,-0.06053943110472106,-0.05323102866043608,0.03110125866283264
1.5150000000000001,-10.15178005951262,0.12959793989901547,0.4686133331372119,-0.054834934111964696,-0.053909,0.02849956273106471
1.5175,-10.096385246628683,0.16998096727272832,0.7054566054198737,-0.05452,-0.0489431164230863,0.028405
1.52,-10.042033354090192,0.1662283549668869,0.836982795250709,-0.055689143601387596,-0.04700549156102179,0.028685802693156737
1.5225,-10.010046176358887,0.10951888869689008,0.7053813509992931,-0.058796173937811495,-0.052718281614051545,0.029077507182530285
1.5250000000000001,-10.032691737500977,0.1346851952504526,0.42792812773452216,-0.06026837291814102,-0.057774657340567116,0.028639587890225762
1.5275,-9.926486058211376,0.13729729707316965,0.3359697612195147,-0.05893679520325193,-0.047647,0.030844526829268495
1.53,-9.791367,0.114778,0.387374,-0.05681,-0.04969279072561275,0.034972
1.5325,-9.871146550294524,0.1156923031977559,0.41137646650771226,-0.06072265174380525,-0.057125055212716054,0.03140962083216481
1.5350000000000001,-10.045454186914013,0.12390304961283038,0.4543518396792535,-0.06424690238764864,-0.05743107803482708,0.026659512795164937
1.5375,-10.053823031496053,0.15448187559055646,0.4734497811023655,-0.059713159055117794,-0.05126600472440898,0.029082011023622345
1.54,-9.880827980770844,0.19990135656184252,0.6019960811288531,-0.05435388147718112,-0.044248644431543374,0.0342397021061119
1.5425,-9.915709,0.060378,0.772955,-0.055894,-0.051245705760842204,0.033139
1.545,-10.014192217393967,0.05328264681177399,0.6784450854385689,-0.05603927789063882,-0.056210488248687504,0.03270411585678053
1.5475,-10.096657373014976,0.08217041565599685,0.5600682680180253,-0.0561705249945182,-0.057574,0.03181112051163347
1.55,-9.932622104283462,0.22541614062992074,0.5164990356850401,-0.05692831009448823,-0.05669238611023618,0.03022413823622048
1.5525,-9.805785089026397,0.19410411247145504,0.5250052081276863,-0.059472169934929396,-0.055997461672191495,0.030543
1.555,-9.87807333265037,0.17521986699248068,0.5181743389473625,-0.06092519627819553,-0.06209692569548867,0.03011419319548875
1.5575,-10.003767550994048,0.18983588885409183,0.6182594634115995,-0.059744394619217135,-0.058251672370105256,0.030094357456702497
1.56,-9.803234195651811,0.12284636109891238,0.3892409734527953,-0.059800844765917044,-0.05231474668011637,0.03182097917996797
1.5625,-9.720135644177672,0.07784680600240096,0.3180907793517407,-0.060707299639855945,-0.054689301800720284,0.03125149531812725
1.565,-9.84578554233716,0.1883713287356319,0.5408793448275789,-0.06478144478927207,-0.05398642398467426,0.028330123716475027
1.5675000000000001,-10.038744330047654,0.1856853803510364,0.7976029361850437,-0.06313296171103105,-0.05647471511798205,0.030970619081715674
1.57,-9.981533304212288,0.12217224909395116,0.6137858838536885,-0.06298258349509918,-0.05736315987568742,0.030498216179775255
1.5725,-9.960507314649742,0.12556341004909644,0.4662951010609514,-0.06152457252544605,-0.059224885719075505,0.0297958133924081
1.575,-9.883116955375835,0.20964615547098073,0.6121279175071342,-0.059407,-0.05150135975261646,0.030543
1.5775000000000001,-9.911472052438125,0.19181372544294645,0.7507592401429848,-0.0610359481439883,-0.059123945948430956,0.029819198641817476
1.58,-10.080428245683748,0.20603220956475232,0.7293499444617264,-0.06470737484472423,-0.06508659331631143,0.028490272337747157
1.5825,-9.824737923910337,0.11556049678588125,0.2750419741726131,-0.06584534899380066,-0.06284097564139232,0.030048512179303846
1.585,-9.67977624222814,0.14631346032165232,0.2366468630993712,-0.061363351130045866,-0.05992690530620943,0.03154662668654808
1.5875000000000001,-9.606242910075297,0.1612955265686554,0.30138475475081933,-0.05889632169236325,-0.057896348798852595,0.032868016995338936
1.59,-9.66504471897242,0.0819797789299792,0.43465964202182367,-0.06357610359806003,-0.05834156530766907,0.033089632424977186
1.5925,-9.818899657682408,0.1954021517596657,0.48268437133047915,-0.06432843742489276,-0.05678752738197392,0.030387714506437728
1.595,-9.83821547624065,0.21019194145474315,0.520953713990244,-0.06275404163468837,-0.053088578762059635,0.03424052314796743
1.5975000000000001,-9.846034039869625,0.1440122421513322,0.5396617152968679,-0.0616854392922005,-0.05372741493830099,0.03778568900582063
1.6,-10.008335912259696,0.06645978638512431,0.7272937812165206,-0.06375932562243923,-0.06018050999054513,0.03443139773085383
1.6025,-10.109762095132584,0.05750366811549743,0.8063785886293383,-0.061015506795521486,-0.057928773595757224,0.028976420398350092
1.605,-9.90907844835729,0.07516293371660485,0.3886468654291526,-0.06007447153552578,-0.05743029849127083,0.031247032198132376
1.6075,-9.714757587080742,0.2072557749068281,0.3510201768943896,-0.06164700819875757,-0.05441699180124243,0.029474
1.61,-10.033084675637088,0.21484992007721013,1.0021915116602524,-0.06707154907335919,-0.050749102432432525,0.033121749652510066
1.6125,-10.048929142650715,0.16676181134667703,0.7454817940779292,-0.067195,-0.05800452391330109,0.033959506099727595
1.615,-9.777944090568564,0.10819700173913077,0.09495173765886761,-0.06653754408026757,-0.06055026301003347,0.03104997123745823
1.6175,-9.79234740616626,0.14288211162878908,0.3202156913665144,-0.06311016562511135,-0.058194887011214676,0.03135126796416066
1.62,-9.908241050878106,0.15701914171759232,0.6659357800128831,-0.06125915426182058,-0.05589723766806035,0.033047924059183165
1.6225,-10.106073284111229,0.11882995117681525,0.9780579348820795,-0.06351452645782017,-0.054884572981344776,0.03557473903555082
1.625,-9.870183942252165,0.05105525601539942,0.23525009335899905,-0.06563160827718961,-0.0560377093358999,0.030162001924927816
1.6275,-9.818712808140823,0.04918607821485875,0.2373370383970983,-0.060834705590473825,-0.05395485871291745,0.03220855900595386
1.6300000000000001,-9.81229,0.056193,0.6840076875538071,-0.056658,-0.048931154907008285,0.034819
1.6325,-10.135601712920517,0.141036611536037,1.232320093347361,-0.06120663523909694,-0.04975321929601002,0.03160843914877814
1.635,-10.238328907441934,0.14310067839820542,1.047470794307221,-0.06384791819637994,-0.05409726690693578,0.0302882712061509
1.6375,-9.928039483267742,0.06002302540249895,0.2664559607871213,-0.06127364975551593,-0.05845488892069152,0.031823019320214745
1.6400000000000001,-9.960992060814155,0.227631005833911,0.4711733302814952,-0.05745031583158883,-0.062008420842055864,0.03076978957897207
1.6425,-10.159928120327,0.1762729264053892,1.0542437010964147,-0.059800681033902556,-0.05454652087521039,0.0335014957970664
1.645,-9.92827116397022,0.2205493310263923,0.48695688870741116,-0.06358599945860591,-0.060407176404241036,0.031079362526505803
1.6475,-9.806922928185488,0.2092363923420657,0.37093769617103284,-0.06255145792231258,-0.05680487207708529,0.03303554573682624
1.6500000000000001,-9.752509,0.19249227899616153,0.37521127138746896,-0.0616765154571611,-0.053081073337595874,0.03518322362531987
1.6525,-9.816332381709557,0.16539126562655768,0.48182297020986015,-0.06217870213159476,-0.05383289888322494,0.03692072354712483
1.655,-10.131303846264752,0.22867593998234015,0.8849317036108207,-0.06594957553182948,-0.05668622224933763,0.03261952558079797
1.6575,-10.11450130726324,0.2617282066983174,0.7582980594113523,-0.06382060484690251,-0.04940770584856396,0.03561258010443856
1.6600000000000001,-9.792530449574727,0.10411397906646581,0.4379455936583541,-0.060311615517434046,-0.051959300550546816,0.03771190030798639
1.6625,-9.914421343594753,0.14635602269849535,0.7163809176814644,-0.06184350443253785,-0.05589156716999516,0.030383504432537855
1.665,-10.158816287641137,0.22872259082592522,1.068065151407545,-0.0638928792347089,-0.05681981885206335,0.0316632456655089
1.6675,-10.129295419551422,0.19588074853240736,0.9370662992594346,-0.06445830904338612,-0.057667963565079174,0.03015522708188616
1.67,-9.798725834826188,0.24986461355500883,0.297772249348495,-0.0661857651897223,-0.05964029196086238,0.03358706576406004
1.6725,-9.83930881241051,0.2292957036038225,0.5162025332458365,-0.06680125723150314,-0.05670493174701654,0.03645672803818611
1.675,-9.995345133222514,0.25806629318451507,0.7718650750890547,-0.06309984383756843,-0.05622638731892672,0.03644154405129426
1.6775,-10.036662344636744,0.16939696920646344,0.7579243110760049,-0.07115452597007778,-0.06000243060682229,0.037866645783363254
1.68,-9.90269694956303,0.10833979781119708,0.26480283757184864,-0.07149448721518,-0.05617351811038499,0.037822036220769975
1.6825,-10.055704125398263,0.16331862714356338,0.89576709463063,-0.068417,-0.054391732989985044,0.039095
1.685,-10.18239303923186,0.2047298046823027,1.1925016220662177,-0.06809483799569757,-0.05762141678157309,0.03764553461566711
1.6875,-10.179995316909025,0.20016076216800865,1.1317235305852662,-0.06829362456435525,-0.061087,0.03602103521211393
1.69,-9.688981847172297,0.10081902921250349,0.01717485784349637,-0.06974692242306765,-0.06364620638720606,0.03101086019869176
1.6925000000000001,-9.716463686456077,0.12726641909643713,0.30066869757064474,-0.06244838080820087,-0.05725271715818301,0.034638643189891724
1.695,-9.844290690137125,0.16910122857880466,0.6888107847136745,-0.05880686944991136,-0.0530066549701565,0.037004143190837196
1.6975,-10.064336301066296,0.23638736079740405,1.03703546043579,-0.06376229463143258,-0.05461378279091332,0.0354056207510431
1.7,-10.009926443107538,0.2691174401705361,0.7002235579346416,-0.07056703552818575,-0.057879,0.03452846660350537
1.7025000000000001,-9.680054053333327,0.20272927851850903,0.03535771185184659,-0.06743172962962944,-0.05988228222222293,0.038332
1.705,-9.75975144147027,0.09294856067064487,0.2900430833661415,-0.06439803367402866,-0.06695533982266624,0.03715104366274373
1.7075,-10.17828052336281,0.14036520872538608,1.1228511796297596,-0.06358716779625047,-0.05858730539794827,0.03421866587430729
1.71,-10.02534079028053,0.13134429129631145,0.8542686582972183,-0.06693778468962129,-0.05300460674572657,0.03383177380878389
1.7125000000000001,-9.82197666435712,0.16055602278540812,0.3948064754708087,-0.06848481808881629,-0.060074876586840575,0.031566523180655844
1.715,-9.796204911736579,0.257522905577419,0.36708857840534215,-0.06450997555154835,-0.06414118908976875,0.03488739651587623
1.7175,-9.943104596786853,0.21279440216335532,0.6588901172577872,-0.06281794269315674,-0.06290794075545729,0.036606269065489236
1.72,-9.98975105478019,0.21849414312743426,0.6936281105843055,-0.0644252432053422,-0.053145,0.0317855725765164
1.7225000000000001,-10.028517452618082,0.24191926550201598,0.7881167058532954,-0.06709433887491079,-0.054056651763589224,0.03326253596961784
1.725,-10.0402353935358,0.26069854734952363,0.6767880384729555,-0.06567396555546891,-0.06073286718713434,0.032875663408540846
1.7275,-10.156645529545026,0.3482636533975414,0.8197825899000906,-0.06777993435779485,-0.0668511786214331,0.03259598015381302
1.73,-9.953902496997054,0.31402232988140616,0.6183901274606498,-0.06639846392869979,-0.05948484366563651,0.03547347829799466
1.7325,-9.652582376906215,0.2861954854802668,0.21636058219026086,-0.06945208851015279,-0.062461,0.03759115091946161
1.735,-10.083506206335574,0.22812710440326076,0.8310669078922832,-0.06816569238448195,-0.05842479928836126,0.03785988498146794
1.7375,-10.028775191579198,0.16589533948299529,0.7170454854195378,-0.06947155423738983,-0.05622998697295025,0.0364765443891321
1.74,-9.883104777332413,0.1746190311356825,0.5375361861506573,-0.07187170677724025,-0.05376626774475929,0.03312774403132921
1.7425,-9.96136637118543,0.21676800660880038,0.7085692602415732,-0.06892245776024288,-0.056610542239757124,0.03710435913565997
1.745,-10.095365082352949,0.23260205270588166,0.8790154898823578,-0.0679739232941178,-0.060170659294117815,0.039339384470588136
1.7475,-10.147247846713487,0.2405454407522916,0.9752703734603044,-0.06957580577074161,-0.05922439567194379,0.036502388201404536
1.75,-10.087251407281178,0.24038355817195972,0.9427169714949653,-0.07202054298993028,-0.06261998156467855,0.03573271727343145
1.7525,-9.845347369333014,0.19299862785351027,0.6437851477953065,-0.07542261175842835,-0.072693,0.038233469396070835
1.7550000000000001,-9.779164286948305,0.08038375769231569,0.3806775846153983,-0.07340883701765433,-0.07252110713114751,0.035057363858763825
1.7575,-9.89196167344888,0.2365335255323676,0.6226444624548961,-0.07008714873717714,-0.06981690343119872,0.029730068666431127
1.76,-9.719679786851467,0.2264063018682899,0.4950302899150772,-0.0683545853132511,-0.0598060896234578,0.03840537803557123
1.7625,-9.687546367541461,0.14861656442188242,0.4755666525872601,-0.07051007014112401,-0.06530120641247825,0.03972836276306035
1.7650000000000001,-10.039142930875972,0.254037204553517,0.9207441765655551,-0.07043901497877576,-0.06640315690669105,0.036171512973682596
1.7675,-10.013748,0.145265,0.781922,-0.067195,-0.061640812503064676,0.043524
1.77,-9.948458135085438,0.18803513693381554,0.7513719021901317,-0.06799777416125152,-0.06367328985800236,0.03973323558122736
1.7725,-9.826969516483723,0.27521388057971163,0.7484271755951468,-0.0698536383083868,-0.05805845773342834,0.032471373741981294
1.7750000000000001,-10.004075326145765,0.21871464227529336,0.9771430539763415,-0.06997012149316029,-0.06301543412937685,0.038732654780121875
1.7775,-10.08200568239596,0.2645388797498247,0.8269882227856626,-0.07125972684147223,-0.07066407113783946,0.034819
1.78,-10.036392080400951,0.29658468863006915,0.7157818901193282,-0.07181868355131264,-0.06225890340811451,0.03720620601431989
1.7825,-9.8413914192999,0.09031134535477826,0.5584423344938397,-0.0707476009460739,-0.06198520052980104,0.04175174024597933
1.7850000000000001,-10.126662034840036,0.1431416183180316,1.0262774815223152,-0.07056954208535944,-0.066608434789603,0.03648942939192016
1.7875,-10.197602256368928,0.2089545223406738,1.1193365892126323,-0.07295492319355594,-0.06431964453920896,0.035347779783621754
1.79,-9.628334709860214,0.10302126868514418,0.15108517085049566,-0.0704260192181947,-0.07114867894811665,0.04027972217957837
1.7925,-9.706055776814463,0.30536624772851056,0.47292346951696146,-0.07126927640326977,-0.06985788595491711,0.03560044661877627
1.795,-10.043079256616071,0.323045302242712,0.9940992798537767,-0.07129544450131121,-0.06252508794405137,0.04140798920766104
1.7975,-9.957581785499402,0.21408804833842482,0.7466069829424009,-0.0742648613678027,-0.06660442646298481,0.04244377884371289
1.8,-9.785499072284914,0.23912661960784493,0.44269383241296656,-0.07613669030812323,-0.06454827828731476,0.03630668765106043
1.8025,-9.768191436058698,0.2908377448218037,0.5707189319916128,-0.07433102012578618,-0.05841177668763098,0.03876663547169807
1.805,-9.96159048831295,0.16373118202697254,0.9286901319914751,-0.0701451669721586,-0.06922888976417689,0.04416518172726574
1.8075,-10.192984349160968,0.196187814554156,1.077294655277048,-0.07396423954039513,-0.07186368061280647,0.037777360349491286
1.81,-9.680670981453206,0.09619040870117754,0.16710358196182623,-0.07510719967302441,-0.06718693874659394,0.039537057275204505
1.8125,-9.643268618597894,0.16323659353432618,0.3256958881220487,-0.07229825172539048,-0.06495064656738105,0.03901828078459862
1.815,-10.107744536335815,0.28255986144649403,1.2193094317864033,-0.07323944298425718,-0.06096779504449024,0.038179
1.8175000000000001,-10.15561555350261,0.22864620597253935,1.1262082103195101,-0.07337998937917625,-0.05889708292552538,0.04040655785202295
1.82,-9.992347933839506,0.18714085999680363,0.7009332000958911,-0.07286518732097184,-0.05885334629156017,0.04137701417519177
1.8225,-9.731140994316556,0.2108480632875749,0.22130558276194046,-0.07233906362079079,-0.061296517803590286,0.040174784019711376
1.825,-10.126198084057958,0.20999992463768224,1.124162899999974,-0.071471,-0.061051772463768146,0.041539
1.8275000000000001,-10.217783186678854,0.1920615601608474,1.2395638363151158,-0.07093330080058488,-0.06460925620910274,0.040283977196124955
1.83,-10.1092369440263,0.1957686502106345,0.9678662727429115,-0.07090973690705508,-0.06621961865163253,0.03922363154647246
1.8325,-9.76147203729396,0.21605274150308545,0.2930766989519536,-0.07119873680261403,-0.06493903524143779,0.03934193156964785
1.835,-9.689829423874263,0.1674228549813075,0.3583780838696819,-0.06862917768520638,-0.0700800910017548,0.0416997287739376
1.8375000000000001,-9.935057873494591,0.17638912423494377,0.7930576364264837,-0.06933434837117482,-0.06902173282329681,0.04048428000987143
1.84,-9.93295264803445,0.21617352516160557,0.6736608768206386,-0.07077539116112047,-0.06026967553746664,0.03629482651663862
1.8425,-9.81461569616621,0.22065103665131136,0.5162674363749171,-0.07072073109899409,-0.062461750916611866,0.037923641569991555
1.845,-9.747435658727085,0.20974878388079357,0.46116815373507625,-0.07057039938892545,-0.06592430915671708,0.03995583055560776
1.8475000000000001,-10.013883079453283,0.2664123675704364,0.9111468214616536,-0.07107154188005603,-0.06353,0.036832227709902486
1.85,-10.005039735609984,0.3345794742998505,0.9136486668155972,-0.07324020405329922,-0.06150616436607335,0.039317373031197755
1.8525,-9.795118324646813,0.3537404620151745,0.6069019708814868,-0.07164737688733219,-0.05778739198598966,0.04285637450087571
1.855,-9.514585,0.183525,0.241511,-0.07254,-0.06882431844719004,0.045662
1.8575,-9.613638154902606,0.20105402204478656,0.35160093506813395,-0.07201870925024355,-0.07567665933787765,0.044501042059396576
1.86,-10.052741496233745,0.2788197403733145,0.8427954024037049,-0.06973440323225966,-0.0649496788154679,0.039926793875718875
1.8625,-9.783323007567567,0.24692768836036227,0.5611175504144141,-0.07109265398198196,-0.05803873830630637,0.043706379675675575
1.865,-9.982240673319863,0.40642969278563323,0.8895461565970784,-0.07406157417732881,-0.06323038552637483,0.03818221291133559
1.8675,-9.957262068192929,0.25740298320257704,0.7054122813311973,-0.07533466895176848,-0.06936671045016063,0.044386007041800464
1.87,-9.85345412552434,0.22016840980775082,0.504509060319811,-0.07918121953404825,-0.06935127578606926,0.041855691657183655
1.8725,-9.75939478523781,0.2582013704946986,0.4194804639647247,-0.08245176592680871,-0.06499732007152186,0.03743481783287657
1.875,-9.738370846631629,0.3248063043478261,0.7276904581939799,-0.07643112900143334,-0.05611821882465361,0.04357044720496894
1.8775,-9.801348347925064,0.2560104303371576,0.8425655831444029,-0.07781010503444102,-0.06646301296918401,0.0440562023685802
1.8800000000000001,-10.061112352264777,0.31849906811988893,0.9752615055745958,-0.07945412916172459,-0.07230035291553097,0.041310865747716176
1.8825,-9.850262037938725,0.26362030368558276,0.6099925656043566,-0.07798849379244821,-0.06659774855853733,0.04478275764901447
1.885,-9.767397038996133,0.21563803475968768,0.4554140909131105,-0.07593964307789441,-0.07130608829926605,0.0428298008365559
1.8875,-10.098151069482876,0.2520047730517134,1.0675894425345753,-0.0789180404952659,-0.07090014085943218,0.04094989541150743
1.8900000000000001,-10.020318360666337,0.25397893484595363,0.998541221724361,-0.07782339631717218,-0.06617449820157627,0.04269390933604004
1.8925,-9.809559225119566,0.3027172174720258,0.5431793836965395,-0.07815033423018033,-0.06696008524443428,0.04089087416185645
1.895,-9.785253636891044,0.36640323583882994,0.39969761533179815,-0.08011247329253754,-0.07269772478105377,0.04127046827942466
1.8975,-9.88279030378092,0.3315774785923622,0.6536545719096709,-0.07768524908959895,-0.07094621561373997,0.04610407169349026
1.9000000000000001,-10.111528285669356,0.2744345710400103,1.0633195127269823,-0.0731963775332129,-0.07241876517569304,0.04524347832717531
1.9025,-9.934448116854794,0.23742846984081045,0.9217794649493325,-0.07519438780511345,-0.06477271775205105,0.041928392638687986
1.905,-9.932668628020213,0.12216321883325319,0.5358992446485974,-0.0821502435277907,-0.082772,0.04142847169499304
1.9075,-9.952772,0.098039,0.524868,-0.08323,-0.079401994462075,0.040928
1.9100000000000001,-9.950387610039682,0.12099062318452834,0.5886559162334782,-0.08185954918320079,-0.07236134924603087,0.04123265542989424
1.9125,-9.90120026716278,0.1928356274418612,0.7334441146046387,-0.07818207432558151,-0.06189313009302404,0.041550907395348675
1.915,-10.004419495817684,0.2345718278573999,0.865157375396583,-0.08021674967340593,-0.06962317043904777,0.04066391029070464
1.9175,-10.218771096133741,0.25645810023546145,1.1077976967977412,-0.08010936730397936,-0.071624,0.041887168810925315
1.92,-10.064244015019437,0.12758014142487187,0.8372862105278585,-0.07324420703367869,-0.07116827279792749,0.044877329575777315
1.9225,-9.839308267089825,0.10644248379010678,0.5973864682355703,-0.07555167041246574,-0.07103487971585731,0.04081174685609512
1.925,-9.876933307710905,0.2366077009588283,0.787430380533402,-0.07690183134316328,-0.076358,0.03806081474498433
1.9275,-10.023719532922643,0.3095828922172584,0.9525490538631566,-0.074984,-0.07642891084881259,0.040317
1.93,-9.89007036595935,0.32786953695655596,0.6704131313256328,-0.07514456563730568,-0.07593328318214435,0.041199979609406065
1.9325,-9.793156698857878,0.3435649407009077,0.5314985289348656,-0.07626812769389889,-0.0731746105618751,0.04402437029070448
1.935,-10.048879177050889,0.33387993116566345,0.8584117572167177,-0.07980410379450492,-0.0716961308795318,0.046607578982279345
1.9375,-10.15148172982117,0.3032684204929918,1.0524302518124697,-0.07834651909134847,-0.072388,0.0476615558240696
1.94,-10.173959,0.27977,0.983979,-0.07926,-0.07106782550288843,0.045051
1.9425000000000001,-10.156276734075812,0.2826134197786684,0.9827350595855894,-0.0789648075441487,-0.06863584108782714,0.045005665811160805
1.945,-10.06076070967804,0.2767752746564134,1.0101990399711704,-0.07743324756367131,-0.07481776550696777,0.045104111542527664
1.9475,-10.050965995876782,0.21859466469135816,1.0523410331823069,-0.078458885259499,-0.07400683967877263,0.04566095191657676
1.95,-9.875203288379087,0.2520500268649628,0.7015158250771318,-0.08129267537378373,-0.07505939514278931,0.043476324626216256
1.9525000000000001,-9.81225802849264,0.24915426939775087,0.599740463448435,-0.08001957953565109,-0.0774048939351801,0.045017632542133354
1.955,-9.956876793538196,0.1512162044345155,0.7233335071051319,-0.07926511776837737,-0.08119719886982188,0.04658588752813465
1.9575,-10.112401306333211,0.26883637606288,1.1634255979230645,-0.07980524995593664,-0.07489762591878038,0.04422190167917115
1.96,-9.813505660221823,0.27928576522614773,0.72558529413357,-0.08111882642649253,-0.06494146053016582,0.04589889620388578
1.9625000000000001,-9.679491998154552,0.21076778764764395,0.39425275676675386,-0.08296452753444859,-0.07587365425689038,0.046079930339566665
1.965,-9.973696,0.288737,0.667145,-0.080176,-0.08085499315166413,0.042761
1.9675,-9.953233554084918,0.25616993844802066,0.692122711976576,-0.07993060685212296,-0.07169247543191791,0.04354619379209377
1.97,-9.842481645248983,0.15175464913247527,0.8001195224678992,-0.07830390077043534,-0.06795378818665825,0.04613754387723149
1.9725000000000001,-9.870493037929451,0.2870132226931856,0.7851847256696565,-0.07769786743987316,-0.07486997681357638,0.042843734879746305
1.975,-10.074750543765864,0.15100507701459684,0.9713908986992352,-0.07831871203997454,-0.080634,0.04522412596763955
1.9775,-10.08576412674278,0.2289775414775024,0.8951210881262598,-0.07643454659503023,-0.07948546680993944,0.04393076432505035
1.98,-9.98463250564845,0.2655821138740537,0.856074285513686,-0.07758983167789699,-0.07322044447550122,0.04279698857333001
1.9825000000000002,-9.850337589425783,0.2903020592230245,0.7234802110952814,-0.07929647006455973,-0.07300800157662307,0.04263778943481716
1.985,-10.074921270594746,0.3201418682056349,0.9890017211895099,-0.076511,-0.0795959069254032,0.043524
1.9875,-9.962212763342771,0.23870516222208712,0.8529771250948943,-0.0763324517563415,-0.0792977611255046,0.04521729085979397
1.99,-9.844785024786015,0.20485201346412457,0.7394099306130847,-0.07633473567281068,-0.07742354538723203,0.0457784522300451
1.9925,-9.778704573158814,0.23125227210470442,0.7382704682183588,-0.07651071038320956,-0.07588263100106069,0.04436468367881142
1.995,-10.109730197322836,0.25783303572913663,1.0460990270614168,-0.07611754409448823,-0.08743420021417296,0.04485064420157472
1.9975,-10.095070210813146,0.3189565359884359,0.9480744914492073,-0.0773219905746296,-0.08154480651487767,0.04359945375256003
2.0,-9.759606534552363,0.21815108216575635,0.6431790550938019,-0.08071099810021372,-0.07627262645452386,0.04574637734504868
2.0025,-9.829310467316956,0.29879756588576245,0.7959047968440343,-0.0775747417792247,-0.0773646797040544,0.045509
2.005,-9.965843967957532,0.3511650780797726,0.9500518555387482,-0.07579131487616583,-0.07656117794789352,0.0456690961498874
2.0075,-10.123970952691376,0.27169981662658915,1.0523793808118638,-0.07856732391858108,-0.07025,0.04592985479347707
2.0100000000000002,-9.786040427745291,0.27172018493284,0.4757509483709941,-0.07764401528835481,-0.07147795988623831,0.04633175389477052
2.0125,-9.769488877204695,0.2217094552412853,0.6646013317804615,-0.07459890549084891,-0.07385598502495781,0.04829397004991561
2.015,-10.210498877757603,0.4562066053062775,1.3293668077564225,-0.07711614486486494,-0.0734987932208192,0.045146411599197564
2.0175,-10.028265672984666,0.3646219624139747,1.0116074554642385,-0.07909319078299248,-0.07341540643329952,0.047782587710656646
2.02,-9.79547483171847,0.2537348698271446,0.6372809065436764,-0.07986952473141615,-0.07525349376017368,0.049212501247965265
2.0225,-9.617596852492985,0.17816108555683835,0.3670194246361911,-0.07793548113512623,-0.08104854342847724,0.04780946016168952
2.025,-9.820303668767522,0.2091875861079019,0.8980900384094844,-0.0766145971621845,-0.07457474142880735,0.04596004959577634
2.0275,-10.020239681901334,0.2224074727533527,1.0176333115028802,-0.07712794772069138,-0.07591665315054498,0.04585477334016668
2.0300000000000002,-10.0945020411563,0.32996985012410995,0.9709172437517422,-0.08143932259544336,-0.07204410492380257,0.045652249269442655
2.0325,-9.88185308992352,0.24649634332693876,0.7460025312045923,-0.07693680380497117,-0.076816,0.049360196195028835
2.035,-9.927858418888723,0.11071331207019638,0.8618394265784372,-0.07555811421271355,-0.0771106041311375,0.04926610621517596
2.0375,-10.008897247614524,0.2800811630666992,1.115576429717531,-0.07566831350581546,-0.0773929249940656,0.044813879230951856
2.04,-9.896287214988778,0.29116583599102425,0.8471862982797275,-0.07798495449513834,-0.06957145816005986,0.046513668152580456
2.0425,-9.713438281856059,0.26736556544507556,0.6531842612310595,-0.07641063609848484,-0.07126518713068176,0.049089452907197
2.045,-9.908475028257701,0.29004014915285714,0.8182234241009698,-0.07686939067368755,-0.07629041026482891,0.04695363195291928
2.0475,-10.014785701838008,0.31306814629179014,0.9690531622541778,-0.07441765775575908,-0.07450863189497163,0.047936539445132646
2.05,-9.914403675895967,0.4881436789248278,0.6858766389787218,-0.0761286223279417,-0.0713926069774821,0.046999696511258945
2.0525,-9.963746667843882,0.5265805151267997,1.0313803193316913,-0.07559578720975622,-0.06654238034146298,0.05009747156097641
2.055,-10.035103236589933,0.22433888764662663,1.1120504907243356,-0.07870931016860644,-0.07630742585609386,0.05229383557349713
2.0575,-10.078590569877948,0.2384359857566077,1.0617579187534019,-0.08090876078208326,-0.07709351156772117,0.04942428285815847
2.06,-10.0321328163388,0.30943818778307935,0.912802877135694,-0.08026511709367157,-0.07478639365069101,0.048856335103855224
2.0625,-9.929465976661392,0.4065961296149789,0.7351613299050633,-0.07506887737341772,-0.07514536722046412,0.05132434295886076
2.065,-9.985126418754506,0.2442189426534287,0.9535894880234586,-0.07765746918772555,-0.079565,0.05017724548736476
2.0675,-10.22182394186068,0.30945660929437296,1.2048064839191126,-0.07977479873258458,-0.07580530511460794,0.045066826229213285
2.07,-9.949946352280806,0.3847283043807246,0.8259425490279866,-0.0787967358548482,-0.06974876001189749,0.04649327677334919
2.0725000000000002,-9.67505596014561,0.4124069794176264,0.4775407352147795,-0.08053576936180556,-0.072388,0.047260460761951575
2.075,-9.82599647595239,0.4133627376349057,0.738358796428587,-0.08128590060317448,-0.0732023515238097,0.05259527515873037
2.0775,-9.97884303589757,0.22333237463562072,0.9847504389476353,-0.07934157697788109,-0.075442,0.054618749667054434
2.08,-10.083093541466198,0.21857801571592447,1.1587705788316023,-0.07845645699885465,-0.0735970977777776,0.04960297493699875
2.0825,-9.768053037402042,0.30549104792210957,0.7617861994348131,-0.08251787173592971,-0.06984375570173364,0.04680821779624794
2.085,-9.79087539158675,0.35239939638485923,0.7053930359873819,-0.083536,-0.08044843421451092,0.049260032129337515
2.0875,-9.895710839881358,0.29177141914590365,0.771040399999978,-0.08247383333333365,-0.08611194102016653,0.05067886669039146
2.09,-10.167605337209983,0.3858962959347999,1.1384898228283895,-0.07720176498561829,-0.07340401239693264,0.050305263202301095
2.0925000000000002,-9.986848,0.441176,0.987566,-0.079107,-0.0697881849308596,0.049633
2.095,-9.989925068850159,0.3374617392646033,0.9401707996514307,-0.07997189470775777,-0.07861870634218951,0.05089070105419777
2.0975,-10.025779313498518,0.22721477818790592,0.9530772538791397,-0.08006890298503858,-0.08195135423578666,0.051655096895272104
2.1,-10.06674158866681,0.1972218916999802,1.0734151682576816,-0.07602418396426049,-0.07645185483188316,0.04872905050552544
2.1025,-9.70728487673642,0.32307041319539564,0.5761722337832087,-0.07594130403950163,-0.07236225122031524,0.046121642351281376
2.105,-9.725447449253515,0.5388060512600362,0.5952964441847483,-0.080787,-0.08086872984815963,0.043501210840289344
2.1075,-10.045172695356202,0.5625729077044892,1.0971356259102931,-0.0802034003693933,-0.08047957102902416,0.0475641502902372
2.11,-9.772202291726758,0.4304866824707601,0.7237436843425844,-0.07983839028544633,-0.070402,0.04942173281235451
2.1125,-9.631697131852729,0.46123139687775794,0.6282196078232696,-0.08621541900441784,-0.07193369907511034,0.047102179888070764
2.115,-9.669915172773328,0.4750809711159888,0.7246310753797606,-0.08867326700203448,-0.07551311762637433,0.0487141655091582
2.1175,-9.967561824240022,0.3950946125354051,1.0551349340665437,-0.08298834847047575,-0.08329464492439938,0.05576609969123023
2.12,-10.116215788524595,0.27138333901638817,1.2910845609836166,-0.08082210360655728,-0.08660826524590177,0.05461955868852454
2.1225,-9.77714643896453,0.2797564412671403,0.7230539632056646,-0.08497264963593382,-0.078038,0.0516106150307328
2.125,-9.540291,0.306074,0.423242,-0.085368,-0.08098172886556318,0.049633
2.1275,-9.632037564044511,0.3186211760946175,0.521840692588109,-0.08500433746753253,-0.08855984495361797,0.04924656204081639
2.13,-10.00613699491641,0.401593242809363,0.9454512691638994,-0.08418741605351153,-0.07841027585284349,0.04531545525083636
2.1325,-9.778098223795668,0.4912371619670505,0.6089535992074686,-0.08787612436380975,-0.07578331004058254,0.046123107844354166
2.1350000000000002,-9.741515833789348,0.4279262244432954,0.6051755062407064,-0.08798748772840666,-0.08297232455317269,0.05287807566650198
2.1375,-9.768052,0.39395,0.66296,-0.087354,-0.08233184832984741,0.054367
2.14,-9.840639024529006,0.3626094492302736,0.8134927060030541,-0.08598493065326612,-0.07692724297040707,0.053744671056871564
2.1425,-9.980924164323415,0.2828880771066661,1.1606676450479334,-0.08334236610394245,-0.067806,0.05165977948147262
2.145,-9.696316,0.305476,0.865017,-0.088728,-0.0705924254151511,0.04948
2.1475,-9.766792695935528,0.3291429050076995,0.9126999612892466,-0.08801406599360123,-0.07879332246948682,0.0494576484749378
2.15,-10.194795804062991,0.4410820605984282,1.213799173826769,-0.08466916355905503,-0.08282659889763773,0.05003689137007866
2.1525,-10.21144032668155,0.37626349244424007,1.238611154397881,-0.08742897786797481,-0.08308348221231111,0.051803957805530924
2.1550000000000002,-9.967175377043803,0.4107046576889554,0.8899596797303578,-0.09091974609533007,-0.07482688749157469,0.051352723842080554
2.1575,-9.975006701644503,0.2891400443798004,0.8550470131063701,-0.09125166350880073,-0.07759253533757558,0.05368366350880073
2.16,-10.15344526511444,0.29811914228531083,1.1355474607766798,-0.08914711083645636,-0.07991115074077039,0.05096633685352027
2.1625,-10.353839838862092,0.3876738756991269,1.5303108388620903,-0.08831770405014472,-0.08103307396335555,0.048688002314368574
2.165,-9.796372383172764,0.2817447362262481,0.6756359562173821,-0.0892019103844454,-0.0830105097481223,0.05009960816615102
2.1675,-9.684865452885548,0.27843072692046555,0.4696629980892335,-0.08663888009699323,-0.0885637997769156,0.05062909992240542
2.17,-9.765816598541727,0.27830519620722727,0.6445706737383936,-0.0841664428461785,-0.08838653559322056,0.05078515748001288
2.1725,-10.001487355530072,0.318193958452706,1.1320542025787725,-0.08273109146131793,-0.08117467292263633,0.0481071014040114
2.1750000000000003,-10.152288194378778,0.4932980483551427,1.3819575810922748,-0.08531026394123317,-0.078038,0.049143309294155266
2.1775,-10.002289262143815,0.35674778136508756,1.0807598923316035,-0.08851964098030261,-0.07897744679798507,0.04941291758131008
2.18,-9.874750617948166,0.3176389443205058,0.7505179054265709,-0.08846483857973239,-0.08568891140926972,0.05000423916417932
2.1825,-10.079315556129044,0.3705227909677466,1.08187643096777,-0.08121184129032281,-0.08871850967741883,0.053145
2.185,-10.209351568240447,0.42552360809016776,1.390569793562921,-0.08637990118973084,-0.08004968107701939,0.05286568107701939
2.1875,-10.02676012594731,0.36326029207265725,0.9647395098039216,-0.09029550523276796,-0.07972203777216408,0.05155622326476603
2.19,-9.777589256720136,0.39693814594205834,0.7604663858941819,-0.08762583273162584,-0.08316017639454151,0.04948357423988498
2.1925,-9.904265377664855,0.4314709877237798,0.930352191941543,-0.08691718179967002,-0.08467054539901006,0.05117281736884274
2.195,-10.047568128269612,0.444471550781993,1.114725116547714,-0.08744554745793068,-0.08625564237379203,0.0525315425274569
2.1975000000000002,-10.017839456805634,0.32671707833763947,1.0292079469394837,-0.08849841901464713,-0.07753910446422377,0.05239550862709395
2.2,-9.810270561250292,0.20886914604824236,0.7582804051345666,-0.08814061419374848,-0.082161,0.05239870041107538
2.2025,-9.806311,0.197872,0.725729,-0.087354,-0.08203793559603406,0.047342
2.205,-9.892931897632982,0.2673876470017179,0.8889816493703846,-0.087354,-0.08025304725910229,0.04751688673780242
2.2075,-10.142582390583785,0.5106992032958976,1.3738724432291736,-0.08771741482931171,-0.07671750818636712,0.04840017676859782
2.21,-9.787774510708465,0.5393511672678402,0.8171894469888255,-0.09004507958988153,-0.07339032625262613,0.051443371718631774
2.2125,-9.695344519667842,0.37930380020475474,0.6533912599249181,-0.08798340844045051,-0.08221837099306091,0.054195004754862934
2.215,-9.780363243959803,0.38518391745301284,0.8694791846791726,-0.08697898065456904,-0.08492839075178243,0.054096396526247564
2.2175000000000002,-9.999386229310629,0.4026218541076537,1.218925776997132,-0.08677666520302176,-0.08065917443814787,0.05406234101982986
2.22,-9.662213862649834,0.4233531481640336,0.8934462370409899,-0.08878825781072604,-0.07229162320504767,0.05195208013880102
2.2225,-9.573866646356548,0.38837866886491773,0.6841505001612881,-0.09404494481081714,-0.07706857794814582,0.04915062862672136
2.225,-9.890286028130882,0.5192969366937982,0.9995173243112201,-0.08994720707576713,-0.08326508514402013,0.05092805676268009
2.2275,-10.195580565309983,0.46026547069235463,1.2931300504611785,-0.09154516397431403,-0.08492882889900746,0.05247067395213075
2.23,-10.024366107116109,0.4825994112958823,0.9641782101872737,-0.09152735029213478,-0.07485327724344579,0.051816654741573036
2.2325,-9.762530234684245,0.4357146168918181,0.5735291856562414,-0.09294984314113124,-0.07842418725974723,0.05366310051619983
2.235,-9.904889828840295,0.4625322442771949,0.8202793755573818,-0.0923309878505033,-0.08067283375344571,0.05250903595615117
2.2375000000000003,-10.220908780072351,0.49428278923261965,1.4061620601447322,-0.09202958348734473,-0.07439068907191253,0.05165478204098113
2.24,-10.161050150674159,0.45809460749718045,1.4632736643462545,-0.09322435048206346,-0.06664069862081269,0.0547827954699082
2.2425,-9.954585582549127,0.41418705347641854,1.1621163569467974,-0.09396406803810485,-0.07188335324731797,0.05541302315687899
2.245,-9.83180716555582,0.34710597462108705,0.8349692081663804,-0.098502,-0.08342178291178597,0.05211547202486254
2.2475,-9.850229198756436,0.3997989756977194,0.7377294327681561,-0.09792309392323319,-0.08700517527203155,0.05212172756666266
2.25,-10.097357564826076,0.4854841111651666,1.3505001444903917,-0.09548094064704452,-0.07388301581123813,0.05256774264169302
2.2525,-9.988381439522586,0.31318540127779465,1.1387245975942026,-0.0983457922021998,-0.07304106029019418,0.05793844123566569
2.255,-9.94447223632954,0.1446821704615932,0.9472328161118583,-0.09970250969730683,-0.07739724964169344,0.05920922512433502
2.2575,-10.112567315991921,0.047839929754807345,1.0610815019589872,-0.0969880932749028,-0.085368,0.05069303509179223
2.2600000000000002,-10.340051974435402,0.292301210772426,1.3504177046918082,-0.09066005132027377,-0.0841977973817483,0.048075298015607525
2.2625,-10.145470204819254,0.4028107725783227,1.0938746229879184,-0.08949835908433772,-0.08099705465060282,0.04708222385542136
2.265,-9.780602843208747,0.5658851647234795,0.8331021647234795,-0.09351305791728955,-0.0791266282610852,0.04762924681614414
2.2675,-9.660901428108968,0.46342998158355525,0.683142304266364,-0.0937319049673411,-0.0812779871594712,0.055601403632308644
2.27,-9.852868800372548,0.41335988978347266,0.943132970333989,-0.093768,-0.082467,0.05281896276443016
2.2725,-10.135698597211872,0.41221486033409266,1.351408676961901,-0.09342939394784286,-0.08054162835236174,0.04751392258622752
2.275,-9.834684600000044,0.2664362925011488,0.9680850898069727,-0.09177910857656035,-0.07482606699595798,0.05761463134261279
2.2775,-9.690876242264016,0.2765134571651688,0.7342504830787756,-0.09210689834525025,-0.08228773703538991,0.05262937406717582
2.2800000000000002,-9.756904201714448,0.39226362112221136,0.8080743199776909,-0.09189067954345906,-0.08526985962806251,0.04780900901588331
2.2825,-9.972619534457134,0.5171256036263016,1.1631214535866339,-0.09137226971263714,-0.081856,0.04955473681856466
2.285,-9.934776559854058,0.49214434359772063,1.1041756110056935,-0.09392841468908619,-0.08181573993337563,0.051883739933375625
2.2875,-9.874837652843784,0.5350729180312996,0.8334478950106979,-0.09273442730037182,-0.08160027557157334,0.05172980252280661
2.29,-9.83137445345377,0.35904732231043684,0.8345012169336836,-0.09163382166864727,-0.08205899900166395,0.05309287711908732
2.2925,-9.963886678012617,0.3772728680126183,1.0364688457704425,-0.08915540438485806,-0.07723557194370302,0.053909
2.295,-10.076118607751399,0.36254880109472504,1.2304308276835672,-0.09096027118542452,-0.072846,0.05309207399637203
2.2975,-10.130860999592228,0.3154721187395734,1.326942923206693,-0.09714974344763687,-0.0731134914550508,0.05047038059314184
2.3000000000000003,-9.924720615662839,0.35020615065397676,1.0119993312449471,-0.09451501391894067,-0.07621982321976456,0.04958290663652502
2.3025,-9.883611380821923,0.4619560282528269,0.9557390282528269,-0.09416845869742876,-0.07929434434030316,0.04939501433309357
2.305,-9.938713420823381,0.46115143325988056,1.0504018903212493,-0.09572485842978068,-0.08114241479763397,0.054115000282964176
2.3075,-9.837636416317013,0.36068947823048453,1.0096125980299075,-0.09398990290982608,-0.07817228404367157,0.05463498456287913
2.31,-9.650286,0.280966,0.74725,-0.093157,-0.07863077011312408,0.055283
2.3125,-9.679570929670593,0.30358980199567204,0.8019791404183698,-0.09289640129838904,-0.08339610867997115,0.054562538951671076
2.315,-9.984639797150367,0.47486748177863014,1.3499472488166344,-0.09063398125747071,-0.07811098125747071,0.05011573633277537
2.3175,-10.120157,0.374821,1.532759,-0.090866,-0.07886215360018647,0.056505
2.32,-10.006478553691931,0.3835028476618713,1.3279205859347427,-0.09065813851751812,-0.08356316140780158,0.054737723552872423
2.3225000000000002,-9.613974161053138,0.41049414445635946,0.6286505286786915,-0.08973915204290563,-0.08525815118478797,0.049363440877621505
2.325,-9.667150931765105,0.4002760863546092,0.7417877153302387,-0.08773285049670192,-0.08434710447429038,0.054745949026464034
2.3275,-10.027298006584957,0.4622524164670247,1.19347281272157,-0.08843406696555776,-0.080176,0.05171848300758908
2.33,-10.101544984183416,0.5006708411043441,1.352418613102453,-0.09300727664950874,-0.07864311208235829,0.05483383380439893
2.3325,-9.740652794516972,0.3410004161879894,0.8560596793211491,-0.09249839300261094,-0.07960070778067892,0.05809159947780677
2.335,-9.77698843289575,0.3184441362162164,1.005128989652504,-0.08963662069498068,-0.08541783243243245,0.055563549034749055
2.3375,-9.952678427450977,0.3249827843137185,1.3413745411764784,-0.0910017215686273,-0.08391697647058831,0.05388945098039222
2.34,-10.019778785609125,0.5793535787223706,1.0870183375350466,-0.09428724796010444,-0.082314,0.04840974252196714
2.3425000000000002,-9.81172393762546,0.5847140995752846,0.8469081288706338,-0.09446357494208496,-0.08137922432432422,0.053971074049228636
2.345,-9.665982803367609,0.49206071081560143,0.7598830070290099,-0.09371744422729009,-0.08185469696173206,0.06008685682875924
2.3475,-9.73358429991745,0.31596818918144726,1.0364437223269825,-0.09129878142822455,-0.085674,0.06027379126062623
2.35,-10.036757063124984,0.20749691812497909,1.3865552306249718,-0.09205264749999992,-0.0816865131249995,0.05758199750000037
2.3525,-9.613194836966773,0.21243594378430547,0.6601294319467078,-0.089058604833895,-0.08320071787514048,0.054483489048306785
2.355,-9.595369512427846,0.2998586616576032,0.6321841211305628,-0.08924706586913653,-0.08768963291783684,0.05139715197370782
2.3575,-9.783213531246897,0.38982356836453275,0.9557767514611816,-0.09043374564935838,-0.09052368785588177,0.049606376295772914
2.36,-10.071280829968455,0.48400832889248013,1.4243425726753631,-0.08655218308874718,-0.07970883925895955,0.05214180913518315
2.3625000000000003,-9.959349,0.560736,1.186035,-0.080787,-0.08137680323437708,0.053756
2.365,-9.87834031930872,0.5190909090551119,1.0842038931242195,-0.08293656873349932,-0.08323,0.05484915470997712
2.3675,-9.65841388854884,0.3741635259774443,0.8206026092108845,-0.08922922179899218,-0.08386876499880111,0.05835565956344448
2.37,-9.95703294056583,0.3194191388841525,1.2926667259364635,-0.08524864074600921,-0.08733649438912577,0.05645914066066037
2.3725,-9.947565357678982,0.45137372982686474,1.2895505637435616,-0.0866237839213852,-0.08229870823584445,0.05046419845577918
2.375,-9.752509,0.609756,1.141798,-0.089339,-0.07803756803667922,0.052229
2.3775,-9.770597040142547,0.6055628677975774,1.1277387391019273,-0.08936004267997148,-0.08508218012829638,0.05294307578047028
2.38,-10.025137169820566,0.4832212127667744,1.215280318583545,-0.09065474056657208,-0.089034,0.05753750249291783
2.3825,-9.85752394579213,0.42775421154122045,0.8869514354265504,-0.09119163801672639,-0.08834231588052574,0.0581790820979689
2.3850000000000002,-9.802601497691612,0.42150494003784694,0.9218345315611207,-0.09539601012299082,-0.087812,0.05654871453169284
2.3875,-10.055294727214342,0.43911666406519645,1.3650662676462106,-0.09580800853012902,-0.08609001706025803,0.05382750770328935
2.39,-10.17902475510606,0.45220214916634094,1.566723119545978,-0.09303090449158478,-0.0838155113831701,0.05388761210489264
2.3925,-10.001217449921645,0.4736326955863611,1.3326930385777835,-0.08725816300831649,-0.08119449364348569,0.05820035330360345
