time,acc_x_g,acc_y_g,acc_z_g,gyro_x_rad_s,gyro_y_rad_s,gyro_z_rad_s
1765408560.299204,-4.218396964558443,-1.6463105740242316,-8.591933411229508,-0.007109636531104298,-0.006210349928216622,0.0009478479445076879
1765408560.299404,-4.273628171862718,-1.6402941121095587,-8.597226479282359,-0.00780523099187388,-0.006466551798396784,0.0010669949320521617
1765408560.299604,-4.327981340020209,-1.6351725079173525,-8.601689405790463,-0.008449400217981412,-0.006728157369294413,0.0012142843520615845
1765408560.299804,-4.381129430572362,-1.6320291979737866,-8.604426632279784,-0.009007275833515791,-0.007018521574140963,0.001469434758976092
1765408560.299928,-4.432774146984328,-1.6318969083601846,-8.604617533731323,-0.009445374271360302,-0.007361908498659273,0.0019116593277279242
1765408560.300178,-4.482651586786397,-1.6357078676210774,-8.60155707824766,-0.009733078697519125,-0.007782593504580955,0.002616555233294081
1765408560.300428,-4.530541434076539,-1.644249136653577,-8.594690149483899,-0.009844101709100894,-0.008304010316626878,0.0036532923559727515
1765408560.300678,-4.576279098711701,-1.6581256119162977,-8.58363719877153,-0.009757864761218867,-0.008947995470387245,0.0050822209218842505
1765408560.300893,-4.619768772723403,-1.677733193133418,-8.568209498189018,-0.009460720451067163,-0.009734180204363934,0.006952986382901448
1765408560.301143,-4.660994342358766,-1.703244332845948,-8.54841328925037,-0.008946934898044543,-0.010679572155411049,0.009303210103178167
1765408560.301393,-4.7000251485228475,-1.73460738070844,-8.524443196954218,-0.008219342381221488,-0.011798351175533017,0.012157765390458394
1765408560.301643,-4.737014892960505,-1.7715595768019363,-8.496665934957667,-0.00728958778643151,-0.013101872264862955,0.015528647092244417
1765408560.301882,-4.772193892934802,-1.8136514941565187,-8.465595469249745,-0.0061778899609161095,-0.014598833846804823,0.019415400640054033
1765408560.302132,-4.805856291926314,-1.8602790134231761,-8.431860887107844,-0.00491229382375057,-0.016295552310790693,0.023806051555351093
1765408560.302382,-4.83834403751318,-1.910718418806126,-8.396168751889347,-0.0035274263919999457,-0.018196296742755566,0.028678466274066616
1765408560.302632,-4.870028701610079,-1.9641610423306366,-8.359262659519784,-0.0020628192208694907,-0.02030366934005509,0.03400207332545559
1765408560.302908,-4.901291409546738,-2.0197452016649606,-8.32188344893072,-0.0005608954366353389,-0.022619039430246093,0.039739863960866637
1765408560.303108,-4.932500886910601,-2.0765840433092544,-8.284733566831799,0.0009352576592992093,-0.02514303649201416,0.045850566992343585
1765408560.303308,-4.963989936168401,-2.1337882116059963,-8.248448485455441,0.002384191596972369,-0.027876091686476565,0.05229086752082445
1765408560.303508,-4.996031198782103,-2.190482617446604,-8.213577118092614,0.003748317515137312,-0.0308190098198823,0.059017531793104365
1765408560.303708,-5.02881355731803,-2.2458175160694367,-8.180572046318494,0.004995871523307376,-0.033973557350913945,0.06598931496174265
1765408560.303963,-5.062420916334349,-2.2989755139453814,-8.149789142564806,0.006102454869883026,-0.03734304874496485,0.07316855400049622
1765408560.304213,-5.096815521775179,-2.3491772851198047,-8.121494987473502,0.007052014346492168,-0.04093289080835298,0.08052236969347117
1765408560.304463,-5.131828440220018,-2.395689015964233,-8.095879583762683,0.007837192388084243,-0.04475101539939786,0.08802341428290135
1765408560.304713,-5.167159797580564,-2.437833899519906,-8.073071566426218,0.008459051545057729,-0.04880811862545018,0.09565011420952635
1765408560.304862,-5.202390308967843,-2.475008688890604,-8.05315349013145,0.008926247663079348,-0.05311763903024802,0.10338638350281647
1765408560.305112,-5.237003823415149,-2.506704512157412,-8.036175336137626,0.0092537812981344,-0.05769544111786778,0.11122082723038425
1765408560.305362,-5.270419012000122,-2.532529138072425,-8.022164559259652,0.009461489363747856,-0.06255921197018113,0.11914551254481326
1765408560.305612,-5.302027392564866,-2.5522265732438023,-8.011131126859086,0.009572439979577763,-0.06772761938905598,0.127154449441746
1765408560.307446,-5.33123428733036,-2.565690090762225,-8.00306694212863,0.00961136358332198,-0.07321931418529559,0.1352419783729411
1765408560.307696,-5.357498829254098,-2.572966349648288,-7.997940810309753,0.009603206403589562,-0.07905187990410197,0.1434012854824377
1765408560.307946,-5.380369085963573,-2.5742502309190702,-7.995691671656119,0.009571847411689266,-0.08524083476482684,0.15162324570600877
1765408560.308196,-5.399509077724472,-2.5698715966334365,-7.9962232575616605,0.009538990583570285,-0.09179877455586119,0.15989573602977822
1765408560.307491,-5.414715746107843,-2.5602760676570733,-7.999402571023822,0.009523232841394962,-0.0987347181497675,0.16820348442950234
1765408560.307824,-5.425925299132016,-2.5460021528753836,-8.005063160962385,0.009539307306622141,-0.1060536848914789,0.17652843970518403
1765408560.308158,-5.4332095337737,-2.527656857037508,-8.013012542220014,0.009597504272603197,-0.11375650166150275,0.1848505716921172
1765408560.307869,-5.436763731031453,-2.5058914693486196,-8.02304170827507,0.0097032764294987,-0.12183981510599928,0.19314894945153652
1765408560.308119,-5.436888481981408,-2.481378727826968,-8.034934026459458,0.009857039828558088,-0.13029627707735078,0.20140291066649954
1765408560.308369,-5.433968077820013,-2.4547920599630415,-8.048471332288432,0.010054184443597044,-0.13911487824348562,0.2095931372228646
1765408560.308619,-5.428447764020096,-2.4267872152951124,-8.063436497823567,0.010285303033994558,-0.1482814173529735,0.21770248625742938
1765408560.308855,-5.420811472502666,-2.3979863789387426,-8.079613229297921,0.010536633159285479,-0.15777909543642135,0.22571648170287628
1765408560.309105,-5.411560994322546,-2.368964777336094,-8.096784567598975,0.010790689391664568,-0.16758920376729639,0.23362343690075138
1765408560.309355,-5.401197158870969,-2.3402398737614667,-8.114731440224336,0.011027048420074981,-0.17769184248442424,0.24141424290893948
1765408560.309605,-5.390203444501817,-2.312263512199674,-8.133232090260707,0.011223243712682756,-0.18806659097463474,0.24908190744259204
1765408560.309914,-5.379032422146546,-2.285417649840442,-8.152062694051285,0.011355727945938218,-0.19869306487993943,0.25662095479757674
1765408560.310164,-5.368095342690183,-2.260014347126689,-8.170999069559656,0.011400865927502715,-0.20955132201663768,0.26402679326470135
1765408560.310414,-5.357754874369237,-2.2363003573519076,-8.189819096873919,0.011335924576129685,-0.2206220984885787,0.27129512971640946
1765408560.310664,-5.348320490893618,-2.214466135559742,-8.20830546188117,0.011140028685758228,-0.23188686555420593,0.27842147476331947
1765408560.310908,-5.340045592173617,-2.194658539565751,-8.22624855961751,0.01079505217762542,-0.24332771130674816,0.2854007494287557
1765408560.311158,-5.333125520799081,-2.176995914247714,-8.24344948565727,0.010286415933991062,-0.25492707438037127,0.2922269838827141
1765408560.311408,-5.327696305983621,-2.161583582828657,-8.259722785470565,0.009603766542549175,-0.26666737958409026,0.2988930927970904
1765408560.311658,-5.323834783210659,-2.148527166843706,-8.274898337460476,0.008741514641242799,-0.2785306364522886,0.3053907190557273
1765408560.311942,-5.321561160325366,-2.137940997034997,-8.288821782969631,0.00769921601839957,-0.29049806107897447,0.3117101555663386
1765408560.312275,-5.320845037599245,-2.1299494869986435,-8.301353094370373,0.006481783583694441,-0.30254977498888314,0.3178403781527638
1765408560.312609,-5.321615661053817,-2.1246806455352507,-8.312362716230076,0.005099522848813415,-0.3146646244589093,0.323769238482153
1765408560.312905,-5.323776956518946,-2.1222524081028267,-8.321724310104353,0.0035679853627830407,-0.32682015139992443,0.3294838620642265
1765408560.313155,-5.327227349389815,-2.1227536308353008,-8.329303336991785,0.001907633437206627,-0.3389927398443153,0.33497127160942747
1765408560.313405,-5.33188314126298,-2.1262221808298776,-8.334942249954917,0.00014330648909026856,-0.35115796538563404,0.3402192222239491
1765408560.313655,-5.337702425812633,-2.132622746755309,-8.338445503510943,-0.001696524672659015,-0.36329118107810454,0.3452172063193739
1765408560.313937,-5.344704954727708,-2.141827195024925,-8.339569421163104,-0.003580730604597128,-0.3753683678500213,0.34995756811488465
1765408560.314187,-5.352982994934223,-2.1536006955320692,-8.338021848794694,-0.005476729883282459,-0.3873672529945817,0.3544366527135616
1765408560.314437,-5.362699602728409,-2.1675969763336624,-8.33347436298833,-0.0073519132429471,-0.3992686604129224,0.35865589306341394
1765408560.314687,-5.374073549511719,-2.18336511150883,-8.325586780685622,-0.009175230769370787,-0.4110580101279424,0.3626227145549679
1765408560.314901,-5.387353287416934,-2.200367922235431,-8.314041195354497,-0.0109188466112193,-0.4227268413744378,0.3663511320419323
1765408560.315151,-5.40278470404619,-2.2180092385061014,-8.298581214622347,-0.012559741814613591,-0.4342742006557832,0.36986194377653453
1765408560.315401,-5.420578412461915,-2.235665493213634,-8.279051228114168,-0.014081151498091485,-0.4457077193036539,0.3731824852695227
1765408560.315651,-5.440881961036295,-2.252717450094723,-8.255430322346147,-0.015473746830133158,-0.4570442099402364,0.3763459687981953
1765408560.315899,-5.4637609066158,-2.2685798680094025,-8.227856246101268,-0.01673649006656831,-0.46830964405116193,0.37939047585627456
1765408560.316232,-5.4891905890824,-2.2827290077969504,-8.196636776894097,-0.017877089204740414,-0.47953843524255346,0.3823576801323315
1765408560.316566,-5.517058191978817,-2.294728771713342,-8.162248430499627,-0.018911970130304084,-0.49077203248047757,0.38529136504551575
1765408560.316936,-5.547172795755454,-2.3042557637726153,-8.125324706438741,-0.019865691270525343,-0.502056899002158,0.38823577899968953
1765408560.317186,-5.579280065733412,-2.3111223760133157,-8.086637108292566,-0.020769758926885973,-0.5134419926350808,0.39123385944237116
1765408560.317436,-5.613078256743456,-2.3152959160790734,-8.047071689695565,-0.02166085468529158,-0.5249758720454948,0.39432536179411837
1765408560.317686,-5.648233374419813,-2.316911160183194,-8.007602133399677,-0.022578547391657374,-0.5367035577182006,0.3975449494492479
1765408560.317915,-5.6843931081602594,-2.3162735326441335,-7.969258330163109,-0.023562619459768994,-0.5486633035711053,0.40092033056263143
1765408560.318165,-5.721200521572727,-2.313850329120801,-7.933088568241317,-0.024650184928996254,-0.5608834812984365,0.40447056165887196
1765408560.318415,-5.758308479909652,-2.310248179160377,-7.90011478212586,-0.025872816861928324,-0.5733798152422981,0.4082046696259967
1765408560.318665,-5.795394226576295,-2.3061765169829056,-7.871283382774375,-0.027253933958863233,-0.5861532089499651,0.4121207590288727
1765408560.318913,-5.832171296493988,-2.3023990417565283,-7.847417347677368,-0.028806707305296102,-0.5991883759874538,0.4162057586973631
1765408560.319246,-5.868394731733904,-2.2996772936014516,-7.829176662857494,-0.030532721214448676,-0.6124534356736632,0.4204359175794233
1765408560.31958,-5.903856756029781,-2.298711774462923,-7.8170327292102995,-0.03242155626102588,-0.6259005621746189,0.4247780925771144
1765408560.319884,-5.938373610105753,-2.3000862099930295,-7.8112582434896325,-0.03445137550637425,-0.6394676846476312,0.42919179268102853
1765408560.320134,-5.97176831314952,-2.304219798580634,-7.811929352661674,-0.036590505546457076,-0.6530811405284149,0.4336318670398852
1765408560.320384,-6.003856322560596,-2.31133111018583,-7.818934222761657,-0.038799918318092624,-0.6666591089880003,0.4380516617149206
1765408560.320634,-6.034440335928448,-2.321416210155645,-7.831982805269838,-0.041036436597538195,-0.6801156145656541,0.44240642504159233
1765408560.320917,-6.063317607638689,-2.3342429118233134,-7.850615484053902,-0.04325641107186416,-0.693364882446304,0.44665670742958974
1765408560.321167,-6.0902995245441875,-2.3493626987147316,-7.874211518003556,-0.04541956136342187,-0.7063258165802422,0.4507714726045262
1765408560.321417,-6.115239535980058,-2.3661413269781773,-7.902000660322115,-0.04749264705193525,-0.7189263406366043,0.45473062347547516
1765408560.321667,-6.138062472201918,-2.383807929860361,-7.9330825440309685,-0.0494526414726786,-0.7311073023286287,0.45852666292989636
1765408560.321911,-6.158787176346595,-2.401520459368472,-7.966457532346968,-0.05128911884600504,-0.7428256220736413,0.4621652645282004
1765408560.322244,-6.17753631533024,-2.4184427599607217,-8.001069379808785,-0.05300562640664268,-0.7540563847518665,0.4656646175155506
1765408560.322578,-6.194531299995722,-2.433825840241388,-8.03585585093886,-0.0546198890611162,-0.7647936358778239,0.469053529484171
1765408560.322844,-6.210073942634662,-2.447083516435023,-8.069801066943821,-0.05616278197877141,-0.7750497569833935,0.47236841164473004
1765408560.323094,-6.224518169358935,-2.457851605620753,-8.101983854345393,-0.05767610859358311,-0.7848534536155392,0.47564942241225916
1765408560.323344,-6.238235319516291,-2.4660214444829123,-8.131618270490756,-0.05920933530604,-0.7942465638325281,0.4789361768687878
1765408560.323594,-6.251576888233002,-2.471742745521936,-8.15808355227789,-0.06081554440745739,-0.8032800430010348,0.4822635050816357
1765408560.323911,-6.264839648307604,-2.4753961714331774,-8.180940364782627,-0.06254694919657615,-0.8120095679397432,0.48565773661350803
1765408560.324244,-6.278238921869573,-2.477540643612155,-8.199929974973815,-0.06445035312602418,-0.8204912212580383,0.48913390577936516
1765408560.324578,-6.2918948850866006,-2.4788432827872895,-8.214954858029369,-0.06656292891868587,-0.8287776809850901,0.49269413864848355
1765408560.324906,-6.305833961310326,-2.480000949232301,-8.226043512422521,-0.0689086529002474,-0.8369152710607937,0.49632733348005725
1765408560.325156,-6.3200039414206275,-2.4816620428337903,-8.233306823068489,-0.07149566108491542,-0.844942130588422,0.500010112101179
1765408560.325406,-6.334299011574907,-2.484356114651644,-8.236895398629745,-0.07431470777461988,-0.85288762995932,0.5037089164314331
1765408560.325656,-6.348589803309367,-2.488437432061944,-8.236965976040542,-0.07733882293761758,-0.8607730076111741,0.5073830504388426
1765408560.325906,-6.362753305995582,-2.4940471382858216,-8.23366187969277,-0.08052419282476055,-0.8686130538435709,0.5109884122911998
1765408560.326239,-6.376697280853906,-2.501097006946095,-8.227109994998544,-0.08381222447852844,-0.8764185642898081,0.5144816158700047
1765408560.326573,-6.390373770848353,-2.5092760450338045,-8.21743542758021,-0.0871326880399141,-0.8841992324472585,0.5178241673137832
1765408560.326909,-6.403777525879249,-2.518079464546965,-8.2047935483789,-0.09040775675515637,-0.891966620430699,0.5209863478620576
1765408560.327159,-6.4169285552997515,-2.526857731579997,-8.189415944941407,-0.09355669057943772,-0.8997368114325901,0.5239504600336496
1765408560.327409,-6.429842564176178,-2.5348813316797303,-8.171662501004782,-0.09650085112962943,-0.9075323176919985,0.5267131184541515
1765408560.327659,-6.442496323594368,-2.5414146568526914,-8.152068758260011,-0.09916870809680776,-0.9153828484706449,0.5292863158397066
1765408560.327892,-6.4547958099719445,-2.545790406343821,-8.131377424827484,-0.10150050438918971,-0.9233246789049485,0.5316970825619919
1765408560.328142,-6.46655419381803,-2.5474747295147595,-8.110544837953872,-0.10345228291664912,-0.9313985818484846,0.5339856929173452
1765408560.328392,-6.477485897813832,-2.546113886741074,-8.0907160736434,-0.10499903129923342,-0.9396465119455182,0.5362025412385977
1765408560.328642,-6.487221801126365,-2.5415560310782888,-8.073165949601345,-0.10613676084815914,-0.9481073910904877,0.5384039837365021
1765408560.328844,-6.495347800289648,-2.5338463254943284,-8.05920798197077,-0.10688339289110486,-0.956812422850132,0.5406475771078009
1765408560.329177,-6.5014638173666155,-2.5231984783042933,-8.050079299878588,-0.10727837656569116,-0.9657803998314372,0.5429872125932648
1765408560.329511,-6.5052545875216525,-2.50994934052408,-8.046815027727163,-0.10738102040306101,-0.9750135002300814,0.5454686351047688
1765408560.329873,-6.506559870809624,-2.4945048274841013,-8.050128686186282,-0.1072676036327732,-0.9844940892861687,0.5481257598688835
1765408560.330123,-6.505431791285261,-2.477285413495216,-8.060314588786214,-0.10702744162630873,-0.9941830060807276,0.5509780731601811
1765408560.330373,-6.5021702083429105,-2.458678378891684,-8.077184438312072,-0.10675818394410147,-1.004019696919449,0.5540292578436147
1765408560.330623,-6.497331280705636,-2.439002171481381,-8.100045099136299,-0.10656068730537295,-1.0139243666335427,0.5572670504049925
1765408560.330827,-6.49170812812674,-2.4184858187790494,-8.12771962838106,-0.10653381855949597,-1.0238021031046625,0.5606642330821344
1765408560.33116,-6.486285638192902,-2.3972637862612767,-8.1586096677401,-0.10676951958046697,-1.0335487267828007,0.564180593430956
1765408560.331494,-6.482174421923583,-2.375384919915487,-8.190793808726342,-0.10734842204520889,-1.043057936567292,0.5677656359916701
1765408560.331953,-6.4805313497383255,-2.3528335703482495,-8.222153495891002,-0.10833623510679376,-1.0522291635561452,0.5713617980594777
1765408560.332203,-6.482474854257929,-2.32956096220678,-8.250516356292216,-0.10978103838785853,-1.0609754155471778,0.5749078997650986
1765408560.332453,-6.489001514021064,-2.3055241890116696,-8.273807137605154,-0.1117115060991812,-1.0692303312877627,0.5783425514589161
1765408560.332703,-6.500907304948265,-2.280728510704505,-8.290197447759251,-0.11413599392600772,-1.0769537030112288,0.5816072564397318
1765408560.332886,-6.518714782470258,-2.2552665606692344,-8.298245246215176,-0.11704236846073442,-1.084134880778791,0.5846489887160863
1765408560.333219,-6.542608117832288,-2.2293465370486656,-8.297013545972534,-0.12039845778185285,-1.090793715807117,0.5874220940246652
1765408560.333553,-6.572380732275235,-2.2033010833246705,-8.286157120564392,-0.12415303716125475,-1.0969789847849485,0.5898894556083334
1765408560.333937,-6.60740290949452,-2.177569820822148,-8.265967714961723,-0.128237319273109,-1.102764512281144,0.5920229752125516
1765408560.334187,-6.646617070314313,-2.152651832149765,-8.237372071725366,-0.13256698768525205,-1.1082434259942837,0.5938035241280826
1765408560.334437,-6.688565642537724,-2.129029954693973,-8.201882053299636,-0.13704488784417132,-1.113521113458346,0.5952205932640471
1765408560.334687,-6.731451807538898,-2.1070757554187085,-8.16150143958797,-0.1415645407601292,-1.118707511382808,0.596271894198131
1765408560.334909,-6.773229409841519,-2.086950485867494,-8.118598353181797,-0.14601462532371867,-1.1239093788064027,0.5969631240306496
1765408560.335242,-6.811716947221704,-2.0685206101343647,-8.075754007825187,-0.15028446036606233,-1.1292231849438876,0.5973080102605687
1765408560.335576,-6.8447312724472225,-2.0513052159234677,-8.035597083495496,-0.15427032739715466,-1.1347291592117426,0.5973286231614601
1765408560.335884,-6.8702369728911306,-2.0344673656645798,-8.000630582646021,-0.15788226400996638,-1.1404869027734388,0.5970558225536485
1765408560.336134,-6.886505431665255,-2.016854292980449,-7.973057752664919,-0.16105078441165832,-1.146532788715026,0.5965296299173745
1765408560.336384,-6.892273471932276,-1.9970844169119841,-7.954616694801735,-0.1637328843951524,-1.1528792287628322,0.5957992985437045
1765408560.336634,-6.886887029183712,-1.973673474377906,-7.946437356108368,-0.16591667207804012,-1.1595157653371873,0.5949228804991332
1765408560.336936,-6.870412468172972,-1.9451875808844383,-7.948936422374037,-0.1676240235291995,-1.1664118272769246,0.5939661390712252
1765408560.337269,-6.843698045523444,-1.9104074424856878,-7.9617639384548715,-0.16891078208626373,-1.1735208463398763,0.5930007209757097
1765408560.337603,-6.808370751393574,-1.8684855834686374,-7.98381125454969,-0.16986419736653627,-1.180785299183447,0.5921015841624357
1765408560.337834,-6.766759408370539,-1.819078052061448,-8.013284191938654,-0.17059754043793074,-1.188142168869551,0.5913437668048457
1765408560.338084,-6.721743895193729,-1.7624340459307415,-8.047838226610814,-0.1712421422486383,-1.1955283301119428,0.5907986639275641
1765408560.338334,-6.676542088040693,-1.6994311871918344,-8.084764428853628,-0.17193746294490758,-1.2028854214469535,0.5905300379706425
1765408560.338584,-6.634457308595129,-1.6315503862616336,-8.121207708041455,-0.17282013636182397,-1.2101638351003972,0.5905900285477395
1765408560.338872,-6.5986154551548015,-1.5607914645498475,-8.154394555290539,-0.17401314223493405,-1.2173255297934735,0.591015448526685
1765408560.339205,-6.571720955058667,-1.489537412953874,-8.181846495322777,-0.1756162705808676,-1.2243454779704213,0.5918246584479602
1765408560.339539,-6.555855867762627,-1.4203800746326347,-8.2015576746588,-0.17769886347982344,-1.2312117011363568,0.5930153017058896
1765408560.339875,-6.552339258882369,-1.3559231936827048,-8.2121204890646,-0.18029550043867842,-1.2379239978683214,0.5945631644211813
1765408560.340125,-6.561656167405422,-1.298580908835461,-8.212791034424699,-0.18340489802379456,-1.244491599557287,0.596422388730615
1765408560.340375,-6.583458465760905,-1.250390853541272,-8.20349394207543,-0.1869918921197708,-1.2509300837488866,0.5985271922483589
1765408560.340625,-6.616633851772954,-1.212860062218583,-8.184771857269922,-0.19099202800747866,-1.2572579274451936,0.6007951169839825
1765408560.340854,-6.659433302495368,-1.1868581380958738,-8.157688825663396,-0.19531804353344503,-1.2634930964838886,0.6031316671219663
1765408560.341187,-6.709641693292493,-1.1725660382979717,-8.12370035357273,-0.19986741766272692,-1.269650051048738,0.6054360342019496
1765408560.341521,-6.764772323327071,-1.1694817943407563,-8.084505885306513,-0.20453018160294412,-1.2757374977086937,0.6076074812430089
1765408560.341887,-6.8222645642581625,-1.1764780617702317,-8.041901036162434,-0.20919633665850645,-1.2817571223069113,0.6095518776232367
1765408560.342137,-6.879664295951675,-1.1919016581496809,-7.997646499726784,-0.21376243682365187,-1.2877033991858318,0.6111878451041549
1765408560.342387,-6.9347687115549785,-1.2137027908495834,-7.953367928541392,-0.21813710283440443,-1.2935644159374673,0.6124519903250413
1765408560.342637,-6.985720805858972,-1.239581457890278,-7.910496345018075,-0.22224538820558074,-1.2993235079748506,0.6133027588744467
1765408560.342808,-7.03104545965315,-1.2671395620309265,-7.870251928221571,-0.2260320009188068,-1.3049613870194712,0.6137225521349315
1765408560.343141,-7.069629246808201,-1.2940282588056666,-7.833665785137749,-0.22946340092161788,-1.310458393503646,0.6137179057075195
1765408560.343475,-7.100658397501954,-1.3180804877422132,-7.8016259134671095,-0.23252876193822347,-1.3157965202332491,0.6133177329257007
1765408560.343838,-7.123539039051111,-1.3374195032522964,-7.77492752440842,-0.23523974090339209,-1.3209609380625662,0.6125698610765424
1765408560.344088,-7.137825720621879,-1.350537060914561,-7.754307145042686,-0.23762897475330896,-1.3259408769331107,0.6115362872898867
1765408560.344338,-7.143177330929538,-1.3563398889848577,-7.74044571615563,-0.23974724463377442,-1.3307298515430759,0.6102877091565141
1765408560.344588,-7.139348408549534,-1.3541680971000798,-7.733935828133039,-0.241659331364224,-1.33532535671372,0.6088979074794483
1765408560.344895,-7.126214501811938,-1.3437916273907629,-7.735217484844354,-0.24343874460949072,-1.3397282728423503,0.6074384758096794
1765408560.345228,-7.1038249739650166,-1.3253901026754358,-7.744492409564452,-0.2451617092947609,-1.343942278365846,0.6059742485579886
1765408560.345562,-7.072473655653971,-1.299519063215941,-7.761629857158803,-0.2469009593495943,-1.347973534994168,0.6045596366948925
1765408560.345934,-7.032774731267496,-1.2670635752305384,-7.786079247520291,-0.24871995407338693,-1.3518308079797563,0.6032359731718712
1765408560.346184,-6.985728554027074,-1.2291794140269008,-7.816806422505679,-0.2506680804710263,-1.3555260629373278,0.6020298991967324
1765408560.346434,-6.932762185862767,-1.1872222589715908,-7.852268883116024,-0.2527772633244443,-1.3590754878736906,0.6009527688186588
1765408560.346684,-6.875733475021815,-1.1426661380478869,-7.890440489610126,-0.2550602203195412,-1.3625008178887905,0.6000010006721403
1765408560.3469,-6.8168931180048835,-1.097013702318213,-7.928890010565804,-0.2575104164855231,-1.3658307541620949,0.5991572665795155
1765408560.347233,-6.7588033938191225,-1.0517029559655335,-7.964912664980531,-0.26010361844203383,-1.3691021615905736,0.598392383952268
1765408560.347567,-6.70421521619711,-1.0080173924534588,-7.995708715749159,-0.262800839000822,-1.3723606480670267,0.597667764807439
1765408560.347903,-6.655909230196041,-0.9670079941085966,-8.018596293901409,-0.2655523982047885,-1.3756601359909308,0.5969382558200875
1765408560.348153,-6.616512701036793,-0.9294353610116074,-8.031237504419545,-0.2683027865438444,-1.3790611542405933,0.5961551844211416
1765408560.348403,-6.588309898881299,-0.8957383539236571,-8.031851083155077,-0.2709959692748343,-1.382627769753362,0.5952694190403781
1765408560.348653,-6.573066972284159,-0.8660325824185109,-8.019384449174277,-0.273580712592876,-1.386423283828071,0.5942342596262122
1765408560.348898,-6.57189179852258,-0.8401383250966802,-7.993622725410607,-0.27601546613109573,-1.3905050008693565,0.5930079928605789
1765408560.349231,-6.5851454325830705,-0.8176336416034994,-7.955220157238687,-0.27827232331001356,-1.3949185283184664,0.5915559785601977
1765408560.349565,-6.61241570557121,-0.7979253975902916,-7.905648479593484,-0.28033960951212106,-1.3996921870969992,0.5898521808409182
1765408560.349905,-6.6525563435501365,-0.7803292259195866,-7.847065913675676,-0.2822227289959578,-1.404832182113878,0.5878801034498998
1765408560.350155,-6.703787316415489,-0.7641488674243169,-7.782119369632753,-0.2839430612398924,-1.4103191616462112,0.5856331147806273
1765408560.350405,-6.763844499363417,-0.7487454272929042,-7.713701404800899,-0.28553495954924185,-1.4161066602070902,0.5831141575041976
1765408560.350655,-6.830160050887011,-0.7335880262804005,-7.644691392595416,-0.287041240659044,-1.422121697655807,0.5803348535635913
1765408560.350892,-6.9000503387089775,-0.7182797931308207,-7.577714271568813,-0.2885078588322461,-1.4282675623225654,0.577314058818763
1765408560.351225,-6.970887078683898,-0.7025573212505123,-7.514947846137559,-0.28997860904806,-1.4344286009084177,0.5740759906486163
1765408560.351559,-7.040230991187914,-0.686266779871019,-7.458000942417928,-0.2914906475386314,-1.4404766929884658,0.5706481185119449
1765408560.351898,-7.105915832846655,-0.6693245475618628,-7.407871998885026,-0.29307138963589446,-1.4462789817444495,0.5670590392845519
1765408560.352148,-7.1660815872813135,-0.6516733689352721,-7.364984286160969,-0.29473702992383294,-1.4517063451642984,0.5633365369437607
1765408560.352398,-7.219165299262621,-0.6332455405898751,-7.329282949706241,-0.2964926189360516,-1.4566420258432158,0.5595059505586946
1765408560.352648,-7.2638645944491005,-0.6139418887144122,-7.300371752944518,-0.29833339418127586,-1.4609897980595814,0.5555888735425185
1765408560.352887,-7.299091995504281,-0.5936301781911378,-7.277663803345347,-0.3002469410913028,-1.4646810324346418,0.5516021285974959
1765408560.35322,-7.323937193958363,-0.5721612110697474,-7.26052116297569,-0.302215752335416,-1.4676800222452207,0.5475569412260324
1765408560.353554,-7.337649203782978,-0.5493969065246904,-7.24836374436487,-0.3042198169348738,-1.4699869944698436,0.5434582684786506
1765408560.353907,-7.339642677015068,-0.5252424554973446,-7.240736773121069,-0.3062389451918307,-1.4716383927727887,0.5393043015462657
1765408560.354157,-7.329525929932193,-0.49967393374359764,-7.237334666840858,-0.3082546008230466,-1.4727042933505132,0.5350862202642707
1765408560.354407,-7.307144046072546,-0.4727535834276212,-7.237985168116695,-0.3102510830460326,-1.4732831330310894,0.5307883155109476
1765408560.354657,-7.272627684637507,-0.4446277119131393,-7.242602202181355,-0.3122159843779099,-1.4734942216345814,0.5263886056067847
1765408560.354878,-7.226435859388656,-0.4155065815652533,-7.251120729257726,-0.3141399326372661,-1.4734687543903635,0.5218600511561028
1765408560.355211,-7.16938015906308,-0.3856304734211032,-7.263430053400695,-0.31601571070488826,-1.4733402189149523,0.5171724135114109
1765408560.355545,-7.102620368805038,-0.3552296820883241,-7.279320620656917,-0.31783695115067656,-1.4732351499454293,0.5122947075753569
1765408560.355901,-7.027626848597459,-0.32448744539235486,-7.298453502171309,-0.3195967111464827,-1.4732650810905272,0.5071980895714191
1765408560.356151,-6.946111460708183,-0.2935135016682997,-7.320354670371918,-0.32128629147841953,-1.473520316829807,0.5018589273255208
1765408560.356401,-6.859935199710133,-0.26233302841574097,-7.34442998562174,-0.322894625955711,-1.474065893131659,0.49626175160008557
1765408560.356651,-6.771006555782943,-0.23089280810253243,-7.369991833829602,-0.3244084388208256,-1.4749398651547225,0.49040178531752227
1765408560.356911,-6.681188292124419,-0.19908457713024005,-7.396285900161836,-0.32581318882519456,-1.4761538476544314,0.4842867764560115
1765408560.357244,-6.592228882351508,-0.16678412274516086,-7.422509028887928,-0.3270946378458436,-1.4776955310174318,0.47793790530188324
1765408560.357578,-6.505727745265658,-0.1339024659909902,-7.447816051480771,-0.32824074990191476,-1.479532732396716,0.47138959973040195
1765408560.357882,-6.42313392667456,-0.10044184737879547,-7.471320334202905,-0.32924358437325807,-1.4816184446760188,0.4646881871851921
1765408560.358132,-6.345770273467255,-0.06654564669749169,-7.492095382641102,-0.3301008983998213,-1.4838963099717126,0.4578894426503004
1765408560.358382,-6.274871301940745,-0.03253062257692678,-7.509183127106899,-0.33081727769869274,-1.4863059515453994,0.4510552345990675
1765408560.358632,-6.211622440705671,0.001106333787213404,-7.521611298825457,-0.33140471471481603,-1.4887876482232676,0.4442495850491935
1765408560.358923,-6.157190365850174,0.03370765290607194,-7.52841945929229,-0.33188260269910136,-1.491285939472414,0.43753451139534505
1765408560.359173,-6.112738461544824,0.06449471098290417,-7.528690505692486,-0.332277100574702,-1.4937519049886945,0.43096599732518626
1765408560.359423,-6.079427103021017,0.09261849085299788,-7.521581591569433,-0.3326197748727981,-1.496144050250418,0.4245903732948893
1765408560.359673,-6.058402927476039,0.11721347898059119,-7.506346927839981,-0.33294541245298015,-1.498427925917146,0.41844131845488425
1765408560.359904,-6.0507819460259675,0.1374506599909642,-7.482346748964553,-0.33328900006388573,-1.5005747899401125,0.41253765077758636
1765408560.360237,-6.05762843449293,0.1525885177040182,-7.44904161480885,-0.33368208959128054,-1.5025597545084668,0.4068820417856968
1765408560.360571,-6.079928148087281,0.16202187786271882,-7.405976839697613,-0.33414900595376473,-1.5043599186837817,0.4014607544036532
1765408560.360881,-6.1185535944716865,0.1653276878510177,-7.352765480964984,-0.33470347797601274,-1.5059529642938443,0.3962444392061392
1765408560.361131,-6.174221235937143,0.16230575630900976,-7.289078395293706,-0.33534623171119315,-1.5073165894921225,0.39118993563957
1765408560.361381,-6.247443523524514,0.1530120421762309,-7.214646927822319,-0.33606391641236005,-1.5084289837661067,0.3862429372744173
1765408560.361631,-6.3384802944460095,0.1377824911844897,-7.129280316781936,-0.336829506846516,-1.5092703460150791,0.38134132478631344
1765408560.361919,-6.44729347505389,0.1172462619465517,-7.0328983132799054,-0.3376041133630687,-1.5098252576303308,0.37641895232270167
1765408560.362252,-6.573506983479173,0.09232754646442286,-6.925579904205033,-0.3383399758102315,-1.5100855706596124,0.37140967745589043
1765408560.362586,-6.716371526071386,0.06423426368864885,-6.8076288327523615,-0.3389843190800651,-1.5100533618312257,0.3662514347204946
1765408560.362866,-6.874732528930998,0.03443017098526903,-6.679653377960703,-0.33948368585270366,-1.5097434374823866,0.36089015226852694
1765408560.363116,-7.04699901687014,0.0045860158873624775,-6.542652298362085,-0.33978832102745604,-1.5091848732720012,0.35528329841922995
1765408560.363366,-7.231112181356194,-0.023493576974534303,-6.398094194533254,-0.33985615836670524,-1.508421173375226,0.34940283591212645
1765408560.363616,-7.424515622327956,-0.0479675703671707,-6.247975799747925,-0.3396559581878379,-1.5075088380697776,0.34323736939036875
1765408560.363854,-7.624135208675716,-0.06707546831282403,-6.094845080134225,-0.3391691870019371,-1.5065143741858762,0.33679329829455656
1765408560.364104,-7.826383036224861,-0.07926344150766561,-5.941776396116824,-0.3383903583098837,-1.5055099977559503,0.33009484114342047
1765408560.364354,-8.027202767042505,-0.08330549779234837,-5.792288192745271,-0.3373257987623074,-1.5045684369614638,0.3231828856403003
1765408560.364604,-8.222169600601632,-0.07840511780908792,-5.650200277654406,-0.3359911204287818,-1.503757355924113,0.31611272694541254
1765408560.364845,-8.406648164731813,-0.06426570771213622,-5.519437200515535,-0.33440794439240606,-1.5031339910895236,0.30895085607786843
1765408560.365178,-8.575999853889135,-0.04112321941667003,-5.403793741740686,-0.3326005246548121,-1.5027406047844711,0.3017710348560094
1765408560.365512,-8.725821791218046,-0.009739463288363122,-5.306684973851145,-0.33059284982903725,-1.5026012881163364,0.2946499374195757
1765408560.365896,-8.852194800012187,0.028641697083404964,-5.230905163138552,-0.3284066132769713,-1.502720483078197,0.28766265360648635
1765408560.366146,-8.951917548970439,0.0723712573008893,-5.178417299293716,-0.32606021623785936,-1.503083374051619,0.28087834827154506
1765408560.366396,-9.022707053361176,0.11949977033902133,-5.150190278096597,-0.3235687663915904,-1.503658067606345,0.27435636174995137
1765408560.366646,-9.063350134147024,0.1679021302411926,-5.146096099085942,-0.3209448934848434,-1.5043992738877763,0.2681430127638546
1765408560.366897,-9.073794792908224,0.21541136534000047,-5.164875990466651,-0.3182001224878051,-1.5052530569997815,0.26226931173855944
1765408560.367147,-9.055174500735939,0.25994814589967463,-5.204181103311886,-0.3153464948899151,-1.5061621605092084,0.2567497054550836
1765408560.367397,-9.009762864713364,0.29963398247131295,-5.260688263534343,-0.31239809043214556,-1.507071425112243,0.25158186988146225
1765408560.367647,-8.940861105690116,0.3328807407007924,-5.330283986375273,-0.3093720808112904,-1.507932846582647,0.24674748138810076
1765408560.367888,-8.85262495591584,0.3584544741759538,-5.40830318643139,-0.3062889658550602,-1.5087098327420274,0.24221385201905843
1765408560.368221,-8.749840208856767,0.37551520011964756,-5.4898052407113935,-0.3031717334850428,-1.509380231831285,0.23793629855108012
1765408560.368555,-8.637658677924724,0.38363573191992595,-5.569868500370827,-0.3000438783046672,-1.5099377861331575,0.23386109080487463
1765408560.368884,-8.521310547500557,0.3828030501768667,-5.643882624174487,-0.2969264956612953,-1.5103918382292576,0.22992877569692816
1765408560.369134,-8.405814121900788,0.37340582780878256,-5.707816218032152,-0.2938349518546786,-1.5107653315333045,0.22607762131507236
1765408560.369384,-8.29570660592083,0.3562116474343907,-5.758437849997872,-0.2907758067251706,-1.5110913321376447,0.22224690752968645
1765408560.369634,-8.194817914390303,0.3323364661592708,-5.793473161038389,-0.2877446711510291,-1.511408435215513,0.21837983123765772
1765408560.369886,-8.106104772491927,0.303206456580193,-5.811687894983861,-0.2847255242440828,-1.5117555242406764,0.21442588924081996
1765408560.370219,-8.031556350078226,0.2705090816537267,-5.812893641855039,-0.2816917416814064,-1.5121664258375722,0.21034270678103398
1765408560.370553,-7.972175482018624,0.2361280512326489,-5.797879272221014,-0.2786087672441118,-1.5126650235115096,0.2060973364674227
1765408560.370823,-7.92803088562464,0.20205785830331344,-5.768277286425063,-0.2754380667156584,-1.5132613530273837,0.2016670394951857
1765408560.371073,-7.898367365172279,0.17029863074804621,-5.726380532476743,-0.27214179557738727,-1.5139491212685838,0.19703952175088846
1765408560.371323,-7.881755805479904,0.14273914718594455,-5.674929150862961,-0.2686875206954191,-1.5147049785391475,0.1922125962142478
1765408560.371573,-7.876264386507834,0.12104126631823414,-5.616888523253718,-0.2650523552058556,-1.515489712077461,0.18719330121579286
1765408560.371877,-7.879635582657338,0.1065395898344792,-5.5552369271605215,-0.26122596054691205,-1.5162513082636648,0.1819965830729003
1765408560.372127,-7.8894573681726845,0.10016590845783603,-5.492778435048686,-0.25721200644099235,-1.516929592261848,0.17664369129402613
1765408560.372377,-7.903319929228312,0.10240212487108219,-5.431993286315247,-0.2530278479286236,-1.5174619531175364,0.17116040550940817
1765408560.372627,-7.9189511792979905,0.11326189310071576,-5.374933983221989,-0.2487023917077116,-1.5177895260180505,0.16557513730273934
1765408560.372801,-7.934326220015384,0.13230155214063005,-5.323170332713366,-0.244272396273705,-1.5178631346935838,0.15991687973312585
1765408560.373134,-7.947748102981951,0.1586625636893302,-5.277781069517353,-0.23977775001773644,-1.517648308397947,0.15421296829250783
1765408560.373468,-7.957900221748493,0.19114656644345648,-5.23938406730931,-0.23525650353936775,-1.5171287960638495,0.14848669967868539
1765408560.37383,-7.9638744073351,0.22831892593962042,-5.208191742991364,-0.2307404954200859,-1.5163081879934357,0.14275499671545377
1765408560.37408,-7.965182190524062,0.26862994049954414,-5.184074228468323,-0.2262522673477997,-1.5152094715754696,0.13702642055176625
1765408560.37433,-7.961757758653426,0.3105385871848735,-5.166612660521655,-0.22180365828305582,-1.5138725636076344,0.13129984450432855
1765408560.37458,-7.953958706081341,0.35262369632779883,-5.155130237915656,-0.21739610001903442,-1.5123500950670874,0.12556401802427491
1765408560.374839,-7.942565429562614,0.3936709208388921,-5.148698241544124,-0.21302232539548627,-1.5107019703070352,0.11979811259621426
1765408560.375089,-7.928773686794817,0.43272887028476426,-5.146124688666766,-0.20866901920299594,-1.5089894108231372,0.11397320778648042
1765408560.375339,-7.914169343241702,0.4691327140335803,-5.145941712024627,-0.20431989033213557,-1.5072692510687347,0.10805457959125031
1765408560.375589,-7.900672115608929,0.5024977670466121,-5.1464114480449785,-0.19995867903172873,-1.5055891720617194,0.1020045962827389
1765408560.375858,-7.890438512089671,0.5326889826177872,-5.14556679652058,-0.19557169514225675,-1.5039843706442455,0.09578599084153444
1765408560.376108,-7.885722942331415,0.5597747226160579,-5.1412935683612195,-0.1911495873307804,-1.5024759082583496,0.08936525511504059
1765408560.376358,-7.8887065514006665,0.5839742459063182,-5.131449066813452,-0.18668815405914857,-1.5010707215665555,0.08271589596153736
1765408560.376608,-7.901311417444881,0.60560768954818,-5.114004082693438,-0.1821881213235469,-1.499763077132346,0.07582131354495197
1765408560.376799,-7.925021043461358,0.6250548707314206,-5.087192229446877,-0.1776539475975465,-1.498537143681787,0.06867709957974376
1765408560.377132,-7.960726635735367,0.6427254869629035,-5.049651282797182,-0.17309188874876147,-1.4973703091804025,0.06129259365716199
1765408560.377466,-8.008614006958139,0.6590392520559208,-5.000543926452896,-0.16850773300724448,-1.4962368427522732,0.05369157163782315
1765408560.377817,-8.06810016525319,0.6744113717677267,-4.939648512842233,-0.16390471621258249,-1.4951114887552277,0.045911978218959044
1765408560.378067,-8.137823606613123,0.6892375517013263,-4.86741283971421,-0.15928208477893374,-1.493972609376751,0.0380046626125774
1765408560.378317,-8.215688879324242,0.703873965575975,-4.784965018100041,-0.15463459761288162,-1.4928045747319603,0.030031130191099212
1765408560.378567,-8.298963706734456,0.7186107778164833,-4.694076409878842,-0.14995302054589174,-1.491599215048102,0.022060385672470158
1765408560.378936,-8.38442454493245,0.7336413630368522,-4.597074412212922,-0.14522544881959007,-1.4903562647868787,0.014165019923840902
1765408560.379186,-8.468543004245896,0.7490319319698513,-4.4967080824310095,-0.14043914946212677,-1.4890828139170134,0.006416775966997936
1765408560.379436,-8.547701624040423,0.7646975879479391,-4.395975353596374,-0.13558256829668197,-1.4877918267291685,-0.0011180969530454933
1765408560.379686,-8.618424236904533,0.7803910267182117,-4.297924975132102,-0.13064718975861345,-1.4864998201941504,-0.008383343701744806
1765408560.379844,-8.677603683316441,0.7957088704310247,-4.205449400975442,-0.12562903895317012,-1.485223855781971,-0.01533668659200339
1765408560.380094,-8.72270743372766,0.8101179035841533,-4.12108745864861,-0.12052972325195005,-1.4839781023193521,-0.02195294895835821
1765408560.380344,-8.751940696161045,0.8230000901828466,-4.0468570384894065,-0.11535697845556286,-1.48277033876065,-0.028226044387551566
1765408560.380594,-8.764349036030078,0.8337123197191159,-3.9841361994241304,-0.1101246925850109,-1.4815988385342793,-0.03416964614498211
1765408560.38084,-8.759849378669728,0.8416547270401279,-3.933605006142631,-0.10485234491142766,-1.4804500821451112,-0.039816439730585636
1765408560.38109,-8.739188184581149,0.846339744277006,-3.8952513640383484,-0.0995637690031201,-1.4792976733954641,-0.045215946026039566
1765408560.38134,-8.70383606900548,0.8474524790490243,-3.868434706028526,-0.09428518803449305,-1.4781026932779122,-0.05043100418648857
1765408560.38159,-8.655836664174224,0.8448924490828846,-3.8519941317316646,-0.0890426021473267,-1.4768155310239433,-0.05553314411304076
1765408560.381844,-8.597632345668007,0.8387888770948164,-3.844383710433182,-0.0838587855872016,-1.4753790092384007,-0.060597242608544294
1765408560.382177,-8.531889945574232,0.8294870430822691,-3.8438166286974296,-0.07875029198125486,-1.4737324063669601,-0.06569598195867266
1765408560.382511,-8.461345811082628,0.81750943650046,-3.8484010546505836,-0.0737249098959682,-1.4718158248985804,-0.07089465139398582
1765408560.382814,-8.388682054016357,0.8034999578388273,-3.856254646188802,-0.0687799485884553,-1.4695743033580222,-0.07624674534825851
1765408560.383064,-8.316436414727473,0.7881612519136866,-3.8655917345963653,-0.0639015919190309,-1.4669611398524576,-0.08179066579843933
1765408560.383314,-8.246940319023171,0.7721949756183372,-3.874784564443135,-0.05906538338452719,-1.4639400654757633,-0.08754768532410404
1765408560.383564,-8.182276700800685,0.7562532522877614,-3.8824032599546343,-0.05423775477386408,-1.4604861332764072,-0.09352120933543057
1765408560.383878,-8.12425123050527,0.7409073014874032,-3.8872373709237342,-0.049378428196264486,-1.456585417940724,-0.09969729596369978
1765408560.384128,-8.074374606053928,0.7266363124510742,-3.888298677778762,-0.04444350878143312,-1.4522338101752366,-0.10604632617058664
1765408560.384378,-8.033856203651714,0.7138357520645278,-3.88480450412265,-0.03938910722072108,-1.4474353144945304,-0.1125256395358496
1765408560.384628,-8.003609926458203,0.7028395569247856,-3.876143183902472,-0.034175336727338836,-1.442200299150548,-0.11908286905948258
1765408560.384823,-7.984272439163678,0.6939463101680571,-3.8618261022256983,-0.028770480193805063,-1.4365440893393602,-0.12565965666024276
1765408560.385073,-7.976232279160877,0.6874378042849436,-3.8414327034736737,-0.023155019361674443,-1.430486158500299,-0.13219544386782828
1765408560.385323,-7.979665237703791,0.6835810797217036,-3.814556410986744,-0.017325096205816865,-1.4240500048915978,-0.1386311084937909
1765408560.385573,-7.9945681678391445,0.6826115070094986,-3.7807603961595673,-0.011294888528956928,-1.4172636502130718,-0.14491231383747294
1765408560.385828,-8.020782550920392,0.6847016940718935,-3.739551929981384,-0.005097376281302976,-1.4101605930098067,-0.15099249855708569
1765408560.386161,-8.05800160773931,0.6899255982663517,-3.690382786992912,0.0012168989388219175,-1.402780993317634,-0.15683544355424364
1765408560.386495,-8.105758510059774,0.6982279452900674,-3.6326814906907363,0.0075832023936299574,-1.3951728376800223,-0.1624173296170482
1765408560.386943,-8.163395928782736,0.709407090256224,-3.565921059482448,0.013927851673507612,-1.3873928201838963,-0.16772818102625092
1765408560.387193,-8.230018613567072,0.7231167906439827,-3.4897223150645362,0.020174730245924612,-1.379506678269657,-0.17277259416385057
1765408560.387443,-8.304433154323627,0.738889818944227,-3.4039863968359025,0.026252216927659066,-1.3715887510971787,-0.17756967141431013
1765408560.387693,-8.385084406389776,0.7561831153384075,-3.309040810851533,0.03209960682519397,-1.3637205824153662,-0.1821521065586256
1765408560.387831,-8.470004664482037,0.774439506001966,-3.2057741229603693,0.03767221149675403,-1.3559884593230656,-0.18656439933285865
1765408560.388081,-8.556794752230388,0.7931559393886783,-3.0957305317843704,0.04294458829471422,-1.3484798642939517,-0.1908602296915233
1765408560.388331,-8.642652373463958,0.8119450875957208,-2.9811402530490607,0.047911684351987026,-1.3412789407272692,-0.1950991053990294
1765408560.388581,-8.724454192394909,0.8305778325571131,-2.8648727530687332,0.05258800327018258,-1.3344612354374887,-0.19934249518930225
1765408560.388795,-8.798889225449344,0.8489987164369293,-2.750311973369288,0.057005142309075024,-1.3280881369914472,-0.20364974266428576
1765408560.389045,-8.86263498280639,0.8673131890040212,-2.6411624640336075,0.06120816069289074,-1.3222015171131367,-0.2080740924162218
1765408560.389295,-8.912562919390577,0.8857515848819573,-2.541203371445648,0.06525122506665777,-1.3168191011993577,-0.21265913312149337
1765408560.389545,-8.945954405212039,0.9046178311622853,-2.454014402758969,0.06919288850642304,-1.3119310868827159,-0.2174358857299639
1765408560.38983,-8.96070452789229,0.9242308192879172,-2.3827021184932717,0.07309126984282432,-1.307498502358971,-0.22242068281345215
1765408560.390163,-8.95549230897589,0.9448653307738577,-2.32965333983104,0.07699936178278302,-1.3034536883858,-0.22761393785884962
1765408560.390497,-8.929902600732001,0.966699429023234,-2.296336174605515,0.0809607128714523,-1.2997030559782592,-0.23299988437335123
1765408560.390867,-8.884492650873886,0.9897760436835686,-2.2831627295442463,0.08500576253703246,-1.296131969559286,-0.23854733135471798
1765408560.391117,-8.820801109090793,1.013986006262684,-2.2894234164788396,0.08914911634998073,-1.2926113436064377,-0.24421140739832925
1765408560.391367,-8.7412997943406,1.0390766275509005,-2.313298798884706,0.09338801258273677,-1.289005385781144,-0.24993616724134907
1765408560.391617,-8.649291778701285,1.0646847972460585,-2.3519487103768038,0.09770215613990546,-1.2851798537778438,-0.2556578507805024
1765408560.391905,-8.54876371144964,1.0903886568487546,-2.401670829894883,0.10205498288336042,-1.2810101657647799,-0.2613085424460293
1765408560.392155,-8.444203485252789,1.1157686987274356,-2.458114839931608,0.10639626352414736,-1.276388699712324,-0.26681997929463425
1765408560.392405,-8.340394529408004,1.1404678567226088,-2.5165353201850884,0.11066578429578862,-1.2712306668225963,-0.2721272838438422
1765408560.392655,-8.242195982438668,1.1642404801737676,-2.572066081180314,0.11479770382130818,-1.2654780805423862,-0.27717243499355027
1765408560.392792,-8.154316386551352,1.1869820370739894,-2.619998727706522,0.11872512480446573,-1.259101556805119,-0.2819073216296516
1765408560.393042,-8.081089463812535,1.208734813657295,-2.656047121173686,0.12238444144665798,-1.2520999287259835,-0.2862962374276906
1765408560.393292,-8.026263393411408,1.229668929825506,-2.67657798715592,0.12571911545601547,-1.2444978890480307,-0.2903176782926874
1765408560.393542,-7.992816893000486,1.2500417996730433,-2.67878968065676,0.12868268141970976,-1.236342055130494,-0.29396532108253176
1765408560.393862,-7.982814101926393,1.2701425482214144,-2.6608280218859823,0.1312409574299108,-1.2276959768723312,-0.29724810943661517
1765408560.394195,-7.997306504278187,1.2902307618687758,-2.6218374712679657,0.13337358235661562,-1.218634675285277,-0.3001894344348164
1765408560.394529,-8.036286298288411,1.3104804434098545,-2.5619530090641853,0.13507505943498152,-1.209239296694111,-0.3028254511769397
1765408560.394843,-8.098692945933538,1.3309391935997879,-2.4822408867878116,0.13635544099742847,-1.199592383798372,-0.3052026168711092
1765408560.395093,-8.182472420397984,1.3515096349692615,-2.384596616460576,0.13724067330596426,-1.1897741110217126,-0.30737458543452184
1765408560.395343,-8.28468580067399,1.3719560667280044,-2.2716087787539774,0.13777248435753658,-1.1798596476903673,-0.3093986481039065
1765408560.395593,-8.401660326040078,1.391935254220392,-2.14639844909007,0.13800758965704366,-1.1699176495839465,-0.3113319532627416
1765408560.395806,-8.529172865732367,1.4110466311691028,-2.012445657635249,0.13801595326504817,-1.1600097673123217,-0.31322775810952647
1765408560.396056,-8.66265408089694,1.4288943889871102,-1.8734152271095583,0.13787789886520194,-1.1501909910415695,-0.31513195660621457
1765408560.396306,-8.797401621173638,1.4451519682523324,-1.7329935408473287,0.13768001167825972,-1.1405105964608897,-0.31708009663928577
1765408560.396556,-8.928791835103027,1.459618230225159,-1.5947447637625844,0.1375099707362677,-1.131013401640717,-0.31909506120547837
1765408560.396881,-9.05248086539273,1.4722547909771202,-1.4619903091030237,0.13745065504214382,-1.1217410047146366,-0.3211855668774189
1765408560.397131,-9.164587355753634,1.483196924093192,-1.3377105289734814,0.13757403756626377,-1.1127326773440818,-0.3233456223628004
1765408560.397381,-9.261850193893112,1.4927358638942598,-1.2244647631687595,0.137935493194826,-1.1040256510986766,-0.3255550433493813
1765408560.397631,-9.341755364229275,1.5012759438030732,-1.12432623547447,0.13856918444047484,-1.095654638711885,-0.32778100090735185
1765408560.397889,-9.40262589385977,1.5092734968518835,-1.038831098630913,0.13948514099813952,-1.0876505541782946,-0.3299804211588851
1765408560.398222,-9.443668636908317,1.5171655340738657,-0.9689440265416079,0.14066850903531672,-1.0800385199081755,-0.3321029335767468
1765408560.398556,-9.464972409165442,1.5252961917836638,-0.9150443173460144,0.1420812098569881,-1.072835369610836,-0.3340940406202329
1765408560.39888,-9.467454790674424,1.5338490270860459,-0.8769359021697044,0.14366592881386453,-1.0660469560114418,-0.3358982436053526
1765408560.39913,-9.452760127954011,1.5427935964810096,-0.8538821076796413,0.1453520045780949,-1.0596656303809,-0.33746195617033004
1765408560.39938,-9.423118203962726,1.5518546746090387,-0.8446620826031418,0.14706248833631522,-1.0536682702545372,-0.33873611760205957
1765408560.39963,-9.38117961756687,1.5605110522744092,-0.8476418368131255,0.14872146968200825,-1.0480151989913138,-0.3396784578657612
1765408560.399842,-9.32984707963732,1.5680274136299344,-0.8608509690424897,0.15026075831099883,-1.042650263647607,-0.3402553626440328
1765408560.400092,-9.272119546614967,1.5735175096603746,-0.8820578882256459,0.15162515466272947,-1.0375022141651082,-0.34044326436792943
1765408560.400342,-9.210959305966705,1.5760312894024533,-0.908841126786507,0.15277578966036368,-1.0324873781266042,-0.3402294828363274
1765408560.400592,-9.149184141837551,1.5746549157735787,-0.9386599953796766,0.15369130721841776,-1.0275134857443673,-0.3396124736140282
1765408560.40085,-9.089380667878636,1.56861147567792,-0.968931933553208,0.1543669580104468,-1.0224843883561783,-0.3386014928684092
1765408560.401183,-9.033832108471232,1.5573507984439379,-0.9971245830208013,0.15481193467892387,-1.0173053256827786,-0.33721572654237014
1765408560.401517,-8.984454206254537,1.5406182286442434,-1.020866919528569,0.15504547738234845,-1.0118883218825443,-0.3354829613436769
1765408560.401865,-8.942736071492819,1.5184948144742234,-1.0380766075350931,0.15509238976934037,-1.0061572347243408,-0.33343791071267714
1765408560.402115,-8.90968774020762,1.4914056490514556,-1.0470927149584908,0.1549786169790723,-1.000051972407199,-0.33112034182630645
1765408560.402365,-8.885801295791444,1.4600979772121745,-1.0467968303720265,0.15472745815039074,-0.9935314493210954,-0.3285731462053446
1765408560.402615,-8.871035563643817,1.4255940357599322,-1.036703119282755,0.15435684336345437,-0.9865749664539305,-0.32584044287063085
1765408560.402888,-8.86483392373751,1.3891243454097364,-1.0169997060455682,0.15387792721663615,-0.9791818503091311,-0.32296573346345847
1765408560.403138,-8.866180272791242,1.3520462963996758,-0.9885301619160652,0.15329506097022508,-0.9713693619116176,-0.3199900957521543
1765408560.403388,-8.873691186431703,1.3157522835946256,-0.9527135341169752,0.15260702855364952,-0.96316910607477,-0.31695042499434906
1765408560.403638,-8.885735960840615,1.2815723529932423,-0.9114111710002948,0.15180929556683098,-0.954622407992776,-0.3138777875258283
1765408560.403823,-8.900572830363966,1.2506777685330586,-0.8667555635420888,0.1508969331293196,-0.9457753008025122,-0.3107960031199948
1765408560.404073,-8.916489229993042,1.2239930124723437,-0.8209596771320445,0.1498678299454487,-0.9366738043141178,-0.30772060524392136
1765408560.404323,-8.931934851538621,1.202124126079624,-0.7761257275573575,0.1487257904769534,-0.927360063947904,-0.3046583361541791
1765408560.404573,-8.945637220522311,1.1853111557632399,-0.7340709634501685,0.14748313970664803,-0.9178697230344207,-0.30160730535965385
1765408560.404849,-8.956690621393303,1.173411394339601,-0.6961851337974087,0.14616251614545273,-0.9082306900801103,-0.2985578626475659
1765408560.405182,-8.964610864000566,1.1659171444130936,-0.6633306837524949,0.14479762407842145,-0.8984632731209602,-0.2954941226757351
1765408560.405516,-8.969350683067393,1.162006908176218,-0.6357933940075056,0.14343282049785563,-0.888581504970666,-0.2923959697194212
1765408560.405827,-8.97127333910024,1.1606239535235476,-0.6132882789315252,0.1421215244676919,-0.8785953844837368,-0.28924130873340503
1765408560.406077,-8.971085285766634,1.1605730847342193,-0.5950219379435068,0.1409235541990477,-0.8685136981183779,-0.28600831878588523
1765408560.406327,-8.969732868915116,1.1606256657484568,-0.5798070732440915,0.1399016095910542,-0.8583470417443437,-0.2826774875060041
1765408560.406577,-8.968273082648928,1.159623630843999,-0.5662176725544082,0.13911720431297117,-0.8481106332222251,-0.2792332415299485
1765408560.406906,-8.967733677996405,1.156574260078051,-0.5527661106282115,0.13862639807535124,-0.8378265130354626,-0.27566503254298597
1765408560.407156,-8.968981287313584,1.150728424504192,-0.5380789667983165,0.13847569101503882,-0.8275247858425847,-0.27196779684261
1765408560.407406,-8.972615404169886,1.1416362136425513,-0.5210490447110306,0.13869842618259104,-0.8172436475808053,-0.2681417828930751
1765408560.407656,-8.978900783796284,1.1291760682068945,-0.5009467653463177,0.13931200233297159,-0.8070280588802267,-0.26419182402323454
1765408560.407916,-8.987743396291597,1.1135568089292285,-0.4774821013095671,0.14031612441494828,-0.796927075372479,-0.26012619469524184
1765408560.408166,-8.99870826440417,1.09529525417575,-0.45081571781256913,0.14169221582176592,-0.7869900289204729,-0.2559552106400544
1765408560.408416,-9.011072556245649,1.0751741197304212,-0.4215239065537871,0.14340399472800064,-0.7772619311324592,-0.25168972562158526
1765408560.408666,-9.02390406107114,1.0541850872268301,-0.39052627470645085,0.14539909677268092,-0.7677785933349647,-0.24733966603541693
1765408560.408904,-9.03615362734173,1.0334610413774492,-0.3589877252623708,0.1476115355579942,-0.7585620119291068,-0.24291274357323445
1765408560.409154,-9.04675044792463,1.0142009030435672,-0.3282066778471434,0.14996475219155514,-0.749616562490002,-0.23841348710719343
1765408560.409404,-9.054690755706199,0.9975911237691177,-0.2995003052160641,0.15237501620366145,-0.740926475822494,-0.23384271356870817
1765408560.409654,-9.059112746806786,0.9847292374199383,-0.274095867130658,0.15475498277275526,-0.7324549288737299,-0.22919749678282392
1765408560.409921,-9.0593532043047,0.9765553214810909,-0.2530352738639192,0.15701725819825216,-0.7241448947233629,-0.22447160413379108
1765408560.410254,-9.054984412553527,0.9737957529228152,-0.23709761881955707,0.15907785830015397,-0.7159217030552921,-0.21965629095212416
1765408560.410588,-9.045832835697553,0.9769208293044501,-0.22674227179151094,0.16085946027402923,-0.707697102518752,-0.2147413087056539
1765408560.410851,-9.031982575344749,0.9861154527359643,-0.22207433853693778,0.16229435632167666,-0.6993745014545988,-0.2097160050661582
1765408560.411101,-9.013766517004024,1.0012617082160618,-0.2228346123203317,0.1633270238781338,-0.6908549876170507,-0.2045704483402908
1765408560.411351,-8.991747077799147,1.0219338908580258,-0.22841581904515385,0.16391622877869672,-0.6820436797552358,-0.199296556221048
1765408560.411601,-8.966687443596415,1.0474087716577634,-0.23790488437412882,0.1640365696674519,-0.6728559347601778,-0.19388921779823778
1765408560.411847,-8.93951348148614,1.0766945151172442,-0.25014805451779637,0.16367936346263579,-0.6632229236718653,-0.18834736332486107
1765408560.412097,-8.911266443388364,1.1085796505161152,-0.2638335364800379,0.1628527816167688,-0.6530961152363023,-0.18267488608726373
1765408560.412347,-8.883047715427388,1.141699767174187,-0.2775850268571547,0.1615811862392175,-0.6424502882096074,-0.17688129732492294
1765408560.412597,-8.85595919922636,1.1746162459328837,-0.29005813971013567,0.15990367840865907,-0.6312848325177688,-0.17098202091702336
1765408560.412883,-8.831045067424654,1.2058999329352078,-0.3000304019558364,0.15787194050356934,-0.6196232654653034,-0.16499829303159408
1765408560.413133,-8.809240856487591,1.2342131676645545,-0.30647572525249367,0.15554750967887998,-0.6075110493378867,-0.15895668498875976
1765408560.413383,-8.791333855418225,1.2583847786540472,-0.30861702945396413,0.15299865107088878,-0.5950119384229623,-0.15288829045200183
1765408560.413633,-8.777935997485864,1.2774736091776024,-0.30595479998957814,0.15029701593761574,-0.5822032080233797,-0.14682761562022711
1765408560.413853,-8.769468493182497,1.2908169109075556,-0.29827293336098193,0.14751428329888572,-0.5691702176926438,-0.14081120440865294
1765408560.414103,-8.76615654425574,1.2980609686676676,-0.28562555412967616,0.1447189846687566,-0.5560008133738602,-0.13487603646272664
1765408560.414353,-8.768032241977744,1.2991724981363617,-0.268309730168291,0.14197368231022262,-0.5427800585805832,-0.129057757960198
1765408560.414603,-8.774943951235503,1.29443026584092,-0.2468292399931501,0.13933261766958024,-0.5295857038193619,-0.12338883711011635
1765408560.414867,-8.78657100913626,1.284396981353962,-0.22185384018171386,0.13683989517606282,-0.5164846764845935,-0.11789676999922767
1765408560.415117,-8.802443141470796,1.2698723359970223,-0.19417721542264677,0.13452823522789012,-0.5035307276664666,-0.1126024910015854
1765408560.415367,-8.82196434822787,1.2518296804563098,-0.16467537835781568,0.13241831511264207,-0.49076323758989693,-0.10751915401779476
1765408560.415617,-8.844441112379627,1.2313411786135557,-0.13426598737791232,0.1305187029781618,-0.4782070865007219,-0.10265143102456338
1765408560.415883,-8.869114723185048,1.2094984084690965,-0.1038681543220519,0.12882636691783186,-0.4658734501900376,-0.09799541461857968
1765408560.416133,-8.89519717025291,1.18733605263756,-0.07436221613303352,0.127327711320509,-0.4537613593778092,-0.09353912178507404
1765408560.416383,-8.921909348343313,1.165765106647006,-0.04654980964007109,0.12600006730845453,-0.44185985083781937,-0.08926350749500148
1765408560.416633,-8.948519479420098,1.1455198758241931,-0.021115925086779855,0.12481354995217274,-0.43015053085314137,-0.08514384196638586
1765408560.416877,-8.97437910182439,1.1271212253339307,0.0014043754419015646,0.12373318838034916,-0.41861036203568386,-0.08115129210661724
1765408560.417127,-8.998953750872344,1.110857335188725,0.020651490235558404,0.12272122816773193,-0.40721446716362286,-0.0772545563655587
1765408560.417377,-9.021845525244572,1.0967819281056446,0.036456043574497124,0.12173949487488259,-0.39593873330005275,-0.0734214176757288
1765408560.417627,-9.042805349132358,1.084728335976417,0.04884049705600194,0.12075169821532161,-0.3847620184346486,-0.069620106594888
1765408560.417839,-9.061734036535572,1.074336473911887,0.05800666453478892,0.1197255563399319,-0.3736678113624259,-0.06582041275027779
1765408560.418089,-9.07867283490196,1.0650893897823444,0.0643103208427099,0.11863462899703679,-0.36264525561399763,-0.06199453761357196
1765408560.418339,-9.093785366076027,1.0563563689134368,0.06822628998847546,0.11745975871942553,-0.3516895101314651,-0.05811772803893581
1765408560.418589,-9.107333478137718,1.0474400267336468,0.07030875722592596,0.11619002960115543,-0.34080148508288854,-0.05416875701103505
1765408560.418898,-9.119649503692095,1.0376251898326418,0.07115143707789036,0.11482317233619173,-0.3299870583134498,-0.05013032473273379
1765408560.419148,-9.131107058891304,1.026227810217978,0.07135093840194097,0.11336537587371356,-0.3192559333428622,-0.045989442677169666
1765408560.419398,-9.142092152607649,1.0126426841715022,0.07147517274581591,0.11183050406488677,-0.30862032936711964,-0.041737835922663134
1765408560.419648,-9.152976129173732,0.9963889201443485,0.07203756387405237,0.11023875426029581,-0.29809369112080997,-0.037372355578099876
1765408560.419848,-9.164091712450274,0.9771514584241229,0.07347706856105449,0.10861483473795984,-0.28768957300656434,-0.03289534564268543
1765408560.420098,-9.175713138968947,0.9548156782987701,0.07614355043850009,0.10698578046292224,-0.27742079328453395,-0.028314881387634515
1765408560.420348,-9.188041269190068,0.9294911889360116,0.08028802074101299,0.10537856763635894,-0.2672988831052884,-0.023644806609234792
1765408560.420598,-9.20119461503577,0.9015212622657508,0.08605750408905886,0.10381771744012001,-0.2573337943002406,-0.01890453783882515
1765408560.420835,-9.215206989986376,0.8714761350509251,0.09349435457804127,0.10232308883160751,-0.2475337980957043,-0.014118648095443873
1765408560.421085,-9.230031743929695,0.8401307280857886,0.10253972512677811,0.10090804400691819,-0.2379055024219985,-0.009316266601533268
1765408560.421335,-9.24555164943049,0.8084291375984004,0.11304094725370635,0.099578129123136,-0.22845392450996288,-0.004530329708290277
1765408560.421585,-9.261592992050902,0.7774390518467821,0.12476279584434254,0.09833035449023317,-0.21918257307825656,0.00020329338598298755
1765408560.42184,-9.27794240861083,0.7482992291633661,0.1374025661909873,0.09715309700700916,-0.21009352100488352,0.004846782346130546
1765408560.42204,-9.294365219650311,0.7221627917417407,0.15060844361733655,0.09602659787276079,-0.20118747749429508,0.009361431252108629
1765408560.42224,-9.31062416486946,0.70013871783385,0.16400021189889957,0.09492399323051962,-0.19246388793825464,0.013708757497087443
1765408560.42244,-9.326497594609895,0.68323387965534,0.17719130600765284,0.09381278581829544,-0.18392109549355268,0.01785158837772644
1765408560.42264,-9.341796299929092,0.6722984615622033,0.18981133708204978,0.09265663917968175,-0.1755565921816471,0.021755038934544856
1765408560.422851,-9.356378108790858,0.6679783190190345,0.20152797704019557,0.09141736049779162,-0.16736737444003694,0.025387297526048458
1765408560.423101,-9.370159156365943,0.6706780976369289,0.2120665083871534,0.0900569378144624,-0.15935040306974038,0.028720167964924742
1765408560.423351,-9.383120701996763,0.6805381997073288,0.22122506069766074,0.08853950652497519,-0.15150314806237133,0.031729363041732184
1765408560.423601,-9.395310717382443,0.6974270854260018,0.2288839937782068,0.08683313294804387,-0.14382417290727187,0.03439458255818466
1765408560.423885,-9.406840000100113,0.7209485539892004,0.23500881947015737,0.08491131979993617,-0.13631368984051095,0.03669942866625991
1765408560.424135,-9.417872994850407,0.7504622040218217,0.2396469529813904,0.08275416287754167,-0.1289740110808701,0.038631214799469855
1765408560.424385,-9.428613774602695,0.7851144701929308,0.2429190120096037,0.08034912220547197,-0.12180983654883966,0.04018072217219598
1765408560.424635,-9.439287841202063,0.8238773102286718,0.245005245356537,0.0776914098226776,-0.11482834752929524,0.04134195727802638
1765408560.424816,-9.450120691098514,0.8655915307482378,0.24612742933515233,0.0747840287887342,-0.10803910142428745,0.04211196205355816
1765408560.425016,-9.461314543813373,0.9090118575434021,0.2465268503336247,0.07163751448576715,-0.1014537334570725,0.04249071751011857
1765408560.425216,-9.473025176822944,0.9528512943041653,0.2464398786684525,0.06826942905477165,-0.09508547105737858,0.04248116014352979
1765408560.425416,-9.485341277458392,0.9958230546247678,0.24607364045754399,0.06470364848424384,-0.08894846744120442,0.04208930543393326
1765408560.425616,-9.498268948374651,1.0366790742699499,0.24558493513099253,0.06096946936371937,-0.08305696837016095,0.04132445361270132
1765408560.425879,-9.5117238418401,1.074244418540728,0.24506563982755708,0.05710055880566197,-0.07742434251041692,0.04019944373434452
1765408560.426129,-9.525532751883754,1.1074467947748008,0.2445373019167879,0.05313377791618907,-0.07206203500924852,0.038730918182120606
1765408560.426379,-9.539445407322521,1.135340332860112,0.24395633321368473,0.049107917550703935,-0.06697854191541078,0.03693955253065727
1765408560.426629,-9.55315588213044,1.1571231610880974,0.2432292478517599,0.045062387245724284,-0.062178531562280814,0.03485019464011057
1765408560.426878,-9.566331775856426,1.1721488778155373,0.2422352854017024,0.04103589628167002,-0.057662237937968194,0.03249185237567622
1765408560.427128,-9.578648423897308,1.1799324036335086,0.2408524147374066,0.03706516652494152,-0.053425216281029086,0.029897480051853175
1765408560.427378,-9.589824996512423,1.1801508685104931,0.2389826089285912,0.03318372202413494,-0.049458496014156764,0.027103535972143735
1765408560.427628,-9.599659280603731,1.1726404220299238,0.23657311551067645,0.02942080585016536,-0.045749108330860405,0.024149309380282633
1765408560.427847,-9.60805797107052,1.1573902066441601,0.23363159237734868,0.025800475113945696,-0.04228091851756416,0.021076044378890612
1765408560.428047,-9.615059388567317,1.1345348457909363,0.23023408613154667,0.022340919274149232,-0.03903566607063742,0.01792592281847462
1765408560.428247,-9.620845846575426,1.1043463162696192,0.22652580790759036,0.019054036282088783,-0.03599411250438072,0.01474099973135186
1765408560.428447,-9.625743496719679,1.0672251103460295,0.22271532908490296,0.01594528678877999,-0.03313721006034317,0.011562198199276409
1765408560.428647,-9.630208303781018,1.0236896901061823,0.2190629823193352,0.013013830178584299,-0.030447221622906067,0.008428457015230846
1765408560.428809,-9.634797811077734,0.974362924783462,0.21586414643805735,0.010252931790203668,-0.02790873502889232,0.005376089544945723
1765408560.429009,-9.64012963735253,0.9199546109133783,0.21342824639486907,0.007650621688585423,-0.025509520422931618,0.0024383707320708276
1765408560.429209,-9.646829178266032,0.8612399893749773,0.2120548388116887,0.0051905800940180965,-0.023241176533834413,-0.00035466433164176595
1765408560.429409,-9.655470600899312,0.7990349145145071,0.21200866734272208,0.0028532197053940116,-0.021099505669586845,-0.0029762471156551708
1765408560.429609,-9.666516771760334,0.7341687377620045,0.21349575536246987,0.0006169318132370256,-0.019084557869900747,-0.005402776087530101
1765408560.429874,-9.680265055938806,0.6674561287238259,0.21664264569477026,-0.0015405359067744815,-0.017200299187329075,-0.007613648719994069
1765408560.430124,-9.696806467537847,0.5996691736305798,0.2214810549057691,-0.0036406009590036997,-0.015453888209983075,-0.009591090933244149
1765408560.430374,-9.716004764449815,0.5315112504075274,0.22794026711354662,-0.005702306970645986,-0.013854586940934064,-0.011320052911141283
1765408560.430624,-9.737499517653228,0.46359441127016227,0.2358490387668931,-0.007740786398470364,-0.012412384499176834,-0.012788234055209976
1765408560.430822,-9.7607334985061,0.39642234827065753,0.244947509698721,-0.009765813391870184,-0.011136466243168625,-0.01398627857856208
1765408560.431022,-9.78500094658696,0.33038134172552475,0.2549081410418534,-0.011780551768525768,-0.010033699469747425,-0.014908142259741554
1765408560.431222,-9.809510285743057,0.26574147206278487,0.26536355251609056,-0.013780606333950356,-0.00910731387189858,-0.015551577323365129
1765408560.431422,-9.833453082075092,0.20266939691914235,0.2759382428366724,-0.015753479792297496,-0.0083559303219844,-0.015918637812601912
1765408560.431622,-9.856070650168263,0.1412522387570389,0.2862803427795024,-0.017678522759638587,-0.007773048493006231,-0.016016092562097448
1765408560.431883,-9.876710804081785,0.08153024266370772,0.29608920808707356,-0.01952743587386203,-0.007347051655157164,-0.015855649658350488
1765408560.432083,-9.894869625928983,0.02353451954167566,0.30513549104959203,-0.021265341308705017,-0.007061724971262655,-0.015453931753603828
1765408560.432283,-9.910216025443797,-0.03267446994872121,0.3132721111479662,-0.022852395620318017,-0.006897213680807931,-0.014832180160431162
1765408560.432483,-9.922599288430012,-0.08697229444950982,0.3204361702415863,-0.024245872259458102,-0.006831285722752554,-0.014015697932123183
1765408560.432683,-9.932041314899617,-0.13914439218278746,0.3266426946414227,-0.025402596445827576,-0.006840731981354906,-0.013033065891534463
1765408560.432878,-9.938716153040795,-0.18887235841126257,0.3319715723844578,-0.026281568355811333,-0.006902744191566869,-0.011915184430629175
1765408560.433128,-9.942920155297706,-0.2357349958483341,0.3365496602832157,-0.026846577216210726,-0.0069961413320782095,-0.010694211418593471
1765408560.433378,-9.94503655812073,-0.2792238772311286,0.340530467123435,-0.027068603991019756,-0.00710235116116156,-0.009402477421794593
1765408560.433628,-9.945498280359319,-0.31877067033459017,0.344073715040602,-0.02692783484739443,-0.007206087327416439,-0.008071452624424581
1765408560.433914,-9.944752305632278,-0.35378210004029664,0.3473267094300293,-0.0264151511939708,-0.007295695256676204,-0.006730814729954402
1765408560.434114,-9.943228385264886,-0.3836784234168109,0.35040914777741927,-0.025533013883006557,-0.00736317234663718,-0.005407639745725193
1765408560.434314,-9.941314035134083,-0.40793202155995256,0.3534026034459455,-0.024295711502786057,-0.0074038992040544385,-0.004125725624303912
1765408560.434514,-9.939336923832393,-0.42610335126048,0.35634525954663054,-0.02272898965630168,-0.007416146453941348,-0.002905064141744585
1765408560.434714,-9.937554947447245,-0.4378717945520861,0.3592318346829401,-0.020869115417502394,-0.00740044043533851,-0.0017614851496764337
1765408560.434908,-9.936153688562547,-0.4430592178687048,0.3620182925825247,-0.018761458323594254,-0.0073588756796810866,-0.0007064948338344944
1765408560.435158,-9.935250417700523,-0.4416446875535633,0.364630622487319,-0.016458689691037347,-0.007294453280821963,0.0002526859579608859
1765408560.435408,-9.934903189957282,-0.4337698066575845,0.36697647836392605,-0.014018717518975455,-0.0072105080152666205,0.0011128960985678016
1765408560.435658,-9.935123122866784,-0.4197352275753925,0.36895804267170584,-0.011502480756922586,-0.007110268549757547,0.0018746462860104894
1765408560.435877,-9.935887868114873,-0.3999896829569738,0.3704844950803067,-0.00897171951292196,-0.006996575140918752,0.002541596956418277
1765408560.436077,-9.937154539549837,-0.37511313202376145,0.3714827977972715,-0.006486819659949958,-0.00687175679653278,0.0031199277561747034
1765408560.436277,-9.93887071290141,-0.34579535143687246,0.3719058148768317,-0.004104811027185254,-0.006737647398532434,0.003617623374967253
1765408560.436477,-9.940982538226942,-0.3128108073626824,0.3717370514037003,-0.0018775855133004017,-0.006595703600442729,0.004043707452699408
1765408560.436677,-9.943439563018641,-0.2769904032760931,0.3709917306643445,0.0001496059986553289,-0.006447179712276801,0.00440747187250752
1765408560.436857,-9.946196440062995,-0.23919103336128936,0.36971448047830696,0.0019393275236189173,-0.006293315778594511,0.004717764750859899
1765408560.437057,-9.949212103873824,-0.2002646489163454,0.3679743385367332,0.0034627661981022954,-0.006135503187799356,0.0049824034737262985
1765408560.437257,-9.952447215700298,-0.1610292070448713,0.3658580243056639,0.0047001579572715875,-0.005975404689673398,0.005207761057284192
1765408560.437457,-9.955860775976799,-0.1222438611982167,0.3634625087815755,0.005640837064742534,-0.005815018529443977,0.0053985398707204315
1765408560.437657,-9.959406795642922,-0.08458995302440907,0.3608878283708407,0.006282939422705315,-0.005656687601382246,0.005557712065502261
1765408560.437847,-9.963031779938897,-0.04865817126267546,0.3582308181444787,0.00663280776239387,-0.005503064741020804,0.005686586740085735
1765408560.438047,-9.966673550066993,-0.01494126690102334,0.3555801089735428,0.006704155074072881,-0.005357052608102643,0.005784965573488685
1765408560.438247,-9.970261678629367,0.01616864745713165,0.3530125228490531,0.006517041995453283,-0.005221735322285658,0.005851363628090288
1765408560.438447,-9.973719565810974,0.04437899789803315,0.3505909394439716,0.006096720435644964,-0.005100307461598082,0.005883285215565284
1765408560.438647,-9.976967921031775,0.06949232634039294,0.3483636522053484,0.005472395244530518,-0.0049959929999860665,0.0058775457831214545
1765408560.43887,-9.979929142668334,0.09139900270400418,0.34636505339413387,0.00467595882598484,-0.004911944215898743,0.00583062183583988
1765408560.439037,-9.982531853589997,0.11006783134220606,0.3446172153080443,0.0037407549719703525,-0.0048511206842660705,0.005739002848077194
1765408560.439203,-9.984714745219403,0.12553562378579222,0.3431317279640686,0.0027004214421349083,-0.004816161466017993,0.005599520478501071
1765408560.43937,-9.986428997644998,0.13789682376363235,0.34191114327812844,0.0015878452892755658,-0.0048092681951269435,0.005409639949426484
1765408560.439537,-9.987638876646507,0.14729392558755264,0.34094957118049285,0.0004342470204602687,-0.004832109759578089,0.0051677077880868455
1765408560.439703,-9.988320558610184,0.1539089063671255,0.34023231959475003,-0.0007316035196999252,-0.004885746386527312,0.004873152446431331
1765408560.43986,-9.988459684776899,0.15795546121444665,0.3397349127963907,-0.0018840424078113212,-0.004970560672094114,0.0045266301994601275
1765408560.44006,-9.988048490279398,0.15967164642317783,0.3394222283332818,-0.0030010395061459538,-0.00508618148833933,0.00413010451663292
1765408560.44026,-9.987083448345366,0.15931255634635577,0.339248611405291,-0.004064593262348729,-0.005231395419012812,0.0036868483769112686
1765408560.44046,-9.985564106889324,0.157142756212423,0.3391594969847162,-0.005060977818069569,-0.005404055558551352,0.0032013655006886245
1765408560.44066,-9.983493276092048,0.15342834299826816,0.33909447096737527,-0.005980823632945732,-0.005601010818561713,0.0026792337553717157
1765408560.440879,-9.98087826338773,0.1484287855421875,0.3389912435013404,-0.0068190184765645175,-0.0058180828141879215,0.0021268796435444212
1765408560.441079,-9.977732689227102,0.1423890668689336,0.3387899285902917,-0.007574430039689827,-0.00605011051454178,0.0015512991406849428
1765408560.441279,-9.974078517625333,0.13553288707740557,0.33843720127347815,-0.00824946823645297,-0.006291069905958348,0.0009597497904506878
1765408560.441479,-9.969948106912808,0.1280575683665515,0.3378900974639174,-0.008849518102508854,-0.00653426357382276,0.000359449345015187
1765408560.441679,-9.965386192366458,0.12013087482911995,0.33711932465274225,-0.009382280432745057,-0.006772567503019349,-0.00024267915170137478
1765408560.441897,-9.960451706335556,0.1118895017692494,0.3361119485867457,-0.009857057844273091,-0.006998719894120277,-0.0008401818926650385
1765408560.442097,-9.955219215583263,0.10343877948425023,0.33487321315809676,-0.010284021084747639,-0.007205637319873254,-0.001427150204265905
1765408560.442297,-9.949779574977521,0.0948532267902301,0.333427128630893,-0.010673486523942734,-0.007386744590667929,-0.0019981990527394205
1765408560.442497,-9.944239309036371,0.08617781848298767,0.33181549697382534,-0.011035232673960912,-0.007536304538705093,-0.0025483659385133433
1765408560.442697,-9.938718336760733,0.0774299895289821,0.3300952809780656,-0.01137788173124063,-0.007649731784516436,-0.0030729587223051105
1765408560.442813,-9.933345902605192,0.06860238093073802,0.3283345081487749,-0.011708370385048282,-0.007723870610502575,-0.003567387030658278
1765408560.443013,-9.928254877017299,0.05966620437876733,0.32660707889748586,-0.012031530921516787,-0.0077572131644931,-0.004027014497587637
1765408560.443213,-9.923574908904087,0.05057505140300608,0.32498694541532747,-0.01234979897230628,-0.007750033554198973,-0.0044470671387078576
1765408560.443413,-9.919425181848016,0.041269118728719474,0.3235422132070596,-0.012663059961560435,-0.007704417905053304,-0.004822624913523396
1765408560.443613,-9.915907608894763,0.03168006965317756,0.32232976140166586,-0.012968643445844912,-0.007624178730459062,-0.005148709320724109
1765408560.443824,-9.91310115360154,0.021736862770625077,0.32139092424234,-0.01326147128356396,-0.007514651500635867,-0.005420462289500522
1765408560.444074,-9.911057713839408,0.011372710669109472,0.3207486346705925,-0.013534358936111518,-0.007382381781117475,-0.005633394519926432
1765408560.444324,-9.909799778373863,0.0005329828617449939,0.3204062322292915,-0.013778458577232838,-0.00723472356528067,-0.005783669747446783
1765408560.444574,-9.90931986579934,-0.010816419458045866,0.3203478987196969,-0.013983820869026036,-0.007079382105260679,-0.005868389170852694
1765408560.444818,-9.909581555577006,-0.022680771499515202,0.32054046449474005,-0.014140043009174487,-0.006923943468590148,-0.00588584600682759
1765408560.445018,-9.910521779711084,-0.03502882154442034,0.3209362164181009,-0.01423696564910897,-0.006775433861891426,-0.0058357274169710555
1765408560.445218,-9.912054030588461,-0.047786183467298425,0.3214763566284542,-0.014265379639841277,-0.006639943856487874,-0.005719245606038927
1765408560.445418,-9.914072248709404,-0.060830476194697336,0.32209485405689814,-0.014217703167319158,-0.00652234027233685,-0.005539183039315437
1765408560.445618,-9.916455337430074,-0.07398905559364993,0.3227225592687509,-0.014088588918911403,-0.006426077055186271,-0.005299841842852741
1765408560.445898,-9.919072449880845,-0.08704023673229129,0.323291586793938,-0.013875420024777126,-0.006353108568424575,-0.005006896036156558
1765408560.446098,-9.921789272782144,-0.0997186923375915,0.3237400033127768,-0.013578655884154576,-0.006303903818956971,-0.004667156152103973
1765408560.446298,-9.924475332112811,-0.11172527466458611,0.324016692152428,-0.013201997244740499,-0.006277556441879442,-0.004288266299776441
1765408560.446498,-9.927011883492742,-0.12274097362987078,0.3240859755570061,-0.012752353409341416,-0.006271980463877136,-0.003878361609587748
1765408560.446698,-9.92929949595332,-0.13244419938859153,0.3239313987861311,-0.012239610848908072,-0.00628417401359503,-0.003445718412302696
1765408560.446873,-9.931264276535048,-0.1405301175143656,0.3235581303740795,-0.011676219372623793,-0.006310523183257139,-0.0029984293737072678
1765408560.447073,-9.93286186136758,-0.14673042152645208,0.3229936050815956,-0.01107662634355557,-0.0063471113728005265,-0.002544129794080433
1765408560.447273,-9.934078676256638,-0.15083176237192844,0.3222862124666482,-0.010456598684552796,-0.006390001519553397,-0.0020897906535619743
1765408560.447473,-9.93493041027423,-0.1526911048604701,0.3215020332877226,-0.009832476202722514,-0.006435469857396663,-0.00164158283842552
1765408560.447673,-9.935458055619314,-0.15224654756942396,0.3207198708902278,-0.009220398809951928,-0.006480183630340606,-0.00120480854247576
1765408560.44786,-9.935722152693675,-0.1495226017537705,0.320025035521337,-0.008635545861111262,-0.006521324597807702,-0.0007838910714421175
1765408560.44806,-9.935796003619206,-0.14462950663517574,0.31950246236155494,-0.00809142207118092,-0.006556664499033464,-0.00038241358447880906
1765408560.44826,-9.935758639901938,-0.137756731656481,0.31922984131307697,-0.007599226207270255,-0.006584600979497465,-3.1998825021032e-06
1765408560.44846,-9.935688295232065,-0.1291612712273741,0.3192715268332305,-0.007167344689492722,-0.006604163157684238,0.0003515675384714387
1765408560.44866,-9.935656985005787,-0.11915169088993507,0.319673926461446,-0.006801013517638881,-0.0066149930997523336,0.0006801994635446492
1765408560.448876,-9.935726488139027,-0.10806923119614295,0.32046271192625564,-0.006502181632312354,-0.006617304348801055,0.0009813361979712886
1765408560.449076,-9.935945682457513,-0.09626762181984888,0.3216417171647017,-0.006269590080390353,-0.006611816046678479,0.0012537884003172405
1765408560.449276,-9.93634899483554,-0.0840934535182411,0.3231930963582077,-0.006099062859913521,-0.00659966343677829,0.0014964024735125492
1765408560.449476,-9.936955730755223,-0.0718688383391859,0.3250783119121913,-0.0059839905859908685,-0.006582289652486094,0.0017079633904764086
1765408560.449676,-9.937770100260748,-0.05987766053942962,0.32723966048743386,-0.005915973543564641,-0.006561325203287856,0.0018871396106383176
1765408560.449851,-9.938781754120926,-0.048356137926598715,0.32960222568304487,-0.0058855737732376855,-0.006538460337560792,0.002032470716275129
1765408560.450051,-9.939966645973156,-0.0374878417645105,0.3320763761468923,-0.005883110540767237,-0.006515315363079328,0.0021423984487089066
1765408560.450251,-9.941288114441843,-0.027402854925971623,0.3345611035624607,-0.005899426452383762,-0.006493316946298947,0.0022153423895311295
1765408560.450451,-9.94269819003992,-0.018180423804807715,0.3369484292719241,-0.005926556078467568,-0.006473591971762389,0.0022498199863425685
1765408560.450651,-9.944139218253616,-0.009854303671655906,0.3391288165743214,-0.005958243606287186,-0.0064568916519592975,0.002244605906753193
1765408560.450848,-9.945545955205354,-0.002420009091924993,0.34099723326885945,-0.00599027523601962,-0.006443556240060318,0.0021989179799893396
1765408560.451048,-9.94684829657264,0.004156686897117741,0.3424593513047797,-0.006020610510332152,-0.00643352532476199,0.002112609050254847
1765408560.451248,-9.947974659949233,0.009930498070494603,0.343437309606365,-0.0060493135003148665,-0.006426391985400233,0.001986340174019205
1765408560.451448,-9.948855809446533,0.014966999750090861,0.34387449940995196,-0.006078301470155048,-0.0064214940898650865,0.0018217121024870458
1765408560.451648,-9.949428786859185,0.01933301359278482,0.34373901930350004,-0.006110944614333268,-0.006418033621185735,0.0016213368783351795
1765408560.451971,-9.949640668148888,0.023087493368485493,0.34302570438495783,-0.006151561701318692,-0.006415211804799303,0.001388838480363182
1765408560.452171,-9.949451942317245,0.026273572817146516,0.34175674978511106,-0.006204860649492069,-0.006412362412022263,0.0011287814816795063
1765408560.452371,-9.948839280993907,0.02891252583105224,0.3399808825667382,-0.00627537239969342,-0.0064090634051210404,0.0008465380177056644
1765408560.452571,-9.94779741052562,0.031000276334646606,0.3377709839634318,-0.006366923845312425,-0.0064052136563196894,0.0005481103019272776
1765408560.452771,-9.946339854633743,0.03250682218438968,0.3352201719204828,-0.006482190850218829,-0.006401072802697857,0.00023992432293151028
1765408560.452974,-9.944498487203424,0.03337866034370315,0.33243654975980286,-0.006622364136210572,-0.006397268731786337,-7.139614057988224e-05
1765408560.453174,-9.94232202410202,0.03354409479765256,0.32953699178696694,-0.006786949834156211,-0.00639477577694118,-0.00037926910164115773
1765408560.453374,-9.939873728625829,0.032921109307914025,0.3266404552960323,-0.00697371493855157,-0.006394863167183101,-0.0006773977762851865
1765408560.453574,-9.937228682034306,0.03142722387321597,0.32386137805426074,-0.0071787766684622,-0.0063990124510267775,-0.0009600021623317139
1765408560.453774,-9.934470939357618,0.028990459341603804,0.32130369527426667,-0.007396823736274548,-0.006408804153320803,-0.0012220206543791558
1765408560.453913,-9.931690753285473,0.025560308906041107,0.319055909349404,-0.007621447453945465,-0.006425777844178787,-0.00145926603392696
1765408560.454113,-9.928981888588037,0.02111754093997329,0.31718754415579786,-0.007845552385925278,-0.0064512779521659,-0.001668525845512562
1765408560.454313,-9.926438938675597,0.015681760673443478,0.3157471906408213,-0.008061810326526682,-0.006486307756115097,-0.0018476035029999407
1765408560.454513,-9.924154501481597,0.00931591652073958,0.3147621231885295,-0.008263119032441967,-0.006531418836267505,-0.0019953016652613357
1765408560.454713,-9.922216087242113,0.0021273065122971134,0.31423920951390794,-0.008443030190826883,-0.00658665786915068,-0.0021113531701742886
1765408560.454878,-9.920702745907466,-0.005734944722114918,0.3141667411761291,-0.008596118582265853,-0.0066515789722487745,-0.002196307830003601
1765408560.455078,-9.919681563695855,-0.014085601124529305,0.31451691800502357,-0.008718272324418772,-0.006725314585780903,-0.0022513863528488887
1765408560.455278,-9.919204257711812,-0.022711624019236636,0.3152488430577762,-0.008806890140160862,-0.00680668744126396,-0.0022783156988273718
1765408560.455478,-9.919304036915133,-0.03138228647369289,0.31631185243497967,-0.008860977117302441,-0.0068943424927198115,-0.0022791626407954535
1765408560.455678,-9.91999277539088,-0.039860154999240525,0.3176488692665095,-0.008881136651934012,-0.006986878584349553,-0.0022561826532951903
1765408560.457342,-9.921258487194327,-0.0479119641271853,0.3191994326860712,-0.008869462106789367,-0.007082962103837423,-0.002211698213467017
1765408560.457542,-9.92306316908684,-0.05531856916684219,0.3209022093887138,-0.00882933632619431,-0.007181407420343347,-0.0021480150105339063
1765408560.457742,-9.925341245741206,-0.06188345429898744,0.32269704166851876,-0.00876515201205206,-0.007281211572765084,-0.002067379076210104
1765408560.457942,-9.927998982891097,-0.06743954342600876,0.32452675008905885,-0.008681973226476632,-0.007381534814375172,-0.001971973683755965
1765408560.458142,-9.930915217095459,-0.07185423929597336,0.3263389217117251,-0.00858516727743905,-0.007481625936496642,-0.0018639508315394992
1765408560.4574,-9.933943585483705,-0.07503273809323874,0.32808780496907847,-0.008480042339582888,-0.007580701369968233,-0.0017454876422444351
1765408560.4576,-9.936916205916667,-0.07691975998535494,0.32973623391135265,-0.008371524867294746,-0.007677796016981154,-0.0016188542098221571
1765408560.4578,-9.939648539883896,-0.07749988741552803,0.33125726269172184,-0.008263902612711803,-0.007771607119791839,-0.0014864773513008351
1765408560.458,-9.941945048326902,-0.07679672768411291,0.3326350353149317,-0.008160647891463743,-0.007860350268276294,-0.0013509849378524478
1765408560.4582,-9.943605311419308,-0.0748711576333803,0.33386449067984164,-0.008064324785338061,-0.007941643567680552,-0.0012152182718483937
1765408560.457873,-9.944430515261942,-0.07181894714004668,0.33494977428694406,-0.007976574858873035,-0.008012435137500638,-0.0010822043134763929
1765408560.458123,-9.944230438049706,-0.06776801830452568,0.3359014859005103,-0.007898170124599604,-0.00806898861263453,-0.0009550837406129154
1765408560.458373,-9.942831128543316,-0.06287546431554515,0.33673302127355503,-0.007829119682858123,-0.008106938007210516,-0.0008369948798587686
1765408560.458623,-9.940083384093711,-0.05732431186880334,0.3374563714713436,-0.0077688159325497875,-0.00812141619367325,-0.0007309191724117226
1765408560.458894,-9.9358720251832,-0.05131994574175022,0.33807792893640354,-0.007716205757178314,-0.008107250680941282,-0.0006395013180820417
1765408560.459094,-9.930125845741717,-0.04508611578880233,0.3385950117100569,-0.00766997202749334,-0.00805920812553629,-0.0005648641650252645
1765408560.459294,-9.922827918785446,-0.03886044986481551,0.3389937797650602,-0.0076287124431756335,-0.00797226039853858,-0.0005084424552188508
1765408560.459494,-9.914025640523462,-0.03288935775313437,0.33924896095107965,-0.007591105728308967,-0.007841846020990926,-0.00047086064168487735
1765408560.459694,-9.90383957768814,-0.02742215087540902,0.3393254486371958,-0.007556057564216494,-0.007664110943361433,-0.00045187825356585355
1765408560.459914,-9.892469919469631,-0.02270418472204869,0.3391814823513669,-0.007522819486765789,-0.0074361246041286565,-0.00045041953043168325
1765408560.460114,-9.880199166376283,-0.018968900853542105,0.3387728381678686,-0.007491074043706897,-0.007156073658928019,-0.00046469031189666813
1765408560.460314,-9.867389636977482,-0.016428787650995258,0.3380573054779971,-0.007460979952013301,-0.006823434261353955,-0.0004923672582645659
1765408560.460514,-9.854474467581387,-0.015265456339146765,0.3369987490028187,-0.007433172695634152,-0.006439116370883486,-0.000530829779594154
1765408560.460714,-9.841941084661318,-0.015619223724629138,0.335570218195228,-0.007408719089014624,-0.006005565469669964,-0.000577399966403109
1765408560.460862,-9.830306761440054,-0.017578775132816638,0.3337558196117993,-0.007389027906657553,-0.005526803615413682,-0.0006295609028556787
1765408560.461062,-9.820086893949256,-0.021171597043564694,0.33155137902904475,-0.007375722186201397,-0.00500839440174571,-0.0006851339383448596
1765408560.461262,-9.811757946411246,-0.02635591475166733,0.3289642466421498,-0.007370483212239639,-0.004457322825763402,-0.0007424044117107519
1765408560.461462,-9.805718409810565,-0.03301491106106055,0.3260128476341567,-0.007374882149314985,-0.0038817883334816574,-0.0008001897317635655
1765408560.461662,-9.802252368686437,-0.04095410912861635,0.3227266331018388,-0.0073902207273559405,-0.0032909158987149563,-0.0008578446592049043
1765408560.461909,-9.801501051364658,-0.0499030023165974,0.3191469330120804,-0.007417403656297852,-0.0026943973761658305,-0.0009152000796585723
1765408560.462109,-9.803447505335578,-0.059522181005359054,0.31532893366295967,-0.00745686069965153,-0.0021020862707208728,-0.0009724394070082364
1765408560.462309,-9.807917748029094,-0.06941697630479449,0.3113444432623169,-0.00750852615782507,-0.0015235796706797174,-0.0010299341367990492
1765408560.462509,-9.814598417556363,-0.07915770319488655,0.30728404760274264,-0.007571869944506381,-0.0009678207300946697,-0.0010880781298569842
1765408560.462709,-9.82306724461014,-0.08830515924405392,0.3032563491036539,-0.007645962368746265,-0.0004427407897648824,-0.001147161016273392
1765408560.46288,-9.832830542137456,-0.0964388006878385,0.2993826619151048,-0.007729552040131831,4.505560651279861e-05,-0.001207297761412862
1765408560.46308,-9.843362425304157,-0.10318458092507987,0.2957879798254362,-0.007821145988432004,0.0004905624926349714,-0.0012683990300183558
1765408560.46328,-9.854142456043967,-0.10823995117284768,0.2925911407238315,-0.007919093158165663,0.0008905891144364649,-0.001330150213083676
1765408560.46348,-9.864689680057117,-0.11139453677491266,0.2898968344726084,-0.008021672268072676,0.0012438945069137767,-0.001391980009392449
1765408560.46368,-9.87459096925925,-0.11254560124809612,0.2877900930934936,-0.008127172496559577,0.0015512093402856278,-0.0014530313823359398
1765408560.46385,-9.883521478215528,-0.11170707837237558,0.28633250560410384,-0.008233947537553894,0.001815127253912782,-0.0015121659412460366
1765408560.46405,-9.891255938646673,-0.10901041433467994,0.28555958946077586,-0.008340432994427709,0.0020398692263116232,-0.001568014837014259
1765408560.46425,-9.897671048028293,-0.10469597750196048,0.2854795081794012,-0.008445135738109547,0.0022309423301279606,-0.0016190533778797803
1765408560.46445,-9.902740422302639,-0.09909548979762829,0.28607361230717954,-0.008546613826883112,0.002394724257698469,-0.0016636643933536253
1765408560.46465,-9.906524100055735,-0.09260755295849436,0.28729907034009283,-0.00864346075738757,0.002538009169527245,-0.0017001807598942932
1765408560.464928,-9.90915450215115,-0.0856688076036298,0.2890933999040386,-0.008734297120125908,0.0026675494063304562,-0.001726929297354073
1765408560.465128,-9.910820315519384,-0.0787228759810655,0.2913801803061055,-0.008817766047011432,0.002789622397934508,-0.0017423002604220125
1765408560.465328,-9.91174933794593,-0.07218905965600102,0.29407497699814744,-0.008892528148952892,0.002909648345659184,-0.001744839884688851
1765408560.465528,-9.912191124507927,-0.06643318046728079,0.2970907168169601,-0.00895725475288602,0.003031885237205838,-0.0017333390522849498
1765408560.465728,-9.912400201624685,-0.06174331761900509,0.30034205535023106,-0.0090106228648578,0.003159226590547761,-0.0017068922474234485
1765408560.465861,-9.912620481675003,-0.05831275416091542,0.30374836171798136,-0.00905131840048451,0.003293116430145545,-0.001664922339497176
1765408560.466061,-9.913071423937847,-0.056231217865803804,0.30723509428179524,-0.009078053747308749,0.003433579873004284,-0.001607186827026518
1765408560.466261,-9.913936624835676,-0.055484177495054646,0.3107338552367254,-0.009089603547532943,0.003579355972181105,-0.0015337845572467679
1765408560.466461,-9.915355735437826,-0.05595922561343524,0.31418195721735814,-0.00908486185234325,0.003728112405011269,-0.0014451701376109619
1765408560.466661,-9.91742051643463,-0.057458571502691076,0.31752236836306613,-0.009062923692407432,0.0038767134836162473,-0.001342169936744914
1765408560.466905,-9.920175274647248,-0.059716916973855824,0.3207044215914058,-0.009023191083029888,0.004021505184587799,-0.001225990941684098
1765408560.467105,-9.923621103351335,-0.062423884908761273,0.3236851304022009,-0.008965497226078095,0.0041585803435834345,-0.0010982218899601892
1765408560.467305,-9.927722687894986,-0.06524948382744228,0.326430662227304,-0.00889023690227605,0.0042839950588346686,-0.0009608338857274075
1765408560.467505,-9.932416222948873,-0.06787018080655059,0.32891746954943174,-0.008798487726679013,0.004393919275348671,-0.0008161833856619489
1765408560.467705,-9.937617208269005,-0.0699927257767878,0.33113266318611007,-0.00869210446020125,0.004484717926724002,-0.0006670038007312798
1765408560.467901,-9.94322733486433,-0.0713733849653876,0.3330733749031348,-0.00857376668317461,0.004552972670246318,-0.0005163581257463813
1765408560.468101,-9.949140131974156,-0.0718314502885763,0.33474504049527026,-0.008446961390099384,0.004595464472781654,-0.0003675319769106659
1765408560.468301,-9.95524539581725,-0.07125700044698062,0.336158683431978,-0.0083158877678291,0.004609141663619767,-0.00022387458139905546
1765408560.468501,-9.961432600550639,-0.06961329803095952,0.3373274154141324,-0.008185280597553982,0.0045910990833182164,-8.862297424035413e-05
1765408560.468701,-9.967593492792654,-0.06693409695993634,0.3382625490564808,-0.008060160122417502,0.0045385934012730595,3.5250758675201184e-05
1765408560.468876,-9.973623982160946,-0.06331619766276353,0.3389698900867415,-0.007945527634720308,0.0044491134926153714,0.0001451485232593391
1765408560.469076,-9.979425411205112,-0.05890814535793349,0.3394468236790085,-0.007846033589512207,0.00432050964744265,0.000238914549091736
1765408560.469276,-9.984905401020361,-0.05389660256058387,0.33968073040918184,-0.007765646912473397,0.004151167199289584,0.00031487688015513965
1765408560.469476,-9.989978636614998,-0.04849206571732218,0.3396491529487159,-0.007707353374410508,0.00394019939898623,0.0003718725793058095
1765408560.469676,-9.994567969555805,-0.04291517091522197,0.33932194525041975,-0.007672911349982407,0.0036876337373575787,0.00040925918736961075
1765408560.469869,-9.998605954572062,-0.037384234381119735,0.33866524033718537,-0.007662693808677234,0.0033945681113567126,0.0004269105511071758
1765408560.470069,-10.002036548934898,-0.03210426224448129,0.3376465607898668,-0.007675640685804848,0.0030632726909835977,0.00042519596641296166
1765408560.470269,-10.00481649281631,-0.027257540946980862,0.3362401166127693,-0.00770933359856523,0.002697214813059302,0.0004049450590006478
1765408560.470469,-10.006916017164716,-0.02299601757015236,0.33443151918778713,-0.007760189635723732,0.0023009946866499585,0.0003674032135076805
1765408560.470669,-10.008318875645777,-0.019435837394688682,0.33222160615573637,-0.007823757823929363,0.0018801963240260777,0.0003141807311246185
1765408560.470873,-10.009021990964827,-0.01665439457046045,0.32962938787219115,-0.007895090439936067,0.0014411709542709883,0.00024719431522990674
1765408560.471073,-10.009035025512883,-0.014689957164075678,0.3266940475466758,-0.007969149956369591,0.000990774440249806,0.00016859740361356722
1765408560.471273,-10.008379964309782,-0.01354352714138802,0.32347564796034417,-0.008041205222880425,0.0005360796292194689,8.069959104472322e-05
1765408560.471473,-10.007090591793158,-0.013182391343408628,0.32005411658591504,-0.008107173258521495,8.408404740349579e-05,-1.4118688015636428e-05
1765408560.471673,-10.005211736617275,-0.013544899959700953,0.31652634462320894,-0.008163874471872334,-0.00035856619704079996,-0.00011348747743171139
1765408560.471938,-10.002798257633764,-0.014546190276090576,0.3130016294973131,-0.008209182649487551,-0.0007858160857349828,-0.00021511750705659633
1765408560.472138,-9.999913759274904,-0.01608464966213172,0.3095959575259135,-0.008242063497973443,-0.0011923893560341003,-0.00031685567954682604
1765408560.472338,-9.996628925136045,-0.01804884499083712,0.30642569216419613,-0.008262508463937812,-0.0015739186087136477,-0.0004167269189125421
1765408560.472538,-9.993019263258672,-0.02032451187405936,0.30360114306224334,-0.008271383810292854,-0.0019270241885981467,-0.0005129690062170657
1765408560.472738,-9.98916208435311,-0.022801065351166556,0.30122033270199816,-0.008270224315564201,-0.002249353882425484,-0.0006040696126429995
1765408560.47284,-9.985132736672544,-0.025377023638626848,0.2993632153789986,-0.00826100325851336,-0.00253959048730699,-0.0006888101033033525
1765408560.47304,-9.981000455948337,-0.027963828454255223,0.2980867376988242,-0.008245906761352614,-0.0027974242235576873,-0.000766310643125935
1765408560.47324,-9.976824497133972,-0.030487871484207438,0.29742132042817465,-0.008227134556640899,-0.00302348208517715,-0.000836063295845382
1765408560.47344,-9.972651304599935,-0.032890984889689494,0.29736932502874336,-0.008206742812959647,-0.0032192104230880625,-0.0008979404134604376
1765408560.47364,-9.968513278823156,-0.03512993500494567,0.2979057424240256,-0.008186537529019485,-0.003386716137524867,-0.0009521738889994471
1765408560.47388,-9.964429314943644,-0.037175371596916695,0.298980869954991,-0.008168019469984727,-0.00352858030437503,-0.0009993101156358008
1765408560.47408,-9.96040690493123,-0.03901035806182748,0.3005244087804111,-0.008152376297283485,-0.003647662660876953,-0.0010401493776593912
1765408560.47428,-9.95644534141254,-0.040628387316523414,0.30245037396428165,-0.00814051562796188,-0.0037469146664999204,-0.0010756757680780217
1765408560.47448,-9.952539455241654,-0.04203088172098273,0.3046623684221004,-0.008133130687691247,-0.003829213839155785,-0.0011069785909141024
1765408560.47468,-9.948683306964973,-0.04322445811991165,0.3070589316741816,-0.008130784508046138,-0.0038972263901566164,-0.001135164013618522
1765408560.477904,-9.94487329570775,-0.044218410321235864,0.3095387400760718,-0.008133991672163606,-0.003953301873922899,-0.001161259096749705
1765408560.478912,-9.941110256257312,-0.04502274465329852,0.3120054249565019,-0.008143273733930914,-0.003999402250491374,-0.0011861169784236447
1765408560.480824,-9.937400314963337,-0.04564679146798034,0.31437175577354576,-0.008159168231476284,-0.004037065992343146,-0.001210336828337761
1765408560.483269,-9.933754581446735,-0.04609816161082632,0.31656300839442253,-0.00818218167087558,-0.004067404328027263,-0.001234211609487034
1765408560.487842,-9.930188107195258,-0.04638181701272813,0.3185195391529553,-0.008212692361123469,-0.004091122561998965,-0.0012577113315539773
1765408560.489882,-9.926718776262538,-0.04649926205329123,0.32019877436598887,-0.008250824630045719,-0.004108557043879691,-0.0012805031204551436
1765408560.492854,-9.923366750011981,-0.04644812879538126,0.3215768333559575,-0.008296324834871463,-0.004119718787704342,-0.0013020052618982327
1765408560.494847,-9.920154794068678,-0.0462224876753651,0.3226498450766011,-0.008348468366851271,-0.004124336342397047,-0.0013214704862250465
1765408560.497904,-9.91710943931365,-0.045813992654451845,0.32343481225192444,-0.008406018259954058,-0.004121891226937321,-0.0013380917632362778
1765408560.499897,-9.914262588105027,-0.04521363057432788,0.3239696676024553,-0.008467245043210987,-0.00411163963559089,-0.0013511191906351236
1765408560.502853,-9.911652918243403,-0.044413650816527366,0.32431200574467073,-0.008530006959319556,-0.004092617104798172,-0.0013599692420016246
1765408560.504826,-9.909326343865821,-0.043409318233908686,0.3245360177799632,-0.008591880467005751,-0.0040636299470729565,-0.001364302941716905
1765408560.507881,-9.907334945536427,-0.04220033780117619,0.32472747925645334,-0.008650324592143321,-0.004023246101730315,-0.00136405508116127
1765408560.50988,-9.905734128351023,-0.04079193767636003,0.3249770830987524,-0.00870286130668816,-0.003969804579989959,-0.0013594130260692829
1765408560.510835,-9.904578160587965,-0.03919558042039794,0.3253727441596651,-0.008747257222972609,-0.0039014647312891905,-0.0013507609605522871
1765408560.514875,-9.90391460006348,-0.03742918499390176,0.325991674450396,-0.008781695340655076,-0.003816313115034431,-0.0013386125098000508
1765408560.517817,-9.903778403902828,-0.03551673358025419,0.32689308746246604,-0.008804925807524506,-0.0037125350570221607,-0.0013235498215430131
1765408560.520804,-9.904186665801792,-0.033487263220223724,0.32811233880980833,-0.008816383372043393,-0.003588640213347306,-0.001306176979931834
1765408560.522848,-9.905134853440185,-0.03137341352043188,0.3296571487419944,-0.008816260853296285,-0.0034437124232859547,-0.0012870881271598259
1765408560.524842,-9.906595155944432,-0.029209783472916376,0.33150634689531583,-0.008805532786254983,-0.0032776426027811604,-0.0012668500354733967
1765408560.52787,-9.908517181783965,-0.02703129966279922,0.33361133902025814,-0.008785927109993484,-0.0030913049913053716,-0.0012460027255923089
1765408560.529906,-9.910830824001458,-0.024871691836847985,0.3359001280524417,-0.008759843207836534,-0.0028866506058488448,-0.0012250828904752024
1765408560.530845,-9.913450726582065,-0.022762112782453686,0.3382832663434904,-0.008730214709574219,-0.0026667100239112893,-0.0012046684239464664
1765408560.535923,-9.916281609498842,-0.02072995983659526,0.34066081540115656,-0.008700318909830248,-0.0024355115476187308,-0.001185431460179357
1765408560.537857,-9.919223802313459,-0.01879800763994465,0.3429294008823983,-0.008673542264644096,-0.0021979265033076874,-0.001168180588309339
1765408560.539901,-9.922178553466809,-0.016983975338356588,0.3449886674656343,-0.008653121484876135,-0.001959454609944369,-0.0011538758739295782
1765408560.542854,-9.925052848965974,-0.015300590936627067,0.34674669029449207,-0.008641888342993011,-0.0017259645356409174,-0.0011436109240574868
1765408560.543902,-9.92776355302276,-0.013756104265807019,0.34812412805912263,-0.008642048418328933,-0.0015034090997738528,-0.0011385676991100416
1765408560.547922,-9.930240714446997,-0.012355100833653104,0.34905708415517633,-0.008655017749924651,-0.0012975375337553404,-0.0011399564740414308
1765408560.548816,-9.932429892092959,-0.0110994341602657,0.349498742883698,-0.008681330655658325,-0.0011136247357306952,-0.0011489539395912044
1765408560.552869,-9.934293391318985,-0.009989125379977112,0.3494199003559062,-0.00872062274112009,-0.000956229916826555,-0.001166648941846672
1765408560.553883,-9.93581043418266,-0.009023136219405335,0.34880857890226524,-0.008771687601296234,-0.0008289896567676896,-0.00119400038128823
1765408560.555886,-9.936976460757856,-0.008199970128335295,0.3476689746180167,-0.008832601711468453,-0.0007344477303463042,-0.0012318067875253108
1765408560.56085,-9.93780183636421,-0.007518088319090871,0.346019966177751,-0.008900906985568969,-0.0006739260524023554,-0.0012806829041820294
1765408560.562864,-9.938310177256923,-0.006976140594378892,0.3438933171000378,-0.008973834882319478,-0.0006474448603401146,-0.0013410364951630615
1765408560.565833,-9.938536418128168,-0.0065729993800845415,0.341331614164528,-0.00904855195924368,-0.0006537029604320603,-0.0014130396678288615
1765408560.567843,-9.938524732163296,-0.006307574716926757,0.3383859612264755,-0.009122405122462601,-0.0006901280404121637,-0.0014965930696985434
1765408560.57088,-9.938326464251457,-0.006178435366045885,0.335113512450675,-0.00919314421443059,-0.0007530011980326237,-0.0015912864699601254
1765408560.572855,-9.937998282457066,-0.006183369446008924,0.3315750633709097,-0.009259099635242777,-0.0008376503186208534,-0.0016963634002718924
1765408560.574881,-9.937600730015461,-0.00631908910828228,0.3278330138529236,-0.009319295413005507,-0.000938697709338418,-0.0018106997888871147
1765408560.577851,-9.937197223750779,-0.00658122235234398,0.32394995045221886,-0.009373484920643315,-0.0010503413930635142,-0.001932806375716213
1765408560.580882,-9.93685333066999,-0.006964569417913817,0.31998790691874596,-0.009422105349590034,-0.0011666467653457687,-0.0020608611668274314
1765408560.582914,-9.936636002832657,-0.007463456384089535,0.3160082184464184,-0.009466155829936667,-0.001281825666719791,-0.002192771555986772
1765408560.585895,-9.936612464910397,-0.00807199713132195,0.31207185318769654,-0.009507013551090215,-0.001390484373228089,-0.002326259031083884
1765408560.586881,-9.936848586928352,-0.008784182129850744,0.308240110435022,-0.009546212750358574,-0.0014878307733629929,-0.0024589562144979827
1765408560.590877,-9.93740673614953,-0.009593861477540752,0.30457556276020736,-0.009585218614137357,-0.0015698414074128907,-0.0025885076060373144
1765408560.592814,-9.938343231285847,-0.010494757669930795,0.3011430770075014,-0.009625226881983839,-0.0016333965629149526,-0.002712670158831974
1765408560.59489,-9.93970559067508,-0.011480566581056752,0.2980106468502917,-0.009667010857696164,-0.001676392880076397,-0.0028294140260940164
1765408560.597842,-9.941529761026466,-0.012545051693885579,0.2952496297572403,-0.009710825823334475,-0.0016978386933919282,-0.0029370234660193394
1765408560.599794,-9.943837477523292,-0.013681962276623024,0.2929339379095835,-0.009756370997775763,-0.00169793238578671,-0.003034192199277233
1765408560.602817,-9.94663390898323,-0.014884696619437216,0.2911378957111257,-0.009802803120020478,-0.0016781221304566596,-0.003120101113869604
1765408560.603831,-9.94990579773724,-0.016145805020699212,0.289932789240526,-0.009848793844361808,-0.001641144742160562,-0.003194465471223825
1765408560.607858,-9.953620368359207,-0.01745651481867907,0.28938244183598844,-0.009892624156050784,-0.0015910373178570913,-0.0032575449014170046
1765408560.609855,-9.957725303346665,-0.018806379538239763,0.2895383479707126,-0.009932310241303078,-0.001533107307833551,-0.0033101173348750548
1765408560.612861,-9.962150024934576,-0.020183002368391975,0.2904349502648343,-0.00996575455243967,-0.0014738397578556305,-0.003353422435674669
1765408560.614801,-9.966808353319317,-0.021571736518390665,0.2920855604545436,-0.009990913155324134,-0.0014207204889416373,-0.0033890806081814623
1765408560.61788,-9.971602371044508,-0.022955380752720075,0.2944792603015226,-0.010005967190899658,-0.0013819619479708944,-0.00341899247054452
1765408560.620793,-9.976427101000123,-0.024314045387428696,0.29757895870989065,-0.010009484104108289,-0.001366130302021293,-0.0034452230253668326
1765408560.622829,-9.981175453533062,-0.02562539883905895,0.30132068409269763,-0.01000055462979946,-0.001381683799689988,-0.0034698762359318598
1765408560.624823,-9.985742823048769,-0.026865373855485118,0.30561415627806005,-0.009978894686290317,-0.001436443513017252,-0.0034949687387362716
1765408560.627863,-9.990030745132778,-0.028009216427662513,0.3103446610985226,-0.009944905918120951,-0.0015370302774422408,-0.0035223127841856757
1765408560.63086,-9.993949201356726,-0.029032659967907264,0.31537617732503714,-0.00989969242689982,-0.001688313807099307,-0.0035534163356914644
1765408560.632858,-9.997417462873324,-0.029913097596384896,0.3205555781445276,-0.009845032739107869,-0.0018929256943224372,-0.0035894045231452667
1765408560.634813,-10.00036371395701,-0.030630830721983082,0.3257176513796372,-0.009783305666642764,-0.0021508846792054237,-0.003630964295908005
1765408560.635849,-10.00272398228654,-0.03117058178162465,0.3306907439154398,-0.009717368662240251,-0.0024593735911260374,-0.003678314101065722
1765408560.640888,-10.004441021410834,-0.03152332097899139,0.3353029778872466,-0.00965038964787476,-0.0028126971884040275,-0.003731201343075014
1765408560.642903,-10.005463705539588,-0.03168813480594571,0.3393890612045257,-0.009585637875158067,-0.0032024393151220925,-0.0037889294843084786
1765408560.644789,-10.005747269430577,-0.03167358893408728,0.3427976407968182,-0.009526244638490935,-0.0036178235507342725,-0.00385041222928993
1765408560.647878,-10.00525446978546,-0.031498026214943006,0.3453989572491496,-0.009474950212765341,-0.004046262146281713,-0.0039142462130052
1765408560.649886,-10.003957553261474,-0.03118853813273817,0.3470923585282503,-0.009433859353214282,-0.00447405696787529,-0.00397879042779352
1765408560.652918,-10.001840827146546,-0.030778786769078633,0.34781311971331486,-0.009404232580134324,-0.004887200648097232,-0.004042243587155091
1765408560.654905,-9.99890359264716,-0.030306167278341956,0.34753800122571377,-0.00938634161370371,-0.0052722201961622256,-0.004102718941713968
1765408560.657831,-9.995163109947464,-0.029808837515424742,0.3462889659061057,-0.00937941301711889,-0.005617006244795016,-0.0041583240517042135
1765408560.658839,-9.990657091402577,-0.029322965239196124,0.3441344177165663,-0.009381674574224026,-0.005911574550237706,-0.004207253920958204
1765408560.662805,-9.985445094029537,-0.028880322653025814,0.34118731937478586,-0.00939050568465747,-0.006148710326534866,-0.00424789840830988
1765408560.665811,-9.979608256207378,-0.028506229126328556,0.3375997386568853,-0.009402678063565092,-0.0063244490765664825,-0.004278954171475492
1765408560.666311,-9.97324711318169,-0.028217864401853487,0.33355382482327617,-0.009414659270574402,-0.006438349397333564,-0.004299524129802289
1765408560.669875,-9.966477628662968,-0.028023100040348168,0.3292498599227426,-0.009422943298884724,-0.006493517470015999,-0.0043091878416608035
1765408560.672853,-9.959425948284135,-0.02792007383837787,0.32489266103123493,-0.009424372219806066,-0.006496355444795654,-0.004308034990173796
1765408560.673842,-9.952222574509989,-0.02789762747345989,0.32067797163517014,-0.009416418710954088,-0.006456030511696973,-0.004296666422789779
1765408560.677887,-9.944996638478974,-0.027936488126753492,0.3167804501008819,-0.009397406403555525,-0.006383698009271786,-0.004276173996423318
1765408560.679908,-9.937870796125912,-0.02801090274520994,0.31334450468831987,-0.009366650774045084,-0.0062915535177274886,-0.004248106867816253
1765408560.682818,-9.930957108148265,-0.02809047665695652,0.3104786456409932,-0.009324509673923044,-0.00619182065167612,-0.004214422387498144
1765408560.685881,-9.924354089656934,-0.028142159305212754,0.3082533410821795,-0.009272342462190162,-0.0060957891583973585,-0.004177414427320381
1765408560.687833,-9.91814494878541,-0.028132442958020146,0.30670180174338935,-0.00921238911268557,-0.006012999981047597,-0.004139616603998488
1765408560.689908,-9.91239693452762,-0.02802974716819525,0.3058228975939091,-0.00914759086286215,-0.005950639820369363,-0.004103688698280259
1765408560.692892,-9.907161662354172,-0.027806717438982657,0.3055854664739347,-0.009081378101749986,-0.005913169544255126,-0.004072302432241472
1765408560.694877,-9.902476183627492,-0.027441987694221914,0.3059333713224686,-0.009017449322715658,-0.00590217814984201,-0.004048041386834224
1765408560.697855,-9.898364442908683,-0.026921022612435765,0.3067907439784487,-0.008959559430910612,-0.005916433534323143,-0.00403332012442088
1765408560.699897,-9.894838783075446,-0.026235976403049043,0.30806703643762157,-0.00891132849407572,-0.00595209450783728,-0.004030316420863152
1765408560.702883,-9.891901327323302,-0.025384917216227643,0.30966174746621306,-0.008876074899230363,-0.00600305006667379,-0.00404090608953959
1765408560.70486,-9.889545218475455,-0.024371036085441198,0.31146882475591087,-0.008856672486946134,-0.006061354846397041,-0.004066595188662334
1765408560.707879,-9.88775573051235,-0.023202416275665567,0.3133807414566995,-0.008855432068004421,-0.006117731142645251,-0.004108454444740266
1765408560.709892,-9.886511256841809,-0.02189259500393576,0.3152922500895113,-0.008874013162121844,-0.006162109291936469,-0.004167067423208116
1765408560.712889,-9.885784196596058,-0.02046170929579687,0.31710386901722376,-0.008913377013809173,-0.00618418010301339,-0.004242503339016534
1765408560.715821,-9.885541797732937,-0.018937742443008675,0.3187252000312266,-0.008973790815296204,-0.006173933660501909,-0.004334319086765805
1765408560.716321,-9.885747066528571,-0.01735739605198317,0.32007821581224116,-0.0090548831226987,-0.006122157859383338,-0.004441587339921804
1765408560.719878,-9.886359884500564,-0.015766291205016797,0.32110067818475496,-0.00915573595501499,-0.006020870842288659,-0.004562942801311994
1765408560.722853,-9.887338380320411,-0.014218327297910133,0.32174970576498824,-0.009274989036961149,-0.005863668024103504,-0.004696639221044312
1765408560.725831,-9.888640377278282,-0.012774006267746605,0.3220051717726749,-0.009410932833156742,-0.0056459769690485094,-0.004840613588676225
1765408560.727809,-9.890224608569083,-0.011497503889337164,0.3218723683943087,-0.009561577887011589,-0.0053652284090194655,-0.004992556545791223
1765408560.729878,-9.89205158102551,-0.010452455849797756,0.3213834789785416,-0.009724700521513533,-0.005020963778100994,-0.005149987869158515
1765408560.732818,-9.89408431662026,-0.009696883554458224,0.3205976587956288,-0.009897872207798317,-0.00461490382915467,-0.005310334583269129
1765408560.733852,-9.896289316927218,-0.009278218505121213,0.3195995668268038,-0.010078480461388714,-0.004150996694145558,-0.0054710090761138684
1765408560.737851,-9.898637845801067,-0.00922963976701829,0.31849603621347106,-0.010263745714207531,-0.0036354495046198912,-0.005629486744805528
1765408560.740788,-9.90110725436633,-0.009568638292566068,0.31741055938269075,-0.010450735119966643,-0.003076732257480124,-0.005783386537609549
1765408560.742872,-9.903681827766462,-0.010297909099946802,0.31647550439762717,-0.01063637403230698,-0.0024855323135937937,-0.005930559644836418
1765408560.744898,-9.906352568622811,-0.01140776134272861,0.31582229640410486,-0.010817459821331385,-0.0018746341128315373,-0.006069187206510067
1765408560.74781,-9.90911550207341,-0.012878764684369097,0.31557016632558077,-0.010990687496058912,-0.0012586989162461735,-0.00619787764774741
1765408560.749842,-9.911968578976982,-0.014683590936466448,0.31581461203440664,-0.011152696999599906,-0.0006539214553502626,-0.0063157449754559294
1765408560.751862,-9.914907902797285,-0.016787754628148615,0.3166172401273112,-0.011300146117557268,-7.754514143337847e-05,-0.006422448526722341
1765408560.754858,-9.917924385570897,-0.01914969261215597,0.31799867369448837,-0.011429804430472357,0.0004527713743472745,-0.00651818298730624
1765408560.757877,-9.921001804915528,-0.02172094432514485,0.3199355923415405,-0.011538658134372323,0.0009197233694866172,-0.006603619211621514
1765408560.758932,-9.924116763931334,-0.0244470424856592,0.3223621368945209,-0.011624015163550265,0.0013072259056623253,-0.006679805817935897
1765408560.760913,-9.92724053853967,-0.027269313703471926,0.32517525011513676,-0.011683603622118876,0.001601313485921671,-0.0067480470644765336
1765408560.764851,-9.930342339524007,-0.030127399067006996,0.32824303548434,-0.011715661320108692,0.001790996464047673,-0.006809774456294194
1765408560.767879,-9.933393181549105,-0.03296210991829937,0.33141487929584046,-0.011719016665469446,0.0018689946117679656,-0.00686642835179352
1765408560.769833,-9.936369494235986,-0.035718224038716065,0.33453208556298386,-0.011693158463519211,0.0018322766260691712,-0.00691936315858308
1765408560.772843,-9.93925586087137,-0.03834685780053226,0.33743812428843417,-0.011638286573052553,0.0016823541585126896,-0.006969787081709573
1765408560.775857,-9.942046599416148,-0.040807013730325276,0.33998792883908413,-0.011555334090662476,0.0014253076829393188,-0.007018742893127287
1765408560.777897,-9.944746118983334,-0.04306589651569008,0.34205576775310237,-0.011445958366930827,0.001071549404820047,-0.007067126153168682
1765408560.779792,-9.947368172296501,-0.045097840552730466,0.34354129414715195,-0.01131250737993983,0.0006353467544833789,-0.00711572294148958
1765408560.782801,-9.949934358828568,-0.046882241583867966,0.3443736790035448,-0.01115797233693168,0.00013414105773881156,-0.007165238913824222
1765408560.785895,-9.952472334982316,-0.04840141077538363,0.34451406751431296,-0.010985935375452963,-0.0004122940755727924,-0.007216294880701868
1765408560.787842,-9.95501398960173,-0.049639325836716014,0.34395667118376594,-0.010800516106050553,-0.0009828031708605084,-0.0072693822914777755
1765408560.789834,-9.957593496250098,-0.050581721841779996,0.3427286670855663,-0.010606314739475856,-0.001555857805354463,-0.007324794303082776
1765408560.792817,-9.96024491715987,-0.05121721938517435,0.3408888920941487,-0.010408343242826364,-0.002110579406685284,-0.007382559328549772
1765408560.793785,-9.962998975096797,-0.05153877366078718,0.338525119815405,-0.010211931051589407,-0.002627732573951971,-0.007442398117285476
1765408560.797822,-9.96587871396814,-0.05154486399353331,0.33574956830161656,-0.01002259074951607,-0.0030906402109829503,-0.007503711306467619
1765408560.800836,-9.968894094964844,-0.05124026645541673,0.33269244993480257,-0.009845832976800788,-0.0034859661098079454,-0.0075655954694430596
1765408560.802799,-9.97203608590311,-0.05063652820251576,0.329493898323647,-0.009686929269455358,-0.003804311417869594,-0.007626886409776966
1765408560.805841,-9.975271246407965,-0.04975220756937224,0.32629516755254534,-0.009550636250687779,-0.004040581738141943,-0.0076862320355928155
1765408560.807843,-9.97853794806908,-0.04861273538640656,0.3232302311889271,-0.009440910188438033,-0.004194101813766764,-0.007742194425899669
1765408560.810842,-9.981745168281437,-0.04724968097623055,0.32041872726766246,-0.009360650113741396,-0.0042684812267701055,-0.007793369935958813
1765408560.812797,-9.984774364647613,-0.04569939443149127,0.3179607250209832,-0.009311506303652121,-0.004271258357093731,-0.007838505401085704
1765408560.814865,-9.987484405163961,-0.04400132838786903,0.3159332303251423,-0.009293780350937563,-0.0042133624324680605,-0.007876587589342593
1765408560.815833,-9.989719063442283,-0.04219655853240268,0.3143879719545604,-0.009306427436978472,-0.004108434549478748,-0.007906894069097095
1765408560.819833,-9.991316307921208,-0.04032690832315372,0.3133500059206371,-0.009347155530621959,-0.003972044817771116,-0.007929009797314408
1765408560.820812,-9.992118480659133,-0.0384346778624843,0.31281690555646413,-0.009412604333839178,-0.0038208402907103276,-0.007942825448480734
1765408560.825785,-9.991982406108464,-0.03656259392132789,0.3127584891102073,-0.00949858089137727,-0.0036716591271095324,-0.007948534530084601
1765408560.827881,-9.990788577340767,-0.03475355046159377,0.31311715340106494,-0.009600328048365877,-0.0035406497188282646,-0.007946637474769196
1765408560.829894,-9.98844891235589,-0.03304999903437265,0.31380909707099847,-0.009712804238410287,-0.003442436262576869,-0.007937949701930824
1765408560.832879,-9.984912962524433,-0.03149318837561677,0.3147269674784947,-0.00983095639231104,-0.0033893707293064165,-0.00792360557609508
1765408560.834868,-9.980172592707884,-0.030122558826312915,0.31574448647587333,-0.009949970731330296,-0.003390904458482378,-0.007905053744391568
1765408560.837905,-9.97426502286087,-0.028975415920145447,0.3167233312890979,-0.010065488287754162,-0.0034531036122137735,-0.007884045886861778
1765408560.839946,-9.967273960711521,-0.028086709571032285,0.31752213414010916,-0.010173773434753645,-0.0035783256864417613,-0.0078626218432134
1765408560.84287,-9.959328514533095,-0.02748857114381807,0.3180070385866586,-0.010271825802693448,-0.003765071354924078,-0.007843086861833094
1765408560.845836,-9.950599652981083,-0.02720934316241958,0.3180628544532394,-0.010357430412235975,-0.004008026044558771,-0.007827968205036284
