time,acc_x_g,acc_y_g,acc_z_g,gyro_x_rad_s,gyro_y_rad_s,gyro_z_rad_s
1765408560.299204,-4.212099,-1.653515,-8.590983,-0.006414,-0.006414,0.001222
1765408560.299404,-4.270683,-1.659493,-8.524628,-0.007941,-0.007483,0.000305
1765408560.299604,-4.301769,-1.633190,-8.557508,-0.008094,-0.008399,-0.001680
1765408560.299804,-4.262314,-1.623625,-8.622667,-0.007178,-0.006567,-0.001527
1765408560.299928,-4.204926,-1.614060,-8.623863,-0.009163,-0.007178,-0.002291
1765408560.300178,-4.276661,-1.669058,-8.720706,-0.008247,-0.005956,0.000458
1765408560.300428,-4.475131,-1.636777,-8.828311,-0.009316,-0.011148,0.001680
1765408560.300678,-4.793160,-1.493902,-8.684838,-0.008858,-0.003512,0.002443
1765408560.300893,-4.961740,-1.386896,-8.464251,-0.011148,-0.003512,0.003512
1765408560.301143,-4.961740,-1.386896,-8.464251,-0.011148,-0.004887,0.003512
1765408560.301393,-4.646102,-1.568627,-8.515063,-0.015272,-0.015119,0.011148
1765408560.301643,-4.462577,-2.057628,-8.781682,-0.014203,-0.021533,0.020922
1765408560.301882,-4.600669,-2.223218,-8.647776,-0.009468,-0.021228,0.020006
1765408560.302132,-4.890004,-1.808943,-8.311811,-0.004429,-0.012217,0.019090
1765408560.302382,-4.890004,-1.808943,-8.311811,-0.004429,-0.010996,0.019090
1765408560.302632,-4.941415,-1.961980,-8.248445,-0.004429,-0.018173,0.037415
1765408560.302908,-4.946198,-2.101267,-8.250835,-0.003512,-0.029932,0.041692
1765408560.303108,-5.044834,-2.225609,-8.212577,-0.001985,-0.026573,0.048869
1765408560.303308,-4.790769,-2.579507,-7.869440,0.004276,-0.026573,0.058490
1765408560.303508,-5.139884,-2.075562,-8.507890,0.016035,-0.015119,0.057421
1765408560.303708,-5.290530,-2.005021,-7.721185,0.013592,-0.039401,0.062003
1765408560.303963,-4.967718,-2.186155,-8.280725,0.011606,-0.038943,0.077885
1765408560.304213,-4.503825,-2.502989,-8.633428,0.010843,-0.043219,0.087201
1765408560.304463,-4.978478,-1.782640,-7.888569,0.016799,-0.053298,0.090103
1765408560.304713,-5.310855,-2.184361,-7.772596,0.006872,-0.049633,0.104305
1765408560.304862,-5.205045,-2.533477,-8.140244,0.003360,-0.056505,0.112552
1765408560.305112,-4.997608,-2.969871,-8.524628,0.003360,-0.064446,0.115606
1765408560.305362,-5.228359,-2.682926,-8.327353,0.003971,-0.060170,0.116370
1765408560.305612,-5.426829,-2.686513,-7.883787,0.003971,-0.063377,0.116370
1765408560.307446,-5.524868,-2.741511,-7.944762,0.013897,-0.072998,0.128587
1765408560.307696,-5.571496,-2.473099,-7.722380,0.008399,-0.075289,0.133779
1765408560.307946,-5.411884,-2.550215,-7.894547,0.009927,-0.080023,0.148135
1765408560.308196,-5.411884,-2.550215,-7.894547,0.009927,-0.088728,0.148135
1765408560.307491,-5.648015,-2.474892,-7.666188,0.009621,-0.100487,0.163865
1765408560.307824,-5.486609,-2.517934,-8.094213,0.011301,-0.104153,0.179136
1765408560.308158,-5.289933,-2.449784,-8.449306,0.010385,-0.118202,0.189216
1765408560.307869,-5.328192,-2.496413,-8.152797,0.005345,-0.125838,0.198684
1765408560.308119,-5.381396,-2.541846,-8.165948,0.009468,-0.127671,0.209374
1765408560.308369,-5.389765,-2.346963,-7.899329,0.006567,-0.131183,0.215635
1765408560.308619,-5.414275,-2.505978,-7.949545,0.009774,-0.137292,0.224951
1765408560.308855,-5.494978,-2.485652,-8.028454,0.012828,-0.171195,0.228464
1765408560.309105,-5.351506,-2.415112,-8.213174,0.010843,-0.171195,0.232892
1765408560.309355,-5.432806,-2.225609,-7.892156,0.011301,-0.180969,0.236252
1765408560.309605,-5.320420,-2.234576,-8.177904,0.010996,-0.181732,0.244041
1765408560.309914,-5.248684,-2.248924,-8.162361,0.012828,-0.200669,0.254120
1765408560.310164,-5.277379,-2.278814,-8.462457,0.009468,-0.214261,0.260381
1765408560.310414,-5.581659,-2.089909,-7.905905,0.011454,-0.226020,0.271835
1765408560.310664,-5.509326,-2.183764,-8.094213,0.014966,-0.230907,0.280693
1765408560.310908,-5.388569,-2.049258,-8.295074,0.007789,-0.241903,0.284358
1765408560.311158,-5.254662,-2.244739,-8.420611,0.010843,-0.253051,0.296575
1765408560.311408,-5.170970,-2.382831,-8.246054,0.012828,-0.270155,0.304822
1765408560.311658,-5.450740,-2.400167,-8.122907,0.008247,-0.273362,0.304211
1765408560.311942,-5.378407,-2.201100,-8.045193,0.003971,-0.288176,0.305280
1765408560.312275,-5.142275,-2.196317,-8.448110,0.011606,-0.302836,0.316275
1765408560.312609,-5.081300,-2.140124,-9.038736,0.001069,-0.322537,0.316886
1765408560.312905,-5.053802,-1.916547,-8.369200,0.003054,-0.322690,0.329562
1765408560.313155,-5.108201,-2.361908,-8.726685,0.002291,-0.337198,0.338572
1765408560.313405,-5.656384,-2.173601,-7.543041,0.002749,-0.348040,0.336129
1765408560.313655,-5.535628,-2.333811,-8.153993,0.000000,-0.353080,0.341016
1765408560.313937,-6.087995,-1.549498,-7.656024,0.005498,-0.378278,0.341932
1765408560.314187,-5.394547,-1.905189,-8.852222,0.000764,-0.374766,0.363923
1765408560.314437,-5.491391,-1.575801,-7.896938,-0.011759,-0.406531,0.363007
1765408560.314687,-5.319225,-2.372071,-8.353658,-0.014203,-0.402560,0.376140
1765408560.314901,-5.222979,-2.687111,-8.275944,-0.018479,-0.432340,0.368963
1765408560.315151,-5.121353,-2.667982,-8.534193,-0.007330,-0.432340,0.370184
1765408560.315401,-5.159014,-2.189741,-8.797225,-0.008399,-0.465021,0.368199
1765408560.315651,-5.286943,-2.082735,-8.309421,-0.014813,-0.462730,0.375377
1765408560.315899,-5.172763,-2.135342,-8.813365,-0.024893,-0.473421,0.374460
1765408560.316232,-5.736489,-1.993065,-7.436632,-0.021533,-0.480598,0.382860
1765408560.316566,-5.336561,-2.491033,-8.681252,-0.024740,-0.477544,0.394161
1765408560.316936,-6.068866,-2.082735,-7.240554,-0.030391,-0.507476,0.383165
1765408560.317186,-5.854854,-2.521520,-7.871830,-0.021991,-0.528857,0.399964
1765408560.317436,-5.532639,-2.167623,-8.309421,-0.021686,-0.528857,0.396604
1765408560.317686,-5.514107,-2.513151,-8.613103,-0.031307,-0.531758,0.402713
1765408560.317915,-5.223577,-2.580105,-8.362027,-0.025962,-0.550390,0.398131
1765408560.318165,-5.350310,-2.779770,-8.197034,-0.025045,-0.548404,0.401644
1765408560.318415,-5.775944,-2.321855,-7.961501,-0.013439,-0.574824,0.396452
1765408560.318665,-6.501075,-2.280009,-7.082137,-0.017715,-0.574824,0.407447
1765408560.318913,-6.501075,-2.280009,-7.082137,-0.017715,-0.582460,0.407447
1765408560.319246,-6.395265,-2.005619,-7.149688,-0.029474,-0.608727,0.409280
1765408560.319580,-5.553562,-2.225012,-8.263390,-0.019853,-0.614378,0.425773
1765408560.319884,-5.234935,-2.204686,-8.570659,-0.025504,-0.652709,0.428522
1765408560.320134,-5.784313,-2.357723,-8.020683,-0.032834,-0.652709,0.429286
1765408560.320384,-5.784313,-2.357723,-8.020683,-0.032834,-0.662636,0.429286
1765408560.320634,-5.621114,-2.208273,-7.700860,-0.046120,-0.667676,0.447917
1765408560.320917,-5.309659,-2.113821,-8.778095,-0.041081,-0.689820,0.453415
1765408560.321167,-6.562649,-2.027738,-6.776661,-0.061239,-0.716087,0.454942
1765408560.321417,-7.051649,-2.063606,-7.127569,-0.046731,-0.717156,0.471588
1765408560.321667,-6.786225,-2.351148,-7.372070,-0.063225,-0.737925,0.469450
1765408560.321911,-6.003108,-1.712099,-8.611907,-0.054672,-0.769690,0.477391
1765408560.322244,-5.949306,-2.569345,-8.377569,-0.069791,-0.769690,0.485332
1765408560.322578,-6.035389,-3.241869,-8.381156,-0.064294,-0.783435,0.482736
1765408560.322844,-6.533954,-3.199426,-7.807268,-0.071319,-0.790307,0.465479
1765408560.323094,-6.673840,-2.874222,-7.274629,-0.058338,-0.775493,0.465937
1765408560.323344,-6.209947,-2.774988,-8.782280,-0.052993,-0.790307,0.466090
1765408560.323594,-5.672524,-2.490435,-8.407459,-0.061239,-0.798706,0.458760
1765408560.323911,-5.616929,-2.309301,-9.344810,-0.056658,-0.800539,0.474795
1765408560.324244,-6.079626,-2.541248,-8.738641,-0.050855,-0.814131,0.481515
1765408560.324578,-6.459827,-1.951817,-7.417502,-0.054825,-0.808938,0.483194
1765408560.324906,-6.203969,-2.723577,-7.575920,-0.067959,-0.813672,0.497092
1765408560.325156,-6.406025,-2.213056,-8.075681,-0.066126,-0.833067,0.494801
1765408560.325406,-6.406025,-2.213056,-8.075681,-0.066126,-0.858724,0.494801
1765408560.325656,-5.734695,-2.307508,-8.850429,-0.074067,-0.859335,0.508545
1765408560.325906,-6.915350,-2.624342,-7.831778,-0.068570,-0.866512,0.515723
1765408560.326239,-7.538259,-2.022955,-7.068388,-0.074373,-0.871552,0.510836
1765408560.326573,-6.798182,-2.349354,-7.693089,-0.090408,-0.861167,0.524733
1765408560.326909,-6.198589,-2.350550,-8.628048,-0.083383,-0.918283,0.524733
1765408560.327159,-5.922405,-2.262075,-8.437947,-0.107970,-0.934777,0.536492
1765408560.327409,-6.373744,-2.417503,-8.672883,-0.094990,-0.933249,0.549931
1765408560.327659,-6.865733,-2.842539,-8.118124,-0.107665,-0.939053,0.547946
1765408560.327892,-6.315159,-3.257412,-8.304638,-0.111636,-0.918894,0.548862
1765408560.328142,-5.652797,-3.220947,-9.380678,-0.102625,-0.920574,0.542296
1765408560.328392,-5.533237,-2.973457,-8.558105,-0.108429,-0.952644,0.530689
1765408560.328642,-5.875777,-2.505380,-8.639406,-0.111636,-0.958448,0.530231
1765408560.328844,-6.568029,-2.464132,-7.904710,-0.120035,-0.951881,0.530231
1765408560.329177,-7.216044,-2.490435,-7.642275,-0.128434,-0.961807,0.519846
1765408560.329511,-7.366092,-2.166427,-6.826876,-0.111330,-0.943329,0.530384
1765408560.329873,-6.414992,-2.568149,-7.963892,-0.105222,-0.955241,0.544586
1765408560.330123,-6.755738,-1.857962,-7.685317,-0.097433,-0.986089,0.541379
1765408560.330373,-6.914155,-2.100669,-7.813844,-0.112857,-0.980133,0.550390
1765408560.330623,-6.734815,-2.704447,-7.923242,-0.093004,-1.005484,0.558484
1765408560.330827,-6.920731,-2.517934,-7.199306,-0.105985,-1.003652,0.554666
1765408560.331160,-6.282878,-2.554997,-8.620276,-0.087965,-1.024116,0.563370
1765408560.331494,-5.686274,-1.859158,-8.871950,-0.094684,-1.038013,0.567952
1765408560.331953,-5.815997,-2.106647,-8.387732,-0.100335,-1.078330,0.577268
1765408560.332203,-6.771878,-2.196915,-7.215446,-0.118202,-1.088104,0.579864
1765408560.332453,-7.327235,-2.240555,-7.922046,-0.112246,-1.098488,0.587500
1765408560.332703,-6.810138,-2.284194,-9.146938,-0.124922,-1.105361,0.593303
1765408560.332886,-6.629004,-2.564562,-8.387135,-0.116217,-1.118341,0.599870
1765408560.333219,-6.316355,-2.782161,-8.941893,-0.131031,-1.093449,0.595899
1765408560.333553,-5.795073,-2.912482,-8.782878,-0.140499,-1.098336,0.589638
1765408560.333937,-5.536226,-3.412840,-8.775106,-0.128129,-1.098336,0.595288
1765408560.334187,-6.759923,-2.618962,-9.186991,-0.121562,-1.120480,0.576504
1765408560.334437,-7.446197,-1.758728,-7.258488,-0.105985,-1.110706,0.580322
1765408560.334687,-6.798182,-1.504065,-7.587278,-0.121868,-1.086576,0.580780
1765408560.334909,-6.676829,-0.921808,-7.575322,-0.118355,-1.111011,0.584903
1765408560.335242,-6.035389,-1.469392,-8.926350,-0.147829,-1.101696,0.600939
1765408560.335576,-6.160927,-1.520803,-9.250358,-0.150120,-1.141096,0.604909
1765408560.335884,-6.575800,-1.826877,-8.124102,-0.168904,-1.133919,0.600328
1765408560.336134,-6.835245,-1.583572,-7.381036,-0.168904,-1.126283,0.600328
1765408560.336384,-7.325442,-1.559062,-7.435437,-0.182649,-1.129184,0.603840
1765408560.336634,-7.384026,-1.938068,-7.442013,-0.185856,-1.148732,0.607964
1765408560.336936,-7.268053,-2.183764,-7.718794,-0.193033,-1.175305,0.603077
1765408560.337269,-8.246054,-2.412123,-6.752151,-0.210138,-1.189965,0.597273
1765408560.337603,-9.075800,-2.280009,-6.596126,-0.217773,-1.187217,0.593761
1765408560.337834,-7.662601,-2.834170,-8.035628,-0.208458,-1.181413,0.593761
1765408560.338084,-5.667742,-2.648852,-8.094213,-0.156840,-1.205390,0.595135
1765408560.338334,-6.013868,-2.259684,-8.241869,-0.149967,-1.226617,0.585514
1765408560.338584,-6.559062,-1.299617,-8.069104,-0.139888,-1.229214,0.583834
1765408560.338872,-5.074724,-1.988881,-9.628167,-0.134849,-1.221272,0.598648
1765408560.339205,-5.582855,-1.898613,-9.821855,-0.117592,-1.240057,0.589180
1765408560.339539,-7.004423,-1.270923,-7.876613,-0.151647,-1.240057,0.572228
1765408560.339875,-5.851865,-1.128646,-8.225728,-0.155618,-1.227381,0.576046
1765408560.340125,-5.259444,-0.399330,-9.021997,-0.168752,-1.246012,0.579253
1765408560.340375,-6.381515,-0.407102,-8.568866,-0.188299,-1.254717,0.582155
1765408560.340625,-6.723457,-0.505141,-8.158774,-0.211512,-1.246012,0.598190
1765408560.340854,-6.773074,-0.900885,-8.325561,-0.228005,-1.243722,0.600175
1765408560.341187,-6.657699,-0.614538,-7.966283,-0.226020,-1.252732,0.601702
1765408560.341521,-7.223815,-1.315160,-7.076756,-0.213497,-1.264033,0.620486
1765408560.341887,-7.191535,-1.743185,-8.223935,-0.217773,-1.264033,0.616516
1765408560.342137,-7.519128,-1.154950,-6.505858,-0.217773,-1.286635,0.618807
1765408560.342387,-8.907221,-1.176470,-7.119200,-0.209374,-1.286177,0.640950
1765408560.342637,-8.907221,-1.176470,-7.119200,-0.209374,-1.318247,0.640950
1765408560.342808,-7.496412,-0.982783,-7.193926,-0.223577,-1.320996,0.630108
1765408560.343141,-5.646221,-2.419297,-8.437349,-0.241139,-1.320996,0.635147
1765408560.343475,-4.667623,-2.272836,-10.119559,-0.221439,-1.321912,0.620181
1765408560.343838,-6.060497,-1.738402,-9.048302,-0.254425,-1.348485,0.592692
1765408560.344088,-7.712218,-0.584051,-7.693686,-0.273668,-1.330770,0.590096
1765408560.344338,-6.783237,-1.145385,-7.482065,-0.268628,-1.327868,0.593761
1765408560.344588,-7.123385,-0.948111,-7.904111,-0.235947,-1.321912,0.600633
1765408560.344895,-6.351625,-1.455045,-8.766737,-0.243583,-1.306488,0.603993
1765408560.345228,-6.304399,-1.396461,-7.733141,-0.223577,-1.348332,0.603993
1765408560.345562,-8.057149,-1.472979,-6.755140,-0.223119,-1.348332,0.598953
1765408560.345934,-8.845647,-1.111908,-6.423958,-0.227547,-1.347263,0.594066
1765408560.346184,-6.895026,-1.539335,-7.850309,-0.244652,-1.337031,0.601550
1765408560.346434,-6.267335,-1.566236,-7.870037,-0.231365,-1.339475,0.607047
1765408560.346684,-7.410329,-1.504065,-7.495217,-0.250607,-1.358259,0.596968
1765408560.346900,-7.690099,-1.042563,-6.353418,-0.269392,-1.384984,0.589485
1765408560.347233,-8.046389,-0.555954,-6.308584,-0.252593,-1.403005,0.597884
1765408560.347567,-6.651721,-0.909852,-8.807985,-0.247553,-1.382388,0.608116
1765408560.347903,-6.722859,-0.619321,-9.059061,-0.261450,-1.404227,0.592234
1765408560.348153,-6.098756,-0.273195,-8.110353,-0.269239,-1.385900,0.594219
1765408560.348403,-5.809421,-0.628288,-9.418339,-0.273820,-1.385900,0.605826
1765408560.348653,-5.809421,-0.628288,-9.418339,-0.273820,-1.417207,0.605826
1765408560.348898,-6.085006,-1.122071,-7.820420,-0.295506,-1.382235,0.589790
1765408560.349231,-5.697034,-0.740076,-8.916785,-0.286649,-1.382235,0.589638
1765408560.349565,-5.532042,-0.573290,-9.643710,-0.329715,-1.369865,0.591623
1765408560.349905,-6.612266,-1.183644,-8.403873,-0.346055,-1.374905,0.583682
1765408560.350155,-6.306192,-0.948709,-7.080941,-0.286954,-1.378723,0.602924
1765408560.350405,-6.525585,-1.873505,-7.291965,-0.277486,-1.420109,0.596052
1765408560.350655,-8.101984,-0.906265,-5.509326,-0.259007,-1.419040,0.576657
1765408560.350892,-9.030367,-1.080822,-6.212337,-0.242514,-1.400409,0.581238
1765408560.351225,-7.663796,-1.104735,-6.146580,-0.256869,-1.443475,0.567341
1765408560.351559,-7.367886,-0.483620,-7.009803,-0.269392,-1.429119,0.548862
1765408560.351898,-7.425872,0.521282,-7.661405,-0.275348,-1.446682,0.552528
1765408560.352148,-7.771400,0.080105,-6.049736,-0.295201,-1.460884,0.569021
1765408560.352398,-6.221902,-0.796270,-8.580822,-0.325897,-1.437977,0.564439
1765408560.352648,-6.062888,0.210426,-8.483978,-0.302378,-1.475087,0.561232
1765408560.352887,-5.942132,-1.311573,-9.069821,-0.294284,-1.501354,0.567952
1765408560.353220,-7.736130,0.084888,-7.247727,-0.308487,-1.523345,0.542143
1765408560.353554,-7.625537,-1.040770,-6.458632,-0.324522,-1.484403,0.546419
1765408560.353907,-6.506456,-0.932568,-8.489956,-0.308945,-1.483181,0.542143
1765408560.354157,-6.675633,-1.679220,-8.708751,-0.313832,-1.505325,0.526719
1765408560.354407,-7.748684,-0.199665,-6.785628,-0.307418,-1.501965,0.520457
1765408560.354657,-8.523433,-1.087398,-5.722740,-0.347582,-1.443016,0.514807
1765408560.354878,-7.604614,-0.264228,-6.207555,-0.320704,-1.443016,0.504269
1765408560.355211,-7.812050,0.565519,-7.385819,-0.313985,-1.427439,0.512669
1765408560.355545,-7.232185,-0.170971,-7.037302,-0.290619,-1.476461,0.521679
1765408560.355901,-8.428981,-0.260641,-5.807627,-0.304822,-1.456761,0.505491
1765408560.356151,-7.397775,-0.245098,-7.282998,-0.305433,-1.436755,0.509462
1765408560.356401,-5.000000,-0.443568,-9.292204,-0.290772,-1.457372,0.500146
1765408560.356651,-5.147058,0.382592,-9.078191,-0.326507,-1.470047,0.492052
1765408560.356911,-6.230272,0.515304,-6.849593,-0.339336,-1.479516,0.501979
1765408560.357244,-6.230272,0.515304,-6.849593,-0.339336,-1.474629,0.501979
1765408560.357578,-6.756336,-0.873386,-6.957197,-0.343154,-1.480127,0.478918
1765408560.357882,-6.489120,-1.427546,-7.083332,-0.344223,-1.493718,0.473421
1765408560.358132,-6.566833,-0.839311,-8.199425,-0.309403,-1.496467,0.459676
1765408560.358382,-7.094690,-0.951698,-6.506456,-0.337961,-1.518916,0.428522
1765408560.358632,-7.482065,0.954089,-6.634385,-0.308792,-1.492649,0.432645
1765408560.358923,-6.151960,0.706002,-8.255020,-0.324522,-1.518306,0.446084
1765408560.359173,-5.157221,0.558345,-8.201816,-0.376446,-1.518306,0.426842
1765408560.359423,-5.073529,-0.130320,-8.374580,-0.396604,-1.491427,0.416457
1765408560.359673,-6.334887,0.071138,-7.899329,-0.323300,-1.492649,0.424857
1765408560.359904,-6.407221,-0.401722,-7.956718,-0.327882,-1.503797,0.398437
1765408560.360237,-6.820898,0.430416,-6.208751,-0.315206,-1.479821,0.382096
1765408560.360571,-6.364179,0.214012,-6.970946,-0.302073,-1.460884,0.404698
1765408560.360881,-5.607364,-0.000598,-7.117407,-0.302073,-1.513724,0.404698
1765408560.361131,-6.089788,0.741272,-7.419894,-0.332005,-1.472491,0.377209
1765408560.361381,-5.786704,0.205045,-8.403873,-0.330020,-1.505172,0.398895
1765408560.361631,-6.179459,-0.926590,-6.388091,-0.327424,-1.512350,0.385761
1765408560.361919,-6.609277,0.247489,-5.810616,-0.337198,-1.492344,0.365145
1765408560.362252,-6.609277,0.247489,-5.810616,-0.337198,-1.508990,0.365145
1765408560.362586,-6.382113,0.493185,-7.564561,-0.331242,-1.549918,0.378584
1765408560.362866,-7.793519,0.109995,-6.823289,-0.350178,-1.549918,0.360563
1765408560.363116,-8.436154,1.178862,-6.561453,-0.335060,-1.518306,0.348804
1765408560.363366,-8.006336,0.776542,-6.100549,-0.355829,-1.522276,0.363923
1765408560.363616,-7.120994,-0.399330,-6.681014,-0.403477,-1.519833,0.366825
1765408560.363854,-5.514705,-0.564921,-8.116331,-0.382860,-1.511433,0.335976
1765408560.364104,-6.449067,-0.248087,-6.706121,-0.337961,-1.511433,0.339030
1765408560.364354,-7.119798,-1.390483,-6.634385,-0.319635,-1.507157,0.334907
1765408560.364604,-7.528096,-0.279770,-6.035986,-0.314290,-1.478905,0.308792
1765408560.364845,-8.883308,0.062769,-4.715446,-0.307113,-1.466993,0.306043
1765408560.365178,-8.883308,0.062769,-4.715446,-0.307113,-1.494940,0.306043
1765408560.365512,-9.264107,-0.104017,-4.768651,-0.314443,-1.471880,0.295201
1765408560.365896,-9.685556,-0.625299,-4.861310,-0.335212,-1.481959,0.279776
1765408560.366146,-8.744618,-0.642635,-5.331181,-0.318413,-1.503492,0.275500
1765408560.366396,-9.321496,-0.074127,-5.282161,-0.321926,-1.503492,0.260687
1765408560.366646,-9.858918,1.544715,-3.654351,-0.308945,-1.529607,0.247859
1765408560.366897,-10.038258,1.169895,-3.576040,-0.326966,-1.498605,0.263741
1765408560.367147,-8.903633,0.137494,-5.375418,-0.317039,-1.488373,0.265879
1765408560.367397,-8.326159,0.447752,-6.073648,-0.315512,-1.508837,0.251371
1765408560.367647,-9.817670,0.258250,-4.863701,-0.356898,-1.538464,0.234572
1765408560.367888,-9.817670,0.258250,-4.863701,-0.356898,-1.541366,0.234572
1765408560.368221,-9.719630,0.555954,-4.537302,-0.315054,-1.533577,0.231365
1765408560.368555,-7.868244,0.523075,-6.965566,-0.299324,-1.500132,0.239459
1765408560.368884,-7.314681,-0.024510,-6.945240,-0.281303,-1.527469,0.241444
1765408560.369134,-8.275346,-0.100430,-6.043758,-0.255494,-1.527469,0.243430
1765408560.369384,-8.275346,-0.100430,-6.043758,-0.255494,-1.513571,0.243430
1765408560.369634,-6.605690,-0.086083,-6.394069,-0.253814,-1.499674,0.201586
1765408560.369886,-7.110234,1.406026,-6.512433,-0.263283,-1.499674,0.193950
1765408560.370219,-7.058823,1.145385,-7.005021,-0.267559,-1.506241,0.216552
1765408560.370553,-8.155188,1.488522,-5.619320,-0.293826,-1.511891,0.212887
1765408560.370823,-9.035150,0.321616,-4.893591,-0.287107,-1.480737,0.218537
1765408560.371073,-8.290291,-1.009684,-5.463295,-0.282220,-1.472491,0.213497
1765408560.371323,-7.931013,-0.757413,-5.598995,-0.285274,-1.505325,0.175013
1765408560.371573,-7.931013,-0.757413,-5.598995,-0.285274,-1.505019,0.175013
1765408560.371877,-8.142036,0.676112,-4.519368,-0.271224,-1.504408,0.175624
1765408560.372127,-8.083451,1.036585,-4.949186,-0.308334,-1.518611,0.165544
1765408560.372377,-7.987206,0.499761,-5.310257,-0.301462,-1.517237,0.174860
1765408560.372627,-8.307029,-1.152558,-4.397417,-0.238237,-1.552056,0.197615
1765408560.372801,-8.750597,-1.361191,-5.199665,-0.238237,-1.552514,0.197615
1765408560.373134,-8.252031,-0.093257,-4.128407,-0.196088,-1.523192,0.127824
1765408560.373468,-7.565757,0.359876,-6.055117,-0.185398,-1.519527,0.144011
1765408560.373830,-7.065997,0.722142,-7.217838,-0.187688,-1.569160,0.129045
1765408560.374080,-7.216642,1.086800,-6.305594,-0.214414,-1.549765,0.109039
1765408560.374330,-7.795312,0.692252,-5.145863,-0.233503,-1.509143,0.127060
1765408560.374580,-6.745576,0.691057,-6.903394,-0.212123,-1.485472,0.130114
1765408560.374839,-7.911883,0.695839,-5.303682,-0.229991,-1.515557,0.112705
1765408560.375089,-10.109396,0.826160,-2.354136,-0.217621,-1.468062,0.107818
1765408560.375339,-9.019607,0.587040,-3.831898,-0.212276,-1.468062,0.111177
1765408560.375589,-9.085364,0.309063,-4.074007,-0.220522,-1.489900,0.099724
1765408560.375858,-7.917264,0.577475,-5.789095,-0.187994,-1.489290,0.104763
1765408560.376108,-7.630320,-0.224773,-4.725011,-0.213345,-1.522429,0.095753
1765408560.376358,-7.381036,0.224773,-5.875178,-0.217468,-1.489900,0.083689
1765408560.376608,-6.762314,0.156624,-5.530248,-0.209527,-1.489900,0.072388
1765408560.376799,-7.755857,0.576279,-5.087876,-0.163406,-1.497994,0.080481
1765408560.377132,-7.390004,0.413678,-5.866809,-0.146455,-1.515251,0.069333
1765408560.377466,-8.157578,1.526781,-3.784074,-0.136987,-1.510059,0.047495
1765408560.377817,-7.929220,1.194404,-5.343136,-0.138819,-1.500438,0.059559
1765408560.378067,-8.134265,0.905667,-5.712577,-0.144317,-1.516778,0.051924
1765408560.378317,-6.846604,0.394548,-6.150765,-0.151647,-1.489595,0.032681
1765408560.378567,-8.375177,1.214132,-4.421329,-0.154702,-1.484708,0.027947
1765408560.378936,-8.463653,0.533835,-4.799736,-0.162490,-1.484708,0.020769
1765408560.379186,-8.413438,0.570301,-4.686752,-0.158367,-1.526552,-0.001527
1765408560.379436,-7.484457,-0.225968,-4.986848,-0.143553,-1.483792,-0.003207
1765408560.379686,-8.730869,0.964849,-4.800334,-0.124158,-1.509601,-0.026878
1765408560.379844,-10.064561,0.457915,-2.617169,-0.128740,-1.479974,-0.023213
1765408560.380094,-9.489478,0.711382,-3.396700,-0.097738,-1.474323,-0.023366
1765408560.380344,-10.104015,0.906265,-2.977044,-0.115301,-1.476309,-0.036805
1765408560.380594,-9.938425,0.329388,-2.718794,-0.129962,-1.450194,-0.043371
1765408560.380840,-9.177425,0.417862,-3.745815,-0.136987,-1.465160,-0.060781
1765408560.381090,-8.377569,2.073170,-4.757293,-0.121104,-1.452790,-0.080787
1765408560.381340,-8.859396,2.369679,-3.048780,-0.093310,-1.452790,-0.048106
1765408560.381590,-7.726565,0.465088,-4.086561,-0.078038,-1.468673,-0.026878
1765408560.381844,-7.046866,1.300813,-4.872070,-0.073609,-1.497536,-0.053756
1765408560.382177,-7.719391,0.667145,-5.166188,-0.051313,-1.478294,-0.045509
1765408560.382511,-7.225011,0.538020,-5.430415,-0.048106,-1.505630,-0.050091
1765408560.382814,-9.935436,0.507532,-1.828073,-0.071013,-1.508532,-0.082161
1765408560.383064,-9.182209,0.869201,-3.004543,-0.057879,-1.463175,-0.079871
1765408560.383314,-8.275944,0.089072,-3.934720,-0.078191,-1.489900,-0.076969
1765408560.383564,-7.862266,0.636059,-5.219989,-0.048258,-1.469436,-0.080787
1765408560.383878,-7.936393,-0.300693,-4.117647,-0.057269,-1.446223,-0.090561
1765408560.384128,-8.525824,0.316834,-3.203610,-0.023213,-1.429883,-0.103389
1765408560.384378,-7.711022,1.019847,-4.513390,-0.015119,-1.430341,-0.125838
1765408560.384628,-6.804758,1.584170,-4.316116,-0.034361,-1.423774,-0.143401
1765408560.384823,-7.558583,2.318866,-3.654949,-0.020311,-1.423774,-0.128740
1765408560.385073,-9.169655,0.949306,-3.208991,-0.020311,-1.432326,-0.128740
1765408560.385323,-8.437947,0.445959,-4.283835,-0.050396,-1.426065,-0.129962
1765408560.385573,-8.438545,0.453132,-3.100191,-0.071624,-1.410335,-0.144011
1765408560.385828,-7.602821,-0.117169,-4.047106,-0.047800,-1.408808,-0.148898
1765408560.386161,-8.065517,0.881755,-2.957914,-0.014355,-1.408808,-0.165697
1765408560.386495,-8.065517,0.881755,-2.957914,-0.014355,-1.396438,-0.165697
1765408560.386943,-10.304279,-0.159015,-1.537542,0.032223,-1.402699,-0.163101
1765408560.387193,-9.172644,-0.117169,-2.210665,0.055131,-1.382846,-0.177915
1765408560.387443,-7.454566,0.181133,-4.531324,0.070402,-1.370323,-0.186161
1765408560.387693,-6.637971,1.039574,-5.279770,0.063683,-1.385290,-0.197615
1765408560.387831,-6.637971,1.039574,-5.279770,0.063683,-1.401172,-0.197615
1765408560.388081,-9.120635,2.084529,-3.007532,0.066126,-1.339475,-0.192728
1765408560.388331,-8.864179,1.593735,-3.324366,0.029169,-1.339475,-0.199142
1765408560.388581,-7.580702,1.364180,-3.993304,0.034208,-1.320843,-0.183260
1765408560.388795,-7.649449,0.321616,-4.013629,0.047189,-1.337489,-0.183565
1765408560.389045,-8.457674,0.184122,-2.882592,0.053298,-1.346652,-0.205709
1765408560.389295,-10.628286,1.114299,-0.207437,0.072235,-1.265407,-0.225104
1765408560.389545,-11.110711,1.490315,-1.142994,0.085979,-1.265407,-0.217468
1765408560.389830,-8.603538,1.052726,-3.348876,0.069639,-1.280221,-0.208763
1765408560.390163,-7.901721,0.584648,-2.633907,0.071929,-1.288926,-0.213497
1765408560.390497,-9.884026,-0.028694,-0.904471,0.069333,-1.310306,-0.221897
1765408560.390867,-9.678382,0.354495,-1.154950,0.084452,-1.298089,-0.233656
1765408560.391117,-9.490674,0.740674,-1.586561,0.071166,-1.276708,-0.251066
1765408560.391367,-8.489358,1.375538,-2.358919,0.071166,-1.289231,-0.251066
1765408560.391617,-8.139048,0.588235,-2.210665,0.067195,-1.303586,-0.260534
1765408560.391905,-7.945958,1.449067,-2.903515,0.111483,-1.303586,-0.266185
1765408560.392155,-8.480392,1.504065,-2.742707,0.105374,-1.308473,-0.271071
1765408560.392405,-9.200740,1.709708,-1.482544,0.122326,-1.296561,-0.267712
1765408560.392655,-9.200740,1.709708,-1.482544,0.122326,-1.280832,-0.267712
1765408560.392792,-7.498206,0.894309,-4.649689,0.149051,-1.265865,-0.295353
1765408560.393042,-7.131754,1.977522,-4.264108,0.142790,-1.265865,-0.301157
1765408560.393292,-7.739717,1.587159,-3.402678,0.136987,-1.244332,-0.288939
1765408560.393542,-7.749880,1.146580,-2.798900,0.113926,-1.228297,-0.294590
1765408560.393862,-8.335723,0.543998,-1.636777,0.111788,-1.211346,-0.301462
1765408560.394195,-7.438426,0.965447,-3.063127,0.125227,-1.188897,-0.311083
1765408560.394529,-7.559779,0.975012,-2.932807,0.114079,-1.193172,-0.308334
1765408560.394843,-7.728956,0.940937,-2.345767,0.128740,-1.188897,-0.304822
1765408560.395093,-7.893352,0.830942,-2.874222,0.146913,-1.190729,-0.305585
1765408560.395343,-8.360233,1.495696,-2.232185,0.153480,-1.178817,-0.310778
1765408560.395593,-8.925155,1.475968,-1.872310,0.162490,-1.160186,-0.301004
1765408560.395806,-8.453490,0.720947,-1.103539,0.165697,-1.149801,-0.301157
1765408560.396056,-8.602343,1.530368,-1.724055,0.148440,-1.148579,-0.328645
1765408560.396306,-9.271878,2.760640,-0.529651,0.152869,-1.153466,-0.330325
1765408560.396556,-8.933523,2.337398,-2.166427,0.144928,-1.136057,-0.291383
1765408560.396881,-8.980749,1.525586,-1.998446,0.127671,-1.149801,-0.298560
1765408560.397131,-8.980749,1.525586,-1.998446,0.127671,-1.106277,-0.298560
1765408560.397381,-9.176230,1.177666,-1.103539,0.119730,-1.124297,-0.328340
1765408560.397631,-9.598277,1.475371,-1.137016,0.100182,-1.110706,-0.345902
1765408560.397889,-9.916306,1.937470,-0.881157,0.099876,-1.096045,-0.343459
1765408560.398222,-10.255857,1.371353,-0.282759,0.096364,-1.068403,-0.337961
1765408560.398556,-10.362864,1.410808,-0.652798,0.127060,-1.075581,-0.339794
1765408560.398880,-10.508725,1.634385,0.081301,0.144928,-1.066876,-0.338725
1765408560.399130,-8.954447,0.528455,-1.204567,0.160199,-1.038929,-0.321468
1765408560.399380,-8.115732,0.830942,-2.083931,0.187383,-1.034806,-0.335670
1765408560.399630,-8.188664,0.863223,-1.142994,0.170126,-1.033279,-0.349110
1765408560.399842,-8.891678,1.846604,-1.550693,0.183412,-1.033889,-0.354607
1765408560.400092,-9.060257,2.074366,-1.193209,0.182496,-1.033126,-0.340099
1765408560.400342,-9.262912,1.312171,-0.557150,0.168293,-1.024727,-0.335518
1765408560.400592,-9.408176,1.538737,0.251076,0.169210,-1.019687,-0.342543
1765408560.400850,-9.785987,2.195122,0.181731,0.157603,-1.012204,-0.352927
1765408560.401183,-9.837996,2.443806,-0.358082,0.136834,-1.027017,-0.340710
1765408560.401517,-9.384265,2.125777,-0.887733,0.142179,-1.029766,-0.325438
1765408560.401865,-8.932328,1.280488,-1.171688,0.136223,-1.022741,-0.312152
1765408560.402115,-8.727283,1.011478,-1.144787,0.138361,-1.007470,-0.328035
1765408560.402365,-7.305714,1.400048,-3.036824,0.129962,-1.009302,-0.337350
1765408560.402615,-8.088234,1.415590,-2.098278,0.138361,-1.026254,-0.337808
1765408560.402888,-8.450501,2.085126,-2.015782,0.154091,-1.008233,-0.326660
1765408560.403138,-9.551649,1.267336,-0.591224,0.151495,-0.983798,-0.320857
1765408560.403388,-8.786465,1.207556,-1.059302,0.141110,-0.925614,-0.319483
1765408560.403638,-9.128407,1.268532,-0.951100,0.157756,-0.933097,-0.314443
1765408560.403823,-8.568866,1.371951,-0.579866,0.162490,-0.928210,-0.307418
1765408560.404073,-9.384265,1.313964,-0.076518,0.150273,-0.916756,-0.287412
1765408560.404323,-9.118841,0.206839,-0.372429,0.169668,-0.908662,-0.283441
1765408560.404573,-9.151123,0.232544,-0.879962,0.152564,-0.908662,-0.301615
1765408560.404849,-9.237803,1.128646,-0.533238,0.152564,-0.913702,-0.301615
1765408560.405182,-9.416546,1.227881,-0.058584,0.167377,-0.891558,-0.298713
1765408560.405516,-9.170252,1.255380,0.258250,0.150578,-0.881020,-0.294895
1765408560.405827,-9.911524,1.516619,0.117169,0.144470,-0.874606,-0.295964
1765408560.406077,-9.616212,1.003108,0.570301,0.137903,-0.875370,-0.285579
1765408560.406327,-9.305355,1.261956,-0.529651,0.141873,-0.881326,-0.291994
1765408560.406577,-7.648253,1.130440,-2.015782,0.137750,-0.846507,-0.290772
1765408560.406906,-8.008129,1.759923,-1.445480,0.125533,-0.846507,-0.289550
1765408560.407156,-8.106169,1.698350,-1.428742,0.133932,-0.852004,-0.267406
1765408560.407406,-8.944283,1.359397,-0.697035,0.122326,-0.851852,-0.262825
1765408560.407656,-8.632233,1.028216,-0.981588,0.126296,-0.811993,-0.262825
1765408560.407916,-8.503107,0.864419,-1.086800,0.125991,-0.792445,-0.260229
1765408560.408166,-9.114656,0.818986,-0.412482,0.140346,-0.792445,-0.259312
1765408560.408416,-9.670013,1.145385,0.227164,0.145539,-0.780380,-0.255342
1765408560.408666,-9.026780,1.545911,-0.274988,0.154854,-0.742659,-0.240223
1765408560.408904,-8.977760,1.397656,-0.708991,0.153327,-0.739758,-0.227089
1765408560.409154,-9.670013,0.509326,0.219990,0.152869,-0.724333,-0.226478
1765408560.409404,-9.481109,0.716164,0.278575,0.153022,-0.724333,-0.228769
1765408560.409654,-9.306551,0.300096,-0.233142,0.152105,-0.728610,-0.234267
1765408560.409921,-8.855809,1.009684,-0.621114,0.158672,-0.714407,-0.238390
1765408560.410254,-8.683045,1.391678,-0.758608,0.163865,-0.709978,-0.223729
1765408560.410588,-9.104494,1.436514,0.448948,0.158367,-0.714254,-0.218995
1765408560.410851,-9.092538,1.351626,0.498565,0.154854,-0.688751,-0.205862
1765408560.411101,-8.717119,0.616930,-0.113582,0.165697,-0.691805,-0.186314
1765408560.411351,-8.982543,0.197274,-0.561932,0.167683,-0.688140,-0.197615
1765408560.411601,-9.444643,0.710784,-0.039455,0.172264,-0.688140,-0.198378
1765408560.411847,-9.444643,0.710784,-0.039455,0.172264,-0.692416,-0.198378
1765408560.412097,-9.233619,1.670851,0.645624,0.171042,-0.660345,-0.198378
1765408560.412347,-8.126493,1.318747,-1.353419,0.163712,-0.657596,-0.168599
1765408560.412597,-8.239477,1.225490,-1.133429,0.156229,-0.638812,-0.170584
1765408560.412883,-8.964609,0.951698,-0.344333,0.154396,-0.638812,-0.164323
1765408560.413133,-8.790649,1.579985,-0.308465,0.174097,-0.609644,-0.154702
1765408560.413383,-8.680057,1.409612,-0.826160,0.143095,-0.599411,-0.160810
1765408560.413633,-8.806790,1.385103,-0.034672,0.134543,-0.567952,-0.149204
1765408560.413853,-8.827713,1.259565,-0.418460,0.147219,-0.550542,-0.144011
1765408560.414103,-9.027975,1.238642,0.227164,0.141263,-0.550542,-0.136681
1765408560.414353,-8.538976,1.428742,-0.564921,0.140957,-0.517861,-0.135459
1765408560.414603,-9.045910,1.697752,0.308465,0.142790,-0.517556,-0.122478
1765408560.414867,-8.428981,1.550693,-0.403515,0.134085,-0.518777,-0.108581
1765408560.415117,-9.173840,1.669058,0.001196,0.125991,-0.513890,-0.106901
1765408560.415367,-8.639406,0.878168,-0.090268,0.132252,-0.472962,-0.087812
1765408560.415617,-8.431372,0.591822,-0.853658,0.128587,-0.483653,-0.094684
1765408560.415883,-9.097322,1.169297,0.027499,0.130725,-0.473573,-0.107360
1765408560.416133,-8.848636,1.294835,0.003587,0.125991,-0.446542,-0.096822
1765408560.416383,-8.941893,1.161525,0.015543,0.125533,-0.430507,-0.085521
1765408560.416633,-8.686034,0.746054,-0.436992,0.123395,-0.436616,-0.083841
1765408560.416877,-9.450023,0.805834,0.655189,0.116675,-0.429591,-0.091019
1765408560.417127,-9.158297,1.290053,-0.039455,0.135001,-0.411723,-0.085216
1765408560.417377,-9.111668,1.180655,0.400526,0.118966,-0.399200,-0.075595
1765408560.417627,-9.111668,1.180655,0.400526,0.118966,-0.390190,-0.075595
1765408560.417839,-9.101506,1.033596,0.058584,0.119730,-0.384234,-0.063683
1765408560.418089,-8.857603,0.966045,-0.457915,0.126296,-0.368963,-0.058490
1765408560.418339,-9.151123,1.371353,-0.057389,0.120799,-0.354302,-0.062308
1765408560.418589,-9.017216,0.972023,0.058584,0.118355,-0.341168,-0.044746
1765408560.418898,-9.277856,1.189622,0.136298,0.118661,-0.324828,-0.045051
1765408560.419148,-8.969392,0.598996,-0.173362,0.116981,-0.314137,-0.036652
1765408560.419398,-8.928741,0.792683,-0.084888,0.118661,-0.301767,-0.045357
1765408560.419648,-9.538497,0.992348,0.589431,0.111941,-0.284052,-0.046731
1765408560.419848,-9.084169,1.325920,-0.096844,0.112399,-0.284052,-0.039248
1765408560.420098,-9.010042,1.345050,-0.167384,0.104000,-0.289856,-0.032070
1765408560.420348,-9.023193,1.128646,0.199067,0.099876,-0.261145,-0.020311
1765408560.420598,-9.124222,0.942133,0.222979,0.100793,-0.255647,-0.013744
1765408560.420835,-9.287420,0.706600,0.136298,0.089797,-0.255800,-0.013592
1765408560.421085,-9.369917,0.887135,-0.060378,0.096364,-0.242361,-0.015119
1765408560.421335,-9.157698,0.735294,-0.042444,0.099724,-0.227242,-0.000458
1765408560.421585,-9.208511,0.675514,0.166188,0.099571,-0.220522,-0.002749
1765408560.421840,-9.396221,0.798661,0.279770,0.087048,-0.212734,-0.004429
1765408560.422040,-9.403395,0.945720,0.324008,0.094226,-0.192881,0.008399
1765408560.422240,-9.065040,0.891320,-0.328192,0.100487,-0.192881,0.022144
1765408560.422440,-9.287420,0.419656,0.202654,0.092852,-0.189674,0.026114
1765408560.422640,-9.487086,0.594213,0.315638,0.093004,-0.164323,0.022144
1765408560.422851,-9.516976,0.270803,0.423242,0.093768,-0.165850,0.031307
1765408560.423101,-9.235413,0.566714,0.138690,0.092393,-0.157603,0.024893
1765408560.423351,-9.521759,0.667145,0.497370,0.088881,-0.155160,0.029474
1765408560.423601,-9.397416,0.677905,0.175753,0.094379,-0.145080,0.035888
1765408560.423885,-9.304757,0.773553,-0.164395,0.092088,-0.146913,0.039248
1765408560.424135,-9.594690,0.634864,0.466882,0.078191,-0.125991,0.037263
1765408560.424385,-9.435078,0.882353,0.355093,0.083841,-0.116981,0.035888
1765408560.424635,-9.550453,0.894907,0.491989,0.075595,-0.116523,0.039401
1765408560.424816,-9.391438,1.009086,0.143472,0.069639,-0.112552,0.038026
1765408560.425016,-9.583332,1.036585,0.387972,0.072082,-0.097433,0.042913
1765408560.425216,-9.337636,0.796270,0.144668,0.069944,-0.097433,0.043677
1765408560.425416,-9.337636,0.796270,0.144668,0.069944,-0.098044,0.043677
1765408560.425616,-9.436871,1.290650,0.125538,0.056963,-0.086285,0.036652
1765408560.425879,-9.262314,1.152558,-0.206839,0.056963,-0.081856,0.036652
1765408560.426129,-9.430893,1.168699,-0.040053,0.052840,-0.061697,0.042302
1765408560.426379,-9.579147,1.047346,0.477642,0.049938,-0.061697,0.041539
1765408560.426629,-9.533715,1.103539,0.346126,0.047647,-0.055283,0.037568
1765408560.426878,-9.646101,1.365375,0.392157,0.040623,-0.054520,0.030238
1765408560.427128,-9.510998,1.230273,0.347322,0.034972,-0.046426,0.036194
1765408560.427378,-9.530128,1.137016,0.202056,0.033292,-0.050855,0.034056
1765408560.427628,-9.795551,0.964849,0.539813,0.028253,-0.052687,0.024893
1765408560.427847,-9.685556,1.001913,0.243902,0.023366,-0.041233,0.019700
1765408560.428047,-9.598277,1.090387,-0.094452,0.020006,-0.039554,0.012523
1765408560.428247,-9.793160,1.202774,0.343137,0.018021,-0.039554,0.008247
1765408560.428447,-9.793160,1.202774,0.343137,0.018021,-0.031765,0.008247
1765408560.428647,-9.837397,1.168101,0.407700,0.011912,-0.026878,0.007330
1765408560.428809,-9.698708,0.956480,0.096844,0.007636,-0.027947,0.006261
1765408560.429009,-9.810495,0.865614,0.138092,0.008247,-0.027031,0.001833
1765408560.429209,-9.856527,0.891320,0.242707,0.008094,-0.027031,-0.004123
1765408560.429409,-9.656861,0.879364,0.414873,0.003818,-0.024435,-0.001680
1765408560.429609,-9.279052,0.668340,0.126734,-0.004429,-0.023060,-0.004429
1765408560.429874,-9.237803,0.683883,0.101626,-0.006872,-0.026420,-0.009010
1765408560.430124,-9.162481,0.759206,-0.234935,-0.004734,-0.019700,-0.005345
1765408560.430374,-9.509803,0.510521,0.289335,-0.004887,-0.019700,-0.003054
1765408560.430624,-9.509803,0.510521,0.289335,-0.004887,-0.000458,-0.003054
1765408560.430822,-9.791965,0.024510,0.162602,-0.011912,-0.008247,-0.014355
1765408560.431022,-9.741151,0.019727,-0.164993,-0.010996,-0.008247,-0.019090
1765408560.431222,-10.174556,0.199665,0.420253,-0.005345,-0.001833,-0.021075
1765408560.431422,-10.293518,0.181731,0.730512,-0.008858,-0.001833,-0.019090
1765408560.431622,-10.189501,0.199665,0.670134,-0.018479,0.002291,-0.019853
1765408560.431883,-9.867287,0.021521,0.098637,-0.015882,0.000764,-0.018326
1765408560.432083,-9.821855,-0.068149,0.081301,-0.014050,-0.014203,-0.015119
1765408560.432283,-10.092059,0.104017,0.660569,-0.014050,-0.015119,-0.015119
1765408560.432483,-10.083690,0.334170,0.554758,-0.027489,-0.005345,-0.020922
1765408560.432683,-9.853538,0.286346,0.077714,-0.029016,-0.011606,-0.012370
1765408560.432878,-9.806311,-0.004185,0.135701,-0.030696,-0.009621,-0.006109
1765408560.433128,-9.917501,-0.422047,0.497370,-0.032834,-0.010996,-0.003971
1765408560.433378,-9.958152,-0.483022,0.439981,-0.032070,-0.008552,-0.009316
1765408560.433628,-9.785389,-0.384983,0.105213,-0.031918,-0.010537,-0.010843
1765408560.433914,-9.767454,-0.296509,0.132114,-0.030696,-0.012217,-0.010537
1765408560.434114,-9.977880,-0.327594,0.490794,-0.027031,-0.005651,-0.005498
1765408560.434314,-9.999999,-0.474653,0.475849,-0.024893,-0.005651,0.000458
1765408560.434514,-9.778812,-0.615734,0.141081,-0.024893,-0.006414,0.000458
1765408560.434714,-9.778812,-0.545194,0.193687,-0.024435,-0.003818,-0.001985
1765408560.434908,-10.010758,-0.553563,0.438785,-0.016341,-0.007330,-0.000153
1765408560.435158,-10.041844,-0.477642,0.539216,-0.013439,-0.006261,-0.000611
1765408560.435408,-9.945002,-0.371832,0.389766,-0.010690,-0.001374,-0.000153
1765408560.435658,-9.875656,-0.313247,0.194285,-0.010385,-0.005651,0.001527
1765408560.435877,-10.059779,-0.301889,0.508130,-0.010690,-0.009163,0.005803
1765408560.436077,-10.057985,-0.411286,0.531444,-0.005803,-0.004123,0.005956
1765408560.436277,-9.949782,-0.527857,0.357484,-0.001833,-0.008705,0.006261
1765408560.436477,-9.897178,-0.468675,0.343137,-0.000305,-0.008705,0.001527
1765408560.436677,-10.003586,-0.276184,0.429220,0.002138,-0.008247,-0.001833
1765408560.436857,-9.956957,-0.117169,0.382592,0.005192,-0.006109,-0.000305
1765408560.437057,-9.908535,0.022119,0.311454,0.006109,-0.006872,0.002443
1765408560.437257,-9.924676,-0.021521,0.292324,0.005803,-0.007941,0.005956
1765408560.437457,-9.928263,-0.104615,0.329986,0.003512,-0.007636,0.009774
1765408560.437657,-9.954566,-0.158417,0.411286,0.005651,-0.002902,0.008705
1765408560.437847,-9.930056,-0.176949,0.369440,0.006720,-0.000611,0.004887
1765408560.438047,-9.930654,-0.014347,0.325203,0.006720,-0.005040,0.002749
1765408560.438247,-9.959349,0.137494,0.309660,0.009163,-0.009621,0.003971
1765408560.438447,-9.932447,0.109397,0.298900,0.005345,-0.006261,0.005651
1765408560.438647,-9.965924,0.057987,0.340746,0.002749,-0.007483,0.009621
1765408560.438870,-10.071735,0.043639,0.428623,0.000916,-0.001985,0.007025
1765408560.439037,-10.016139,0.020325,0.329986,0.003818,-0.001985,0.005803
1765408560.439203,-10.026302,0.052606,0.384983,0.002138,-0.004887,0.004429
1765408560.439370,-10.031682,0.132712,0.438785,0.001222,-0.003360,0.003360
1765408560.439537,-10.031085,0.194883,0.384983,0.001527,-0.005498,0.005651
1765408560.439703,-9.978478,0.174558,0.315638,0.000916,-0.008858,0.007025
1765408560.439860,-9.867885,0.118962,0.174558,0.000000,-0.006261,0.005192
1765408560.440060,-9.870873,0.172166,0.230751,-0.004123,-0.006414,0.004734
1765408560.440260,-10.023911,0.258250,0.408895,-0.006414,-0.003207,0.002291
1765408560.440460,-10.046029,0.218197,0.429818,-0.007789,-0.003207,0.004887
1765408560.440660,-9.984456,0.138690,0.297704,-0.007025,-0.004276,0.005803
1765408560.440879,-9.989238,0.053204,0.358680,-0.007178,-0.005040,0.001833
1765408560.441079,-9.989238,0.053204,0.358680,-0.007178,-0.006261,0.001833
1765408560.441279,-9.964130,0.103419,0.331181,-0.008399,-0.006567,-0.001374
1765408560.441479,-9.936632,0.200263,0.280966,-0.007178,-0.007025,-0.003360
1765408560.441679,-9.900764,0.143472,0.303682,-0.010232,-0.006261,-0.001527
1765408560.441897,-10.001194,0.139885,0.398733,-0.008705,-0.007483,-0.001069
1765408560.442097,-10.040051,0.124342,0.458513,-0.011301,-0.006261,-0.002138
1765408560.442297,-9.924676,0.017336,0.257652,-0.010079,-0.006872,-0.002138
1765408560.442497,-9.957555,0.064562,0.327594,-0.010537,-0.006872,-0.003054
1765408560.442697,-10.040649,0.105213,0.379005,-0.009774,-0.007483,-0.002596
1765408560.442813,-9.940817,0.135103,0.343137,-0.012675,-0.011301,-0.000916
1765408560.443013,-9.881634,0.112386,0.301291,-0.011912,-0.006567,-0.002749
1765408560.443213,-9.852343,0.001793,0.302487,-0.012065,-0.009010,-0.002443
1765408560.443413,-9.930654,-0.032281,0.315638,-0.011148,-0.009010,-0.003054
1765408560.443613,-9.930654,-0.032281,0.315638,-0.011148,-0.009316,-0.003054
1765408560.443824,-9.856527,0.052606,0.253467,-0.011912,-0.008705,-0.010079
1765408560.444074,-9.866689,0.034672,0.297704,-0.014203,-0.008705,-0.005803
1765408560.444324,-9.947392,0.035270,0.379005,-0.012981,-0.004887,-0.005192
1765408560.444574,-9.918698,-0.059780,0.312052,-0.014508,-0.004887,-0.006109
1765408560.444818,-9.918698,-0.059780,0.312052,-0.014508,-0.006261,-0.006109
1765408560.445018,-9.931252,-0.072932,0.351506,-0.013592,-0.006109,-0.006872
1765408560.445218,-9.962337,-0.015543,0.364658,-0.012675,-0.006109,-0.006720
1765408560.445418,-9.930056,0.023314,0.312649,-0.016799,-0.006872,-0.007789
1765408560.445618,-9.806311,-0.032879,0.227164,-0.015272,-0.005498,-0.005192
1765408560.445898,-9.797942,-0.032879,0.254663,-0.015272,-0.006872,-0.005192
1765408560.446098,-9.936033,-0.056193,0.407102,-0.015119,-0.004123,-0.005651
1765408560.446298,-9.989837,-0.065758,0.373027,-0.016188,-0.004123,-0.004123
1765408560.446498,-9.956957,-0.100430,0.294715,-0.012828,-0.006720,-0.001069
1765408560.446698,-9.964130,-0.142874,0.314443,-0.011606,-0.007941,-0.002138
1765408560.446873,-9.985652,-0.178144,0.396939,-0.013134,-0.009927,-0.003054
1765408560.447073,-9.996411,-0.165591,0.365854,-0.009774,-0.006872,-0.001985
1765408560.447273,-9.911524,-0.237924,0.301291,-0.009163,-0.004887,-0.000764
1765408560.447473,-9.898373,-0.236729,0.289933,-0.008399,-0.006567,-0.003360
1765408560.447673,-9.978478,-0.185318,0.367049,-0.012981,-0.009010,-0.002138
1765408560.447860,-9.943806,-0.150646,0.398135,-0.010537,-0.005040,-0.000611
1765408560.448060,-9.878048,-0.167384,0.226566,-0.005498,-0.004734,0.001374
1765408560.448260,-9.873264,-0.197274,0.217599,-0.004276,-0.006567,0.001222
1765408560.448460,-9.873264,-0.197274,0.217599,-0.004276,-0.006720,0.001222
1765408560.448660,-10.007172,-0.095648,0.462697,-0.007025,-0.008399,-0.001680
1765408560.448876,-9.984456,-0.031683,0.328192,-0.007483,-0.007636,-0.001069
1765408560.449076,-9.870873,-0.020325,0.259445,-0.001374,-0.003971,0.001222
1765408560.449276,-9.914514,-0.037661,0.361669,-0.004581,-0.006414,0.003360
1765408560.449476,-9.982065,-0.022119,0.442970,-0.005651,-0.008705,0.000764
1765408560.449676,-9.974294,-0.022119,0.300693,-0.005192,-0.006261,0.001985
1765408560.449851,-9.916306,-0.038259,0.239120,-0.008858,-0.007330,0.001833
1765408560.450051,-9.916306,-0.038259,0.239120,-0.008858,-0.005345,0.001833
1765408560.450251,-10.013150,-0.046031,0.434003,-0.007025,-0.006720,-0.000305
1765408560.450451,-9.942610,-0.064562,0.307269,-0.007330,-0.005803,0.001374
1765408560.450651,-9.835604,-0.004782,0.286944,-0.006414,-0.003665,0.004276
1765408560.450848,-9.901362,0.000000,0.353898,-0.009316,-0.008094,0.002443
1765408560.451048,-10.033475,-0.009565,0.459110,-0.007941,-0.008094,0.001833
1765408560.451248,-9.994021,0.056193,0.377810,-0.005040,-0.003818,0.003054
1765408560.451448,-9.891200,0.062171,0.241511,-0.005192,-0.003971,0.003665
1765408560.451648,-9.912122,0.004782,0.313247,-0.006720,-0.007636,0.003818
1765408560.451971,-9.965326,-0.058584,0.398135,-0.005956,-0.011454,0.001069
1765408560.452171,-10.003586,-0.014347,0.407700,-0.005651,-0.006414,-0.002138
1765408560.452371,-9.971304,0.054998,0.314443,-0.003971,-0.004887,-0.000764
1765408560.452571,-9.922284,0.017934,0.321616,-0.005498,-0.003665,0.004123
1765408560.452771,-9.988043,-0.002391,0.396939,-0.006261,-0.009010,0.000764
1765408560.452974,-9.965326,-0.015543,0.346724,-0.005040,-0.007330,-0.000458
1765408560.453174,-9.882831,0.011358,0.240316,-0.005040,-0.003512,0.000000
1765408560.453374,-9.909731,0.020325,0.328790,-0.007330,-0.008094,-0.002291
1765408560.453574,-9.949782,0.041248,0.388570,-0.006109,-0.009927,-0.001222
1765408560.453774,-9.947989,0.072932,0.273792,-0.006872,-0.006414,-0.002291
1765408560.453913,-9.882831,0.048422,0.227164,-0.007025,-0.006261,-0.000916
1765408560.454113,-9.949186,0.065758,0.297704,-0.010232,-0.003512,-0.002443
1765408560.454313,-9.988641,0.090268,0.382592,-0.009774,-0.004734,-0.001985
1765408560.454513,-9.943806,0.020325,0.372429,-0.007178,-0.004734,-0.001985
1765408560.454713,-9.872667,-0.037064,0.278575,-0.008552,-0.007178,-0.003054
1765408560.454878,-9.913916,0.057389,0.271401,-0.010537,-0.007789,-0.001985
1765408560.455078,-9.895982,0.022716,0.269010,-0.009163,-0.005651,-0.002443
1765408560.455278,-9.927666,-0.059780,0.374821,-0.008399,-0.008094,-0.001374
1765408560.455478,-9.956957,-0.102822,0.379005,-0.009927,-0.007025,0.000000
1765408560.455678,-9.961740,-0.070540,0.324605,-0.008247,-0.006109,-0.003971
1765408560.457342,-9.909132,-0.034672,0.301291,-0.010843,-0.008705,-0.002138
1765408560.457542,-9.888808,-0.057987,0.315638,-0.010996,-0.007789,0.000458
1765408560.457742,-9.887612,-0.100430,0.301291,-0.008247,-0.009163,-0.003207
1765408560.457942,-9.930654,-0.068149,0.319823,-0.006109,-0.009163,-0.001833
1765408560.458142,-9.894786,-0.050215,0.241511,-0.007941,-0.004429,-0.000458
1765408560.457400,-9.901959,-0.069943,0.322812,-0.008094,-0.006872,-0.003360
1765408560.457600,-10.005977,-0.123745,0.437590,-0.006261,-0.009163,-0.001680
1765408560.457800,-10.025107,-0.077714,0.387374,-0.007941,-0.007789,-0.002596
1765408560.458000,-9.914514,-0.029292,0.288737,-0.008399,-0.007789,-0.000764
1765408560.458200,-9.883428,-0.052009,0.297704,-0.008247,-0.006109,-0.001374
1765408560.457873,-9.946198,-0.072932,0.387374,-0.008247,-0.008399,-0.002596
1765408560.458123,-9.980869,-0.083692,0.425634,-0.006720,-0.006414,-0.002443
1765408560.458373,-9.906144,-0.066954,0.297704,-0.008399,-0.005040,-0.000458
1765408560.458623,-9.894786,-0.047226,0.286346,-0.008552,-0.007789,-0.000611
1765408560.458894,-9.894786,-0.047226,0.286346,-0.008552,-0.012217,-0.000611
1765408560.459094,-9.918698,-0.014945,0.344931,-0.006261,-0.009010,-0.001374
1765408560.459294,-9.895385,-0.059780,0.274390,-0.008705,-0.009010,0.001527
1765408560.459494,-9.903154,-0.065160,0.303085,-0.007178,-0.006567,0.002138
1765408560.459694,-9.921089,-0.037064,0.379005,-0.007178,-0.008552,0.002749
1765408560.459914,-9.915709,-0.016738,0.360473,-0.008552,-0.003054,-0.001222
1765408560.460114,-9.882831,-0.078312,0.333572,-0.007941,-0.008094,-0.000458
1765408560.460314,-9.991630,-0.032879,0.404113,-0.007483,-0.008094,-0.003665
1765408560.460514,-10.040649,0.020325,0.351506,-0.007636,-0.006567,-0.000916
1765408560.460714,-9.965924,-0.020325,0.381396,-0.007330,-0.006567,-0.001069
1765408560.460862,-9.936033,-0.044835,0.344333,-0.010385,-0.007636,0.000153
1765408560.461062,-9.970109,-0.025108,0.392157,-0.006109,-0.003971,-0.000611
1765408560.461262,-9.915112,-0.011956,0.021521,-0.007483,-0.003971,-0.001833
1765408560.461462,-9.606647,-0.219990,0.607365,-0.005803,-0.007636,0.001985
1765408560.461662,-9.502629,0.073529,0.312052,-0.006261,-0.008858,-0.010385
1765408560.461909,-9.157101,0.346126,-0.227164,-0.006109,0.006414,-0.005192
1765408560.462109,-9.130797,0.014347,-0.005978,-0.003512,0.001680,0.010690
1765408560.462309,-10.095646,-0.038259,1.090387,-0.010537,-0.005040,0.001069
1765408560.462509,-10.729315,-0.017934,1.351028,-0.013286,0.000000,0.002749
1765408560.462709,-9.932447,-0.444763,-0.263032,-0.008247,-0.004887,0.000458
1765408560.462880,-9.415350,-0.222382,-0.313845,-0.002291,-0.004887,-0.011301
1765408560.463080,-9.415350,-0.222382,-0.313845,-0.002291,0.008399,-0.011301
1765408560.463280,-10.437589,0.628886,1.189024,-0.012217,0.001985,0.004276
1765408560.463480,-10.141678,-0.225968,0.393352,-0.014966,0.004887,0.012981
1765408560.463680,-9.834408,-0.752032,-0.074127,-0.008705,0.000153,0.004734
1765408560.463850,-9.946795,-0.266619,0.389168,-0.005040,0.001222,-0.014050
1765408560.464050,-9.946795,-0.266619,0.389168,-0.005040,0.005803,-0.014050
1765408560.464250,-9.763269,0.403515,0.083692,-0.009621,-0.000611,0.001985
1765408560.464450,-9.752509,-0.072932,0.057389,-0.009163,-0.001833,0.008094
1765408560.464650,-9.973696,-0.390961,0.533238,-0.007941,0.006109,0.004429
1765408560.464928,-10.003586,-0.223577,0.498565,-0.009010,0.006109,-0.005040
1765408560.465128,-9.836202,0.000000,0.100430,-0.012065,-0.000305,-0.007636
1765408560.465328,-9.784791,0.167982,0.130918,-0.006414,-0.002749,-0.005498
1765408560.465528,-9.998206,0.150646,0.515304,-0.008247,0.002596,-0.001069
1765408560.465728,-10.023911,0.060976,0.536824,-0.009468,0.007025,0.000764
1765408560.465861,-9.927666,-0.193687,0.229555,-0.009468,0.001222,0.003360
1765408560.466061,-9.800333,-0.156624,0.118364,-0.010232,-0.001222,-0.002596
1765408560.466261,-9.790769,-0.081301,0.260043,-0.006567,0.004429,-0.004581
1765408560.466461,-9.796746,0.053204,0.328790,-0.006872,0.007789,-0.002902
1765408560.466661,-9.911524,0.121951,0.331181,-0.011912,0.003207,-0.002902
1765408560.466905,-9.996411,0.121951,0.303682,-0.008247,0.004581,0.002749
1765408560.467105,-9.980869,-0.166188,0.340746,-0.006872,0.006567,0.004734
1765408560.467305,-9.968913,-0.355691,0.388570,-0.009774,0.007178,-0.000458
1765408560.467505,-9.970109,-0.211621,0.321616,-0.009774,0.003054,-0.008247
1765408560.467705,-9.970109,-0.211621,0.321616,-0.009774,0.002749,-0.008247
1765408560.467901,-9.936632,0.246294,0.341344,-0.008399,0.006414,-0.001222
1765408560.468101,-9.901362,-0.034672,0.396341,-0.011454,0.006261,0.007636
1765408560.468301,-9.943806,-0.283357,0.387374,-0.009316,0.001222,0.004123
1765408560.468501,-9.984456,-0.239718,0.217599,-0.007941,0.000764,-0.000916
1765408560.468701,-10.001194,-0.068149,0.339550,-0.005956,0.002291,-0.000916
1765408560.468876,-10.033475,0.092061,0.423242,-0.009163,0.006872,-0.003054
1765408560.469076,-9.937828,0.047226,0.282162,-0.008399,0.007178,0.000916
1765408560.469276,-9.850550,-0.062769,0.203252,-0.008858,0.001680,0.001527
1765408560.469476,-9.962935,-0.038259,0.257054,-0.005345,0.001680,-0.000611
1765408560.469676,-10.047822,-0.031086,0.404113,-0.004123,0.004887,0.002138
1765408560.469869,-10.054996,-0.098039,0.461502,-0.006720,0.009163,0.000916
1765408560.470069,-10.054399,-0.098039,0.414873,-0.009927,0.003971,-0.001680
1765408560.470269,-10.051410,0.050215,0.310856,-0.004276,0.001374,-0.001527
1765408560.470469,-9.904350,0.099235,0.186514,-0.004734,0.001374,0.002443
1765408560.470669,-9.916306,0.003587,0.296509,-0.009468,0.002902,0.002749
1765408560.470873,-10.077712,-0.080105,0.438187,-0.010385,0.001222,-0.000611
1765408560.471073,-10.077712,-0.080105,0.438187,-0.010385,0.001069,-0.000611
1765408560.471273,-9.973696,0.016141,0.272597,-0.007025,0.000916,-0.000611
1765408560.471473,-9.977283,-0.007174,0.338355,-0.009010,-0.000916,0.001069
1765408560.471673,-9.983260,0.020325,0.332975,-0.011606,-0.002749,-0.001069
1765408560.471938,-10.022118,-0.023912,0.277379,-0.009163,-0.003512,-0.003360
1765408560.472138,-9.986848,0.005380,0.217599,-0.007636,0.000458,0.001680
1765408560.472338,-10.057388,0.007771,0.377212,-0.007941,0.002596,0.001985
1765408560.472538,-10.068149,-0.051411,0.396939,-0.006872,-0.001069,0.000458
1765408560.472738,-10.002987,-0.126136,0.285748,-0.008094,-0.005498,0.000305
1765408560.472840,-9.936632,-0.101626,0.239718,-0.008247,-0.002902,-0.003512
1765408560.473040,-9.931252,-0.008369,0.243902,-0.007025,-0.003512,-0.002902
1765408560.473240,-9.912720,0.098039,0.179340,-0.006261,-0.003971,-0.000153
1765408560.473440,-9.955761,0.014945,0.349713,-0.008552,-0.003818,-0.001069
1765408560.473640,-9.973696,-0.081301,0.373625,-0.011454,-0.001222,0.001069
1765408560.473880,-9.973098,-0.112386,0.297704,-0.004734,-0.003054,-0.000611
1765408560.474080,-9.952174,-0.095648,0.270206,-0.006567,-0.003054,-0.001527
1765408560.474280,-9.954566,0.004782,0.340746,-0.008552,-0.004887,-0.003054
1765408560.474480,-9.999999,0.025705,0.291726,-0.008705,-0.003207,-0.001527
1765408560.474680,-9.935436,0.008369,0.243902,-0.008705,-0.003665,-0.001527
1765408560.477904,-10.010758,-0.038259,0.379005,-0.009163,-0.003207,0.000458
1765408560.478912,-10.020324,-0.116571,0.398733,-0.012523,-0.003207,0.000000
1765408560.480824,-9.924676,-0.091463,0.294118,-0.008552,-0.004276,-0.001222
1765408560.483269,-9.842777,-0.080105,0.224773,-0.007483,-0.005803,-0.001374
1765408560.487842,-9.880439,0.002391,0.325203,-0.006872,-0.002596,-0.001374
1765408560.489882,-9.949186,0.037661,0.369440,-0.005956,-0.005040,-0.000916
1765408560.492854,-9.863700,0.005978,0.215208,-0.009316,-0.002596,-0.000764
1765408560.494847,-9.869678,-0.103419,0.277379,-0.005956,-0.005803,0.000611
1765408560.497904,-9.956957,-0.100430,0.445959,-0.007789,-0.006109,0.000764
1765408560.499897,-9.977283,-0.052009,0.380201,-0.008399,-0.004734,-0.006414
1765408560.502853,-9.977283,-0.052009,0.380201,-0.008399,-0.003207,-0.006414
1765408560.504826,-9.888210,0.020325,0.266619,-0.011759,-0.004734,0.001069
1765408560.507881,-9.952772,-0.042444,0.359876,-0.007025,-0.003971,-0.001833
1765408560.509880,-9.980869,-0.075921,0.364060,-0.007636,-0.000916,0.001680
1765408560.510835,-9.864896,-0.068149,0.270803,-0.008247,-0.000916,-0.000458
1765408560.514875,-9.833811,-0.074127,0.242707,-0.011148,-0.001374,-0.001527
1765408560.517817,-9.897178,0.010760,0.399330,-0.010232,-0.005498,-0.002138
1765408560.520804,-9.893590,-0.014347,0.325203,-0.006567,-0.004123,-0.004276
1765408560.522848,-9.791965,-0.027499,0.172166,-0.008858,-0.007025,0.001374
1765408560.524842,-9.870276,-0.033477,0.271999,-0.009316,-0.007025,0.000764
1765408560.527870,-9.966521,-0.050215,0.394548,-0.010079,-0.000153,0.000764
1765408560.529906,-9.978478,-0.028694,0.414873,-0.008705,-0.003054,-0.002443
1765408560.530845,-9.910329,-0.007174,0.305476,-0.011454,-0.003054,-0.003360
1765408560.535923,-9.878048,-0.015543,0.355691,-0.009621,-0.003054,-0.002902
1765408560.537857,-9.968913,0.019130,0.419058,-0.006567,-0.003054,-0.001833
1765408560.539901,-9.921089,-0.028694,0.333572,-0.007025,-0.003054,-0.000611
1765408560.542854,-9.881634,-0.023314,0.301291,-0.007025,0.001069,-0.000764
1765408560.543902,-9.940218,-0.021521,0.381994,-0.009316,0.000764,0.000153
1765408560.547922,-10.006575,-0.023314,0.387972,-0.008705,-0.003360,-0.002138
1765408560.548816,-9.953370,0.002391,0.340746,-0.007941,-0.000153,0.001069
1765408560.552869,-9.875656,-0.025108,0.297107,-0.007636,-0.002443,-0.002138
1765408560.553883,-9.905546,-0.013152,0.358680,-0.008094,-0.000764,-0.000305
1765408560.555886,-9.964130,0.009565,0.347322,-0.009316,-0.001069,-0.002291
1765408560.560850,-9.964130,0.009565,0.347322,-0.009316,-0.000611,-0.002291
1765408560.562864,-9.910329,-0.044237,0.329986,-0.008247,0.001374,-0.001527
1765408560.565833,-9.961740,-0.053802,0.431612,-0.008705,0.001374,-0.001527
1765408560.567843,-9.952174,0.027499,0.338355,-0.009774,-0.001527,-0.001222
1765408560.570880,-9.872069,0.029890,0.216404,-0.012065,-0.000458,-0.002902
1765408560.572855,-9.876852,0.013749,0.327594,-0.009163,-0.000153,0.000916
1765408560.574881,-9.989238,0.005380,0.391559,-0.008247,-0.001222,-0.001222
1765408560.577851,-9.972500,-0.040650,0.304878,-0.012370,-0.002443,-0.001374
1765408560.580882,-9.927068,-0.026303,0.285748,-0.011759,-0.002596,-0.002749
1765408560.582914,-9.954566,-0.033477,0.346724,-0.008247,-0.002596,-0.002596
1765408560.585895,-9.965326,-0.004782,0.321019,-0.007789,-0.001527,-0.003360
1765408560.586881,-9.924676,0.056193,0.262434,-0.007636,-0.000764,-0.003512
1765408560.590877,-9.910329,0.007174,0.241511,-0.009621,0.001069,-0.000611
1765408560.592814,-9.934240,-0.033477,0.367647,-0.008247,-0.002749,-0.001374
1765408560.594890,-9.977283,-0.063367,0.351506,-0.009316,-0.002749,-0.001527
1765408560.597842,-9.936632,-0.034672,0.326399,-0.011148,-0.001833,-0.005345
1765408560.599794,-9.942610,0.005978,0.302487,-0.009316,0.000916,-0.005498
1765408560.602817,-9.955761,0.038259,0.308465,-0.010537,-0.000764,-0.001985
1765408560.603831,-9.951577,0.017934,0.280966,-0.008247,-0.000916,-0.002749
1765408560.607858,-9.879243,-0.077714,0.247489,-0.010537,-0.003665,-0.004123
1765408560.609855,-9.936632,-0.063367,0.265423,-0.009010,-0.003054,-0.002443
1765408560.612861,-9.979673,-0.012554,0.305476,-0.009621,-0.003512,-0.002596
1765408560.614801,-9.946198,-0.002391,0.268412,-0.011148,0.000000,-0.005192
1765408560.617880,-9.940218,0.020325,0.308465,-0.010232,-0.003054,-0.004581
1765408560.620793,-10.023911,0.001196,0.319225,-0.010843,-0.004734,-0.001527
1765408560.622829,-10.010758,-0.026303,0.259445,-0.010079,-0.002138,-0.002749
1765408560.624823,-10.023911,-0.098039,0.253467,-0.009621,0.000153,-0.004276
1765408560.627863,-10.034670,-0.072932,0.341942,-0.009621,0.000153,-0.002443
1765408560.630860,-10.020324,0.002391,0.376614,-0.009316,-0.001069,-0.004581
1765408560.632858,-9.972500,0.047226,0.316236,-0.012370,-0.001374,-0.004123
1765408560.634813,-9.956359,0.011956,0.309660,-0.009010,-0.001374,-0.003054
1765408560.635849,-9.975489,-0.015543,0.311454,-0.010232,-0.000305,-0.001527
1765408560.640888,-9.991630,-0.075323,0.300096,-0.010232,-0.000305,-0.003818
1765408560.642903,-9.974891,-0.124342,0.302487,-0.011301,0.001374,-0.003971
1765408560.644789,-10.032280,-0.100430,0.375418,-0.008705,-0.005956,-0.004276
1765408560.647878,-10.041247,0.004185,0.392157,-0.009927,-0.005345,-0.007178
1765408560.649886,-9.931850,0.021521,0.279173,-0.008094,-0.003054,-0.004734
1765408560.652918,-9.949782,-0.022119,0.328790,-0.007025,-0.005192,-0.000458
1765408560.654905,-10.029889,-0.005978,0.376614,-0.009774,-0.008247,-0.003360
1765408560.657831,-10.049617,-0.014347,0.393352,-0.005956,-0.003512,-0.003512
1765408560.658839,-10.011955,-0.077714,0.393352,-0.008094,-0.005040,-0.003360
1765408560.662805,-10.050214,-0.068149,0.472262,-0.010537,-0.008094,-0.005040
1765408560.665811,-10.032280,-0.019130,0.407700,-0.009774,-0.008552,-0.007636
1765408560.666311,-9.933045,0.047824,0.268412,-0.011759,-0.008705,-0.006567
1765408560.669875,-9.908535,0.014945,0.274988,-0.008858,-0.012981,-0.001833
1765408560.672853,-9.974294,-0.046628,0.309660,-0.008858,-0.013134,-0.002902
1765408560.673842,-9.970706,-0.088474,0.249880,-0.010996,-0.006720,-0.001527
1765408560.677887,-9.874461,-0.068149,0.147059,-0.011148,-0.001680,-0.005956
1765408560.679908,-9.898373,-0.008369,0.309063,-0.011454,-0.002596,-0.007483
1765408560.682818,-10.013150,0.040650,0.437590,-0.009163,-0.002138,-0.005345
1765408560.685881,-9.928263,0.016738,0.322812,-0.008247,-0.002138,-0.003360
1765408560.687833,-9.799137,-0.047824,0.193089,-0.009163,-0.002902,-0.003207
1765408560.689908,-9.918099,-0.068149,0.337159,-0.008094,-0.006720,-0.001374
1765408560.692892,-10.007172,-0.101626,0.462099,-0.008552,-0.007941,-0.002291
1765408560.694877,-9.927666,-0.087279,0.260043,-0.007483,-0.005651,-0.006567
1765408560.697855,-9.854733,-0.002391,0.267814,-0.009468,-0.005651,-0.005803
1765408560.699897,-9.854733,-0.002391,0.267814,-0.009468,-0.005498,-0.005803
1765408560.702883,-9.972500,0.106408,0.434003,-0.011301,-0.006872,-0.002443
1765408560.704860,-9.859515,-0.019130,0.258250,-0.008247,-0.007483,-0.003360
1765408560.707879,-9.859515,-0.019130,0.258250,-0.008247,-0.003818,-0.003360
1765408560.709892,-9.930654,-0.084290,0.384983,-0.005956,-0.006414,-0.003054
1765408560.712889,-9.930654,-0.084290,0.384983,-0.005956,-0.006414,-0.003054
1765408560.715821,-9.805116,0.050813,0.197274,-0.010232,-0.008094,-0.008399
1765408560.716321,-9.783595,0.017934,0.169775,-0.010996,-0.008094,-0.003207
1765408560.719878,-9.923481,-0.036466,0.398135,-0.012370,-0.007941,-0.003665
1765408560.722853,-10.053802,-0.062171,0.498565,-0.008552,-0.005651,-0.005345
1765408560.725831,-9.940218,-0.125538,0.322214,-0.009621,-0.007025,-0.004581
1765408560.727809,-9.739358,-0.078312,0.123745,-0.008705,-0.000764,-0.004123
1765408560.729878,-9.813485,0.005380,0.322812,-0.009163,-0.003818,-0.007178
1765408560.732818,-9.934838,0.135103,0.478240,-0.009316,-0.002749,-0.005192
1765408560.733852,-9.918698,0.154232,0.363462,-0.010690,-0.005803,-0.006720
1765408560.737851,-9.810495,0.084888,0.206839,-0.012217,-0.002443,-0.002596
1765408560.740788,-9.945002,-0.053802,0.374223,-0.010690,-0.004429,-0.003360
1765408560.742872,-10.100429,-0.190100,0.545194,-0.009774,-0.001985,-0.005956
1765408560.744898,-9.999401,-0.144668,0.392157,-0.007789,-0.001680,-0.008247
1765408560.747810,-9.819464,-0.002391,0.069345,-0.011606,-0.003971,-0.008552
1765408560.749842,-9.767454,0.015543,0.127929,-0.010843,-0.003971,-0.006414
1765408560.751862,-9.925274,0.054998,0.384983,-0.012217,-0.004123,-0.006567
1765408560.754858,-9.919893,0.059780,0.340746,-0.011912,-0.000764,-0.007178
1765408560.757877,-9.805714,-0.031086,0.135701,-0.011912,0.002291,-0.007178
1765408560.758932,-9.868484,-0.033477,0.283357,-0.013134,0.001527,-0.004123
1765408560.760913,-10.040649,-0.054400,0.484218,-0.008705,0.001527,-0.007636
1765408560.764851,-10.040649,-0.054400,0.484218,-0.008705,0.006414,-0.007636
1765408560.767879,-9.885818,0.065160,0.208034,-0.016493,0.008399,-0.005956
1765408560.769833,-9.864896,-0.040650,0.201459,-0.012828,0.002443,-0.004276
1765408560.772843,-10.042442,-0.149450,0.486609,-0.012065,-0.002596,-0.003971
1765408560.775857,-10.066953,-0.176949,0.526064,-0.010232,0.005498,-0.007178
1765408560.777897,-9.828429,-0.081301,0.218795,-0.010690,0.004734,-0.009927
1765408560.779792,-9.814680,0.063367,0.253467,-0.011148,-0.001527,-0.011912
1765408560.782801,-9.996411,0.151841,0.411286,-0.011759,-0.003054,-0.010537
1765408560.785895,-9.993423,0.005978,0.382592,-0.007025,-0.000764,-0.003971
1765408560.787842,-9.891797,-0.117169,0.189503,-0.013286,0.002138,-0.002596
1765408560.789834,-9.959946,-0.170971,0.319225,-0.010690,-0.000153,-0.006872
1765408560.792817,-10.086679,-0.118364,0.499761,-0.009621,-0.003971,-0.009163
1765408560.793785,-10.072930,0.021521,0.493783,-0.012828,-0.001527,-0.008705
1765408560.797822,-9.927068,0.019130,0.267814,-0.012828,-0.006109,-0.008247
1765408560.800836,-9.915112,-0.044237,0.325203,-0.011606,-0.006109,-0.005651
1765408560.802799,-9.978478,-0.086083,0.278575,-0.008552,-0.008705,-0.002902
1765408560.805841,-9.880439,-0.109995,0.258250,-0.007330,-0.006109,-0.008552
1765408560.807843,-9.901362,-0.100430,0.224175,-0.009774,0.000153,-0.010843
1765408560.810842,-9.941415,-0.072932,0.265423,-0.004887,-0.005345,-0.008858
1765408560.812797,-10.081299,0.072334,0.563128,-0.009010,-0.004276,-0.010996
1765408560.814865,-9.921089,0.060378,0.274988,-0.009621,-0.003054,-0.007789
1765408560.815833,-9.921686,-0.049617,0.179340,-0.007941,-0.005345,-0.005651
1765408560.819833,-10.080702,-0.126734,0.412482,-0.011454,-0.005345,-0.005345
1765408560.820812,-10.121950,-0.130918,0.396939,-0.008705,-0.003207,-0.007483
1765408560.825785,-10.022716,-0.015543,0.371832,-0.010079,-0.003054,-0.008705
1765408560.827881,-9.845168,-0.007174,0.150646,-0.010385,-0.001527,-0.010232
1765408560.829894,-9.966521,0.015543,0.259445,-0.008552,-0.002902,-0.009468
1765408560.832879,-10.086082,0.058584,0.412482,-0.011301,-0.002902,-0.005651
1765408560.834868,-9.917501,-0.118962,0.161406,-0.008552,-0.004581,-0.003665
1765408560.837905,-9.954566,-0.040650,0.229555,-0.011759,-0.003054,-0.010079
1765408560.839946,-10.079505,-0.066954,0.461502,-0.012523,-0.003665,-0.008552
1765408560.842870,-9.998802,-0.119560,0.252272,-0.008705,-0.003971,-0.009316
1765408560.845836,-9.931850,0.049020,0.302487,-0.010079,-0.001069,-0.012217
1765408560.847870,-9.921089,0.121951,0.472262,-0.011759,0.003360,-0.007789
1765408560.849916,-9.904350,-0.013152,0.335964,-0.010996,-0.003818,-0.002596
1765408560.852873,-9.967718,-0.150646,0.381994,-0.009316,-0.008247,-0.005040
1765408560.853829,-9.900764,-0.151841,0.301291,-0.009010,-0.004887,-0.008858
1765408560.855825,-9.949782,-0.054998,0.365854,-0.012065,-0.004887,-0.010232
1765408560.859885,-9.870276,0.080105,0.313247,-0.009621,-0.007636,-0.011148
1765408560.862842,-9.858320,0.015543,0.334768,-0.010385,-0.011606,-0.006720
1765408560.863895,-9.811094,0.054998,0.221186,-0.012065,-0.006720,-0.010537
1765408560.867862,-9.840983,-0.068149,0.246294,-0.010690,-0.011148,-0.003207
1765408560.869872,-9.758488,-0.104017,0.099833,-0.009010,-0.008247,-0.008552
1765408560.872814,-9.912720,-0.047226,0.312052,-0.010232,-0.008247,-0.008552
1765408560.875877,-9.910329,-0.057389,0.340148,-0.007636,-0.001985,-0.009010
1765408560.877867,-9.908535,-0.020325,0.334768,-0.010537,-0.008094,-0.007636
1765408560.879892,-9.949782,-0.028097,0.477642,-0.011148,-0.003512,-0.007636
1765408560.882857,-9.833811,-0.095648,0.202056,-0.009163,-0.006261,-0.008552
1765408560.884878,-9.833811,-0.095648,0.202056,-0.009163,-0.006414,-0.008552
1765408560.887832,-9.824244,-0.028694,0.162602,-0.007941,-0.004429,-0.010690
1765408560.889829,-9.922883,-0.080105,0.370038,-0.012065,-0.004429,-0.013134
1765408560.892881,-9.922883,-0.080105,0.370038,-0.012065,-0.001374,-0.013134
1765408560.894804,-9.991630,-0.032281,0.493783,-0.013897,-0.001527,-0.008552
1765408560.897853,-9.901959,0.086083,0.236131,-0.011454,-0.006567,-0.011301
1765408560.899810,-9.903752,-0.106408,0.308465,-0.011454,-0.004123,-0.008399
1765408560.902886,-9.836202,-0.134505,0.179938,-0.006414,-0.004123,-0.007483
1765408560.905842,-9.958152,-0.096246,0.448350,-0.009316,-0.005956,-0.013592
1765408560.907848,-9.989837,0.041846,0.428025,-0.008705,0.000305,-0.010996
1765408560.908832,-9.807508,-0.086083,0.139287,-0.005345,-0.005345,-0.009163
1765408560.912819,-9.882233,-0.065160,0.353898,-0.005192,-0.000153,-0.012217
1765408560.914805,-9.808702,-0.020325,0.190100,-0.005498,-0.000153,-0.009468
1765408560.917813,-9.791965,-0.053204,0.088474,-0.009774,-0.002902,-0.008705
1765408560.919824,-9.984456,0.058584,0.382592,-0.010079,0.002443,-0.010996
1765408560.922801,-10.163795,-0.022716,0.658776,-0.009927,0.002443,-0.007483
1765408560.924822,-10.163795,-0.022716,0.658776,-0.009927,-0.003971,-0.007483
1765408560.927817,-9.890601,0.027499,0.193687,-0.013439,-0.003360,-0.010996
1765408560.929834,-9.930654,0.081899,0.356289,-0.009927,-0.005040,-0.012217
1765408560.932915,-9.933045,-0.021521,0.294118,-0.012370,-0.006414,-0.007789
1765408560.934810,-9.966521,-0.130918,0.382592,-0.011301,-0.006414,-0.011301
1765408560.937850,-9.966521,-0.130918,0.382592,-0.011301,-0.001222,-0.011301
1765408560.939880,-9.878048,-0.124342,0.231946,-0.010996,-0.007178,-0.013897
1765408560.942828,-9.995814,0.074127,0.369440,-0.009468,0.000000,-0.014661
1765408560.944866,-9.969511,-0.059780,0.402319,-0.007941,-0.001374,-0.010232
1765408560.945783,-9.846365,0.004782,0.076518,-0.008552,-0.001374,-0.011454
1765408560.949809,-9.846365,0.004782,0.076518,-0.008552,-0.004123,-0.011454
1765408560.952869,-9.967718,0.044237,0.418460,-0.011301,-0.001222,-0.010843
1765408560.955783,-9.874461,-0.027499,0.260043,-0.013592,-0.001222,-0.010843
1765408560.957892,-9.924676,-0.100430,0.379005,-0.014050,0.001680,-0.007025
1765408560.960903,-9.906742,-0.113582,0.348517,-0.009774,-0.007025,-0.009010
1765408560.962886,-9.931252,-0.089670,0.273792,-0.014508,-0.008399,-0.012523
1765408560.965879,-9.899570,0.081301,0.148254,-0.011912,-0.001527,-0.013134
1765408560.967845,-9.915709,-0.151841,0.355093,-0.011454,-0.001222,-0.010232
1765408560.968842,-10.080104,-0.157819,0.590626,-0.007941,-0.007330,-0.015424
1765408560.972919,-10.071137,-0.064562,0.463893,-0.009621,-0.003971,-0.013439
1765408560.974837,-9.797942,-0.029292,0.073529,-0.010537,-0.003054,-0.012370
1765408560.977826,-9.751911,0.037064,-0.021521,-0.007941,-0.008094,-0.010690
1765408560.979870,-10.100429,-0.017934,0.649211,-0.011148,-0.004887,-0.011301
1765408560.982881,-10.100429,-0.017934,0.649211,-0.011148,-0.000305,-0.011301
1765408560.984895,-9.898373,-0.054400,0.144668,-0.011301,-0.006109,-0.011301
1765408560.987899,-9.863102,0.007174,0.031086,-0.009316,-0.005040,-0.011912
1765408560.988847,-9.963533,-0.186514,0.353898,-0.008247,-0.003665,-0.009774
1765408560.992857,-10.060975,-0.128527,0.515304,-0.007941,0.002596,-0.014355
1765408560.994886,-10.060975,-0.128527,0.515304,-0.007941,0.003360,-0.014355
1765408560.997832,-9.841581,-0.011956,0.193687,-0.010537,-0.006567,-0.015119
1765408560.998797,-10.013748,0.063367,0.346126,-0.005651,-0.007025,-0.014355
1765408561.002832,-10.105808,-0.077116,0.602582,-0.006720,-0.001985,-0.010690
1765408561.004849,-9.946198,-0.082496,0.339550,-0.009774,-0.001985,-0.015577
1765408561.007901,-9.890003,-0.125538,0.279173,-0.009927,-0.006720,-0.013897
1765408561.009861,-10.051410,0.033477,0.427427,-0.004887,-0.011148,-0.013897
1765408561.010867,-10.022716,0.021521,0.441176,-0.007941,-0.009927,-0.014508
1765408561.014864,-9.822452,0.018532,0.175753,-0.010996,-0.008399,-0.015730
1765408561.017845,-9.830223,-0.068149,0.205643,-0.010843,-0.008399,-0.012370
1765408561.019887,-9.903752,-0.130918,0.282162,-0.011301,-0.010690,-0.012065
1765408561.022837,-9.985652,-0.092659,0.271401,-0.008094,-0.013286,-0.012675
1765408561.025789,-9.909132,-0.078910,0.358082,-0.007178,-0.005956,-0.017410
1765408561.026289,-9.909132,-0.078910,0.358082,-0.007178,-0.002443,-0.017410
1765408561.029803,-9.947392,0.099833,0.493185,-0.012217,-0.006720,-0.016799
1765408561.032819,-9.889405,0.138690,0.326399,-0.010232,-0.007483,-0.015119
1765408561.034849,-9.785987,0.021521,0.086083,-0.011454,-0.007178,-0.013744
1765408561.037803,-9.925274,-0.080105,0.274390,-0.010690,-0.005040,-0.014661
1765408561.040841,-10.017933,-0.187709,0.370636,-0.012523,-0.004734,-0.013439
1765408561.042852,-9.884026,-0.070540,0.188905,-0.012828,-0.003971,-0.018784
1765408561.044848,-9.790769,0.052606,0.187111,-0.009010,0.000305,-0.017715
1765408561.047852,-9.946198,0.068149,0.456719,-0.014355,0.001527,-0.015882
1765408561.050841,-10.052606,-0.050215,0.613343,-0.012981,-0.003512,-0.013439
1765408561.051341,-9.942610,-0.160210,0.442372,-0.010537,-0.002291,-0.014508
1765408561.054897,-9.720228,-0.071138,0.032281,-0.011454,-0.005956,-0.018631
1765408561.057834,-9.818267,-0.002391,0.115973,-0.012217,-0.010537,-0.020922
1765408561.059822,-9.861309,0.034672,0.199665,-0.012217,-0.006414,-0.019700
1765408561.062832,-9.933045,0.072334,0.387374,-0.010843,-0.003512,-0.015272
1765408561.064854,-9.961142,0.066954,0.460904,-0.012370,-0.000916,-0.014050
1765408561.067884,-9.909731,-0.089072,0.430416,-0.016799,-0.006261,-0.015119
1765408561.069861,-9.862504,-0.166188,0.191296,-0.013439,-0.009163,-0.016035
1765408561.072844,-9.950979,-0.132712,0.237924,-0.009010,-0.003818,-0.019548
1765408561.074827,-9.976088,-0.130320,0.512315,-0.011912,-0.003818,-0.018631
1765408561.077799,-9.855330,-0.043042,0.294118,-0.010996,-0.002749,-0.018326
1765408561.079804,-9.917501,-0.017934,0.297107,-0.014050,-0.007483,-0.022907
1765408561.082841,-9.924676,0.031683,0.264228,-0.009621,-0.006261,-0.017715
1765408561.084826,-9.901959,-0.076518,0.249283,-0.011606,-0.006720,-0.015730
1765408561.087780,-9.937828,-0.098039,0.343137,-0.013134,-0.007483,-0.018479
1765408561.090868,-9.905546,-0.063367,0.312052,-0.011301,-0.001222,-0.018479
1765408561.092778,-9.757292,-0.031683,0.265423,-0.008552,0.001833,-0.019700
1765408561.094848,-9.867287,0.005978,0.492587,-0.012981,-0.006872,-0.022297
1765408561.097847,-9.867287,0.005978,0.492587,-0.012981,-0.008705,-0.022297
1765408561.098821,-9.880439,-0.098039,0.277379,-0.014661,-0.011759,-0.018173
1765408561.100849,-9.734576,-0.190698,-0.083692,-0.016952,-0.010690,-0.017257
1765408561.105845,-9.689142,-0.170971,-0.166188,-0.011912,-0.003971,-0.020464
1765408561.107811,-9.869678,-0.112386,0.190100,-0.011606,-0.003971,-0.021228
1765408561.109827,-9.869678,-0.112386,0.190100,-0.011606,0.004123,-0.021228
1765408561.110768,-9.887612,0.016738,0.303682,-0.012217,0.001374,-0.020311
1765408561.115870,-9.802725,0.038259,0.278575,-0.013134,0.002596,-0.018784
1765408561.117835,-9.878048,-0.039455,0.462697,-0.014050,-0.005345,-0.017104
1765408561.120814,-10.035867,-0.129125,0.606169,-0.010843,-0.005345,-0.019090
1765408561.122817,-9.998206,-0.102822,0.435198,-0.011148,-0.001680,-0.019853
1765408561.123832,-9.800333,-0.065758,0.242109,-0.011606,-0.005498,-0.023976
1765408561.127844,-9.819464,-0.031086,0.173960,-0.009468,-0.010843,-0.022755
1765408561.129868,-10.047822,0.089072,0.511717,-0.009927,-0.005803,-0.021686
1765408561.132851,-10.072930,0.095648,0.536824,-0.013592,-0.005803,-0.019090
1765408561.135853,-9.766856,-0.144668,-0.063367,-0.013592,-0.006109,-0.019090
1765408561.137908,-9.837397,-0.164993,0.121951,-0.015577,-0.005345,-0.020769
1765408561.139886,-10.037660,-0.099235,0.554161,-0.012828,-0.005345,-0.020006
1765408561.143009,-9.955761,-0.065758,0.505739,-0.012523,-0.003360,-0.020617
1765408561.145852,-9.725011,-0.037064,0.028694,-0.015119,-0.005345,-0.022297
1765408561.147845,-9.857125,0.076518,0.289933,-0.015119,-0.006567,-0.022907
1765408561.149835,-10.052606,-0.028694,0.544596,-0.018173,-0.009163,-0.018784
1765408561.152823,-9.984456,-0.144070,0.350311,-0.016341,-0.009927,-0.019700
1765408561.154819,-9.984456,-0.144070,0.350311,-0.016341,-0.002291,-0.019700
1765408561.157837,-9.748923,-0.137494,0.174558,-0.015577,-0.001069,-0.023213
1765408561.159827,-9.927068,-0.035868,0.459110,-0.010232,-0.011301,-0.023213
1765408561.160854,-10.000596,-0.053204,0.533835,-0.009316,-0.005498,-0.024129
1765408561.163828,-9.687947,-0.040053,0.073529,-0.009010,-0.004887,-0.020006
1765408561.167817,-9.687947,-0.040053,0.073529,-0.009010,-0.010385,-0.020006
1765408561.169861,-9.851745,-0.135103,0.071736,-0.012217,-0.012675,-0.021075
1765408561.172853,-10.064561,-0.106408,0.491392,-0.012828,-0.001069,-0.021838
1765408561.175780,-9.949782,-0.154232,0.481827,-0.014966,0.008705,-0.020617
1765408561.177821,-9.814680,-0.123147,0.325203,-0.014508,0.006109,-0.024740
1765408561.180813,-10.003586,0.010163,0.685677,-0.014661,-0.004429,-0.025504
1765408561.182788,-10.062170,0.034672,0.679101,-0.017562,-0.004123,-0.019700
1765408561.185878,-9.852941,-0.143472,0.218197,-0.012523,-0.008399,-0.018021
1765408561.187895,-9.883428,-0.119560,0.084888,-0.011759,-0.012523,-0.025504
1765408561.189830,-9.961740,-0.173960,0.095648,-0.013286,-0.012523,-0.024740
1765408561.192853,-9.978478,-0.043042,0.290531,-0.006720,-0.005498,-0.026878
1765408561.194836,-9.927666,0.026303,0.443568,-0.014661,0.002443,-0.027031
1765408561.197818,-9.890601,0.087877,0.334768,-0.013592,-0.003054,-0.025351
1765408561.199805,-9.934240,-0.098039,0.429220,-0.015882,-0.006261,-0.023060
1765408561.202874,-9.912720,-0.049020,0.343137,-0.011148,-0.004887,-0.020922
1765408561.204855,-9.812887,-0.194285,0.155428,-0.014661,-0.002902,-0.022907
1765408561.207866,-9.794355,-0.120756,0.247489,-0.014203,0.000458,-0.024282
1765408561.209849,-9.830223,-0.098039,0.292922,-0.011148,-0.002902,-0.021228
1765408561.212894,-9.997607,-0.121353,0.407700,-0.015272,-0.009774,-0.025045
1765408561.214812,-9.947989,0.032879,0.170971,-0.018479,-0.005498,-0.027489
1765408561.217785,-9.817670,-0.086083,0.196078,-0.016493,0.001069,-0.023213
1765408561.220827,-9.843375,-0.203252,0.296509,-0.013286,-0.001985,-0.022755
1765408561.222825,-10.280965,-0.124940,0.956480,-0.014661,-0.005040,-0.026267
1765408561.224801,-9.998206,-0.199665,0.490196,-0.014508,0.003818,-0.027336
1765408561.227812,-9.694523,0.035270,-0.138690,-0.008399,-0.005345,-0.025809
1765408561.229818,-9.885818,0.083692,0.208034,-0.016188,-0.010537,-0.024740
1765408561.230822,-10.129124,-0.024510,0.553563,-0.015882,-0.002749,-0.022449
1765408561.234845,-9.990434,-0.234338,0.275586,-0.012065,-0.000305,-0.021075
1765408561.235818,-9.936632,-0.186514,0.362267,-0.013134,0.001374,-0.028558
1765408561.238887,-9.955761,-0.082496,0.437590,-0.011148,0.002443,-0.025962
1765408561.242842,-10.068149,-0.016141,0.549976,-0.009010,-0.007483,-0.027642
1765408561.243856,-10.050214,0.014347,0.388570,-0.016188,-0.006261,-0.030238
1765408561.247804,-9.894786,0.050215,0.013152,-0.014508,-0.006872,-0.027031
1765408561.249855,-9.840983,-0.081899,0.147059,-0.014966,-0.005651,-0.023824
1765408561.252790,-9.990434,-0.136298,0.396939,-0.015424,-0.006567,-0.025198
1765408561.254815,-10.011356,-0.022119,0.363462,-0.014813,-0.001374,-0.025198
1765408561.257832,-9.871471,-0.023314,0.263630,-0.014661,-0.002291,-0.024587
1765408561.260906,-9.834408,-0.104017,0.149450,-0.015577,-0.006261,-0.022297
1765408561.262823,-9.956957,-0.095648,0.402917,-0.015882,-0.006414,-0.027184
1765408561.264834,-10.078907,-0.040650,0.400526,-0.016188,-0.003512,-0.026878
1765408561.267866,-9.897178,-0.105213,0.306074,-0.015424,-0.004276,-0.024740
1765408561.269829,-9.887015,-0.066954,0.249880,-0.016952,-0.005803,-0.028405
1765408561.271847,-9.941415,-0.135103,0.221784,-0.018021,-0.009774,-0.025045
1765408561.274815,-9.869678,-0.160210,0.159015,-0.016035,-0.010537,-0.028863
1765408561.277825,-9.968913,-0.114778,0.377212,-0.014050,0.001833,-0.029322
1765408561.279860,-9.783595,-0.094452,0.375418,-0.008094,0.001833,-0.028558
1765408561.282853,-9.825441,-0.003587,0.264228,-0.014661,-0.010079,-0.030849
1765408561.284853,-9.989238,-0.035868,0.371234,-0.016493,-0.009010,-0.028558
1765408561.287912,-9.883428,-0.155428,0.069943,-0.014661,-0.005192,-0.026573
1765408561.289903,-9.807508,-0.240316,0.069345,-0.015577,0.001374,-0.025962
1765408561.292893,-9.967718,-0.138690,0.496174,-0.010843,0.001374,-0.032987
1765408561.294868,-10.029889,0.023912,0.661167,-0.008858,-0.003054,-0.029780
1765408561.297953,-9.999999,0.167384,0.481229,-0.015882,-0.010079,-0.031154
1765408561.299905,-9.947989,0.060378,0.374223,-0.016952,-0.010079,-0.024282
1765408561.302879,-9.647297,-0.284553,-0.163199,-0.016341,-0.013744,-0.023366
1765408561.304926,-9.960544,-0.216404,0.206839,-0.018326,-0.013134,-0.033292
1765408561.307863,-9.960544,-0.216404,0.206839,-0.018326,0.008399,-0.033292
1765408561.311009,-9.853538,-0.056193,0.458513,-0.012217,-0.013744,-0.029322
1765408561.312884,-9.748325,-0.053204,0.084888,-0.020006,-0.013744,-0.032070
1765408561.314883,-9.905546,0.039455,0.179340,-0.023060,-0.012675,-0.029780
1765408561.315863,-9.799137,-0.126136,0.109995,-0.017868,-0.001833,-0.024587
1765408561.320851,-9.869678,-0.290531,0.304878,-0.017868,-0.000916,-0.024587
1765408561.322832,-10.026302,-0.178144,0.546987,-0.019853,-0.002596,-0.032529
1765408561.325828,-10.099234,-0.153037,0.593018,-0.015882,-0.002596,-0.032223
1765408561.327830,-9.914514,-0.027499,0.356887,-0.012065,-0.004887,-0.029016
1765408561.328811,-9.845766,-0.040650,0.386179,-0.016341,-0.010690,-0.030238
1765408561.332831,-10.118960,-0.136896,0.586442,-0.016188,-0.007178,-0.028100
1765408561.334811,-10.040051,-0.239120,0.432209,-0.013134,-0.007789,-0.026878
1765408561.337891,-10.009563,-0.295313,0.390961,-0.011301,-0.013592,-0.032529
1765408561.339833,-9.720228,-0.201459,-0.133907,-0.017715,-0.007330,-0.034514
1765408561.342839,-9.819464,-0.007174,0.063367,-0.014661,-0.006109,-0.034361
1765408561.344810,-9.923481,0.106408,0.380201,-0.014508,-0.006109,-0.032987
1765408561.347873,-9.937828,0.040053,0.504543,-0.012675,0.000458,-0.026420
1765408561.349839,-9.894786,-0.190100,0.482425,-0.021075,0.000458,-0.029932
1765408561.352791,-9.790769,-0.220588,0.043042,-0.016952,-0.007636,-0.031612
1765408561.353835,-9.930654,-0.188905,0.082496,-0.015577,-0.004276,-0.031307
1765408561.357859,-9.957555,-0.130320,0.392157,-0.014966,-0.004276,-0.031918
1765408561.360825,-9.873264,-0.134505,0.380201,-0.014966,0.005040,-0.031918
1765408561.362919,-9.695121,-0.114778,0.205643,-0.017562,0.000305,-0.032529
1765408561.363907,-10.072930,0.089072,0.589431,-0.016188,-0.005651,-0.033139
1765408561.367829,-10.017933,-0.095648,0.518890,-0.011759,0.000000,-0.023213
1765408561.370859,-9.932447,-0.227164,0.343137,-0.012828,-0.007178,-0.028711
1765408561.373324,-9.893590,-0.227164,0.214012,-0.019395,-0.008705,-0.035430
1765408561.374889,-9.863700,-0.255858,0.092061,-0.018937,-0.012675,-0.030238
1765408561.377812,-9.905546,-0.115375,0.251674,-0.015119,-0.007789,-0.036194
1765408561.378815,-9.918698,0.002391,0.454328,-0.014355,0.001374,-0.034819
1765408561.382813,-9.807508,0.004782,0.301291,-0.016188,0.003971,-0.031918
1765408561.384884,-9.869678,-0.111191,0.160210,-0.018173,-0.009468,-0.030696
1765408561.387858,-9.905546,-0.147059,0.328790,-0.016188,-0.006261,-0.031765
1765408561.390824,-9.788378,-0.246294,0.239120,-0.014966,-0.001985,-0.033903
1765408561.392791,-9.810495,-0.060976,0.370636,-0.015577,-0.001985,-0.037415
1765408561.395789,-9.715446,-0.041846,0.130918,-0.016799,-0.005192,-0.035583
1765408561.397853,-9.898971,0.054998,0.320421,-0.014966,-0.007330,-0.033750
1765408561.400815,-10.019128,-0.095050,0.459110,-0.013439,-0.002596,-0.030849
1765408561.402854,-9.861907,-0.276781,0.210426,-0.014203,-0.005651,-0.031154
1765408561.405789,-9.795551,-0.203252,0.068747,-0.018784,-0.000458,-0.036805
1765408561.407804,-9.934240,-0.098039,0.274988,-0.017715,-0.000458,-0.035277
1765408561.408813,-9.953967,-0.047824,0.429220,-0.016646,0.000305,-0.037415
1765408561.412774,-9.880439,-0.020923,0.384983,-0.017257,-0.000764,-0.035277
1765408561.415816,-9.816475,0.004782,0.221186,-0.018937,0.003054,-0.033903
1765408561.416316,-9.816475,-0.223577,0.169775,-0.018937,-0.005803,-0.033903
1765408561.420807,-10.063366,-0.264228,0.502750,-0.013439,-0.007636,-0.034208
1765408561.422774,-9.931252,-0.304280,0.239120,-0.015424,-0.000916,-0.036346
1765408561.425813,-9.903154,-0.173362,0.297704,-0.016799,-0.004276,-0.042761
1765408561.427821,-9.934838,0.003587,0.288737,-0.015119,-0.004276,-0.042455
1765408561.429867,-10.046627,-0.001793,0.492587,-0.015577,-0.007789,-0.038485
1765408561.432844,-10.031682,0.053204,0.416069,-0.018937,0.000916,-0.038332
1765408561.434825,-9.942610,-0.077116,0.249283,-0.013286,0.002902,-0.033445
1765408561.437997,-9.784791,-0.221186,0.069345,-0.016341,-0.003207,-0.032223
1765408561.439841,-9.916306,-0.136298,0.196078,-0.016035,-0.006414,-0.037415
1765408561.442914,-9.861309,-0.252869,0.258250,-0.016341,0.003207,-0.036041
1765408561.444846,-9.817670,-0.123147,0.274988,-0.016188,0.002902,-0.038943
1765408561.447877,-10.099234,0.037064,0.682688,-0.021686,0.003207,-0.038485
1765408561.450852,-10.086082,-0.076518,0.649211,-0.020769,0.001680,-0.035736
1765408561.452816,-9.783595,-0.276184,0.076518,-0.017562,-0.010537,-0.034972
1765408561.454872,-9.799736,-0.295313,0.162602,-0.022297,-0.005498,-0.039859
1765408561.457844,-9.769248,-0.355093,0.212817,-0.016952,-0.001222,-0.036346
1765408561.459864,-9.769248,-0.302487,0.170971,-0.015119,-0.007483,-0.041692
1765408561.462858,-9.893590,-0.023912,0.365854,-0.020922,-0.001069,-0.049633
1765408561.464869,-9.817072,0.153635,0.275586,-0.017715,0.005498,-0.041539
1765408561.467828,-9.820659,-0.071736,0.289933,-0.019090,-0.002291,-0.035430
1765408561.469839,-10.049019,-0.029292,0.538020,-0.022602,-0.003512,-0.038637
1765408561.472815,-10.056790,-0.266619,0.448350,-0.021686,0.003512,-0.033903
1765408561.474833,-9.765661,-0.406504,0.144070,-0.015730,0.000916,-0.036346
1765408561.477880,-9.787780,-0.241511,0.271401,-0.019395,-0.002902,-0.043371
1765408561.478838,-9.787780,-0.241511,0.271401,-0.019395,0.000764,-0.043371
1765408561.482865,-10.003586,0.098039,0.548183,-0.017562,-0.001680,-0.041692
1765408561.485795,-9.846962,-0.093257,0.241511,-0.021228,-0.001680,-0.037721
1765408561.487775,-9.800333,-0.162004,0.073529,-0.020006,-0.004276,-0.036957
1765408561.489815,-9.866092,-0.324008,0.190100,-0.017868,-0.005651,-0.038179
1765408561.492808,-9.866092,-0.324008,0.190100,-0.017868,-0.007483,-0.038179
1765408561.494826,-10.159015,-0.123147,0.576279,-0.016799,0.001833,-0.048411
1765408561.497849,-10.044834,-0.054998,0.432807,-0.021075,0.001833,-0.048258
1765408561.499849,-9.965326,0.051411,0.212817,-0.023213,0.000305,-0.047037
1765408561.502814,-10.176947,0.028097,0.478240,-0.021228,-0.003512,-0.043371
1765408561.505799,-10.190698,-0.052606,0.627690,-0.018937,-0.001985,-0.041539
1765408561.506299,-10.017933,-0.266619,0.431612,-0.023671,-0.001222,-0.039401
1765408561.509814,-9.747129,-0.329986,0.113582,-0.022602,-0.001222,-0.044593
1765408561.512828,-9.707077,-0.205643,0.096844,-0.019242,-0.003360,-0.049633
1765408561.515786,-9.820659,0.082496,0.215208,-0.016341,0.000458,-0.049938
1765408561.517836,-9.975489,0.070540,0.498565,-0.021991,0.001069,-0.047037
1765408561.519796,-9.882831,-0.054998,0.376614,-0.026573,-0.001069,-0.043524
1765408561.520789,-9.746531,-0.183525,0.028694,-0.026573,-0.003971,-0.042761
1765408561.525788,-9.655068,-0.374223,-0.181731,-0.027489,-0.006414,-0.043524
1765408561.527804,-9.905546,-0.255858,0.431612,-0.023518,0.014355,-0.048258
1765408561.529803,-10.074127,-0.086681,0.763391,-0.019242,0.014355,-0.047647
1765408561.530787,-10.074127,-0.086681,0.763391,-0.019242,0.006414,-0.047647
1765408561.534826,-9.716641,-0.098637,-0.064562,-0.029932,-0.005040,-0.048869
1765408561.537849,-9.961740,-0.088474,0.120756,-0.024740,-0.009927,-0.045051
1765408561.539932,-10.068149,-0.269010,0.490196,-0.018173,0.007789,-0.038943
1765408561.542849,-9.988043,-0.357484,0.642635,-0.022602,0.007789,-0.042455
1765408561.544856,-9.988043,-0.357484,0.642635,-0.022602,0.000916,-0.042455
1765408561.547841,-9.840983,-0.066954,0.087877,-0.022449,0.000458,-0.052076
1765408561.549811,-9.873863,-0.027499,0.290531,-0.022755,0.000458,-0.046426
1765408561.552821,-9.874461,-0.066954,0.514706,-0.023824,-0.001069,-0.041233
1765408561.554817,-9.974891,-0.338355,0.463893,-0.025351,-0.001069,-0.041386
1765408561.557833,-9.793160,-0.510521,0.029292,-0.023976,-0.004734,-0.045051
1765408561.559867,-9.564202,-0.477044,-0.251674,-0.019700,-0.008399,-0.049175
1765408561.562909,-9.722619,-0.131516,0.215806,-0.020617,0.001985,-0.056505
1765408561.569300,-9.978478,0.092659,0.573290,-0.025351,0.006567,-0.053451
1765408561.569800,-9.855330,-0.038857,0.208034,-0.024587,0.000153,-0.047953
1765408561.569858,-9.652080,-0.156624,-0.138690,-0.023976,-0.003054,-0.046731
1765408561.570853,-9.713653,-0.263032,0.059182,-0.024282,0.009010,-0.043524
1765408561.574840,-9.903154,-0.434601,0.496174,-0.021533,0.005956,-0.041081
1765408561.577785,-9.836202,-0.413678,0.493783,-0.021533,0.003665,-0.041081
1765408561.579853,-9.524150,-0.263032,-0.077714,-0.019242,-0.000764,-0.050396
1765408561.580842,-9.527737,-0.013152,-0.114180,-0.023976,-0.004581,-0.054062
1765408561.584760,-9.786584,0.057389,0.128527,-0.023060,-0.000305,-0.045509
1765408561.585857,-10.019128,-0.284553,0.440579,-0.020769,0.001222,-0.039095
1765408561.588768,-9.957555,-0.284553,0.355093,-0.020769,0.006109,-0.039095
1765408561.590902,-9.986848,-0.398135,0.416667,-0.022755,0.005345,-0.047342
1765408561.594786,-10.050214,-0.220588,0.364658,-0.019853,0.004581,-0.053756
1765408561.597820,-10.182328,0.020325,0.614538,-0.021838,-0.001680,-0.053756
1765408561.600781,-10.280366,0.111191,1.028814,-0.023366,0.004734,-0.049938
1765408561.602810,-9.763867,-0.133907,0.133907,-0.025351,0.003360,-0.043066
1765408561.604790,-9.781204,-0.457317,-0.141081,-0.029627,-0.018479,-0.041081
1765408561.607821,-10.029889,-0.414275,0.193687,-0.021075,-0.009316,-0.052687
1765408561.610822,-9.921089,-0.304878,0.441176,-0.016188,0.005651,-0.053603
1765408561.612804,-9.643112,-0.049617,0.217001,-0.021991,0.005651,-0.058643
1765408561.614813,-9.817072,0.219393,0.273792,-0.025198,0.001527,-0.052229
1765408561.617793,-9.961740,-0.222979,0.332377,-0.023518,-0.001222,-0.036652
1765408561.619783,-10.017933,-0.483022,0.352702,-0.021686,-0.003054,-0.041539
1765408561.622786,-10.071735,-0.397537,0.492587,-0.025045,0.008247,-0.049633
1765408561.624828,-9.819464,-0.462697,0.272597,-0.026267,0.000305,-0.052229
1765408561.625770,-9.909132,-0.214012,0.222382,-0.022602,-0.006414,-0.055436
1765408561.629829,-9.835604,0.009565,0.088474,-0.022297,0.005192,-0.053603
1765408561.632837,-9.750119,-0.020325,0.105811,-0.027642,0.005192,-0.050244
1765408561.633848,-9.928263,-0.218795,0.414873,-0.025351,0.000458,-0.043830
1765408561.637841,-10.156623,-0.376016,0.582257,-0.023518,0.001680,-0.044135
1765408561.639874,-10.112983,-0.405308,0.404711,-0.024282,-0.006109,-0.051618
1765408561.642914,-10.143471,-0.164993,0.579268,-0.024435,0.002596,-0.054367
1765408561.644940,-9.660448,-0.294118,0.052606,-0.022144,-0.000305,-0.044593
1765408561.645808,-9.812887,-0.290531,0.109995,-0.027642,-0.014355,-0.054825
1765408561.649811,-10.155428,-0.138690,0.703013,-0.024129,0.001680,-0.051771
1765408561.651832,-9.823050,-0.273195,0.403515,-0.018631,0.011912,-0.042761
1765408561.653818,-9.731586,-0.189503,0.130320,-0.024587,-0.003207,-0.050549
1765408561.657770,-9.945002,-0.278575,0.142276,-0.032834,-0.006567,-0.052076
1765408561.659843,-9.850550,-0.411286,0.104017,-0.016493,-0.000153,-0.045357
1765408561.662870,-9.704088,-0.319225,0.106408,-0.015424,0.002443,-0.049786
1765408561.664882,-9.814083,-0.054998,0.314443,-0.028405,0.009468,-0.058490
1765408561.667855,-9.995814,-0.166188,0.491392,-0.027336,0.001833,-0.050396
1765408561.669896,-10.019128,-0.248685,0.383190,-0.021228,0.001833,-0.046120
1765408561.673359,-9.941415,-0.347920,0.334170,-0.022602,0.005345,-0.046578
1765408561.674858,-9.990434,-0.449546,0.552367,-0.022907,0.008399,-0.049786
1765408561.675959,-9.838593,-0.551172,0.070540,-0.020922,-0.004581,-0.052687
1765408561.680784,-9.969511,-0.135701,0.384983,-0.021991,-0.003971,-0.063530
1765408561.682849,-9.637134,0.081301,0.046031,-0.020311,0.010385,-0.054214
1765408561.685851,-9.811094,-0.017336,0.121353,-0.026114,-0.000458,-0.046578
1765408561.687835,-10.028693,-0.261836,0.370636,-0.024435,0.000458,-0.045051
1765408561.688784,-9.955761,-0.712578,0.431612,-0.019395,0.009010,-0.043219
1765408561.692784,-9.650286,-0.496174,0.001196,-0.020617,0.006414,-0.054520
1765408561.694787,-9.909132,-0.155428,0.389766,-0.028100,0.001374,-0.063377
1765408561.697815,-10.086679,0.087279,0.529651,-0.019548,0.001985,-0.056200
1765408561.699903,-9.924676,-0.013749,0.263032,-0.016493,0.001222,-0.044135
1765408561.702864,-9.687349,-0.431612,0.192492,-0.022907,0.001222,-0.043677
1765408561.704833,-9.687349,-0.431612,0.192492,-0.022907,-0.005498,-0.043677
1765408561.707767,-10.037063,-0.438187,0.214610,-0.022755,-0.009621,-0.056047
1765408561.710756,-10.082495,-0.142874,0.597800,-0.017715,0.006414,-0.056505
1765408561.711256,-9.861309,-0.143472,0.438785,-0.017868,0.000916,-0.050244
1765408561.714788,-9.821257,-0.153037,0.203850,-0.027794,0.000916,-0.056352
1765408561.717866,-9.821257,-0.153037,0.203850,-0.027794,-0.007789,-0.056352
1765408561.719845,-9.954566,-0.368245,0.242707,-0.015882,-0.001680,-0.051007
1765408561.722838,-9.903752,-0.184122,0.346724,-0.019700,-0.001527,-0.056047
1765408561.724843,-9.707077,-0.315638,0.176949,-0.025809,-0.009316,-0.050855
1765408561.725878,-9.712457,-0.370038,-0.014347,-0.021533,-0.009316,-0.050702
1765408561.728778,-9.943806,-0.209230,0.383788,-0.025809,-0.007178,-0.057727
1765408561.732787,-10.089668,-0.041846,0.675514,-0.022297,0.007025,-0.057421
1765408561.733858,-9.715446,-0.196078,0.023912,-0.025504,0.007025,-0.051771
1765408561.737802,-9.789574,-0.249880,-0.094452,-0.026114,-0.010843,-0.051007
1765408561.739826,-10.150046,-0.411286,0.560736,-0.022755,0.000305,-0.051771
1765408561.742901,-9.833811,-0.595409,0.343735,-0.019700,0.012217,-0.048717
1765408561.744842,-9.641318,-0.469871,-0.028097,-0.025504,-0.000153,-0.058948
1765408561.745830,-9.891200,0.129125,0.388570,-0.026420,-0.000611,-0.067501
1765408561.750840,-9.980869,0.090866,0.543998,-0.022144,-0.000611,-0.067501
1765408561.751340,-9.619798,-0.340746,0.112984,-0.019700,0.002138,-0.044899
1765408561.754873,-9.637732,-0.487805,-0.037064,-0.027947,-0.002902,-0.054062
1765408561.757842,-9.830223,-0.455524,0.164993,-0.022144,-0.001222,-0.058338
1765408561.759885,-9.964728,-0.264228,0.315638,-0.016341,-0.001833,-0.057574
1765408561.762929,-9.964728,-0.264228,0.315638,-0.016341,0.008399,-0.057574
1765408561.764936,-9.581538,-0.128527,0.009565,-0.025045,0.002596,-0.055894
1765408561.767898,-9.711859,-0.335964,0.119560,-0.024587,0.002596,-0.051618
1765408561.770891,-10.144667,-0.327594,0.671927,-0.022449,-0.002902,-0.056810
1765408561.771391,-9.910329,-0.284553,0.436992,-0.025045,0.011606,-0.053603
1765408561.773817,-9.610233,-0.557150,-0.039455,-0.027336,0.005192,-0.053298
1765408561.775807,-9.576756,-0.527857,-0.333572,-0.021075,-0.004429,-0.058643
1765408561.779806,-10.043041,-0.283955,0.352702,-0.024740,-0.002596,-0.063072
1765408561.780805,-10.271400,0.162602,1.021042,-0.024587,0.025504,-0.063835
1765408561.785813,-9.783595,-0.075323,0.404711,-0.026420,0.027336,-0.045662
1765408561.786313,-9.733380,-0.499163,-0.081301,-0.032070,-0.002443,-0.051465
1765408561.789866,-10.205642,-0.526064,0.609756,-0.024587,-0.000305,-0.054978
1765408561.790803,-10.066953,-0.694644,0.707795,-0.016341,0.016493,-0.054520
1765408561.793852,-9.746531,-0.134505,0.265423,-0.025504,0.009774,-0.067195
1765408561.797951,-9.732184,0.117169,0.061573,-0.034361,0.002596,-0.066584
1765408561.799828,-9.791965,-0.252272,-0.066356,-0.025045,-0.003971,-0.054672
1765408561.802843,-9.876254,-0.364658,0.394548,-0.019242,0.003512,-0.054214
1765408561.803843,-9.879841,-0.315638,0.557150,-0.026267,0.021838,-0.055589
1765408561.807793,-9.692730,-0.468675,-0.064562,-0.030085,0.008399,-0.058643
1765408561.809870,-9.980869,-0.411286,0.280368,-0.025198,-0.002138,-0.059865
1765408561.812764,-10.009563,-0.405308,0.369440,-0.019090,0.007483,-0.058338
1765408561.814869,-9.777617,-0.212817,0.297704,-0.021686,0.012675,-0.062919
1765408561.817825,-9.754303,0.002391,0.308465,-0.031307,0.013134,-0.061850
1765408561.819831,-9.817072,-0.264228,0.059780,-0.025504,-0.003360,-0.047495
1765408561.822820,-9.995216,-0.588235,0.156624,-0.025809,-0.005803,-0.051160
1765408561.823777,-9.886416,-0.520086,0.234338,-0.022144,0.012523,-0.059559
1765408561.827802,-9.670013,-0.448350,0.332377,-0.025809,0.015577,-0.063225
1765408561.828824,-9.791965,-0.066954,0.243902,-0.029016,0.001833,-0.064904
1765408561.832793,-10.053802,0.004782,0.292922,-0.032376,-0.000153,-0.058032
1765408561.834821,-9.828429,-0.384983,0.065160,-0.027794,0.004276,-0.050396
1765408561.837782,-9.788378,-0.492587,0.177547,-0.023671,0.008552,-0.053145
1765408561.839809,-9.906742,-0.470469,0.410091,-0.026267,0.003665,-0.062003
1765408561.842810,-10.034073,-0.292324,0.391559,-0.027489,0.004734,-0.066432
1765408561.844841,-9.909132,-0.317432,0.114778,-0.024129,0.004123,-0.060323
1765408561.847771,-9.698110,-0.174558,0.089670,-0.028405,0.012523,-0.064599
1765408561.849803,-10.098636,-0.113582,0.725729,-0.033750,0.007941,-0.063225
1765408561.852880,-10.236728,-0.344931,0.622908,-0.028558,0.005192,-0.057116
1765408561.853871,-10.009563,-0.487207,0.250478,-0.024587,-0.001833,-0.059101
1765408561.857772,-9.869678,-0.474653,0.194883,-0.026114,0.009621,-0.063530
1765408561.858898,-9.850550,-0.508728,0.267814,-0.021380,0.004581,-0.063377
1765408561.862821,-10.126732,-0.313247,0.447154,-0.027336,-0.005192,-0.069944
1765408561.864810,-10.132113,0.011956,0.420851,-0.025351,0.005651,-0.066584
1765408561.867807,-9.709468,-0.340746,-0.065758,-0.025504,0.011148,-0.051924
1765408561.869917,-9.884026,-0.514108,0.310856,-0.029016,0.002138,-0.060323
1765408561.872839,-10.410090,-0.342539,0.868006,-0.027336,0.005040,-0.069791
1765408561.875759,-10.033475,-0.442372,0.309660,-0.021533,0.013134,-0.058948
1765408561.877804,-9.641916,-0.422047,-0.153037,-0.026267,0.003665,-0.067806
1765408561.880792,-9.857722,-0.290531,0.362267,-0.029780,0.001680,-0.067959
1765408561.882936,-10.202055,-0.219990,0.675514,-0.025962,0.004581,-0.062461
1765408561.885896,-9.992825,-0.233142,0.235533,-0.022602,0.004429,-0.060170
1765408561.887804,-9.755498,-0.428025,-0.240913,-0.028863,0.004429,-0.060323
1765408561.889844,-10.047822,-0.438785,0.399330,-0.023213,0.002138,-0.063683
1765408561.892809,-10.374221,-0.371832,0.968436,-0.020464,0.008094,-0.064294
1765408561.894888,-9.976088,-0.311454,0.368843,-0.027184,0.008247,-0.068417
1765408561.895836,-9.745336,-0.080703,-0.023314,-0.031765,0.004734,-0.070860
1765408561.900843,-9.919893,-0.252869,0.307269,-0.030391,-0.001222,-0.062156
1765408561.902849,-9.945002,-0.459110,0.320421,-0.029016,-0.007483,-0.062766
1765408561.904867,-10.160210,-0.216404,0.569106,-0.034208,0.007178,-0.073915
1765408561.907848,-9.577952,-0.389766,-0.163199,-0.033292,0.007178,-0.063530
1765408561.909851,-9.660448,-0.404113,-0.065160,-0.029474,-0.011912,-0.065668
1765408561.912860,-9.995814,-0.239120,0.487207,-0.031612,-0.003207,-0.073457
1765408561.914873,-9.995814,-0.239120,0.487207,-0.031612,0.009316,-0.073457
1765408561.917855,-9.674795,-0.139287,0.065758,-0.031918,-0.012217,-0.069028
1765408561.919801,-9.974891,-0.255858,0.305476,-0.032376,-0.012217,-0.067806
1765408561.922814,-10.215207,-0.355691,0.555954,-0.033903,-0.009621,-0.066126
1765408561.925841,-9.976088,-0.405308,0.172166,-0.034361,0.002291,-0.065668
1765408561.927796,-9.799137,-0.364658,0.070540,-0.029780,0.002596,-0.070097
1765408561.930832,-9.817072,-0.322812,0.125538,-0.034819,-0.004734,-0.073609
1765408561.932841,-10.289334,-0.074725,0.663558,-0.037415,-0.000153,-0.075747
1765408561.934851,-10.011955,-0.218795,0.298900,-0.037110,0.010385,-0.065210
1765408561.937865,-9.842180,-0.389766,0.020325,-0.038790,-0.001985,-0.062614
1765408561.940809,-9.983260,-0.640842,0.259445,-0.037263,-0.004123,-0.069639
1765408561.942799,-10.065758,-0.633668,0.431612,-0.032834,-0.003054,-0.071624
1765408561.944963,-9.895982,-0.560736,0.236131,-0.033598,0.005040,-0.076053
1765408561.947804,-9.985053,-0.058584,0.490196,-0.037568,0.009774,-0.081551
1765408561.949840,-9.986848,-0.258250,0.439981,-0.034514,-0.011606,-0.070555
1765408561.952875,-9.879841,-0.399928,0.038259,-0.033750,-0.011606,-0.071166
1765408561.955810,-9.892395,-0.367647,0.010760,-0.039095,-0.004429,-0.074067
1765408561.957775,-9.708273,-0.593615,0.113582,-0.037415,0.005803,-0.070097
1765408561.959884,-9.780606,-0.540411,0.095050,-0.031918,-0.005956,-0.074984
1765408561.960848,-9.929459,-0.319225,0.240316,-0.036957,0.000764,-0.081092
1765408561.965307,-9.928263,-0.178144,0.321616,-0.035736,0.004123,-0.077274
1765408561.969353,-9.928263,-0.178144,0.321616,-0.035736,0.001985,-0.077274
1765408561.969903,-9.870873,-0.693448,0.290531,-0.040623,-0.006872,-0.064904
1765408561.972838,-9.982065,-0.502750,0.264228,-0.041539,-0.004429,-0.074678
1765408561.973824,-9.929459,-0.450741,0.211023,-0.036652,0.007025,-0.071929
1765408561.977814,-9.917501,-0.395744,0.458513,-0.032987,-0.008399,-0.068417
1765408561.979822,-9.927068,-0.423242,0.518890,-0.035583,-0.010232,-0.074678
1765408561.982764,-9.629362,-0.480033,-0.095648,-0.040775,-0.011912,-0.072235
1765408561.984765,-9.738162,-0.509326,-0.021521,-0.039248,-0.006261,-0.069028
1765408561.987766,-9.842180,-0.676112,0.195481,-0.029932,-0.006261,-0.064294
1765408561.989775,-10.222381,-0.649211,0.663558,-0.041692,-0.009010,-0.074067
1765408561.992878,-10.066953,-0.425634,0.377212,-0.035125,-0.001222,-0.074831
1765408561.994810,-9.703490,-0.502152,-0.136298,-0.032070,-0.002596,-0.065515
1765408561.997856,-9.592299,-0.566714,-0.022716,-0.034361,-0.003512,-0.068875
1765408561.999857,-9.592299,-0.566714,-0.022716,-0.034361,0.001985,-0.068875
1765408562.002837,-9.653275,-0.607963,0.132712,-0.032681,0.006414,-0.067653
1765408562.004820,-9.618603,-0.489000,-0.040053,-0.031154,-0.004581,-0.067042
1765408562.007798,-9.687947,-0.732903,-0.070540,-0.033903,-0.004581,-0.069486
1765408562.008773,-9.759683,-0.625897,0.027499,-0.031307,-0.002138,-0.073457
1765408562.012854,-9.694523,-0.290531,0.259445,-0.029016,0.008247,-0.078496
1765408562.014815,-9.729793,-0.217599,0.100430,-0.035277,0.006109,-0.069333
1765408562.015893,-10.028693,-0.545194,0.434003,-0.036346,-0.000153,-0.068570
1765408562.019842,-9.994618,-0.475849,0.468077,-0.027336,0.014813,-0.066126
1765408562.022842,-9.736967,-0.634864,0.081301,-0.026573,0.014813,-0.063988
1765408562.024815,-9.727402,-0.606169,0.054998,-0.029932,0.003054,-0.070402
1765408562.025820,-10.101624,-0.546389,0.521879,-0.031154,0.003054,-0.072235
1765408562.029832,-9.830223,-0.450741,0.181133,-0.026114,0.006261,-0.072846
1765408562.032830,-9.603060,-0.228360,-0.047824,-0.031765,0.014050,-0.076053
1765408562.034865,-9.828429,-0.346724,0.377810,-0.031307,0.007025,-0.064141
1765408562.037782,-10.054996,-0.771162,0.629483,-0.028863,0.000764,-0.064752
1765408562.041858,-10.105211,-0.719751,0.485414,-0.029780,-0.001069,-0.071013
1765408562.042358,-9.891200,-0.479436,0.127929,-0.029780,0.007483,-0.077733
1765408562.044863,-9.647297,-0.505739,-0.005978,-0.028100,0.001985,-0.076053
1765408562.047816,-9.936033,-0.267217,0.541009,-0.026725,-0.005956,-0.075289
1765408562.049851,-10.088473,-0.148254,0.627690,-0.031612,0.013134,-0.075289
1765408562.050825,-9.665230,-0.540411,-0.038259,-0.029474,0.008858,-0.063683
1765408562.053822,-9.680176,-0.629483,0.065758,-0.028711,0.000764,-0.067653
1765408562.057834,-9.898373,-0.695839,0.445959,-0.031001,0.000305,-0.069639
1765408562.060850,-9.925871,-0.598398,0.344931,-0.028558,0.004276,-0.073915
1765408562.062873,-9.687947,-0.404113,0.111191,-0.025809,0.007789,-0.075900
1765408562.064865,-9.786584,-0.258250,0.245098,-0.030391,0.005803,-0.077580
1765408562.067841,-10.019726,-0.239120,0.532042,-0.030543,0.001222,-0.074373
1765408562.068802,-9.991630,-0.433405,0.161406,-0.031765,0.003360,-0.068722
1765408562.072860,-9.876852,-0.524271,0.100430,-0.028711,0.013744,-0.067501
1765408562.075882,-9.866092,-0.648015,0.261239,-0.028711,0.011454,-0.067501
1765408562.077830,-10.107603,-0.480033,0.610952,-0.033445,0.009927,-0.073304
1765408562.080869,-9.800333,-0.439981,0.065758,-0.035430,0.009927,-0.076358
1765408562.084004,-9.604255,-0.381396,-0.105213,-0.031307,0.011454,-0.073609
1765408562.085877,-9.702892,-0.381994,0.144668,-0.030085,0.011759,-0.070402
1765408562.087835,-9.702892,-0.381994,0.144668,-0.030085,0.007025,-0.070402
1765408562.090821,-9.842777,-0.667145,0.141081,-0.034972,0.000916,-0.068264
1765408562.091321,-9.620994,-0.689861,-0.252272,-0.035736,0.000916,-0.074220
1765408562.093904,-9.707675,-0.610952,-0.172166,-0.034972,0.004887,-0.080481
1765408562.097818,-10.138091,-0.381994,0.432807,-0.032223,0.005040,-0.077122
1765408562.099857,-10.365852,-0.364658,0.823768,-0.033750,0.019242,-0.079412
1765408562.101876,-9.927068,-0.356289,0.337159,-0.030391,0.012370,-0.071929
1765408562.105790,-9.746531,-0.465686,0.004782,-0.027794,0.012370,-0.068417
1765408562.107828,-10.005977,-0.652200,0.351506,-0.027642,0.000305,-0.071166
1765408562.110774,-10.034073,-0.523673,0.227164,-0.028100,0.008094,-0.071624
1765408562.112796,-9.904947,-0.435198,0.426829,-0.030085,0.012828,-0.078954
1765408562.115837,-9.904947,-0.435198,0.426829,-0.030085,0.013134,-0.078954
1765408562.117818,-9.844571,-0.439383,0.075323,-0.038943,-0.004276,-0.071166
1765408562.119804,-9.927068,-0.307867,0.137494,-0.039095,0.000764,-0.075289
1765408562.122762,-9.700500,-0.483022,-0.135103,-0.033445,0.000611,-0.066279
1765408562.123852,-9.818267,-0.691057,0.283955,-0.037874,0.000611,-0.076664
1765408562.127759,-9.984456,-0.468077,0.359278,-0.036805,0.006414,-0.076664
1765408562.129784,-9.985652,-0.593018,0.251674,-0.042608,0.003207,-0.075900
1765408562.132841,-10.027497,-0.391559,0.127929,-0.039554,0.001222,-0.078343
1765408562.134794,-10.141079,-0.494978,0.593018,-0.036499,0.007483,-0.070555
1765408562.137862,-9.992825,-0.615734,0.396939,-0.032070,0.007483,-0.070708
1765408562.139846,-9.992825,-0.615734,0.396939,-0.032070,-0.005040,-0.070708
1765408562.142793,-9.977880,-0.644428,0.132712,-0.035430,-0.001069,-0.072235
1765408562.144766,-9.856527,-0.607365,-0.163797,-0.032223,-0.002596,-0.075442
1765408562.147881,-9.824244,-0.387374,0.057389,-0.035583,0.011301,-0.076969
1765408562.149877,-9.906742,-0.578670,0.462697,-0.036194,0.011301,-0.070402
1765408562.152788,-9.906742,-0.578670,0.462697,-0.036194,0.003054,-0.070402
1765408562.154838,-9.868484,-0.494381,0.096246,-0.034972,0.003512,-0.079107
1765408562.157840,-9.770443,-0.546389,-0.056193,-0.036499,0.003512,-0.076053
1765408562.159856,-9.665230,-0.587637,-0.209230,-0.032681,-0.000611,-0.077122
1765408562.162797,-10.065758,-0.587040,0.554758,-0.034514,0.004429,-0.077427
1765408562.164852,-9.906742,-0.469871,0.455524,-0.033445,0.015882,-0.078038
1765408562.167781,-9.845766,-0.502750,0.205643,-0.037568,0.003971,-0.079871
1765408562.170873,-9.815279,-0.453132,0.071736,-0.034208,-0.001527,-0.078496
1765408562.171373,-9.899570,-0.545194,0.045433,-0.037721,-0.001680,-0.076205
1765408562.175825,-9.882831,-0.644428,0.303682,-0.032987,0.012981,-0.076358
1765408562.177825,-9.579147,-0.768771,-0.167384,-0.033750,0.009927,-0.078649
1765408562.179847,-10.072930,-0.505739,0.572692,-0.036957,0.013134,-0.087354
1765408562.182843,-9.912720,-0.292922,0.356887,-0.033750,0.013134,-0.080176
1765408562.185825,-9.678980,-0.292922,0.039455,-0.033750,0.005803,-0.080176
1765408562.187806,-9.760281,-0.468077,0.311454,-0.037415,0.003818,-0.081245
1765408562.189805,-9.982065,-0.659971,0.549976,-0.036041,0.003818,-0.076358
1765408562.192821,-9.825441,-0.691057,0.065160,-0.034208,-0.001222,-0.078038
1765408562.194848,-9.855330,-0.319225,-0.093257,-0.037263,0.001069,-0.086437
1765408562.197820,-9.956359,-0.511717,0.269010,-0.037263,0.007330,-0.086437
1765408562.198805,-10.335365,-0.402917,0.779531,-0.036041,0.006261,-0.085368
1765408562.202828,-10.200860,-0.463893,0.706002,-0.035583,0.003512,-0.082314
1765408562.204837,-9.791367,-0.363462,-0.095648,-0.040164,-0.004581,-0.086896
1765408562.207800,-9.679578,-0.452535,-0.150048,-0.039401,-0.004581,-0.077885
1765408562.209839,-9.759683,-0.689861,0.208034,-0.036194,0.004734,-0.081703
1765408562.212865,-9.849353,-0.451937,0.589431,-0.035277,0.008399,-0.085827
1765408562.214803,-9.534910,-0.359278,0.041248,-0.044746,0.015119,-0.088117
1765408562.217806,-9.547464,-0.389766,-0.331779,-0.043371,-0.004123,-0.081551
1765408562.219822,-9.686153,-0.608560,-0.167384,-0.047189,-0.002596,-0.081092
1765408562.222842,-10.123145,-0.609756,0.633668,-0.045204,0.014355,-0.082925
1765408562.225802,-9.777617,-0.756217,0.369440,-0.040317,0.021228,-0.081092
1765408562.227805,-9.672404,-0.630081,0.034672,-0.042150,0.005040,-0.088423
1765408562.230786,-9.632950,-0.444763,-0.181731,-0.044746,-0.002902,-0.090103
1765408562.232834,-9.956957,-0.511717,0.400526,-0.041539,0.010690,-0.090103
1765408562.234888,-9.725608,-0.583453,0.315638,-0.038332,0.023976,-0.081398
1765408562.237766,-9.876254,-0.538020,0.314443,-0.045509,0.004276,-0.085521
1765408562.239839,-10.193686,-0.608560,0.474653,-0.047800,0.004276,-0.086437
1765408562.242807,-9.955761,-0.734696,0.034075,-0.040012,0.006414,-0.082314
1765408562.245752,-9.674197,-0.774749,-0.009565,-0.044135,0.016035,-0.089339
1765408562.247768,-9.692730,-0.460306,0.347322,-0.051771,0.022755,-0.095906
1765408562.249862,-9.831419,-0.405906,0.520684,-0.052382,0.011912,-0.085827
1765408562.252815,-9.949782,-0.443568,0.376016,-0.051160,0.008552,-0.084910
1765408562.254817,-9.741750,-0.746054,-0.004185,-0.050244,0.010690,-0.080329
1765408562.257775,-9.581538,-0.980392,-0.154232,-0.050244,0.011912,-0.084605
1765408562.259834,-9.989238,-0.844094,0.619321,-0.040775,0.005651,-0.085827
1765408562.262785,-9.994021,-0.741272,0.396341,-0.043371,0.007941,-0.090408
1765408562.264821,-9.782997,-0.473458,-0.111789,-0.043219,0.007941,-0.091172
1765408562.265849,-9.726804,-0.572692,0.004782,-0.046273,0.018784,-0.084299
1765408562.272400,-10.119559,-0.905069,0.624701,-0.043982,0.008247,-0.079565
1765408562.272900,-10.248685,-0.762793,0.750837,-0.045051,0.015119,-0.085521
1765408562.274794,-9.778812,-0.918221,0.067551,-0.044899,0.013592,-0.085216
1765408562.277803,-9.197751,-0.945122,-0.820779,-0.041997,0.013592,-0.084299
1765408562.279783,-9.860114,-0.603778,0.345528,-0.040775,0.002596,-0.091172
1765408562.281818,-10.249879,-0.545194,1.064084,-0.042302,0.016035,-0.085216
1765408562.285871,-9.943806,-0.726327,0.264228,-0.041539,0.020159,-0.074220
1765408562.287765,-9.834408,-1.032998,-0.111191,-0.043066,0.006261,-0.079107
1765408562.290764,-9.902557,-1.085605,-0.148254,-0.041081,0.004581,-0.081398
1765408562.292824,-10.193686,-0.863223,0.529651,-0.032376,0.007178,-0.087354
1765408562.295823,-9.974294,-0.577475,0.655787,-0.038179,0.015424,-0.092393
1765408562.297863,-9.613820,-0.387374,0.023912,-0.040164,0.015424,-0.081856
1765408562.299800,-9.613820,-0.387374,0.023912,-0.040164,0.003971,-0.081856
1765408562.302781,-9.933045,-0.978001,0.098637,-0.037721,0.004123,-0.074067
1765408562.304818,-10.088473,-0.974414,0.573290,-0.032987,0.012828,-0.081398
1765408562.305825,-9.847560,-0.884146,0.325203,-0.034667,0.004887,-0.085063
1765408562.309821,-9.942610,-0.552367,0.185318,-0.036041,0.004887,-0.086132
1765408562.312858,-9.942610,-0.552367,0.185318,-0.036041,-0.003512,-0.086132
1765408562.315796,-10.230749,-0.584648,0.496772,-0.033292,0.003818,-0.085521
1765408562.317811,-10.005379,-0.653993,0.517695,-0.031154,0.024587,-0.077580
1765408562.319911,-9.841581,-0.824964,0.154232,-0.038332,-0.003818,-0.079718
1765408562.322898,-10.126732,-0.734098,0.249880,-0.040012,-0.003818,-0.085979
1765408562.324904,-10.126732,-0.734098,0.249880,-0.040012,0.003054,-0.085979
1765408562.327793,-10.129722,-0.633668,0.615734,-0.035583,0.007025,-0.082161
1765408562.330823,-9.764465,-0.662362,0.112984,-0.038637,0.007025,-0.082009
1765408562.333552,-9.717837,-0.808226,-0.225968,-0.038179,-0.011606,-0.083841
1765408562.335855,-9.893590,-0.556552,-0.114180,-0.030696,-0.007789,-0.084758
1765408562.337787,-9.867287,-0.620516,0.243902,-0.028253,0.013286,-0.080176
1765408562.341288,-9.601864,-0.648613,0.106408,-0.033292,-0.002138,-0.082009
1765408562.343317,-9.958152,-0.763988,0.357484,-0.037415,-0.002138,-0.081856
1765408562.344832,-10.042442,-0.824366,0.081301,-0.031612,-0.007025,-0.079107
1765408562.347836,-10.112983,-0.676710,0.256456,-0.031918,-0.005651,-0.084299
1765408562.348851,-9.910927,-0.671927,0.340148,-0.034361,0.012675,-0.083230
1765408562.352801,-9.738162,-0.755619,0.156624,-0.034667,0.002902,-0.081245
1765408562.353815,-9.974891,-0.713773,0.075323,-0.038026,-0.007636,-0.086743
1765408562.357795,-10.163795,-0.613343,0.386179,-0.038026,0.000153,-0.086743
1765408562.359839,-9.873264,-0.769369,0.221186,-0.029932,0.002902,-0.080634
1765408562.360769,-9.579147,-0.781922,-0.051411,-0.039554,0.002902,-0.086132
1765408562.365767,-10.234337,-0.426829,0.668938,-0.037721,-0.001680,-0.091477
1765408562.367808,-10.060975,-0.667743,0.353300,-0.035888,0.002902,-0.082161
1765408562.369797,-10.035867,-0.459708,0.325203,-0.035888,0.002596,-0.082161
1765408562.372831,-9.614418,-0.669536,-0.056193,-0.041844,0.005040,-0.080634
1765408562.374816,-9.946795,-0.900287,0.119560,-0.045662,-0.013439,-0.083689
1765408562.375837,-9.946795,-0.900287,0.119560,-0.045662,-0.005345,-0.083689
1765408562.379864,-10.027497,-0.604974,0.332377,-0.036041,0.007025,-0.086437
1765408562.382874,-9.681969,-0.589431,0.053802,-0.038026,0.010232,-0.087201
1765408562.384951,-9.949782,-0.593018,0.286944,-0.044135,-0.004734,-0.086285
1765408562.387843,-10.012553,-0.704208,0.264228,-0.043066,-0.004276,-0.079718
1765408562.389834,-9.963533,-0.838713,0.298900,-0.044288,0.001222,-0.080634
1765408562.392830,-9.797344,-0.958273,0.178742,-0.041844,0.016493,-0.083994
1765408562.394842,-9.744141,-0.803443,0.163797,-0.038332,0.000764,-0.086132
1765408562.397772,-9.947392,-0.657580,0.205643,-0.045051,-0.011301,-0.095448
1765408562.400809,-10.086082,-0.401722,0.197274,-0.042455,0.000458,-0.088881
1765408562.402776,-9.848158,-0.748446,0.243902,-0.043371,0.016646,-0.080787
1765408562.404837,-9.748923,-0.965447,0.340746,-0.042455,0.009621,-0.084452
1765408562.405837,-10.106407,-0.857245,0.517695,-0.045204,0.000153,-0.092546
1765408562.410785,-9.828429,-0.744859,0.054998,-0.041386,0.005345,-0.089950
1765408562.412824,-9.554040,-0.708991,-0.294118,-0.042761,0.007483,-0.091630
1765408562.415795,-9.748923,-0.541607,0.459110,-0.040470,0.010079,-0.090713
1765408562.417771,-10.016738,-0.667145,0.664754,-0.045204,0.009621,-0.087812
1765408562.419778,-9.679578,-0.744859,-0.117169,-0.041081,-0.000916,-0.084147
1765408562.422817,-9.667622,-0.931372,-0.361071,-0.045051,0.007178,-0.085521
1765408562.425764,-10.040649,-0.983979,0.570301,-0.039554,0.008705,-0.086743
1765408562.427808,-10.080104,-0.699426,0.853658,-0.039859,0.016799,-0.092852
1765408562.430775,-9.671208,-0.422645,0.214012,-0.043371,0.009316,-0.092241
1765408562.432786,-9.454804,-0.643233,-0.405906,-0.049175,0.004123,-0.085979
1765408562.434790,-9.709468,-0.643233,-0.196078,-0.049175,-0.004123,-0.085979
1765408562.437774,-9.934240,-0.888331,0.505739,-0.040928,0.007025,-0.092852
1765408562.439792,-9.659851,-0.704208,0.059780,-0.051313,0.015882,-0.102320
1765408562.442781,-9.680773,-0.489598,-0.016141,-0.049175,0.012981,-0.098044
1765408562.445811,-9.782400,-0.569106,0.090866,-0.045662,0.003360,-0.096059
1765408562.447807,-9.964728,-0.400526,0.368843,-0.046273,0.001680,-0.097128
1765408562.448834,-9.726207,-0.396939,0.169775,-0.050855,0.011912,-0.094073
1765408562.452808,-9.395025,-0.680296,-0.340746,-0.051160,0.008705,-0.085827
1765408562.455867,-9.730989,-0.785509,0.161406,-0.048564,0.007178,-0.087812
1765408562.457781,-10.019128,-0.762793,0.657580,-0.050549,0.007178,-0.089950
1765408562.459817,-9.826636,-0.790292,0.021521,-0.053756,0.010537,-0.093615
1765408562.460767,-9.444643,-0.762195,-0.642037,-0.054520,0.004887,-0.095906
1765408562.464797,-9.775824,-0.743663,0.045433,-0.052534,0.010537,-0.094379
1765408562.467814,-10.038258,-0.722142,0.637853,-0.050091,0.019242,-0.091783
1765408562.469845,-10.038258,-0.538020,0.637255,-0.059865,0.022602,-0.097586
1765408562.472796,-9.597081,-0.900885,-0.414873,-0.064294,0.012065,-0.091019
1765408562.474824,-9.927068,-1.053324,-0.017934,-0.051313,-0.003207,-0.092699
1765408562.477799,-10.166186,-0.906265,0.813008,-0.048106,0.009316,-0.096211
1765408562.478821,-10.057985,-0.682688,0.564323,-0.055741,0.008858,-0.104763
1765408562.482792,-9.638330,-0.558345,-0.268412,-0.055436,0.008858,-0.101251
1765408562.485807,-10.038258,-0.630081,0.133907,-0.055436,-0.006414,-0.101251
1765408562.486307,-10.112385,-0.796270,0.367647,-0.054672,0.004734,-0.090103
1765408562.489916,-10.071735,-0.835127,0.319225,-0.059865,0.009468,-0.093310
1765408562.492898,-9.867885,-1.130440,0.164395,-0.062308,0.005192,-0.095295
1765408562.494824,-10.015541,-0.925992,0.125538,-0.054062,-0.004276,-0.096975
1765408562.497776,-10.182925,-0.853658,0.554758,-0.055131,-0.005192,-0.097128
1765408562.500781,-9.970706,-0.723338,0.330583,-0.057574,0.001069,-0.094379
1765408562.502779,-9.633547,-1.031803,-0.509326,-0.058948,0.001069,-0.090255
1765408562.504811,-10.050214,-0.977403,0.255261,-0.057727,-0.004581,-0.094990
1765408562.507759,-9.893590,-1.207556,0.329986,-0.053451,0.010690,-0.092088
1765408562.508817,-9.598277,-0.969632,-0.080703,-0.054520,0.005192,-0.097586
1765408562.512790,-9.601266,-0.900287,-0.085485,-0.059407,0.000916,-0.100182
1765408562.515762,-9.762672,-0.713773,0.046628,-0.054672,0.000916,-0.091019
1765408562.517750,-9.775226,-0.991152,0.206839,-0.047800,0.003665,-0.087965
1765408562.519780,-9.417742,-1.141200,-0.243305,-0.057421,0.016799,-0.087965
1765408562.522780,-9.573768,-1.169297,-0.416069,-0.056352,-0.002291,-0.093310
1765408562.523789,-10.025107,-0.998326,0.413678,-0.051924,0.019395,-0.096669
1765408562.527848,-9.814083,-0.934959,0.358082,-0.044899,0.019395,-0.088575
1765408562.530764,-9.464968,-0.925394,-0.063965,-0.051160,0.017410,-0.089797
1765408562.532748,-9.680773,-1.044954,0.350311,-0.051160,0.004276,-0.090255
1765408562.535796,-9.937828,-0.978599,0.370636,-0.045051,0.003054,-0.087201
1765408562.536296,-9.762672,-1.125060,-0.017934,-0.043830,0.002749,-0.087812
1765408562.540775,-9.660448,-1.072453,-0.124342,-0.054978,0.014966,-0.093615
1765408562.542769,-9.581538,-1.090985,0.028097,-0.044746,0.006872,-0.089492
1765408562.545775,-9.889405,-0.835127,0.451937,-0.043371,0.011454,-0.095142
1765408562.546275,-9.749520,-0.697035,0.374821,-0.044593,0.011454,-0.091477
1765408562.550775,-9.749520,-0.697035,0.374821,-0.044593,0.009163,-0.091477
1765408562.552780,-9.808702,-1.038976,0.138690,-0.042913,-0.001680,-0.087048
1765408562.554784,-10.141079,-0.811812,0.742468,-0.041997,0.017104,-0.089186
1765408562.557809,-9.785987,-1.079627,0.265423,-0.045051,0.011301,-0.082772
1765408562.560774,-9.300572,-1.151363,-0.562530,-0.049786,0.011301,-0.090408
1765408562.562856,-9.270683,-0.973816,-0.669536,-0.044746,0.005040,-0.094684
1765408562.563792,-9.895982,-0.640842,0.575084,-0.042913,0.018326,-0.092546
1765408562.567800,-9.839788,-0.730512,0.691655,-0.041692,0.032376,-0.083841
1765408562.570765,-9.509205,-1.089789,-0.354495,-0.047800,0.020922,-0.084910
1765408562.572791,-9.646101,-1.203969,-0.340148,-0.042761,0.007330,-0.087965
1765408562.573815,-10.151840,-0.881755,0.706002,-0.036805,0.024893,-0.091477
1765408562.577781,-10.114776,-0.839909,0.969632,-0.036499,0.031918,-0.088881
1765408562.579816,-9.586321,-0.801052,-0.030488,-0.049480,0.029627,-0.091783
1765408562.582859,-9.398612,-0.820182,-0.398733,-0.046120,0.010690,-0.089950
1765408562.585810,-9.885818,-0.815399,0.229555,-0.043677,0.015730,-0.087048
1765408562.587766,-10.041247,-1.005500,0.666547,-0.038179,0.023518,-0.085368
1765408562.589791,-9.534313,-0.963056,-0.155428,-0.047189,0.026573,-0.091324
1765408562.592806,-9.809300,-0.832138,0.138690,-0.045051,0.016035,-0.093310
1765408562.594828,-9.809300,-0.832138,0.138690,-0.045051,0.011912,-0.093310
1765408562.597803,-10.164991,-0.820182,0.483022,-0.043371,0.013592,-0.086743
1765408562.599773,-9.761477,-0.932568,-0.141081,-0.047342,0.021533,-0.089034
1765408562.600794,-9.703490,-0.838116,-0.095648,-0.052076,0.021686,-0.093157
1765408562.604815,-10.081299,-0.749641,0.572692,-0.048411,0.014203,-0.087201
1765408562.607831,-10.081299,-0.749641,0.572692,-0.048411,0.013286,-0.087201
1765408562.609885,-9.518172,-0.894309,-0.356289,-0.050244,0.013592,-0.095906
