time,acc_x_g,acc_y_g,acc_z_g,gyro_x_rad_s,gyro_y_rad_s,gyro_z_rad_s
1765409686.219430,-9.514585,2.936393,0.270206,-0.006567,-0.007178,-0.001069
1765409686.219680,-9.444045,2.879005,0.194883,-0.006414,-0.006567,-0.001527
1765409686.219930,-9.477522,2.893950,0.312649,-0.007941,-0.006872,0.000916
1765409686.220180,-9.606647,2.934600,0.417264,-0.006414,-0.008094,-0.000764
1765409686.220436,-9.538497,2.922046,0.266619,-0.009316,-0.004429,-0.002291
1765409686.220636,-9.415350,2.904711,0.139885,-0.009621,-0.006261,-0.000458
1765409686.220836,-9.503824,2.886178,0.328790,-0.010232,-0.008399,0.000000
1765409686.221036,-9.601864,2.944165,0.395146,-0.007483,-0.007178,-0.001680
1765409686.221236,-9.452414,3.045791,0.095050,-0.008399,-0.004123,-0.003512
1765409686.221364,-9.316116,3.173122,-0.027499,-0.011912,-0.009316,-0.006720
1765409686.221564,-9.372309,3.461262,-0.029890,-0.012675,-0.008858,-0.006567
1765409686.221764,-9.332854,3.482783,-0.188905,-0.016341,-0.001069,-0.001985
1765409686.221964,-9.130797,3.448111,-0.443568,-0.023518,0.000305,-0.001985
1765409686.222164,-9.169655,3.518651,-0.381396,-0.025962,0.001833,-0.006720
1765409686.222330,-9.191773,3.635820,-0.279770,-0.031460,0.006567,-0.007483
1765409686.222580,-8.996890,3.496532,-0.609158,-0.040775,0.011912,-0.007636
1765409686.222830,-8.875537,3.383548,-0.775944,-0.052229,0.013744,-0.018479
1765409686.223080,-8.819942,3.469631,-0.948111,-0.058185,0.017562,-0.027947
1765409686.223376,-8.776899,3.559301,-0.992946,-0.064446,0.027336,-0.030238
1765409686.223626,-8.860592,3.372788,-0.713773,-0.078191,0.034972,-0.036499
1765409686.223876,-8.998086,3.282520,-0.464491,-0.089644,0.045051,-0.051313
1765409686.224126,-8.780487,3.179698,-0.865614,-0.105527,0.044288,-0.063683
1765409686.224354,-8.592777,3.360832,-1.047346,-0.113926,0.043066,-0.083383
1765409686.224604,-8.602343,3.556313,-0.982783,-0.125380,0.054672,-0.089492
1765409686.224854,-8.694404,3.304638,-0.876375,-0.140804,0.052076,-0.087812
1765409686.225104,-8.455283,2.947752,-1.274510,-0.153174,0.056963,-0.104153
1765409686.225353,-8.613103,3.190459,-1.042563,-0.162796,0.067501,-0.128740
1765409686.225686,-8.570062,3.278933,-1.011478,-0.176845,0.072235,-0.131336
1765409686.226020,-8.626254,3.110951,-1.099952,-0.183870,0.063683,-0.137597
1765409686.226322,-8.463653,2.985413,-1.389287,-0.193797,0.073304,-0.161727
1765409686.226572,-8.467239,3.170731,-1.327116,-0.199600,0.089339,-0.172417
1765409686.226822,-8.470826,3.122907,-1.377331,-0.210596,0.089339,-0.175776
1765409686.227072,-8.593973,3.021879,-1.255380,-0.224951,0.078802,-0.192270
1765409686.227355,-8.579626,3.076279,-1.433524,-0.235947,0.105680,-0.209069
1765409686.227605,-8.805594,3.140841,-1.219512,-0.243430,0.105680,-0.207847
1765409686.227855,-8.867765,3.008130,-0.948709,-0.257785,0.100945,-0.217163
1765409686.228105,-9.151720,2.813247,-0.869201,-0.269392,0.099266,-0.233045
1765409686.228339,-8.929937,2.672166,-1.511238,-0.272599,0.114843,-0.243583
1765409686.228589,-8.582017,2.711621,-1.707317,-0.281914,0.112552,-0.250607
1765409686.228839,-8.971784,3.176709,-0.947513,-0.288939,0.109039,-0.270308
1765409686.229089,-9.166067,3.134863,-1.170492,-0.300393,0.120799,-0.259923
1765409686.229363,-8.787661,2.919655,-1.768292,-0.305891,0.129656,-0.255036
1765409686.229696,-8.787661,2.919655,-1.768292,-0.305891,0.127671,-0.255036
1765409686.230030,-9.219272,3.031444,-1.034792,-0.338267,0.132252,-0.283136
1765409686.230332,-9.197751,3.171329,-1.286466,-0.351095,0.132252,-0.288634
1765409686.230582,-9.111070,3.317790,-1.841224,-0.360716,0.135765,-0.288939
1765409686.230832,-9.404591,3.281922,-1.290053,-0.375377,0.131947,-0.290772
1765409686.231082,-9.612624,3.391320,-0.695839,-0.387441,0.152716,-0.295659
1765409686.231416,-9.131395,3.109756,-1.467599,-0.401797,0.167835,-0.288481
1765409686.231666,-9.190578,3.430176,-1.359397,-0.413861,0.145691,-0.304974
1765409686.231916,-9.813485,3.736250,-1.395265,-0.433714,0.134543,-0.314290
1765409686.232166,-9.881634,3.795432,-0.723936,-0.443946,0.169057,-0.294284
1765409686.232386,-9.048302,3.663319,-1.180655,-0.452040,0.169057,-0.292604
1765409686.232719,-8.972978,3.364419,-1.490913,-0.478307,0.149204,-0.284205
1765409686.233053,-9.476326,3.035629,-0.789096,-0.494190,0.123395,-0.300088
1765409686.233376,-9.709468,3.855810,-1.225490,-0.483805,0.148898,-0.301157
1765409686.233626,-8.942491,3.693208,-1.788020,-0.508087,0.154243,-0.272751
1765409686.233876,-9.124820,3.028455,-1.123864,-0.540310,0.154243,-0.283289
1765409686.234126,-9.935436,2.697273,-0.170971,-0.543975,0.154549,-0.289856
1765409686.234415,-9.433285,2.839550,-1.036585,-0.551764,0.157603,-0.302989
1765409686.234665,-9.059660,3.709349,-1.689383,-0.562607,0.162948,-0.314901
1765409686.234915,-9.563007,3.670492,-0.640842,-0.586431,0.159741,-0.292910
1765409686.235165,-9.817072,2.798900,-0.111789,-0.594983,0.159741,-0.275195
1765409686.235392,-9.155905,2.601626,-0.967838,-0.590096,0.168752,-0.278249
1765409686.235725,-8.970588,3.212577,-1.441894,-0.610254,0.155465,-0.304669
1765409686.236059,-9.591104,3.491152,-0.576279,-0.624457,0.155465,-0.295811
1765409686.236393,-9.071017,3.067910,-1.143591,-0.622472,0.167377,-0.264657
1765409686.236643,-8.555714,2.480870,-1.720468,-0.633620,0.161574,-0.271224
1765409686.236893,-8.697990,2.586083,-1.285270,-0.650266,0.158672,-0.293673
1765409686.237143,-9.537301,3.281922,-0.897896,-0.658207,0.166308,-0.301157
1765409686.237387,-9.518172,2.931611,-1.197991,-0.668745,0.172417,-0.274737
1765409686.237637,-9.122428,3.006934,-1.296030,-0.681726,0.169973,-0.279013
1765409686.237887,-8.938306,2.686513,-0.844691,-0.708756,0.180816,-0.297186
1765409686.238137,-8.603538,2.706839,-1.322334,-0.712574,0.160963,-0.280693
1765409686.238366,-8.941893,2.663797,-1.505261,-0.719752,0.157603,-0.298102
1765409686.238699,-9.524150,3.263988,-0.872788,-0.709825,0.177456,-0.298408
1765409686.239033,-9.281443,2.792922,-0.765184,-0.727388,0.181885,-0.273668
1765409686.239435,-9.461978,2.609995,-0.445959,-0.729220,0.171348,-0.284358
1765409686.239685,-9.715446,3.368005,-0.840507,-0.725402,0.175929,-0.291383
1765409686.239935,-9.771639,3.225729,-0.928383,-0.752739,0.177151,-0.271988
1765409686.240185,-9.417742,2.846724,-0.769966,-0.759153,0.178984,-0.269392
1765409686.240395,-10.231946,2.832376,-0.343735,-0.760374,0.169515,-0.264352
1765409686.240645,-9.969511,2.338594,-0.375418,-0.781907,0.176387,-0.276569
1765409686.240895,-9.962337,3.544954,-1.038976,-0.773966,0.181122,-0.289856
1765409686.241145,-10.615732,3.378766,0.179938,-0.793514,0.167530,-0.270308
1765409686.241381,-10.611548,3.098995,0.221186,-0.812451,0.167530,-0.258549
1765409686.241714,-10.394547,2.924438,-0.652798,-0.822225,0.164934,-0.268323
1765409686.242048,-9.249162,2.992587,-1.502271,-0.847423,0.177304,-0.274126
1765409686.242319,-9.646699,3.387135,-1.322334,-0.849714,0.157145,-0.253051
1765409686.242569,-10.399329,3.259206,-0.058584,-0.861625,0.162948,-0.252898
1765409686.242819,-10.359874,3.324964,-0.545194,-0.881326,0.172264,-0.252745
1765409686.243069,-10.099831,3.115734,-0.769369,-0.895070,0.169210,-0.236099
1765409686.243351,-9.937828,2.959110,-0.759206,-0.905913,0.169210,-0.246026
1765409686.243601,-10.175752,3.311214,-0.444763,-0.907898,0.173638,-0.231212
1765409686.243851,-9.988043,2.215447,-0.297704,-0.932791,0.168293,-0.219301
1765409686.244101,-10.415470,2.502391,-0.181731,-0.921643,0.146302,-0.255494
1765409686.244346,-10.809420,2.864658,-0.069943,-0.927446,0.158214,-0.256869
1765409686.244596,-10.554757,3.101387,-0.072932,-0.933249,0.167835,-0.244804
1765409686.244846,-10.389765,2.694882,-0.212817,-0.936304,0.175776,-0.236405
1765409686.245096,-9.637732,2.178383,-0.652200,-0.949590,0.155618,-0.242819
1765409686.245387,-9.895385,2.644070,-0.873386,-0.949285,0.138819,-0.260534
1765409686.245720,-9.974891,3.378766,-0.447154,-0.959517,0.147219,-0.265268
1765409686.246054,-9.820659,3.725490,-0.540411,-0.972803,0.162032,-0.247095
1765409686.246317,-9.575562,2.948350,-0.781922,-0.991434,0.171653,-0.222508
1765409686.246567,-9.512194,2.889765,-0.859039,-0.989449,0.151342,-0.224646
1765409686.246817,-10.156623,3.039215,0.008369,-1.015869,0.143095,-0.249844
1765409686.247067,-10.857243,3.888689,0.339550,-1.023657,0.134849,-0.239306
1765409686.247335,-10.750238,3.580822,0.069943,-1.042747,0.151495,-0.226478
1765409686.247585,-9.923481,3.374581,-1.162123,-1.044885,0.151495,-0.221133
1765409686.247835,-9.811094,3.379961,-0.919416,-1.073748,0.150273,-0.226173
1765409686.248085,-10.055594,3.397895,-0.418460,-1.098183,0.143401,-0.233503
1765409686.248388,-10.055594,3.397895,-0.418460,-1.098183,0.135918,-0.233503
1765409686.248638,-10.646220,2.869440,0.230153,-1.119258,0.150426,-0.219301
1765409686.248888,-10.257649,3.309421,-0.078312,-1.102459,0.150426,-0.219453
1765409686.249138,-10.197272,3.395504,0.087279,-1.099099,0.140194,-0.232282
1765409686.249357,-10.154231,4.029172,-0.271999,-1.099099,0.130114,-0.217315
1765409686.249690,-10.329985,3.495934,0.102822,-1.109026,0.123089,-0.196088
1765409686.250024,-10.750836,3.187470,0.805834,-1.114218,0.141568,-0.195630
1765409686.250358,-10.644427,3.161764,0.832735,-1.114676,0.141568,-0.201738
1765409686.250608,-9.563604,3.785270,-0.389766,-1.127352,0.138056,-0.217315
1765409686.250858,-8.842658,3.457675,-1.284074,-1.151481,0.134390,-0.205556
1765409686.251108,-9.243781,2.947154,-0.562530,-1.153619,0.119882,-0.179289
1765409686.251388,-9.243781,2.947154,-0.562530,-1.153619,0.121104,-0.179289
1765409686.251638,-10.535626,3.309421,0.811812,-1.172709,0.138514,-0.219453
1765409686.251888,-10.208632,3.246054,0.401722,-1.186300,0.151495,-0.220980
1765409686.252138,-10.057985,3.436154,0.412482,-1.184926,0.123547,-0.202349
1765409686.252510,-9.470946,2.873027,-0.089072,-1.191798,0.123547,-0.192728
1765409686.252760,-9.291008,2.604017,-0.017934,-1.210124,0.120646,-0.223882
1765409686.253010,-9.261118,3.153993,-0.120756,-1.182024,0.144164,-0.220828
1765409686.253260,-9.232423,3.646580,-0.381396,-1.182024,0.135918,-0.220828
1765409686.253372,-9.103298,3.628048,-0.571497,-1.198670,0.144317,-0.218842
1765409686.253622,-8.574843,3.456480,-0.912243,-1.221730,0.144317,-0.220828
1765409686.253872,-8.574843,3.456480,-0.912243,-1.221730,0.121715,-0.220828
1765409686.254122,-8.322572,3.265184,-1.295433,-1.218371,0.120340,-0.213956
1765409686.254376,-8.377569,3.634624,-1.329507,-1.233642,0.129198,-0.226936
1765409686.254626,-8.840267,3.601745,-0.623505,-1.265102,0.128129,-0.223577
1765409686.254876,-8.952653,3.546149,-0.842898,-1.265713,0.128129,-0.213956
1765409686.255126,-8.597560,3.504902,-1.270923,-1.287857,0.145386,-0.219148
1765409686.255374,-9.196555,3.631037,-0.826160,-1.297020,0.170431,-0.223119
1765409686.255707,-9.233619,3.103778,-0.257054,-1.310306,0.170431,-0.200058
1765409686.256041,-9.882831,2.513749,0.379005,-1.319011,0.151953,-0.206014
1765409686.256404,-9.080583,2.975848,-0.401722,-1.325883,0.161727,-0.231823
1765409686.256654,-9.060257,2.959110,-0.726925,-1.342987,0.162948,-0.214872
1765409686.256904,-9.224054,2.465327,0.278575,-1.347874,0.177762,-0.203571
1765409686.257154,-9.176230,2.002630,0.193687,-1.323439,0.164323,-0.211359
1765409686.257425,-9.176230,2.002630,0.193687,-1.323439,0.163865,-0.211359
1765409686.257675,-9.992227,2.443209,0.405308,-1.304808,0.165086,-0.235794
1765409686.257925,-9.357364,2.421090,0.301291,-1.314887,0.173333,-0.229838
1765409686.258175,-8.757771,3.263988,-0.811215,-1.303739,0.165850,-0.227395
1765409686.258415,-9.207316,2.434242,-0.402917,-1.332297,0.181427,-0.231060
1765409686.258665,-10.229554,2.944763,1.055715,-1.317331,0.175013,-0.231060
1765409686.258915,-9.591104,2.840746,-0.169775,-1.324661,0.178984,-0.224951
1765409686.259165,-9.275465,3.297465,-0.939742,-1.355663,0.184939,-0.226020
1765409686.259395,-8.344092,2.727164,-1.140602,-1.362840,0.210138,-0.217621
1765409686.259728,-9.189383,2.167623,-0.119560,-1.355968,0.179289,-0.187383
1765409686.260062,-9.558823,2.032520,-0.030488,-1.387122,0.182038,-0.217315
1765409686.261858,-10.799256,2.566953,0.746652,-1.391856,0.193339,-0.250760
1765409686.262108,-10.420253,2.243543,0.501554,-1.398118,0.219148,-0.207541
1765409686.262358,-9.785987,1.701339,0.428623,-1.395216,0.196393,-0.212276
1765409686.262608,-9.548061,1.929699,0.035868,-1.391704,0.196393,-0.245873
1765409686.261978,-10.093256,2.367886,0.878766,-1.391093,0.183870,-0.238543
1765409686.262228,-10.707793,2.470110,1.172884,-1.375516,0.189216,-0.227853
1765409686.262478,-9.405188,2.113821,-0.570301,-1.381624,0.177456,-0.209985
1765409686.262728,-8.459468,2.724772,-1.343855,-1.381624,0.186314,-0.209985
1765409686.262514,-8.333332,2.765423,-1.176470,-1.394300,0.205862,-0.230143
1765409686.262764,-9.230033,3.377570,-0.015543,-1.386053,0.181427,-0.200517
1765409686.263014,-9.826038,2.467121,0.598996,-1.415222,0.171653,-0.203265
1765409686.263264,-9.347201,2.917264,-0.506337,-1.419345,0.186467,-0.205556
1765409686.263418,-8.095408,1.652319,-1.555476,-1.442406,0.194713,-0.209679
1765409686.263751,-8.730271,2.513749,-0.243902,-1.426370,0.167988,-0.213803
1765409686.264085,-9.747727,2.251315,0.467480,-1.454012,0.156076,-0.220217
1765409686.264415,-10.190099,2.277618,0.664156,-1.455845,0.180663,-0.213192
1765409686.264665,-8.047584,1.336681,-1.965567,-1.471422,0.208763,-0.208916
1765409686.264915,-7.888569,2.101865,-1.306791,-1.473865,0.171042,-0.228311
1765409686.265165,-9.191773,2.087518,0.102822,-1.497231,0.180511,-0.237168
1765409686.265388,-9.788378,2.442611,0.021521,-1.456761,0.192117,-0.206014
1765409686.265638,-8.398493,1.279890,-1.489718,-1.452332,0.204945,-0.186467
1765409686.265888,-9.166666,2.348159,-0.502750,-1.440726,0.170737,-0.218079
1765409686.266138,-10.592419,2.098278,1.415590,-1.463633,0.206931,-0.236099
1765409686.266340,-9.573170,3.274749,-0.477044,-1.427745,0.234267,-0.204945
1765409686.266590,-9.926469,2.093496,-0.504543,-1.427745,0.213650,-0.204945
1765409686.266840,-11.116688,1.783835,1.917145,-1.476461,0.229685,-0.207236
1765409686.267090,-11.141199,2.071377,1.174079,-1.461037,0.229685,-0.209069
1765409686.267324,-9.129601,1.584768,-0.685079,-1.484708,0.246637,-0.208305
1765409686.267657,-8.393112,2.264467,-0.835127,-1.491275,0.233656,-0.235489
1765409686.267991,-10.480630,2.256097,1.184840,-1.498605,0.208916,-0.206472
1765409686.268351,-10.707793,1.079627,1.335485,-1.501965,0.215330,-0.194561
1765409686.268601,-9.811692,1.654113,-0.457915,-1.490969,0.205709,-0.235794
1765409686.268851,-9.942013,2.236968,0.636059,-1.506394,0.220370,-0.237168
1765409686.269101,-9.991032,2.826996,0.253467,-1.490969,0.209374,-0.221286
1765409686.269465,-10.008368,2.525107,0.239718,-1.505630,0.195324,-0.214261
1765409686.269715,-9.743543,2.795313,0.561932,-1.508990,0.200975,-0.218537
1765409686.269965,-10.810616,3.302845,0.923003,-1.491886,0.196240,-0.207236
1765409686.270215,-10.594810,2.227403,0.402319,-1.526094,0.193339,-0.186772
1765409686.270529,-10.205642,2.456360,0.003587,-1.513724,0.212734,-0.207847
1765409686.270779,-10.488999,2.190339,0.771162,-1.532050,0.212734,-0.201127
1765409686.271029,-10.265422,1.646341,0.554758,-1.532050,0.194255,-0.201127
1765409686.271279,-10.515900,2.325442,0.251076,-1.529454,0.189216,-0.213803
1765409686.271316,-10.180533,1.455045,-0.082496,-1.561372,0.212581,-0.200975
1765409686.271649,-9.738162,1.583572,-0.056193,-1.545336,0.192270,-0.207694
1765409686.271983,-9.728598,1.698948,0.405308,-1.542129,0.192270,-0.206320
1765409686.272385,-9.728598,1.698948,0.405308,-1.542129,0.178067,-0.206320
1765409686.272635,-9.445240,3.095408,-0.692252,-1.565037,0.181274,-0.237474
1765409686.272885,-9.113461,2.828790,-0.979196,-1.585806,0.209679,-0.197309
1765409686.273135,-9.197751,2.605213,-0.264228,-1.601231,0.208763,-0.188757
1765409686.273344,-9.513390,2.050454,-0.080703,-1.617571,0.208763,-0.209832
1765409686.273594,-9.513390,2.050454,-0.080703,-1.617571,0.196393,-0.209832
1765409686.273844,-9.458989,1.730033,-0.203252,-1.585806,0.198073,-0.194713
1765409686.274094,-9.020205,1.630798,-0.412482,-1.578170,0.198073,-0.192270
1765409686.274389,-9.375896,1.231468,0.401722,-1.583057,0.226020,-0.205098
1765409686.274722,-9.424915,1.437111,0.063965,-1.557554,0.215025,-0.189674
1765409686.275056,-10.055594,0.502152,0.700024,-1.572367,0.190590,-0.200211
1765409686.275429,-9.776422,1.364777,0.329986,-1.542893,0.209679,-0.222355
1765409686.275679,-9.259325,1.653515,0.061573,-1.569618,0.209679,-0.232740
1765409686.275929,-9.421328,2.966284,0.369440,-1.571298,0.188757,-0.240528
1765409686.276179,-10.069344,2.729555,0.441176,-1.603216,0.185398,-0.220217
1765409686.276385,-10.510519,2.400765,0.943926,-1.606270,0.184939,-0.194102
1765409686.276635,-9.249162,1.764706,-0.728120,-1.612532,0.204487,-0.201891
1765409686.276885,-10.029889,1.452654,0.178144,-1.641089,0.194255,-0.209985
1765409686.277135,-10.029889,1.452654,0.178144,-1.641089,0.211054,-0.209985
1765409686.277358,-10.180533,1.111908,0.418460,-1.639715,0.197309,-0.204793
1765409686.277691,-10.375418,0.962458,0.750837,-1.628414,0.197309,-0.208305
1765409686.278025,-11.231466,0.584051,1.245815,-1.613448,0.196699,-0.223119
1765409686.278398,-10.336559,0.699426,0.730512,-1.602758,0.210901,-0.217468
1765409686.278648,-9.754900,1.582974,-0.496174,-1.602758,0.175471,-0.217468
1765409686.278898,-11.079625,2.506576,1.487326,-1.607034,0.190285,-0.250913
1765409686.279148,-10.406504,2.516140,0.557747,-1.614670,0.207694,-0.206320
1765409686.279416,-10.718554,1.527977,0.721545,-1.622305,0.191048,-0.194255
1765409686.279666,-10.267813,1.119082,0.118364,-1.640937,0.198837,-0.213192
1765409686.279916,-11.389285,1.551889,1.150765,-1.642311,0.189216,-0.229227
1765409686.280166,-10.349113,1.365375,0.634864,-1.641242,0.227853,-0.207847
1765409686.280353,-9.951577,0.489000,-0.224773,-1.648573,0.206778,-0.196546
1765409686.280686,-10.258247,0.746054,0.680894,-1.644755,0.204182,-0.219453
1765409686.281020,-10.259443,-0.066356,0.741272,-1.643991,0.203418,-0.209527
1765409686.281421,-9.665230,1.004902,0.099235,-1.636202,0.215177,-0.227853
1765409686.281671,-9.586919,1.252989,-0.084888,-1.661095,0.202655,-0.243888
1765409686.281921,-9.806311,1.807747,0.921808,-1.665066,0.200364,-0.226326
1765409686.282171,-10.149448,1.012673,0.428025,-1.645824,0.180969,-0.211359
1765409686.282379,-9.953370,1.329507,0.439981,-1.626276,0.208763,-0.210596
1765409686.282629,-8.982543,1.075442,-1.096963,-1.621236,0.205251,-0.206931
1765409686.282879,-10.397536,0.301889,1.747369,-1.616502,0.189368,-0.199600
1765409686.283129,-10.066953,0.279770,0.243902,-1.607339,0.209374,-0.207847
1765409686.283365,-10.931372,0.211621,1.410808,-1.612532,0.192270,-0.210443
1765409686.283698,-10.071137,0.198470,-0.107006,-1.606728,0.200058,-0.222202
1765409686.284032,-10.551170,0.037064,1.120277,-1.588708,0.181122,-0.215635
1765409686.284390,-7.651840,0.334768,-1.598517,-1.588555,0.222050,-0.220980
1765409686.284640,-8.185079,1.117886,-0.752032,-1.613142,0.173944,-0.251218
1765409686.284890,-9.217479,1.982305,0.526662,-1.610852,0.183718,-0.233045
1765409686.285140,-9.976685,1.403634,0.442372,-1.621389,0.148898,-0.196393
1765409686.285434,-9.934838,0.921210,0.111191,-1.623832,0.180358,-0.200364
1765409686.285684,-9.934838,0.921210,0.111191,-1.623832,0.204945,-0.200364
1765409686.285934,-9.818267,0.798661,1.385700,-1.616044,0.182801,-0.191659
1765409686.286184,-10.176947,0.017934,1.101745,-1.621542,0.161879,-0.195782
1765409686.286409,-10.982782,0.211621,1.085605,-1.590846,0.166614,-0.200822
1765409686.286659,-9.747727,-0.771162,0.114180,-1.584432,0.207236,-0.197004
1765409686.286909,-9.433285,-0.288140,0.350311,-1.562288,0.177304,-0.213956
1765409686.287159,-9.235413,0.409493,-0.115973,-1.573436,0.178220,-0.241139
1765409686.287474,-10.300095,1.426351,0.813008,-1.568855,0.167835,-0.233351
1765409686.287807,-10.020324,1.209947,-0.239120,-1.568855,0.192728,-0.211970
1765409686.288141,-10.368243,0.876375,0.877571,-1.584126,0.162948,-0.207541
1765409686.288473,-10.153633,1.322334,1.150765,-1.591457,0.192270,-0.228464
1765409686.288723,-10.539214,0.939742,0.450143,-1.599245,0.182038,-0.203265
1765409686.288973,-10.188903,0.827355,0.099235,-1.585043,0.182343,-0.190285
1765409686.289223,-10.615134,0.087279,0.549976,-1.597718,0.181580,-0.196393
1765409686.289363,-10.370635,0.012554,0.954687,-1.588861,0.202196,-0.200058
1765409686.289613,-9.424915,-0.461502,-0.453730,-1.587486,0.197615,-0.217468
1765409686.289863,-9.431491,-0.069345,0.122549,-1.574200,0.187536,-0.216552
1765409686.290113,-9.267694,0.579866,-0.017934,-1.579087,0.184176,-0.234267
1765409686.290382,-9.837996,0.807628,0.720947,-1.576796,0.193186,-0.240375
1765409686.290715,-9.071017,1.273314,-0.331181,-1.556179,0.193186,-0.222355
1765409686.291049,-9.071017,1.273314,-0.331181,-1.556179,0.166003,-0.222355
1765409686.291321,-9.979075,1.135222,0.442970,-1.544420,0.181122,-0.201586
1765409686.291571,-9.601864,0.602582,0.578670,-1.532966,0.190437,-0.206625
1765409686.291821,-8.398493,0.523673,-0.204448,-1.544267,0.199295,-0.202044
1765409686.292071,-8.830702,0.566117,-0.775944,-1.529301,0.154396,-0.197768
1765409686.292378,-10.054399,0.306074,1.341463,-1.514640,0.158520,-0.197462
1765409686.292628,-9.545671,-0.372429,0.585844,-1.515709,0.183412,-0.188146
1765409686.292878,-9.185795,-0.635461,0.310856,-1.516473,0.182343,-0.215941
1765409686.293128,-8.429578,-0.154232,-0.817790,-1.522123,0.154549,-0.237932
1765409686.293363,-10.173361,1.243424,1.079627,-1.524720,0.118050,-0.253814
1765409686.293613,-10.353896,1.596724,1.231468,-1.529454,0.155618,-0.231671
1765409686.293863,-10.170969,1.117886,0.765184,-1.534799,0.171959,-0.210138
1765409686.294113,-9.593494,0.395744,0.294118,-1.546711,0.171959,-0.217010
1765409686.294346,-10.031085,0.364658,-0.147059,-1.541060,0.144928,-0.223577
1765409686.294679,-11.320539,0.625299,1.242229,-1.520902,0.133016,-0.220370
1765409686.295013,-11.256575,0.689861,1.856767,-1.511586,0.170890,-0.221744
1765409686.295433,-10.792084,0.126734,1.098756,-1.510364,0.170890,-0.207541
1765409686.295683,-9.417742,-0.756815,-0.495576,-1.494176,0.170890,-0.210596
1765409686.295933,-10.398134,-0.308465,0.398733,-1.485013,0.143553,-0.235336
1765409686.296183,-9.771639,-0.375418,0.295313,-1.470658,0.166919,-0.226936
1765409686.296356,-9.344810,-0.181731,-0.156624,-1.474934,0.153480,-0.236252
1765409686.296606,-9.854136,0.987566,0.643233,-1.483792,0.163101,-0.259923
1765409686.296856,-10.204447,1.054519,1.648135,-1.496467,0.150884,-0.250455
1765409686.297106,-10.356287,1.516021,0.887135,-1.496467,0.133627,-0.250455
1765409686.297363,-9.882233,0.760402,0.286944,-1.503645,0.140957,-0.213956
1765409686.297613,-9.844571,0.163199,0.710186,-1.511128,0.140957,-0.220828
1765409686.297863,-9.844571,0.163199,0.710186,-1.511128,0.138666,-0.220828
1765409686.298113,-10.184718,0.300096,0.625897,-1.505630,0.132710,-0.239306
1765409686.298370,-9.968315,0.085485,0.052606,-1.521665,0.150578,-0.230296
1765409686.298620,-10.164392,-0.356887,0.723338,-1.476003,0.131031,-0.210290
1765409686.298870,-10.166784,-1.217121,1.314562,-1.463175,0.131031,-0.228464
1765409686.299120,-9.776422,-0.712578,0.713773,-1.426370,0.131336,-0.247859
1765409686.299426,-9.470347,-0.649809,0.062171,-1.424690,0.141263,-0.256411
1765409686.299676,-9.210902,0.530846,-0.404113,-1.401478,0.113316,-0.247706
1765409686.299926,-9.329267,0.247489,0.229555,-1.417513,0.158520,-0.254120
1765409686.300176,-9.030367,0.366451,-0.379005,-1.411557,0.158520,-0.239459
1765409686.300401,-9.641916,0.119560,0.216404,-1.408961,0.137903,-0.224951
1765409686.300651,-10.085484,0.236729,0.754424,-1.408044,0.122326,-0.235183
1765409686.300901,-9.822452,-0.335964,0.692850,-1.424538,0.126296,-0.223882
1765409686.301151,-8.749401,-0.421449,-0.435796,-1.398729,0.133779,-0.221286
1765409686.301402,-8.729075,-0.823171,-0.685079,-1.421178,0.131794,-0.232129
1765409686.301652,-9.911524,-0.524868,0.478240,-1.395369,0.135612,-0.237016
1765409686.301902,-9.612624,-0.887135,0.365256,-1.388802,0.150120,-0.224951
1765409686.302152,-10.364656,-0.998326,1.282879,-1.385595,0.130114,-0.231823
1765409686.303370,-10.618124,-1.251793,1.520803,-1.378876,0.145233,-0.251829
1765409686.303703,-10.383189,-1.285868,1.264945,-1.353677,0.137903,-0.246942
1765409686.304037,-9.581538,-0.320421,0.251076,-1.326799,0.142484,-0.270766
1765409686.303400,-10.259443,0.813008,0.851865,-1.336420,0.133779,-0.260534
1765409686.303650,-11.273314,0.129125,2.503587,-1.343751,0.134849,-0.241750
1765409686.303900,-11.273314,0.129125,2.503587,-1.343751,0.115912,-0.241750
1765409686.304150,-11.299615,-0.201459,1.777259,-1.325730,0.117744,-0.233656
1765409686.304406,-11.148971,0.389168,1.541128,-1.328937,0.145844,-0.245415
1765409686.304656,-11.116688,-0.032281,1.863940,-1.327410,0.126296,-0.216857
1765409686.304906,-10.320420,-0.681492,1.269727,-1.324356,0.126296,-0.215025
1765409686.305156,-11.194404,-0.541009,1.099952,-1.323287,0.113163,-0.239459
1765409686.305392,-11.052127,-0.483022,1.134624,-1.328326,0.136376,-0.233809
1765409686.305642,-10.858439,-0.942133,1.217121,-1.306946,0.131794,-0.227853
1765409686.305892,-10.208033,-0.889526,1.150765,-1.315956,0.140346,-0.239306
1765409686.306142,-10.074127,-0.744859,0.470469,-1.313360,0.112094,-0.255342
1765409686.306378,-9.979075,-0.593615,0.766977,-1.302517,0.103236,-0.248317
1765409686.306628,-9.717837,-0.851267,0.280966,-1.268462,0.097891,-0.239765
1765409686.306878,-9.198947,-0.680894,0.011956,-1.250594,0.110108,-0.247095
1765409686.307128,-9.081779,-0.295313,0.196676,-1.237155,0.108887,-0.255953
1765409686.307369,-9.386656,0.215208,0.493185,-1.228603,0.101862,-0.260687
1765409686.307619,-8.787063,0.174558,-0.980392,-1.212415,0.094684,-0.228769
1765409686.307869,-9.510998,0.132712,0.565519,-1.213484,0.092699,-0.230449
1765409686.308119,-9.866689,-0.070540,0.932568,-1.204779,0.125838,-0.235030
1765409686.308416,-9.408774,-0.530846,0.679101,-1.199587,0.117744,-0.219911
1765409686.308666,-9.030367,-0.191296,-0.252272,-1.194700,0.101709,-0.242819
1765409686.308916,-9.790769,-0.228360,0.391559,-1.208292,0.101404,-0.239001
1765409686.309166,-10.376613,-0.072334,1.137613,-1.194242,0.109192,-0.229380
1765409686.309390,-10.312051,-0.533238,1.317551,-1.214247,0.126907,-0.247859
1765409686.309640,-9.828429,-0.255261,0.598996,-1.199281,0.127976,-0.248928
1765409686.309890,-8.582616,-0.670134,-0.365854,-1.200656,0.124922,-0.244804
1765409686.310140,-9.212696,-0.655787,-0.197872,-1.192714,0.110872,-0.244957
1765409686.310431,-10.102222,-0.662362,1.042563,-1.176374,0.125380,-0.243888
1765409686.310764,-10.939741,-0.825562,2.198709,-1.163698,0.138056,-0.248928
1765409686.311098,-10.254662,-0.527260,1.432329,-1.133613,0.149204,-0.244957
1765409686.311407,-8.998684,-0.344333,-0.515304,-1.133919,0.132710,-0.242361
1765409686.311657,-8.882113,-0.658776,-0.377212,-1.122159,0.113163,-0.250607
1765409686.311907,-9.781204,-0.062171,0.521282,-1.115134,0.117897,-0.258854
1765409686.312157,-10.664154,-0.142874,1.617647,-1.123381,0.117897,-0.259312
1765409686.312488,-10.410090,0.426829,0.721545,-1.121090,0.125838,-0.260992
1765409686.312738,-10.419655,0.304878,0.712578,-1.124756,0.111177,-0.257938
1765409686.312988,-10.441175,-0.176351,1.421569,-1.124756,0.127213,-0.257938
1765409686.313238,-10.695837,-0.167384,0.944524,-1.123228,0.112246,-0.252440
1765409686.313441,-10.838712,0.001196,1.601506,-1.131781,0.112246,-0.258549
1765409686.313691,-10.353896,0.151841,1.125657,-1.126588,0.118813,-0.263130
1765409686.313941,-9.682567,0.320421,0.548183,-1.124908,0.120340,-0.249538
1765409686.314191,-8.931132,-0.567910,0.315638,-1.133766,0.102473,-0.249386
1765409686.314397,-9.341224,-0.191296,0.500956,-1.131933,0.086590,-0.263283
1765409686.314647,-10.156623,-0.534433,1.366571,-1.109942,0.079260,-0.260992
1765409686.314897,-10.627688,-0.234935,1.545911,-1.077108,0.096211,-0.253814
1765409686.315147,-9.813485,-0.630081,0.720349,-1.046565,0.077885,-0.250607
1765409686.315356,-9.353179,-1.337279,0.896700,-1.050230,0.077885,-0.265879
1765409686.315606,-9.353179,-1.337279,0.896700,-1.050230,0.077885,-0.265879
1765409686.315856,-9.376493,-0.247489,0.279770,-1.008538,0.082772,-0.276569
1765409686.316106,-9.930654,-0.340746,1.141798,-0.994947,0.094226,-0.275042
1765409686.316380,-9.600669,-0.756815,0.810617,-0.985631,0.091172,-0.269697
1765409686.316630,-9.207316,-1.117886,0.318030,-0.981966,0.091172,-0.281609
1765409686.316880,-9.320897,-0.118364,-0.178742,-0.973719,0.089950,-0.305891
1765409686.317130,-10.081299,-0.083692,0.979196,-0.970665,0.093768,-0.286649
1765409686.317399,-10.368243,0.593615,1.530368,-0.960891,0.118966,-0.280082
1765409686.317649,-10.049617,-0.393352,1.445480,-0.975705,0.098044,-0.273209
1765409686.317899,-9.355571,-0.895504,0.755021,-0.959975,0.098044,-0.268170
1765409686.318149,-9.355571,-0.895504,0.755021,-0.959975,0.095448,-0.268170
1765409686.318403,-9.781204,-0.137494,1.414395,-0.950659,0.135307,-0.287718
1765409686.318653,-10.027497,-0.472860,1.762314,-0.945314,0.135307,-0.278555
1765409686.318903,-9.989238,-0.611549,1.351028,-0.914465,0.112552,-0.276569
1765409686.319153,-9.261118,-0.792683,0.978001,-0.911106,0.117439,-0.291535
1765409686.319396,-9.054279,0.187709,0.102224,-0.878424,0.126907,-0.292452
1765409686.319729,-8.399090,-0.630679,0.760402,-0.885449,0.131794,-0.264963
1765409686.320063,-8.943088,-0.696437,1.115495,-0.863916,0.118202,-0.280540
1765409686.320383,-8.943088,-0.696437,1.115495,-0.863916,0.124769,-0.280540
1765409686.320633,-9.521759,-0.551172,1.704328,-0.850019,0.136528,-0.275348
1765409686.320883,-9.176230,-0.437590,0.746054,-0.841772,0.152869,-0.270155
1765409686.321133,-9.179817,-1.271520,1.001315,-0.843605,0.136070,-0.262367
1765409686.321384,-9.173840,-1.345050,1.403634,-0.832609,0.158214,-0.282372
1765409686.321634,-9.519367,-1.248206,1.178264,-0.820392,0.149662,-0.289856
1765409686.321884,-9.709468,-0.870397,1.500478,-0.806648,0.152411,-0.296575
1765409686.322134,-9.423719,-0.676710,0.973816,-0.799012,0.166766,-0.297797
1765409686.322345,-8.947871,-1.428742,0.789694,-0.789543,0.165392,-0.284663
1765409686.322678,-8.923959,-1.192013,0.173362,-0.764040,0.168141,-0.296881
1765409686.323012,-9.594690,-1.034792,0.989957,-0.749532,0.176845,-0.302531
1765409686.323426,-9.794355,-0.968436,1.412601,-0.740063,0.184329,-0.297644
1765409686.323676,-10.462696,-0.651602,1.529770,-0.723112,0.195477,-0.297950
1765409686.323926,-9.872069,-0.958273,1.047346,-0.711200,0.196699,-0.288787
1765409686.324176,-9.475131,-1.021042,1.038976,-0.692874,0.196699,-0.295506
1765409686.324370,-10.274986,-0.482425,1.666667,-0.664010,0.193644,-0.290466
1765409686.324620,-10.979793,-0.761597,2.336800,-0.642783,0.192117,-0.285732
1765409686.324870,-10.300693,-0.964849,1.709708,-0.632245,0.211054,-0.290161
1765409686.325120,-10.044236,-0.694644,1.131038,-0.617127,0.201891,-0.295659
1765409686.325412,-10.370635,-0.578670,2.040889,-0.612087,0.201891,-0.303905
1765409686.325745,-10.300693,-0.214012,1.702534,-0.592692,0.195324,-0.285732
1765409686.326079,-10.567909,-0.442372,1.676231,-0.593303,0.190285,-0.294284
1765409686.326374,-10.477044,-0.802845,1.571018,-0.584140,0.217773,-0.293215
1765409686.326624,-10.355091,-0.681492,1.212338,-0.584140,0.202044,-0.293215
1765409686.326874,-10.567909,-0.138690,1.793998,-0.552069,0.203113,-0.305585
1765409686.327124,-10.312051,0.341942,1.572214,-0.546877,0.222202,-0.289550
1765409686.327397,-10.095646,-0.444165,1.294835,-0.545045,0.213192,-0.263283
1765409686.327647,-9.884026,-0.779531,1.028216,-0.526260,0.206625,-0.272751
1765409686.327897,-10.627688,-0.514108,1.471784,-0.527177,0.198989,-0.294895
1765409686.328147,-10.504542,-0.509326,1.821497,-0.520763,0.212581,-0.283900
1765409686.328457,-10.608559,-0.402917,1.598517,-0.508698,0.214414,-0.292452
1765409686.328707,-11.142992,-0.306671,2.338594,-0.497550,0.208305,-0.286954
1765409686.328957,-10.607364,-0.663558,1.471784,-0.496481,0.208305,-0.288939
1765409686.329207,-10.467478,-0.283357,0.921210,-0.474337,0.191659,-0.293673
1765409686.329439,-10.600189,-0.611549,1.646939,-0.469603,0.205098,-0.286343
1765409686.329772,-10.450740,-0.490196,1.693567,-0.449750,0.218079,-0.285579
1765409686.330106,-10.420851,-0.698828,0.976805,-0.444099,0.209832,-0.285885
1765409686.330428,-10.387374,-0.201459,1.244620,-0.430660,0.206778,-0.298255
1765409686.330678,-10.407699,0.096844,0.587040,-0.414167,0.211970,-0.282525
1765409686.330928,-10.083690,-0.756815,1.150167,-0.408822,0.209985,-0.272599
1765409686.331178,-9.827832,-0.553563,0.499761,-0.408822,0.233809,-0.272599
1765409686.331399,-9.918698,-0.601387,0.636657,-0.383623,0.214261,-0.290314
1765409686.331649,-10.527258,-0.211621,1.392276,-0.375988,0.219453,-0.313068
1765409686.331899,-9.977283,0.335964,0.384385,-0.359647,0.237627,-0.297033
1765409686.332149,-10.163795,-0.359278,1.258967,-0.360716,0.234420,-0.281456
1765409686.332448,-10.356287,-0.297107,1.244620,-0.343459,0.239459,-0.300698
1765409686.332698,-10.795072,-0.255858,1.695361,-0.334907,0.226478,-0.290925
1765409686.332948,-10.846484,0.173960,1.506456,-0.324522,0.234114,-0.298560
1765409686.333198,-10.798659,0.399330,1.047346,-0.315817,0.213345,-0.279165
1765409686.333391,-10.905067,-0.397537,1.866332,-0.325591,0.211818,-0.273362
1765409686.333641,-10.634863,-0.032281,1.266140,-0.293215,0.224188,-0.287107
1765409686.333891,-10.850669,0.034672,1.488522,-0.291688,0.204334,-0.264810
1765409686.334141,-10.682088,0.106408,1.013869,-0.291994,0.200669,-0.273820
1765409686.334373,-10.920013,0.390961,1.379722,-0.270919,0.191506,-0.259770
1765409686.334706,-10.555355,-0.355093,1.562052,-0.274889,0.177304,-0.242514
1765409686.335040,-10.665949,-0.113582,1.293639,-0.264199,0.177304,-0.270155
1765409686.335403,-10.665949,-0.113582,1.293639,-0.264199,0.185856,-0.270155
1765409686.335653,-10.474652,0.589431,1.073051,-0.257632,0.173333,-0.254731
1765409686.335903,-10.799855,0.620516,1.335485,-0.249386,0.153633,-0.241903
1765409686.336153,-10.692251,0.019130,1.449067,-0.245568,0.146913,-0.220217
1765409686.336402,-10.491391,-0.047824,0.869201,-0.232282,0.146913,-0.230602
1765409686.336652,-10.491391,-0.047824,0.869201,-0.232282,0.151800,-0.230602
1765409686.336902,-10.636656,-0.090866,1.414395,-0.217621,0.109650,-0.208916
1765409686.337152,-10.853658,-0.338953,1.343855,-0.215177,0.109650,-0.210138
1765409686.337377,-10.977402,-0.009565,1.383907,-0.200211,0.113926,-0.210749
1765409686.337627,-10.869200,0.057389,1.290053,-0.183718,0.112094,-0.189674
1765409686.337877,-10.869200,0.057389,1.290053,-0.183718,0.100029,-0.189674
1765409686.338127,-10.792682,-0.553563,1.443089,-0.167683,0.079260,-0.169362
1765409686.338393,-10.699424,-0.839909,0.815399,-0.163559,0.079260,-0.161879
1765409686.338643,-10.651602,-0.734696,0.928981,-0.152411,0.076358,-0.162185
1765409686.338893,-10.807029,-0.594213,1.530368,-0.140957,0.087201,-0.154702
1765409686.339143,-10.762792,-0.764586,1.774271,-0.135307,0.075595,-0.140804
1765409686.339414,-10.563725,-0.723338,1.007891,-0.127213,0.059407,-0.137903
1765409686.339664,-10.285748,-0.872190,0.548183,-0.115148,0.047495,-0.125227
1765409686.339914,-10.368841,-0.997130,0.894309,-0.104153,0.045357,-0.114232
1765409686.340164,-10.535626,-1.000717,1.400048,-0.096517,0.041692,-0.109650
1765409686.340400,-10.390960,-0.857843,1.097561,-0.093004,0.041692,-0.104153
1765409686.340650,-10.206838,-0.820182,0.559541,-0.082772,0.030085,-0.084758
1765409686.340900,-10.307267,-0.939144,0.870397,-0.073151,0.020922,-0.072846
1765409686.341150,-10.307267,-0.939144,0.870397,-0.073151,0.023366,-0.072846
1765409686.341464,-10.369438,-0.978001,1.009086,-0.068570,0.008552,-0.052382
1765409686.341714,-10.309659,-1.043759,0.766380,-0.061697,0.008552,-0.044135
1765409686.341964,-10.361069,-1.138211,0.824366,-0.055741,-0.000916,-0.032070
1765409686.342214,-10.263628,-1.327116,0.563128,-0.050855,-0.002902,-0.025045
1765409686.342361,-10.171567,-1.272118,0.639048,-0.041233,-0.000153,-0.026420
1765409686.342611,-10.076518,-1.137613,0.608560,-0.040012,0.007636,-0.019548
1765409686.342861,-10.084887,-1.058704,0.634864,-0.029627,0.001985,-0.010843
1765409686.343111,-10.010758,-0.996533,0.493783,-0.021380,-0.002443,-0.003971
1765409686.343444,-9.998802,-1.021042,0.431612,-0.016493,-0.007178,0.002749
1765409686.343644,-9.941415,-1.013869,0.284553,-0.010232,-0.002902,0.010537
1765409686.343844,-9.830223,-1.015662,0.272597,-0.005956,-0.001527,0.013134
1765409686.344044,-9.943806,-0.897896,0.375418,-0.004429,-0.010079,0.007178
1765409686.344244,-9.946795,-0.761597,0.257054,-0.001527,-0.006414,0.015882
1765409686.344404,-9.803921,-0.653993,0.071736,0.006109,-0.007483,0.017104
1765409686.344604,-9.950979,-0.518890,0.472860,0.005956,-0.006414,0.014508
1765409686.344804,-10.002390,-0.343735,0.542205,0.008552,-0.002291,0.021533
1765409686.345004,-9.903154,-0.359876,0.265423,0.010996,-0.005803,0.021228
1765409686.345204,-9.872069,-0.275586,0.326399,0.010843,-0.005803,0.021533
1765409686.345411,-9.924676,-0.170971,0.469871,0.009774,-0.003054,0.023671
1765409686.345661,-10.098038,-0.081899,0.584648,0.012523,-0.008399,0.022755
1765409686.345911,-10.017933,-0.153037,0.402917,0.015424,-0.001527,0.025962
1765409686.346161,-9.899570,-0.185318,0.271999,0.020464,-0.003360,0.020922
1765409686.346376,-9.919296,0.016738,0.295911,0.020159,-0.003512,0.015119
1765409686.346576,-10.032877,0.298900,0.462697,0.022907,-0.003665,0.012828
1765409686.346776,-9.949782,0.411286,0.435796,0.016799,-0.003971,0.012828
1765409686.346976,-9.974891,0.423840,0.414873,0.015882,-0.007636,0.014508
1765409686.347176,-9.803921,0.352702,0.159015,0.020617,-0.007789,0.015424
1765409686.347452,-9.788976,0.248685,0.187709,0.019548,-0.006872,0.013134
1765409686.347652,-9.887612,0.320421,0.332377,0.019090,-0.007330,0.008705
1765409686.347852,-10.059181,0.519488,0.424438,0.017104,-0.004887,0.003360
1765409686.348052,-10.003586,0.541009,0.367049,0.014508,-0.002902,0.004581
1765409686.348252,-9.892395,0.447154,0.307269,0.010537,-0.005956,0.004429
1765409686.348412,-9.899570,0.533238,0.294118,0.011454,-0.004734,0.002138
1765409686.348612,-9.916306,0.677905,0.259445,0.008399,-0.003971,-0.001069
1765409686.348812,-9.966521,0.665949,0.352702,0.005651,-0.003360,0.000611
1765409686.349012,-10.014346,0.439981,0.377810,-0.001069,-0.004581,0.002138
1765409686.349212,-9.949186,0.424438,0.211621,0.000305,-0.004429,-0.002749
1765409686.349410,-9.946198,0.424438,0.230153,-0.006414,-0.002902,-0.005192
1765409686.349610,-10.047822,0.429818,0.509326,-0.008552,-0.006567,-0.004123
1765409686.349810,-10.086082,0.376614,0.436394,-0.009163,-0.008399,-0.004276
1765409686.350010,-10.041844,0.339550,0.326399,-0.008247,-0.005498,-0.005192
1765409686.350210,-9.945002,0.264825,0.288140,-0.016188,-0.003512,-0.008552
1765409686.350388,-9.966521,0.294715,0.286944,-0.021228,-0.004887,-0.009927
1765409686.350588,-9.978478,0.359876,0.245098,-0.020464,-0.007636,-0.009163
1765409686.350788,-9.936632,0.247489,0.332377,-0.021075,-0.007636,-0.009621
1765409686.350988,-9.972500,0.127331,0.427427,-0.026725,-0.008247,-0.011912
1765409686.351188,-9.988043,0.131516,0.291726,-0.026420,-0.004887,-0.010690
1765409686.351339,-9.944403,0.075323,0.212817,-0.028405,-0.007636,-0.008705
1765409686.351589,-9.952174,0.032281,0.379603,-0.028100,-0.009468,-0.009927
1765409686.351839,-10.077114,0.074127,0.419656,-0.024435,-0.011606,-0.010690
1765409686.352089,-10.077114,0.074127,0.419656,-0.024435,-0.006261,-0.010690
1765409686.352362,-9.874461,-0.121951,0.261836,-0.027184,-0.008858,-0.007789
1765409686.352562,-9.964728,-0.099235,0.394548,-0.026725,-0.008858,-0.009010
1765409686.352762,-9.968913,-0.071138,0.321019,-0.025656,-0.006414,-0.009621
1765409686.352962,-9.894786,-0.132114,0.270803,-0.024129,-0.003665,-0.008399
1765409686.353162,-9.936033,-0.182927,0.353300,-0.025198,-0.005192,-0.008552
1765409686.353349,-10.045432,-0.193687,0.463893,-0.024587,-0.009010,-0.007025
1765409686.353599,-9.936632,-0.294715,0.306671,-0.023671,-0.009010,-0.008705
1765409686.353849,-9.938425,-0.333572,0.384983,-0.019853,-0.008705,-0.007483
1765409686.354099,-9.921089,-0.274988,0.271999,-0.020006,-0.004734,-0.009163
1765409686.354379,-9.933045,-0.245098,0.300096,-0.017410,-0.011148,-0.009774
1765409686.354579,-9.922284,-0.307269,0.338953,-0.017715,-0.006720,-0.007025
1765409686.354779,-9.966521,-0.364060,0.475849,-0.016035,-0.006720,-0.007178
1765409686.354979,-9.929459,-0.294118,0.306074,-0.012217,-0.005651,-0.008247
1765409686.355179,-9.886416,-0.196676,0.233142,-0.011454,-0.006720,-0.007178
1765409686.355382,-9.952174,-0.217599,0.428025,-0.010537,-0.006872,-0.004276
1765409686.355582,-10.029889,-0.240316,0.463893,-0.010232,-0.009927,-0.000916
1765409686.355782,-9.999401,-0.286346,0.399928,-0.006109,-0.003512,-0.002443
1765409686.355982,-9.880439,-0.315041,0.326399,-0.008858,-0.006109,-0.003207
1765409686.356182,-9.950979,-0.279770,0.436394,-0.004429,-0.009621,-0.004734
1765409686.356351,-10.019128,-0.234338,0.394548,-0.004276,-0.009621,-0.003207
1765409686.356551,-10.019128,-0.234338,0.394548,-0.004276,-0.005498,-0.003207
1765409686.356751,-9.893590,-0.196078,0.364658,-0.005651,-0.003971,0.000153
1765409686.356951,-9.919893,-0.141081,0.349115,-0.003971,-0.005956,0.001527
1765409686.357151,-9.911524,-0.084888,0.267217,-0.001527,-0.004581,0.001222
1765409686.357359,-9.825441,-0.143472,0.306671,-0.004734,-0.004581,0.001527
1765409686.357559,-9.825441,-0.143472,0.306671,-0.004734,-0.005345,0.001527
1765409686.357759,-9.952174,0.006576,0.333572,-0.005040,-0.004887,0.004887
1765409686.357959,-9.984456,-0.078910,0.388570,-0.002596,-0.005345,0.006872
1765409686.358159,-9.907937,-0.145863,0.322812,-0.003054,-0.005498,0.006109
1765409686.358374,-9.899570,-0.058584,0.240316,-0.002902,-0.004276,0.006872
1765409686.358574,-9.878048,-0.066954,0.267814,-0.003207,-0.006872,0.006720
1765409686.358774,-9.910329,-0.138092,0.340746,-0.003054,-0.005498,0.007330
1765409686.358974,-9.970109,-0.084888,0.347920,-0.001527,-0.005498,0.007636
1765409686.359174,-9.898971,-0.083692,0.234338,-0.000764,-0.005651,0.006567
1765409686.359348,-9.873863,-0.163797,0.280368,-0.003207,-0.005192,0.008399
1765409686.359548,-9.965326,-0.154232,0.361071,-0.000611,-0.008094,0.007330
1765409686.359748,-9.999999,-0.034672,0.368843,0.003512,-0.006567,0.006872
1765409686.359948,-9.925871,-0.004782,0.308465,0.000153,-0.002902,0.002596
1765409686.360148,-9.928263,0.016738,0.283357,0.000916,-0.007178,0.004429
1765409686.360406,-10.008368,0.083692,0.375418,0.001222,-0.008858,0.003207
1765409686.360606,-9.971304,0.112386,0.369440,0.000916,-0.007941,0.002596
1765409686.360806,-9.918698,0.063367,0.298900,0.000764,-0.005956,0.003971
1765409686.361006,-9.960544,0.049020,0.346126,-0.001680,-0.003665,0.001833
1765409686.361206,-9.960544,0.049020,0.346126,-0.001680,-0.009010,0.001833
1765409686.361374,-9.995814,0.167982,0.353898,-0.000153,-0.005498,0.003818
1765409686.361574,-9.928263,0.151841,0.355691,-0.002138,-0.005651,0.002902
1765409686.361774,-9.897178,0.165591,0.309660,-0.003360,-0.006414,0.003971
1765409686.361974,-9.940218,0.172764,0.307867,-0.004276,-0.005956,-0.000458
1765409686.362174,-9.905546,0.148254,0.344333,-0.007789,-0.008094,-0.000458
1765409686.362402,-9.888808,0.155428,0.324008,-0.008247,-0.005803,-0.000153
1765409686.362602,-9.882831,0.240316,0.216404,-0.007483,-0.008094,0.000305
1765409686.362802,-9.880439,0.185916,0.276184,-0.009468,-0.008247,-0.001833
1765409686.363002,-9.942013,0.135103,0.444763,-0.010996,-0.008247,-0.000458
1765409686.363202,-10.061573,0.130918,0.436394,-0.008247,-0.010385,0.000764
1765409686.363470,-9.933045,0.144668,0.294118,-0.014661,-0.008858,-0.001069
1765409686.363670,-9.909132,0.034075,0.358082,-0.013592,-0.007483,-0.003818
1765409686.363870,-9.943806,0.061573,0.349115,-0.011454,-0.000764,-0.000916
1765409686.364070,-9.988043,0.093855,0.264228,-0.012217,-0.000764,0.000153
1765409686.364270,-9.956957,0.015543,0.405308,-0.013439,-0.005040,-0.001833
1765409686.364473,-10.010161,-0.038259,0.384385,-0.014661,-0.007483,-0.004581
1765409686.364673,-9.972500,0.005978,0.313247,-0.013286,-0.007025,-0.003360
1765409686.364873,-9.869080,-0.072932,0.215806,-0.013286,-0.003512,-0.003360
1765409686.365073,-9.921089,-0.110593,0.381994,-0.010232,-0.004429,-0.003665
1765409686.365273,-10.035269,-0.064562,0.455524,-0.013439,-0.007025,-0.005498
1765409686.365414,-9.942610,0.018532,0.368843,-0.014050,-0.005345,-0.006720
1765409686.365614,-9.894786,-0.086083,0.270206,-0.009468,-0.003207,-0.004276
1765409686.365814,-9.954566,-0.086083,0.338355,-0.012675,-0.008247,-0.005651
1765409686.366014,-9.927068,-0.013152,0.308465,-0.012981,-0.005956,-0.003512
1765409686.366214,-9.860711,-0.056193,0.295911,-0.009010,-0.002749,-0.006720
1765409686.366379,-9.903752,-0.086083,0.364658,-0.009927,-0.005192,-0.005192
1765409686.366579,-9.994021,-0.016141,0.420851,-0.013744,-0.008247,-0.007636
1765409686.366779,-9.937828,0.017934,0.294118,-0.014050,-0.008247,-0.006414
1765409686.366979,-9.829028,-0.046628,0.274988,-0.011454,-0.002902,-0.001527
1765409686.367179,-9.921089,-0.084888,0.384983,-0.013286,-0.007941,-0.001527
1765409686.367375,-10.063964,-0.080105,0.351506,-0.010996,-0.004734,-0.003207
1765409686.367575,-10.012553,-0.139885,0.386179,-0.010232,-0.004734,-0.001833
1765409686.367775,-9.958751,-0.164993,0.398135,-0.013286,-0.003054,-0.001527
1765409686.367975,-9.903154,-0.137494,0.280966,-0.011606,-0.007330,-0.003971
1765409686.368175,-9.864299,-0.092061,0.253467,-0.011606,-0.005498,-0.003971
1765409686.368325,-9.907937,-0.164395,0.321616,-0.010079,-0.009163,0.000153
1765409686.368575,-9.986848,-0.143472,0.371832,-0.011148,-0.009163,-0.001374
1765409686.368825,-9.977283,-0.129125,0.325203,-0.006414,-0.007636,-0.000611
1765409686.369075,-9.887612,-0.098039,0.285748,-0.009621,-0.006109,0.000153
1765409686.369373,-9.913916,-0.140483,0.347920,-0.007483,-0.008552,0.000305
1765409686.369573,-9.964130,-0.132712,0.463893,-0.007330,-0.008552,0.001374
1765409686.369773,-9.974294,-0.082496,0.317432,-0.007178,-0.008552,0.000916
1765409686.369973,-9.888808,-0.099235,0.248087,-0.006109,-0.006414,0.000764
1765409686.370173,-9.940817,-0.104615,0.359876,-0.005498,-0.009010,0.000458
1765409686.370350,-10.013150,-0.062171,0.444763,-0.004581,-0.008705,0.000764
1765409686.370550,-10.013150,-0.062171,0.444763,-0.004581,-0.003360,0.000764
1765409686.370750,-9.807508,-0.035868,0.217001,-0.005956,-0.005498,0.000305
1765409686.370950,-9.852343,-0.069345,0.306074,-0.003971,-0.008552,0.002291
1765409686.371150,-9.947392,0.010760,0.337159,-0.005040,-0.002443,0.000000
1765409686.371347,-9.927666,0.074127,0.278575,-0.002138,-0.002443,0.000611
1765409686.371547,-9.900167,0.022716,0.312649,-0.005498,-0.003512,0.001833
1765409686.371747,-9.929459,0.007174,0.374223,-0.003512,-0.008247,0.002138
1765409686.371947,-9.942610,0.024510,0.315638,-0.006567,-0.008247,0.003665
1765409686.372147,-9.872069,-0.020325,0.273195,-0.004887,-0.005956,0.004734
1765409686.372381,-9.900764,-0.010760,0.334170,-0.004581,-0.005956,0.000000
1765409686.372548,-9.988043,0.037064,0.382592,-0.007941,-0.009163,0.000458
1765409686.372714,-9.978478,0.051411,0.298900,-0.005498,-0.005192,0.001833
1765409686.372881,-9.930056,-0.008967,0.361071,-0.006567,-0.003971,0.001833
1765409686.373048,-9.936632,0.009565,0.362267,-0.007483,-0.006414,0.000611
1765409686.373214,-9.939621,0.031086,0.283357,-0.007789,-0.006414,0.001069
1765409686.373348,-9.881634,0.017934,0.270206,-0.006872,-0.006109,-0.001069
1765409686.373548,-9.962935,-0.029890,0.418460,-0.007636,-0.007330,-0.001680
1765409686.373748,-9.989238,0.026303,0.374223,-0.007941,-0.007330,-0.001680
1765409686.373948,-9.911524,0.046628,0.236729,-0.007941,-0.003818,-0.001680
1765409686.374148,-9.814680,-0.009565,0.278575,-0.009927,-0.005345,-0.001833
1765409686.374416,-9.937828,0.005380,0.356289,-0.007178,-0.006414,-0.001222
1765409686.374616,-9.995216,0.069345,0.328790,-0.006109,-0.006567,-0.001527
1765409686.374816,-9.940218,0.043042,0.322812,-0.008858,-0.007178,-0.000916
1765409686.375016,-9.940218,0.043042,0.322812,-0.008858,-0.009316,-0.000916
1765409686.375216,-9.917501,0.036466,0.296509,-0.007941,-0.009774,-0.001985
1765409686.375386,-9.901959,0.056193,0.257054,-0.008399,-0.005956,-0.002443
1765409686.375586,-9.936033,-0.032879,0.349115,-0.009774,-0.008247,-0.001833
1765409686.375786,-10.024508,-0.004782,0.450143,-0.008705,-0.008247,-0.000611
1765409686.375986,-10.093256,0.009565,0.367647,-0.008247,-0.005956,-0.000764
1765409686.376186,-9.895385,-0.043042,0.249283,-0.009316,-0.004734,-0.001222
1765409686.376344,-9.897775,-0.029890,0.324605,-0.010079,-0.005956,-0.000305
1765409686.376594,-10.013748,-0.070540,0.456719,-0.011454,-0.003818,-0.002443
1765409686.376844,-10.002390,-0.065758,0.341942,-0.009010,-0.003818,0.000153
1765409686.377094,-9.899570,-0.071736,0.193687,-0.006720,-0.007789,-0.000305
1765409686.377352,-9.885221,-0.065758,0.352702,-0.009774,-0.007330,-0.003054
1765409686.377552,-9.994021,-0.065758,0.457915,-0.009468,-0.008552,-0.000764
1765409686.377752,-9.971304,-0.063367,0.352702,-0.008247,-0.006872,-0.000916
1765409686.377952,-9.915112,-0.063965,0.317432,-0.007483,-0.006872,0.001069
1765409686.378152,-9.878048,-0.078312,0.324605,-0.009010,-0.005192,-0.002596
1765409686.378372,-9.946198,-0.013152,0.333572,-0.009163,-0.009468,-0.003054
1765409686.378572,-9.978478,-0.039455,0.331181,-0.011759,-0.008858,-0.000764
1765409686.378772,-9.961142,-0.107006,0.398733,-0.008094,-0.008247,0.000153
1765409686.378972,-9.900167,-0.080703,0.300096,-0.008858,-0.003971,-0.002291
1765409686.379172,-9.921089,-0.019727,0.255858,-0.007483,-0.004429,-0.000916
1765409686.379380,-9.894786,-0.106408,0.375418,-0.009621,-0.007178,0.001527
1765409686.379580,-9.977880,-0.076518,0.414873,-0.009927,-0.008552,-0.002138
1765409686.379780,-9.995814,-0.009565,0.376614,-0.005498,-0.002596,0.000764
1765409686.379980,-9.897178,-0.074127,0.243902,-0.008705,-0.003207,-0.002138
1765409686.380180,-9.930056,-0.076518,0.391559,-0.008858,-0.007941,-0.000764
1765409686.380398,-10.015541,0.007174,0.347920,-0.005192,-0.007789,0.001069
1765409686.380598,-9.948587,-0.025108,0.329986,-0.007178,-0.004123,0.000153
1765409686.380798,-9.961740,-0.064562,0.374223,-0.008399,-0.005498,-0.002291
1765409686.380998,-9.976685,-0.013749,0.343137,-0.007025,-0.007483,0.000764
1765409686.381198,-9.912720,-0.007174,0.253467,-0.008552,-0.005192,0.001833
1765409686.381365,-9.867885,-0.049020,0.340746,-0.009927,-0.008399,-0.001374
1765409686.381565,-9.970109,-0.020923,0.392755,-0.008094,-0.008399,-0.002443
1765409686.381765,-10.011955,0.000000,0.267217,-0.009927,-0.006109,-0.001527
1765409686.381965,-9.964130,-0.011956,0.320421,-0.010537,-0.006261,-0.001527
1765409686.382165,-9.954566,-0.020325,0.340746,-0.008094,-0.008094,-0.002749
1765409686.382361,-9.916306,0.016141,0.296509,-0.005345,-0.008705,-0.000764
1765409686.382561,-9.885221,0.002989,0.264228,-0.005345,-0.007941,-0.000153
1765409686.382761,-9.901959,-0.014347,0.334768,-0.008552,-0.004276,0.000916
1765409686.382961,-9.972500,-0.012554,0.373625,-0.008247,-0.006261,0.001680
1765409686.383161,-9.901959,0.031683,0.240316,-0.007178,-0.008247,0.001680
1765409686.383350,-9.872069,0.014347,0.279173,-0.006414,-0.007025,-0.001680
1765409686.383550,-9.900764,-0.014347,0.358680,-0.009316,-0.007941,-0.001527
1765409686.383750,-9.967119,-0.012554,0.349115,-0.009774,-0.007941,-0.000153
1765409686.383950,-9.985652,0.039455,0.385581,-0.008705,-0.007483,-0.001833
1765409686.384150,-9.976088,-0.061573,0.419656,-0.011606,-0.003665,-0.001833
1765409686.384351,-9.902557,-0.023912,0.302487,-0.007941,-0.006414,-0.000153
1765409686.384551,-9.890601,0.062769,0.226566,-0.005956,-0.009927,-0.000916
1765409686.384751,-9.693327,-0.123745,0.288140,-0.007025,-0.009468,-0.001222
1765409686.384951,-9.353179,-0.239718,0.363462,-0.010385,-0.012217,-0.004734
1765409686.385151,-9.267097,0.164993,-0.037064,-0.007789,-0.012217,-0.016035
1765409686.385394,-9.643710,0.456121,0.308465,-0.008552,0.005040,-0.004276
1765409686.385594,-9.649090,0.020923,0.571497,-0.003207,0.014813,0.019700
1765409686.385794,-9.943806,-0.319823,0.862028,-0.013897,0.003665,0.005803
1765409686.385994,-10.333572,-0.127331,0.719751,-0.012523,0.005803,-0.006872
1765409686.386194,-9.974891,-0.405308,0.002391,-0.006414,0.005803,0.002902
1765409686.386384,-9.974891,-0.405308,0.002391,-0.006414,0.003971,0.002902
1765409686.386634,-10.178144,0.451339,0.930177,-0.006414,0.018937,-0.015882
1765409686.386884,-10.383189,0.514108,1.091583,-0.011912,0.021228,0.001680
1765409686.387134,-10.013150,-0.382592,0.192492,-0.011148,-0.001985,0.017257
1765409686.387457,-9.829626,-0.705404,0.035868,-0.007636,-0.006720,0.003818
1765409686.387657,-9.829626,-0.705404,0.035868,-0.007636,0.006720,0.003818
1765409686.387857,-10.045432,0.468675,0.554161,-0.007483,0.003360,-0.016799
1765409686.388057,-10.023911,0.382592,0.369440,-0.009468,0.003360,0.003818
1765409686.388257,-10.017933,-0.083094,0.333572,-0.007789,0.004276,0.013286
1765409686.388418,-10.057388,-0.373625,0.562530,-0.008094,0.009163,0.005345
1765409686.388618,-9.923481,-0.301889,0.500956,-0.010232,0.012217,-0.005498
1765409686.388818,-9.845766,-0.181731,0.174558,-0.009774,0.002749,-0.009316
1765409686.389018,-9.781802,0.162004,0.035868,-0.006109,0.002749,-0.005192
1765409686.389218,-10.022716,0.338355,0.399330,-0.003512,0.010843,-0.001374
1765409686.389404,-9.934240,0.072334,0.441774,-0.009927,0.014203,0.007483
1765409686.389604,-9.936632,-0.230153,0.246891,-0.010843,0.005192,0.008399
1765409686.389804,-10.007172,-0.253467,0.187709,-0.007178,0.003360,0.000458
1765409686.390004,-9.976088,-0.221186,0.359278,-0.007483,0.011454,-0.004887
1765409686.390204,-9.821257,0.072932,0.274988,-0.003818,0.010537,-0.006109
1765409686.390357,-9.881634,0.358082,0.138690,-0.009163,0.004734,-0.005803
1765409686.390557,-9.972500,0.150646,0.272597,-0.008247,0.004734,0.004123
1765409686.390757,-10.015541,-0.270206,0.370636,-0.009316,0.007941,0.011148
1765409686.390957,-10.026302,-0.283357,0.392157,-0.005651,0.011606,0.000153
1765409686.391157,-10.031682,-0.167384,0.430416,-0.005651,0.012675,0.000153
1765409686.391429,-9.934838,0.100430,0.254663,-0.007483,0.001833,-0.007330
1765409686.391629,-10.068149,0.308465,0.359278,-0.006261,0.001833,0.000000
1765409686.391829,-10.068149,0.308465,0.359278,-0.006261,0.010843,0.000000
1765409686.392029,-10.031085,-0.254663,0.390363,-0.009774,0.012217,0.005651
1765409686.392229,-10.017933,-0.252272,0.274390,-0.006567,0.003665,0.000305
1765409686.392448,-10.130320,0.016141,0.364658,-0.005040,0.005345,-0.004734
1765409686.392648,-10.032877,0.084888,0.419058,-0.006872,0.010537,-0.002596
1765409686.392848,-9.972500,-0.015543,0.270206,-0.006414,0.001069,0.000305
1765409686.393048,-10.000596,0.088474,0.298302,-0.007178,-0.001374,0.000764
1765409686.393248,-10.088473,0.069943,0.369440,-0.007178,0.007941,0.000916
1765409686.393444,-10.070539,-0.034672,0.329986,-0.009010,0.007178,0.003665
1765409686.393644,-10.138689,-0.132712,0.340746,-0.007941,0.004887,0.003818
1765409686.393844,-10.033475,-0.155428,0.282759,-0.007941,0.001833,-0.004581
1765409686.394044,-10.053802,0.001196,0.358680,-0.009163,0.004734,-0.006567
1765409686.394244,-10.033475,0.164993,0.299498,-0.006109,-0.000153,-0.004123
1765409686.394427,-9.959349,0.105213,0.151243,-0.007330,-0.000764,0.001527
1765409686.394627,-9.948587,-0.074127,0.274988,-0.007941,-0.000305,0.001680
1765409686.394827,-10.052007,-0.144668,0.410091,-0.010079,-0.001374,-0.002291
1765409686.395027,-10.135699,-0.052606,0.416069,-0.006720,-0.003665,-0.002443
1765409686.395227,-10.056790,-0.017934,0.262434,-0.008247,0.001833,-0.002443
1765409686.395522,-10.026302,-0.014945,0.277379,-0.011912,-0.000305,-0.001985
1765409686.395722,-9.988043,-0.005978,0.188905,-0.009621,-0.004429,-0.001680
1765409686.395922,-10.032877,0.027499,0.240913,-0.005651,-0.002596,0.000305
1765409686.396122,-10.075322,-0.029890,0.426829,-0.005956,-0.003054,0.002291
1765409686.396322,-10.129124,-0.099833,0.473458,-0.008247,-0.003054,0.001374
1765409686.396435,-10.083690,-0.108800,0.363462,-0.009468,-0.007330,-0.001069
1765409686.396635,-9.967718,-0.083094,0.215208,-0.007330,-0.005040,-0.003818
1765409686.396835,-9.944403,0.005978,0.267814,-0.005192,-0.007483,-0.004581
1765409686.397035,-10.022716,0.133907,0.313247,-0.009163,-0.006261,-0.002138
1765409686.397235,-9.980272,0.052606,0.366451,-0.007483,-0.005651,0.003971
1765409686.397388,-9.950979,-0.178742,0.341344,-0.008858,-0.003360,0.001680
1765409686.397588,-9.980869,-0.138690,0.308465,-0.009010,-0.008858,-0.003512
1765409686.397788,-9.976088,0.029890,0.260043,-0.005956,-0.005345,-0.003207
1765409686.397988,-9.928263,-0.024510,0.358680,-0.008399,-0.008399,-0.002902
1765409686.398188,-9.965326,0.032879,0.341942,-0.009316,-0.008858,0.001374
1765409686.398410,-9.930654,0.034672,0.212817,-0.006261,-0.007483,0.001374
1765409686.398910,-9.866092,-0.057389,0.217599,-0.008247,-0.004581,0.002902
1765409686.401396,-9.891797,-0.113582,0.347920,-0.009774,-0.007025,-0.000458
1765409686.403436,-9.972500,-0.049020,0.390961,-0.004581,-0.003818,-0.002138
1765409686.404443,-9.900764,-0.035270,0.327594,-0.005651,-0.003818,-0.002749
1765409686.408408,-9.897178,-0.009565,0.354495,-0.009927,-0.003054,-0.000611
1765409686.411418,-9.915112,0.068747,0.291726,-0.006720,-0.005803,0.000458
1765409686.413384,-9.870276,-0.011358,0.258250,-0.009316,-0.004276,-0.001069
1765409686.416353,-9.867287,-0.129125,0.350909,-0.009163,-0.004887,-0.001527
1765409686.418371,-9.971304,-0.057389,0.453730,-0.007483,-0.005498,-0.000764
1765409686.421376,-9.971304,-0.057389,0.453730,-0.007483,-0.005040,-0.000764
1765409686.423358,-9.813485,0.027499,0.259445,-0.010690,0.000305,-0.000916
1765409686.426414,-9.842777,-0.015543,0.309660,-0.009927,-0.008247,0.001527
1765409686.428342,-9.955164,-0.019727,0.353300,-0.010537,-0.005498,0.000611
1765409686.431365,-9.916306,-0.026303,0.395744,-0.010079,-0.000153,-0.000764
1765409686.433352,-9.916306,-0.026303,0.395744,-0.010079,-0.004887,-0.000764
1765409686.436369,-9.882831,0.039455,0.282759,-0.009774,-0.001527,-0.003512
1765409686.438357,-9.888210,0.065758,0.323410,-0.009010,-0.001527,-0.002902
1765409686.441431,-9.901959,-0.080105,0.386179,-0.010385,-0.005345,-0.001374
1765409686.441931,-9.888808,-0.051411,0.314443,-0.008094,0.000611,-0.002138
1765409686.446441,-9.874461,-0.018532,0.273792,-0.009010,-0.000611,-0.002443
1765409686.448407,-9.824244,-0.050215,0.362267,-0.008858,-0.002291,-0.003512
1765409686.451384,-9.907937,-0.004782,0.383190,-0.007789,-0.002291,-0.003054
1765409686.451884,-9.911524,0.083692,0.368245,-0.008858,-0.000764,-0.003207
1765409686.454407,-9.778215,-0.031086,0.274988,-0.008705,0.001833,0.001069
1765409686.458363,-9.793160,-0.060976,0.303682,-0.009316,-0.000458,-0.000153
1765409686.461331,-9.928263,-0.058584,0.289335,-0.011912,0.004123,-0.001527
1765409686.462413,-9.904350,-0.106408,0.344333,-0.010996,0.004123,-0.002749
1765409686.466434,-9.919893,-0.057389,0.371832,-0.009927,0.003971,-0.002443
1765409686.466934,-9.892395,0.086681,0.303085,-0.008552,0.003207,-0.001833
1765409686.469397,-9.817072,0.057389,0.289335,-0.012065,0.003207,-0.000611
1765409686.473364,-9.817072,0.057389,0.289335,-0.012065,0.003971,-0.000611
1765409686.476373,-9.965326,0.007174,0.347920,-0.011148,0.000458,-0.001527
1765409686.478339,-9.923481,-0.038857,0.327594,-0.011301,0.005040,-0.002596
1765409686.481355,-9.887015,-0.092061,0.350311,-0.011301,0.002291,-0.001833
1765409686.483349,-9.939023,0.019130,0.288140,-0.009927,0.002291,-0.002291
1765409686.484393,-9.939023,0.019130,0.288140,-0.009927,0.006414,-0.002291
1765409686.488435,-9.921686,0.059182,0.380201,-0.012981,0.008094,-0.002138
1765409686.491428,-9.999999,-0.002391,0.368245,-0.014203,0.004581,-0.000458
1765409686.493454,-9.962935,-0.040053,0.214012,-0.008094,0.007025,-0.001833
1765409686.496403,-9.851745,-0.104017,0.167384,-0.010690,0.007025,-0.005956
1765409686.498431,-9.851745,-0.104017,0.167384,-0.010690,0.005803,-0.005956
1765409686.501378,-9.986250,0.041846,0.424438,-0.012065,0.003054,-0.004581
1765409686.502412,-9.921089,0.074725,0.319225,-0.012217,0.004734,-0.002443
1765409686.506460,-9.843375,0.102224,0.214012,-0.013592,0.007789,-0.003054
1765409686.508491,-9.933643,0.053204,0.258847,-0.012981,0.007178,0.002443
1765409686.509388,-9.966521,-0.081301,0.265423,-0.014966,0.007178,0.001374
1765409686.514385,-10.034670,-0.135103,0.393950,-0.012828,0.008247,-0.003360
1765409686.516456,-9.990434,-0.098039,0.328790,-0.013439,0.007941,-0.005651
1765409686.518419,-9.911524,0.057389,0.208034,-0.013744,0.007025,-0.007330
1765409686.521407,-9.900764,0.131516,0.287542,-0.017104,0.007025,-0.004887
1765409686.523369,-9.979673,0.067551,0.356887,-0.017410,0.005192,-0.000611
1765409686.524392,-10.062170,-0.066954,0.307269,-0.013592,0.005651,0.000764
1765409686.529419,-10.040051,-0.191894,0.327594,-0.013134,0.009316,0.000305
1765409686.531348,-10.040051,-0.191894,0.327594,-0.013134,0.007178,0.000305
1765409686.533361,-10.049019,-0.068149,0.318030,-0.011759,0.001985,-0.007330
1765409686.536338,-10.035867,0.114180,0.315638,-0.011454,0.002902,-0.008858
1765409686.538416,-9.993423,0.173960,0.362865,-0.014050,0.002138,-0.006109
1765409686.541388,-9.949782,0.062171,0.227164,-0.011759,0.001374,0.002138
1765409686.543456,-9.949782,0.062171,0.227164,-0.011759,0.001680,0.002138
1765409686.546404,-9.910329,-0.150646,0.221186,-0.012981,0.003512,-0.001069
1765409686.548392,-9.983858,-0.174558,0.335964,-0.012217,0.003207,-0.002443
1765409686.551413,-10.023911,-0.059780,0.364658,-0.011454,0.002596,-0.007483
1765409686.553339,-10.047822,0.075921,0.356289,-0.013439,0.002596,-0.006567
1765409686.556423,-10.037063,0.108800,0.318030,-0.013592,0.001680,-0.001527
1765409686.558410,-10.048421,0.033477,0.297107,-0.013439,-0.000153,0.001374
1765409686.561400,-10.027497,-0.133907,0.347920,-0.015882,0.002749,-0.001069
1765409686.563382,-10.000596,-0.196078,0.283357,-0.012981,0.000916,-0.003054
1765409686.566439,-9.939023,-0.026901,0.206839,-0.012523,0.000916,-0.005651
1765409686.566939,-9.906742,0.141081,0.218795,-0.012523,-0.000305,-0.006872
1765409686.571475,-9.961740,0.159613,0.329986,-0.016799,0.000153,-0.003360
1765409686.573414,-10.001194,0.037064,0.270803,-0.012828,-0.000916,0.000611
1765409686.576401,-9.919296,-0.133907,0.151841,-0.015424,0.002596,0.001985
1765409686.578381,-9.888808,-0.257054,0.182927,-0.019700,0.003360,-0.000916
1765409686.581397,-9.939023,-0.204448,0.319225,-0.014661,0.004734,-0.003665
1765409686.583432,-9.890003,-0.064562,0.319225,-0.011454,0.006872,-0.007025
1765409686.586437,-9.937828,0.082496,0.419656,-0.013592,0.003512,-0.006720
1765409686.588337,-10.017933,0.240316,0.497370,-0.016035,0.004123,-0.007636
1765409686.591359,-9.982065,0.249880,0.413080,-0.016035,0.000305,-0.003360
1765409686.593376,-9.915709,0.050215,0.234338,-0.014661,-0.001069,0.001069
1765409686.596401,-9.956957,-0.096844,0.309063,-0.017104,-0.005651,0.003818
1765409686.598356,-9.946198,-0.167982,0.322812,-0.013744,-0.002291,0.000458
1765409686.601376,-9.865494,-0.098039,0.288140,-0.011148,-0.007330,-0.000611
1765409686.603408,-9.907937,0.022716,0.383788,-0.012981,-0.002596,-0.005651
1765409686.604434,-9.842777,0.069943,0.249880,-0.013439,-0.004276,-0.001680
1765409686.608529,-9.831419,-0.001196,0.151841,-0.018326,0.001069,0.000916
1765409686.611392,-9.891200,-0.104615,0.280966,-0.018937,0.001069,-0.000916
1765409686.613378,-9.934240,-0.066356,0.351506,-0.016646,0.000305,-0.005040
1765409686.614420,-9.861309,0.078312,0.179340,-0.014203,0.002596,-0.004734
1765409686.618407,-9.872069,0.237924,0.287542,-0.015577,0.005498,-0.008094
1765409686.621400,-9.907937,0.266021,0.455524,-0.017257,0.001985,-0.003054
1765409686.623456,-9.947392,0.095050,0.393352,-0.018784,0.001985,0.003207
1765409686.624475,-9.899570,-0.127929,0.282759,-0.023060,-0.000305,0.001985
1765409686.627354,-9.929459,-0.229555,0.296509,-0.019700,0.001680,-0.001222
1765409686.631345,-9.914514,-0.199665,0.293520,-0.017715,0.003207,-0.001527
1765409686.633372,-9.797344,-0.009565,0.179340,-0.014661,0.004581,-0.006872
1765409686.636412,-9.824244,0.151841,0.296509,-0.016799,0.006567,-0.005345
1765409686.638380,-9.918698,0.190100,0.374223,-0.018326,0.007178,-0.000916
1765409686.641379,-9.965326,0.047824,0.361071,-0.018784,0.004581,0.001527
1765409686.642425,-9.870873,-0.041248,0.236131,-0.021228,0.006261,0.000458
1765409686.646417,-9.807508,-0.129125,0.248685,-0.022144,0.007483,-0.003207
1765409686.648448,-9.747727,0.000000,0.231349,-0.020922,0.008247,-0.006109
1765409686.651433,-9.751313,0.113582,0.165591,-0.019090,0.005956,-0.004581
1765409686.653406,-9.764465,0.178144,0.292922,-0.019853,0.011912,-0.000764
1765409686.656411,-9.829028,0.032879,0.343137,-0.020464,0.011912,0.003207
1765409686.658363,-9.829028,0.032879,0.343137,-0.020464,0.011148,0.003207
1765409686.661394,-9.916904,-0.138690,0.328790,-0.023366,0.013134,0.000000
1765409686.663394,-9.911524,-0.115973,0.358680,-0.019853,0.011912,-0.002596
1765409686.664428,-9.897178,0.001196,0.375418,-0.021380,0.012981,-0.004734
1765409686.668398,-9.865494,0.198470,0.322812,-0.022449,0.012981,-0.003665
1765409686.671384,-9.921686,0.169775,0.373625,-0.024435,0.014355,0.002749
1765409686.673436,-9.881036,-0.062171,0.271401,-0.026267,0.014050,0.004887
1765409686.676434,-9.943806,-0.194285,0.292324,-0.020159,0.012981,0.001985
1765409686.678435,-9.809898,-0.166188,0.228360,-0.021075,0.013439,-0.001680
1765409686.681422,-9.827234,-0.017934,0.265423,-0.017868,0.013439,-0.005956
1765409686.683472,-9.956957,0.069943,0.358680,-0.020922,0.008705,-0.004887
1765409686.686452,-10.075322,0.150048,0.484218,-0.022602,0.016799,-0.002902
1765409686.688424,-9.959349,-0.049020,0.393352,-0.022449,0.016799,0.001985
1765409686.691478,-9.850550,-0.198470,0.179340,-0.023213,0.011148,0.001527
1765409686.691978,-10.019128,-0.072932,0.260641,-0.025198,0.002749,-0.005651
1765409686.696469,-9.968315,0.079507,0.196078,-0.022449,0.008705,-0.002749
1765409686.696969,-9.782400,0.065758,0.038259,-0.020922,0.015119,0.000000
1765409686.701953,-9.936632,0.053802,0.395744,-0.021533,0.012828,0.002596
1765409686.703435,-9.936632,0.053802,0.395744,-0.021533,0.015272,0.002596
1765409686.706387,-9.890003,-0.087877,0.067551,-0.018326,0.013286,0.006414
1765409686.708395,-9.796148,-0.200861,0.050215,-0.021380,0.010232,-0.001069
1765409686.711399,-10.012553,-0.108800,0.387972,-0.021533,0.014661,-0.003971
1765409686.713359,-10.124939,0.037064,0.489000,-0.024282,0.017868,-0.002749
1765409686.714413,-10.124939,0.037064,0.489000,-0.024282,0.015272,-0.002749
1765409686.718352,-9.958751,0.182927,0.196078,-0.023671,0.014813,-0.001374
1765409686.721445,-10.017933,0.029292,0.248685,-0.023824,0.014813,0.001069
1765409686.721945,-10.053802,-0.191296,0.367049,-0.022297,0.012828,0.002749
1765409686.724442,-9.929459,-0.187111,0.320421,-0.025504,0.015730,-0.005651
1765409686.728427,-9.852941,0.075323,0.163199,-0.022602,0.011912,-0.005192
1765409686.729342,-9.770443,0.094452,0.051411,-0.022297,0.014508,0.000458
1765409686.733367,-9.959349,0.132114,0.297704,-0.021380,0.009316,0.001527
1765409686.736378,-10.053802,0.044237,0.404711,-0.026267,0.019548,0.002443
1765409686.738389,-9.945002,-0.118364,0.260641,-0.024893,0.019548,0.003360
1765409686.741351,-9.866092,-0.057389,0.200861,-0.023824,0.013592,-0.000611
1765409686.743375,-10.065758,-0.011956,0.379005,-0.024282,0.015119,0.000458
1765409686.746386,-9.958152,-0.009565,0.237924,-0.022449,0.012828,0.003971
1765409686.748397,-9.858918,0.012554,0.145863,-0.022755,0.015119,-0.002291
1765409686.751428,-9.844571,0.081301,0.172166,-0.022602,0.012981,-0.001985
1765409686.751928,-9.954566,-0.005978,0.347322,-0.023976,0.010232,-0.000611
1765409686.756425,-9.822452,-0.025108,0.105213,-0.023060,0.013439,0.000153
1765409686.758458,-9.925274,0.006576,0.187709,-0.026573,0.012523,-0.001374
1765409686.759350,-9.955761,-0.004782,0.206241,-0.027184,0.013897,-0.001374
1765409686.761702,-10.026302,0.028694,0.276781,-0.027336,0.011454,0.000916
1765409686.766415,-9.991630,0.033477,0.303682,-0.026114,0.014355,-0.000611
1765409686.768469,-9.979075,0.003587,0.353898,-0.025504,0.014813,-0.001985
1765409686.771424,-9.883428,0.029292,0.240316,-0.025962,0.014050,-0.000764
1765409686.773368,-9.908535,0.009565,0.315638,-0.026114,0.011606,0.002291
1765409686.774461,-10.016738,-0.093855,0.376614,-0.028711,0.010996,0.004123
1765409686.778404,-9.950979,-0.139287,0.264825,-0.027031,0.010537,-0.001374
1765409686.779381,-9.873264,-0.019130,0.212817,-0.024129,0.014050,-0.001527
1765409686.783461,-9.769248,-0.025108,0.132712,-0.024282,0.010843,0.000000
1765409686.786392,-9.788378,0.066954,0.204448,-0.025198,0.011606,-0.001222
1765409686.788349,-9.771639,-0.035868,0.157221,-0.025504,0.013286,0.006872
1765409686.791394,-9.947392,-0.136896,0.358680,-0.027184,0.012675,-0.001069
1765409686.793436,-10.109993,-0.061573,0.578670,-0.025351,0.015424,-0.002291
1765409686.794371,-9.815877,-0.083094,0.238522,-0.026420,0.018326,0.000153
1765409686.798409,-9.695121,0.017336,-0.032281,-0.024893,0.009927,-0.003207
1765409686.801420,-9.763867,0.113582,0.176351,-0.028863,0.011454,-0.002291
1765409686.802366,-10.089668,0.159015,0.653993,-0.028863,0.017104,-0.002291
1765409686.806413,-9.837397,-0.052606,0.222979,-0.025198,0.021991,0.005803
1765409686.809495,-9.875058,-0.078312,0.301291,-0.027031,0.014508,0.000153
1765409686.809995,-9.842180,-0.074127,0.107604,-0.026725,0.017715,0.002291
1765409686.813410,-9.873264,-0.019130,0.219393,-0.028405,0.011148,0.000458
1765409686.816345,-9.927068,0.049020,0.285748,-0.028405,0.020617,-0.003971
1765409686.818396,-9.837996,0.088474,0.322812,-0.027642,0.019242,0.000611
1765409686.821349,-9.965924,0.047824,0.442372,-0.030696,0.020617,0.001833
1765409686.823403,-9.884026,0.074127,0.244500,-0.027947,0.016341,0.000458
1765409686.826411,-10.052606,-0.029890,0.465088,-0.030238,0.021838,0.002749
1765409686.828367,-9.839788,-0.026303,0.187709,-0.026573,0.021838,0.001222
1765409686.831375,-9.807508,-0.101626,0.053802,-0.031765,0.018021,0.000000
1765409686.833363,-9.855929,-0.009565,0.266619,-0.027794,0.012370,-0.001222
1765409686.836360,-9.915709,0.104017,0.304878,-0.031918,0.015119,-0.007636
1765409686.837511,-9.823050,0.108800,0.146461,-0.030085,0.020922,0.000305
1765409686.841348,-9.778812,0.001196,0.100430,-0.031918,0.020922,0.002749
1765409686.843389,-10.005977,-0.070540,0.457915,-0.030849,0.020159,0.003054
1765409686.846442,-9.952174,-0.014347,0.321616,-0.033903,0.024129,-0.001680
1765409686.848457,-9.898373,-0.063367,0.217599,-0.028711,0.018479,-0.001833
1765409686.851416,-9.869080,0.012554,0.197274,-0.031918,0.018479,-0.001680
1765409686.853455,-10.083092,0.230751,0.409493,-0.034056,0.024587,-0.002749
1765409686.856400,-9.899570,0.230751,0.286944,-0.034056,0.029016,-0.002749
1765409686.858409,-9.783595,-0.031086,0.114778,-0.034667,0.021228,0.006872
1765409686.861425,-9.895385,-0.143472,0.295313,-0.034514,0.021228,0.004123
1765409686.863404,-9.873264,-0.216404,0.221186,-0.033903,0.023060,0.001069
1765409686.865502,-9.774031,-0.107604,0.049020,-0.032987,0.021991,-0.005651
1765409686.868416,-9.774031,-0.107604,0.049020,-0.032987,0.024740,-0.005651
1765409686.870572,-10.011955,0.356289,0.393352,-0.034361,0.027794,-0.001680
1765409686.873452,-9.958152,0.146461,0.344931,-0.039401,0.027794,0.008247
1765409686.876434,-9.868484,-0.107006,0.267814,-0.041539,0.024587,0.007330
1765409686.879399,-9.698110,-0.188905,-0.135701,-0.037874,0.026573,0.005498
1765409686.881418,-9.656861,-0.294118,-0.101626,-0.033903,0.024282,-0.001527
1765409686.883439,-9.874461,0.053802,0.181731,-0.034056,0.028100,-0.007941
1765409686.886417,-10.005977,0.354495,0.465088,-0.036957,0.037263,-0.006414
1765409686.888386,-9.931252,0.235533,0.332377,-0.036805,0.036194,0.004581
1765409686.891454,-9.877449,-0.019130,0.119560,-0.039095,0.024129,0.010079
1765409686.893397,-9.980869,-0.167384,0.298900,-0.037110,0.024129,0.003971
1765409686.896412,-9.991630,-0.170971,0.346724,-0.036805,0.031154,0.000764
1765409686.898461,-9.839190,-0.075323,0.171569,-0.034514,0.031460,-0.004734
1765409686.901440,-9.840983,0.144070,0.184122,-0.036499,0.026573,-0.007330
1765409686.903412,-9.907339,0.341942,0.258250,-0.039859,0.026573,-0.004734
1765409686.906415,-9.896580,0.185916,0.215208,-0.040623,0.026573,0.005040
1765409686.908403,-9.915112,-0.029890,0.150646,-0.040623,0.025045,0.005040
1765409686.911505,-9.985652,-0.139885,0.284553,-0.040470,0.019700,0.003512
1765409686.913428,-9.898373,-0.187709,0.167384,-0.040012,0.021533,0.000611
1765409686.916396,-9.724413,-0.098039,-0.141081,-0.037568,0.026114,-0.003971
1765409686.918418,-9.860114,0.205643,0.169775,-0.041692,0.031460,-0.010079
1765409686.921380,-10.020324,0.279770,0.477044,-0.041844,0.033445,-0.000305
1765409686.924433,-10.010758,0.039455,0.438187,-0.042150,0.029780,0.009927
1765409686.926383,-9.899570,-0.120158,0.156624,-0.043982,0.029780,0.001374
1765409686.929434,-9.818267,-0.085485,0.142276,-0.041386,0.031154,-0.000305
1765409686.931489,-9.817670,-0.100430,0.182927,-0.041539,0.027336,-0.002138
1765409686.933371,-9.882831,0.125538,0.156026,-0.038332,0.026267,-0.007483
1765409686.936367,-9.875058,0.354495,0.166188,-0.041386,0.033139,-0.005651
1765409686.939426,-9.858918,0.187111,0.166188,-0.045815,0.031765,0.007483
1765409686.941411,-9.979673,0.002989,0.258250,-0.043677,0.028100,0.008247
1765409686.943473,-10.052606,-0.078910,0.376614,-0.046120,0.029627,0.000916
1765409686.946441,-9.891200,-0.082496,0.187111,-0.045204,0.032376,-0.000153
1765409686.949411,-9.723815,-0.027499,-0.086681,-0.044440,0.029169,-0.003665
1765409686.951451,-9.878048,0.194883,0.172764,-0.047189,0.029627,-0.006414
1765409686.953406,-10.126135,0.307269,0.554758,-0.046273,0.033445,-0.000305
1765409686.956431,-9.983260,0.057389,0.347322,-0.046884,0.033445,0.007330
1765409686.958438,-9.842777,-0.178144,0.104017,-0.048717,0.028711,0.005651
1765409686.959478,-9.880439,-0.225371,0.066356,-0.047495,0.027794,0.001833
1765409686.963390,-9.854136,-0.164993,0.195481,-0.043219,0.027794,0.001985
1765409686.966394,-9.884026,0.015543,0.209230,-0.043219,0.031918,0.001985
1765409686.968413,-9.839788,0.291726,0.149450,-0.047037,0.038790,-0.008094
1765409686.971412,-9.840983,0.257652,0.144668,-0.047953,0.040928,0.003207
1765409686.973423,-9.838593,-0.002391,0.108800,-0.044593,0.036652,0.006720
1765409686.976429,-9.882831,-0.186514,0.167982,-0.047037,0.036041,0.003512
1765409686.979412,-9.820060,-0.159015,0.089670,-0.047037,0.042302,-0.000458
1765409686.981440,-9.858918,-0.065758,0.253467,-0.043066,0.042761,-0.003054
1765409686.983404,-9.991630,0.165591,0.633668,-0.041233,0.042608,-0.002596
1765409686.986487,-10.025107,0.281564,0.554758,-0.047342,0.043066,-0.002749
1765409686.988442,-9.849951,0.001196,0.069943,-0.050244,0.031612,0.005345
1765409686.991484,-9.880439,-0.166188,-0.057389,-0.048564,0.019853,0.001374
1765409686.993420,-10.104613,-0.056193,0.179340,-0.045509,0.027336,-0.001374
1765409686.994513,-9.866092,-0.127331,0.177547,-0.046273,0.037568,0.000153
1765409686.999496,-9.826636,0.017934,0.065758,-0.043677,0.039248,-0.002749
1765409687.001443,-9.844571,0.173960,0.105213,-0.053298,0.035583,-0.003512
1765409687.003439,-9.898373,0.198470,0.257652,-0.054214,0.036499,0.001222
1765409687.006450,-9.794355,0.003587,0.022716,-0.054214,0.043371,0.006109
1765409687.008470,-9.821257,-0.191296,0.167982,-0.050855,0.040164,0.004734
1765409687.011374,-9.942013,-0.147059,0.242707,-0.051465,0.047037,-0.001985
1765409687.013413,-10.029292,0.005978,0.415471,-0.048411,0.042455,-0.004276
1765409687.016432,-9.843375,0.129125,0.147059,-0.048258,0.043219,-0.002596
1765409687.017356,-9.831419,0.218795,0.047226,-0.049175,0.038790,-0.003054
1765409687.021371,-9.892395,0.114778,0.194285,-0.052534,0.041081,0.000305
1765409687.023385,-9.768052,0.040650,0.029890,-0.053603,0.044135,0.007941
1765409687.026376,-9.916306,-0.071736,0.228360,-0.054672,0.044440,0.000764
1765409687.028466,-9.916306,-0.071736,0.228360,-0.054672,0.042913,0.000764
1765409687.031435,-9.930654,-0.033477,0.237924,-0.053603,0.047800,-0.001833
1765409687.033421,-9.797344,0.052009,-0.005978,-0.054062,0.047800,0.000000
1765409687.034463,-9.826038,0.182329,0.162602,-0.056810,0.045204,-0.001222
1765409687.038453,-10.019128,0.091463,0.333572,-0.056810,0.045357,0.002443
1765409687.041438,-10.019128,0.091463,0.333572,-0.056810,0.045357,0.002443
1765409687.041938,-10.112385,-0.049020,0.314443,-0.055131,0.044746,0.002138
1765409687.044470,-9.858918,-0.081301,0.084888,-0.053145,0.044746,0.000458
1765409687.048472,-9.777020,0.013152,-0.027499,-0.052382,0.046120,-0.002749
1765409687.051444,-9.764465,0.178144,0.190100,-0.055741,0.048411,-0.000611
1765409687.053435,-9.964130,0.204448,0.294118,-0.056352,0.043982,0.000916
1765409687.056461,-9.891200,0.087279,0.070540,-0.055741,0.044899,0.005192
1765409687.058484,-9.915709,-0.022716,-0.022716,-0.054672,0.044899,0.001069
1765409687.061384,-9.823050,-0.068149,-0.023314,-0.055894,0.051465,0.002902
1765409687.062432,-9.883428,-0.059780,0.202056,-0.054062,0.046120,0.000000
1765409687.066449,-9.894786,0.010760,0.153635,-0.057727,0.046884,-0.001527
1765409687.067450,-9.882233,0.133907,0.042444,-0.061239,0.049786,-0.001985
1765409687.071389,-9.909132,0.142276,0.114778,-0.062614,0.051313,0.001680
1765409687.072467,-9.997607,-0.071736,0.303682,-0.062003,0.050702,0.005192
1765409687.076367,-10.038258,-0.173362,0.301291,-0.059254,0.054062,-0.001069
1765409687.079476,-9.854136,-0.121951,0.083094,-0.061239,0.054062,-0.002443
1765409687.081433,-9.854136,-0.121951,0.083094,-0.061239,0.051771,-0.002443
1765409687.083452,-9.813485,0.174558,0.069345,-0.057879,0.047342,-0.000305
1765409687.086417,-9.811094,0.234338,0.197872,-0.060018,0.048717,-0.004276
1765409687.088546,-9.757292,0.178742,-0.052606,-0.059101,0.048869,0.001985
1765409687.091458,-9.781204,-0.101028,-0.005978,-0.061850,0.048869,0.005803
1765409687.093502,-9.781204,-0.101028,-0.005978,-0.061850,0.054520,0.005803
1765409687.096475,-9.937828,-0.041248,0.309660,-0.060476,0.058338,0.002749
1765409687.098468,-9.808105,0.032281,0.153037,-0.059559,0.049786,0.003054
1765409687.103417,-9.985652,0.237924,0.238522,-0.062614,0.045509,-0.004123
1765409687.103917,-10.057388,0.219990,0.182927,-0.063683,0.051618,0.005956
1765409687.106476,-9.747129,-0.089670,-0.325203,-0.063072,0.052382,0.009774
1765409687.109405,-9.765661,-0.174558,-0.202056,-0.065363,0.062766,0.000305
1765409687.111420,-9.976088,-0.116571,0.333572,-0.066737,0.062766,0.000153
1765409687.113485,-9.953370,0.059182,0.373027,-0.058490,0.066432,0.002138
1765409687.116459,-9.775226,0.029890,0.037064,-0.063683,0.056200,0.003665
1765409687.118455,-9.795551,0.217001,-0.071736,-0.066432,0.057421,-0.004276
1765409687.121463,-9.983260,0.164395,0.217599,-0.062766,0.061850,0.005803
1765409687.123437,-9.770443,-0.233142,0.184122,-0.063377,0.062919,0.015272
1765409687.126419,-9.899570,-0.203850,0.087279,-0.062614,0.054825,-0.003818
1765409687.128438,-9.893590,-0.102224,0.054998,-0.065210,0.061392,-0.005498
1765409687.131419,-9.859515,-0.019130,0.054998,-0.053909,0.058796,0.001222
1765409687.133439,-9.839190,0.075323,0.173960,-0.059407,0.058948,-0.004123
1765409687.136441,-9.926469,0.328192,0.215806,-0.069028,0.060476,-0.007025
1765409687.138481,-9.926469,0.328192,0.215806,-0.069028,0.063225,-0.007025
1765409687.141424,-9.866092,-0.049020,0.073529,-0.065668,0.054520,0.007941
1765409687.143454,-10.078310,-0.115973,0.443568,-0.065973,0.060628,-0.000305
1765409687.146457,-9.803921,-0.098039,0.127929,-0.069333,0.066432,0.000000
1765409687.148493,-9.679578,0.031086,-0.191296,-0.069028,0.054062,-0.002291
1765409687.151460,-9.861309,0.164993,-0.176949,-0.068111,0.050244,-0.003360
1765409687.151960,-10.074127,0.144070,0.168580,-0.068722,0.057421,-0.001680
1765409687.156438,-9.968315,0.034672,0.083692,-0.066737,0.070097,0.008094
1765409687.158489,-9.744141,-0.174558,-0.156624,-0.067195,0.060628,0.006720
1765409687.161458,-9.772835,-0.129125,-0.261239,-0.065515,0.060628,-0.001833
1765409687.163451,-9.982065,0.035270,0.301291,-0.065210,0.066584,-0.004429
1765409687.166512,-9.981467,0.080105,0.313845,-0.065973,0.073609,0.000000
1765409687.167513,-9.942610,0.164993,0.515901,-0.072235,0.066432,0.000153
1765409687.171457,-10.008965,0.133907,0.300096,-0.072388,0.065821,-0.003360
1765409687.173461,-9.728598,-0.064562,-0.143472,-0.068875,0.058796,0.006720
1765409687.176462,-9.809898,-0.232544,-0.205643,-0.068264,0.051465,0.001069
1765409687.178428,-9.715446,-0.053802,-0.292922,-0.068264,0.065515,-0.003360
1765409687.181440,-9.826636,0.081301,0.096844,-0.068264,0.067042,-0.003971
1765409687.183402,-9.757292,0.265423,0.118364,-0.069180,0.069944,-0.005345
1765409687.186394,-9.824244,0.387374,0.159015,-0.071471,0.063530,0.000458
1765409687.188431,-9.741750,0.162602,0.029890,-0.076205,0.067806,0.006414
1765409687.191383,-9.793160,0.005978,-0.115973,-0.075442,0.061087,0.007636
1765409687.193409,-9.922284,-0.197274,0.064562,-0.076511,0.060170,0.004429
1765409687.196456,-9.897178,-0.091463,0.015543,-0.077427,0.065515,-0.000611
1765409687.198464,-9.701099,0.151841,-0.147059,-0.075289,0.073915,0.000305
1765409687.201417,-9.616212,0.141081,0.004782,-0.080634,0.070555,0.000611
1765409687.203443,-9.833213,0.270206,0.007174,-0.079412,0.066584,0.001222
1765409687.206442,-9.947392,-0.014347,-0.033477,-0.080787,0.068111,0.008552
1765409687.208440,-9.763867,-0.157819,-0.186514,-0.076664,0.075442,0.008247
1765409687.211434,-9.698708,-0.099235,-0.232544,-0.077427,0.074678,0.000764
1765409687.212463,-9.951577,-0.001793,0.451937,-0.078802,0.078343,-0.003207
1765409687.214473,-10.129722,0.132712,0.625299,-0.071624,0.070860,0.000458
1765409687.218491,-9.979673,0.180536,0.315041,-0.072846,0.070860,0.003971
1765409687.221492,-9.900167,0.137494,-0.224773,-0.076511,0.064141,0.004276
1765409687.223466,-9.782400,-0.170971,-0.440579,-0.076969,0.063835,0.010690
1765409687.226422,-9.956957,-0.259445,-0.003587,-0.071777,0.069486,0.001680
1765409687.227482,-10.001194,0.025705,0.267814,-0.073762,0.085216,-0.006567
1765409687.231433,-9.974294,0.187709,0.303682,-0.082161,0.082620,-0.003818
1765409687.233412,-9.735771,0.202056,-0.211621,-0.079565,0.070708,-0.001222
1765409687.236431,-9.882831,0.226566,-0.059780,-0.083383,0.082620,-0.001527
1765409687.238454,-9.706479,0.062171,-0.080105,-0.082467,0.082620,0.003818
1765409687.241393,-9.774628,-0.096844,-0.058584,-0.084299,0.071013,0.009010
1765409687.243375,-10.005977,-0.166188,0.115375,-0.085216,0.072846,-0.001222
1765409687.246430,-9.837996,-0.149450,-0.105213,-0.079871,0.082467,0.000611
1765409687.248383,-9.717837,0.002391,-0.058584,-0.076511,0.083383,0.000916
1765409687.251507,-10.046627,0.329986,0.338355,-0.079718,0.083383,-0.009010
1765409687.253412,-10.046627,0.329986,0.338355,-0.079718,0.087506,-0.009010
1765409687.256420,-9.808105,0.015543,-0.182927,-0.081703,0.080023,0.013744
1765409687.258497,-10.007172,-0.182927,0.233740,-0.084147,0.072998,0.005192
1765409687.261402,-10.060376,-0.144668,0.204448,-0.083841,0.075136,0.001680
1765409687.262398,-9.806311,-0.106408,-0.316236,-0.079718,0.075136,0.002902
1765409687.266474,-9.806311,-0.106408,-0.316236,-0.079718,0.081551,0.002902
1765409687.266974,-9.934240,0.381396,0.214610,-0.086743,0.090255,-0.005345
1765409687.271472,-10.228956,0.343137,0.730512,-0.082314,0.092852,0.005040
1765409687.273469,-9.794355,0.056193,-0.066356,-0.087965,0.072693,0.009316
1765409687.276482,-9.552844,-0.053204,-0.762195,-0.091172,0.072693,0.004734
1765409687.277468,-9.839788,-0.138690,-0.191296,-0.086437,0.081551,-0.001680
1765409687.281497,-10.149448,0.093257,0.613343,-0.079107,0.091477,0.000458
1765409687.283487,-9.876852,0.065758,0.277379,-0.085063,0.091477,0.003360
1765409687.286513,-9.707675,0.188905,-0.219393,-0.093768,0.081398,-0.009621
1765409687.287485,-9.791367,0.251076,-0.394548,-0.091324,0.074984,0.002596
1765409687.291445,-9.895982,-0.102822,-0.035270,-0.084605,0.078191,0.010079
1765409687.292503,-9.944403,-0.069943,0.028694,-0.086896,0.087048,-0.001680
1765409687.296545,-9.779410,-0.024510,-0.090866,-0.091630,0.087048,0.000305
1765409687.298457,-9.740554,0.046628,-0.357484,-0.091630,0.082772,0.000305
1765409687.301442,-9.882831,0.313247,-0.136298,-0.087812,0.084910,-0.000611
1765409687.303457,-10.022716,0.261239,0.371832,-0.088117,0.097128,0.004734
1765409687.306431,-9.852343,0.022716,0.221186,-0.089492,0.096364,0.010079
1765409687.308397,-9.879841,-0.145265,0.078910,-0.095142,0.076664,0.001527
1765409687.311516,-9.879841,-0.145265,0.078910,-0.095142,0.077274,0.001527
1765409687.313382,-9.884026,-0.025108,-0.290531,-0.087812,0.088728,-0.001527
1765409687.316401,-9.986848,0.217599,0.191296,-0.088881,0.088728,-0.001985
1765409687.318452,-10.036465,0.364060,0.266619,-0.096669,0.092241,-0.002596
1765409687.321450,-9.939023,0.109995,0.009565,-0.099266,0.085674,0.007025
1765409687.322436,-9.650884,0.109995,-0.607963,-0.099266,0.076816,0.007025
1765409687.326441,-9.793160,-0.173362,-0.400526,-0.090713,0.081703,-0.001069
1765409687.328462,-9.941415,-0.090866,-0.011956,-0.094990,0.099724,-0.005345
1765409687.329412,-9.993423,0.159015,0.347920,-0.091477,0.103847,-0.004123
1765409687.333445,-9.821855,0.231946,0.015543,-0.091935,0.098044,-0.002138
1765409687.336413,-9.773433,0.258250,-0.178144,-0.100640,0.085521,0.002138
1765409687.338393,-9.921089,0.036466,-0.150646,-0.096517,0.091019,0.008705
1765409687.341404,-9.976088,-0.259445,0.253467,-0.094837,0.092699,0.007789
1765409687.343439,-10.074724,-0.221784,0.330583,-0.099266,0.097280,-0.004276
1765409687.344434,-9.803323,-0.047824,-0.035868,-0.099724,0.092699,-0.009010
1765409687.348393,-9.676588,0.249283,-0.408895,-0.095906,0.080940,-0.006261
1765409687.351444,-9.809898,0.471066,-0.306074,-0.096975,0.081856,-0.002902
1765409687.353403,-10.065758,0.384385,0.172166,-0.102473,0.100335,0.007025
1765409687.356453,-9.821855,-0.088474,-0.119560,-0.100487,0.102320,0.017104
1765409687.358474,-9.711261,-0.436992,-0.290531,-0.102014,0.093462,0.006414
1765409687.361443,-9.897178,-0.175753,-0.209230,-0.102473,0.096211,-0.008399
1765409687.363506,-9.974891,0.044237,0.154830,-0.093004,0.101098,-0.005651
1765409687.364468,-9.769248,0.277977,-0.176949,-0.095142,0.101251,-0.002749
1765409687.368449,-9.840386,0.429220,-0.052606,-0.103389,0.096364,-0.003360
1765409687.371457,-9.927666,0.102224,0.139885,-0.103542,0.105222,0.006109
1765409687.372451,-9.931850,-0.253467,0.001793,-0.095753,0.094837,0.015730
1765409687.376428,-10.068746,-0.382592,0.066954,-0.102167,0.086743,-0.001985
1765409687.378449,-9.928263,-0.105213,-0.255858,-0.107512,0.096822,-0.017562
1765409687.381463,-9.849951,0.247489,-0.357484,-0.098349,0.095906,-0.012217
1765409687.383451,-9.892993,0.441774,0.021521,-0.097433,0.100945,-0.007789
1765409687.386444,-10.043638,0.570301,0.266619,-0.108276,0.105680,-0.003054
1765409687.388470,-9.939023,0.190100,-0.095648,-0.108276,0.103694,-0.003054
1765409687.394052,-9.845766,-0.205045,-0.376614,-0.107207,0.094837,0.005345
1765409687.394552,-10.093256,-0.218795,-0.104017,-0.106901,0.100945,-0.007178
1765409687.396425,-9.917501,-0.064562,-0.013152,-0.109192,0.109345,-0.011759
1765409687.398451,-9.715446,0.321616,-0.165591,-0.106749,0.109039,-0.009621
1765409687.401441,-9.806311,0.556552,-0.072932,-0.110108,0.102014,-0.006261
1765409687.403450,-9.970706,0.324008,-0.114778,-0.113163,0.102625,0.004276
1765409687.406468,-9.784791,-0.107604,-0.408895,-0.113316,0.100182,0.009316
1765409687.408421,-9.845766,-0.318030,-0.263032,-0.109803,0.105832,0.001527
1765409687.411444,-10.074724,-0.184122,0.227164,-0.110108,0.104763,-0.008705
1765409687.412454,-9.930056,0.164395,-0.023314,-0.108429,0.106291,-0.012675
1765409687.416486,-9.806910,0.351506,-0.485414,-0.112552,0.097891,-0.008094
1765409687.418471,-9.866689,0.444165,-0.327594,-0.116675,0.102473,-0.004123
1765409687.421435,-10.168577,0.255858,0.272597,-0.115301,0.112399,0.006109
1765409687.423410,-9.933045,-0.337159,-0.025108,-0.116064,0.111330,0.009621
1765409687.426430,-9.989837,-0.337159,-0.255858,-0.118050,0.094990,-0.009010
1765409687.429464,-9.837996,0.003587,-0.454328,-0.114385,0.106138,-0.011606
1765409687.431459,-9.904947,0.291129,-0.206241,-0.108276,0.103236,-0.002596
1765409687.433456,-9.891200,0.288140,-0.105213,-0.116064,0.110414,-0.002138
1765409687.436429,-9.925871,0.180536,-0.183525,-0.123853,0.110414,-0.002596
1765409687.438490,-9.801530,-0.144668,-0.373027,-0.117744,0.114843,0.004123
1765409687.441417,-9.793160,-0.198470,-0.105811,-0.111025,0.110414,0.002596
1765409687.443529,-10.124342,-0.031086,0.423242,-0.118966,0.110414,-0.009927
1765409687.446487,-10.078907,0.075323,0.053802,-0.121104,0.105832,-0.005803
1765409687.448405,-9.750119,0.026901,-0.560736,-0.117439,0.103084,-0.003818
1765409687.451483,-9.623384,0.020325,-0.599593,-0.112552,0.102931,-0.002443
1765409687.453500,-9.958751,0.003587,0.044835,-0.117133,0.116675,-0.005803
1765409687.454521,-9.875656,-0.071736,-0.147059,-0.113774,0.115912,-0.001680
1765409687.458566,-9.925274,-0.045433,-0.186514,-0.118355,0.110567,-0.005803
1765409687.461406,-9.964728,0.080703,-0.230751,-0.115301,0.113468,-0.006109
1765409687.463448,-9.964728,0.080703,-0.230751,-0.115301,0.117133,-0.006109
1765409687.464468,-9.618603,-0.130918,-0.350909,-0.109803,0.115759,-0.000916
1765409687.468395,-9.726207,0.123745,-0.139885,-0.117897,0.115759,-0.010843
1765409687.471470,-10.008368,0.349713,0.099235,-0.122326,0.114232,-0.006567
1765409687.473413,-10.025107,0.245098,-0.037661,-0.115606,0.116523,0.004581
1765409687.476469,-9.956957,0.014347,-0.193687,-0.120799,0.114995,0.003818
1765409687.478457,-9.857722,-0.216404,-0.475849,-0.125075,0.112552,0.000764
1765409687.481414,-9.727402,-0.324008,-0.441176,-0.116981,0.112552,-0.000458
1765409687.482443,-9.757292,0.032281,-0.197274,-0.115148,0.118966,-0.012675
1765409687.486446,-9.949782,0.560736,0.066954,-0.119730,0.124006,-0.012828
1765409687.488474,-9.882831,0.454328,-0.049020,-0.125075,0.125227,0.004887
1765409687.491445,-9.647297,-0.014347,-0.576279,-0.123853,0.113010,0.013439
1765409687.492511,-9.808702,-0.370038,-0.414873,-0.119882,0.112857,0.008247
1765409687.496424,-9.909731,-0.502152,0.078312,-0.115606,0.123242,-0.000153
1765409687.498433,-9.878048,-0.120756,0.009565,-0.118050,0.108276,-0.009774
1765409687.501397,-9.857722,0.277379,-0.471066,-0.123089,0.108276,-0.012828
1765409687.503420,-9.867287,0.412482,-0.386179,-0.129198,0.114537,-0.008247
1765409687.506421,-9.745336,0.151841,-0.463295,-0.122020,0.129351,0.010385
1765409687.509428,-9.710664,-0.387374,-0.170971,-0.122784,0.125991,0.010996
1765409687.511443,-10.059779,-0.435198,0.097441,-0.127213,0.119271,-0.006261
1765409687.513389,-9.998802,-0.103419,-0.295911,-0.122631,0.119271,-0.013439
1765409687.516482,-9.998802,-0.103419,-0.295911,-0.122631,0.124464,-0.013439
1765409687.518469,-9.736967,0.481827,-0.264228,-0.118355,0.127213,-0.003360
1765409687.519443,-10.004781,0.185916,0.139885,-0.127518,0.126907,0.005956
1765409687.523449,-9.798540,-0.248087,-0.682688,-0.125991,0.120493,0.009316
1765409687.526492,-9.991630,-0.168580,-0.455524,-0.122326,0.127671,-0.005040
1765409687.527486,-10.037063,0.050813,0.072932,-0.118202,0.134849,-0.002596
1765409687.531440,-9.903154,0.095648,-0.002391,-0.118355,0.131794,0.002138
1765409687.533429,-9.681372,0.111191,-0.655787,-0.122326,0.123395,-0.001680
1765409687.536475,-9.733977,0.143472,-0.498565,-0.124158,0.128129,0.000916
1765409687.538513,-9.982663,0.016738,0.060976,-0.119424,0.141415,0.010079
1765409687.541483,-9.903154,-0.150646,-0.234338,-0.124006,0.131794,0.004123
1765409687.543453,-10.104613,0.010760,-0.269010,-0.132100,0.126602,-0.009010
1765409687.546454,-9.716641,-0.049020,-0.769966,-0.126449,0.137597,0.001222
1765409687.548448,-9.567192,-0.172764,-0.683883,-0.118661,0.132558,0.005345
1765409687.551411,-9.609635,0.119560,-0.502750,-0.124922,0.138208,-0.012217
1765409687.553474,-10.314442,0.548780,0.408895,-0.131489,0.146760,-0.012828
1765409687.556459,-10.104015,0.282162,-0.005380,-0.127824,0.145844,0.007483
1765409687.558448,-10.003586,-0.179938,-0.269010,-0.127365,0.124769,0.010537
1765409687.561460,-9.892993,-0.384983,-0.387374,-0.126907,0.136376,-0.001985
1765409687.563477,-9.801530,-0.258250,-0.558943,-0.124158,0.135154,-0.004887
1765409687.566474,-9.696915,0.102224,-0.648015,-0.125991,0.133169,-0.008552
1765409687.568492,-9.917501,0.524868,-0.514108,-0.131641,0.149051,-0.012370
1765409687.569431,-10.284551,0.428623,0.200263,-0.132252,0.149051,0.003054
1765409687.573410,-9.800333,-0.120158,-0.309660,-0.126296,0.147524,0.018173
1765409687.576646,-9.722619,-0.322214,-0.624701,-0.129198,0.134390,0.006872
1765409687.577146,-9.780008,-0.164993,-0.628886,-0.131947,0.136834,-0.006109
1765409687.581426,-10.115973,0.136298,-0.063367,-0.120799,0.141110,-0.002138
1765409687.583511,-9.856527,0.157819,-0.295911,-0.126602,0.150120,0.001222
1765409687.586477,-9.883428,0.255858,-0.248087,-0.129656,0.140194,-0.001680
1765409687.588539,-9.874461,0.032281,-0.457915,-0.132863,0.145233,0.009010
1765409687.591515,-9.924676,-0.175753,-0.425634,-0.128129,0.129962,0.008399
1765409687.593440,-10.142874,-0.112386,-0.335964,-0.129962,0.136223,-0.001833
1765409687.594441,-10.035867,-0.072932,-0.137494,-0.128740,0.149509,-0.003054
1765409687.599387,-9.849353,0.036466,-0.176949,-0.122478,0.151800,-0.001527
1765409687.601865,-9.704685,0.167982,-0.441176,-0.126602,0.132100,-0.001985
1765409687.603536,-9.959349,0.395744,-0.467480,-0.140652,0.127213,-0.015119
1765409687.604500,-9.974294,0.420851,-0.725729,-0.132863,0.140041,0.004123
1765409687.608421,-9.933045,0.029890,-0.462099,-0.127518,0.144775,0.018479
1765409687.609440,-9.961740,-0.227762,-0.170971,-0.129503,0.149051,0.002443
1765409687.614532,-9.871471,-0.077116,-0.401722,-0.135154,0.144164,-0.005651
1765409687.616509,-9.897178,0.261836,-0.587040,-0.130572,0.139430,-0.007789
1765409687.618496,-10.044834,0.546389,-0.361071,-0.131794,0.145233,-0.006109
1765409687.621454,-10.357483,0.393352,0.419656,-0.141263,0.155160,0.008247
1765409687.622527,-9.909132,-0.255858,-0.393950,-0.141263,0.147371,0.008247
1765409687.626551,-9.763269,-0.249283,-0.815399,-0.141263,0.139277,-0.000916
1765409687.628495,-9.830223,0.038857,-0.758010,-0.140804,0.139277,-0.004734
1765409687.631487,-9.946198,0.167982,-0.353898,-0.135918,0.152716,0.002902
1765409687.633474,-9.920491,-0.003587,-0.240316,-0.135918,0.151800,0.006414
1765409687.636500,-9.920491,-0.003587,-0.240316,-0.135918,0.149051,0.006414
1765409687.638507,-9.889405,-0.003587,-0.524271,-0.147066,0.129962,-0.002291
1765409687.641433,-9.952174,0.058584,-0.553563,-0.138208,0.129962,-0.001069
1765409687.643454,-10.012553,-0.093257,-0.541009,-0.142790,0.136070,0.000916
1765409687.646486,-9.886416,-0.126734,-0.548780,-0.140804,0.150120,0.000764
1765409687.648479,-9.788378,-0.092659,-0.622908,-0.140194,0.155007,-0.007483
1765409687.651513,-9.970109,0.301291,-0.197274,-0.138208,0.149662,-0.009468
1765409687.653440,-10.120754,0.428025,-0.064562,-0.136070,0.149662,-0.001374
1765409687.656472,-10.039454,0.095648,-0.215208,-0.140957,0.147829,0.010232
1765409687.658530,-9.692730,-0.291726,-0.858441,-0.141568,0.137292,0.007178
1765409687.661451,-9.995216,-0.221186,-0.680296,-0.144470,0.134238,-0.007330
1765409687.663463,-9.999999,0.190698,-0.462697,-0.139888,0.149662,-0.011148
1765409687.666506,-9.925871,0.389766,-0.359876,-0.135307,0.155160,0.000764
1765409687.667504,-9.612624,0.263032,-0.700024,-0.146608,0.153174,0.001833
1765409687.671453,-10.079505,0.289335,-0.072932,-0.150426,0.154854,-0.004276
1765409687.672527,-10.082495,0.031086,-0.077714,-0.144317,0.154854,0.010537
1765409687.676499,-9.786584,-0.298900,-0.624103,-0.142790,0.137750,0.006567
1765409687.678498,-9.627569,-0.156026,-1.021042,-0.145997,0.142790,-0.006567
1765409687.681484,-9.610233,-0.033477,-0.866810,-0.142179,0.150884,-0.008552
1765409687.683598,-9.660448,0.166188,-0.626494,-0.140194,0.153327,-0.003971
1765409687.686473,-9.862504,0.475849,-0.364658,-0.150731,0.153327,-0.008705
1765409687.687505,-9.862504,0.475849,-0.364658,-0.150731,0.167835,-0.008705
1765409687.691543,-9.943806,-0.071736,-0.236729,-0.147524,0.159130,0.017562
1765409687.693497,-10.014346,-0.428025,-0.453132,-0.151189,0.134849,-0.000764
1765409687.696537,-9.791965,-0.021521,-0.936155,-0.149357,0.158672,-0.013439
1765409687.697459,-9.655666,0.115973,-0.795074,-0.140804,0.158672,0.001527
1765409687.699499,-9.655666,0.115973,-0.795074,-0.140804,0.157603,0.001527
1765409687.703507,-10.071137,0.283357,-0.043639,-0.159894,0.160658,-0.011606
1765409687.706505,-10.047226,0.357484,-0.406504,-0.154243,0.160658,0.003360
1765409687.708521,-9.684361,-0.095050,-0.789694,-0.145233,0.153938,0.016799
1765409687.711473,-9.675991,-0.236729,-0.664754,-0.148593,0.144470,0.003665
1765409687.713455,-9.927666,-0.044835,-0.419058,-0.157756,0.155160,-0.009774
1765409687.716533,-9.785987,0.267814,-0.693448,-0.151036,0.160047,-0.006261
1765409687.718464,-9.652080,0.426231,-0.929579,-0.153633,0.153022,-0.000764
1765409687.721463,-9.652080,0.426231,-0.929579,-0.153633,0.161268,-0.000764
1765409687.723442,-9.891200,0.002989,-0.222382,-0.157909,0.168141,0.009010
1765409687.726450,-9.581538,-0.273792,-0.997130,-0.156229,0.155007,0.009163
1765409687.728477,-9.544475,-0.205045,-1.164515,-0.155465,0.150731,-0.007636
1765409687.731481,-9.762074,0.011358,-0.668340,-0.147982,0.164475,-0.005956
1765409687.733481,-9.610233,0.095648,-0.573290,-0.150120,0.171500,-0.005956
1765409687.736539,-9.638330,0.484218,-0.396939,-0.160047,0.169515,-0.011148
1765409687.737039,-9.771041,0.457915,-0.528455,-0.161268,0.177456,0.001680
1765409687.741474,-9.789574,-0.191296,-0.566714,-0.157603,0.159436,0.020922
1765409687.742513,-10.004781,-0.353300,-0.489598,-0.156687,0.153633,-0.001527
1765409687.746464,-10.053204,-0.130320,-0.591822,-0.156687,0.164628,-0.001527
1765409687.748521,-9.687947,0.036466,-0.891918,-0.155923,0.170431,-0.006414
1765409687.751479,-9.674795,0.261239,-0.991750,-0.154702,0.160352,-0.010996
1765409687.752455,-10.156623,0.491392,-0.169775,-0.160658,0.189521,-0.008858
1765409687.756547,-10.118362,0.236729,-0.145265,-0.157145,0.189521,0.007178
1765409687.758495,-9.890003,-0.204448,-0.554758,-0.160810,0.167988,0.005498
1765409687.759474,-10.069344,-0.208632,-0.642037,-0.159894,0.160199,-0.006109
1765409687.763571,-9.846962,-0.132712,-0.759804,-0.157603,0.166155,-0.013439
1765409687.766482,-9.714250,0.203252,-0.934959,-0.158214,0.168141,-0.013286
1765409687.768461,-9.759683,0.425634,-0.767575,-0.160047,0.168141,-0.016341
1765409687.771488,-9.947392,0.408895,-0.420851,-0.167072,0.177456,-0.010232
1765409687.773475,-9.977283,0.271401,-0.335964,-0.161268,0.175318,-0.004123
1765409687.776455,-9.915709,-0.014347,-0.502750,-0.166308,0.172722,-0.004734
1765409687.778468,-9.797344,-0.075921,-0.872788,-0.169973,0.163865,-0.012065
1765409687.781426,-9.691534,0.053802,-1.087996,-0.168293,0.166919,-0.018631
1765409687.783444,-9.719033,0.437590,-0.840507,-0.161116,0.168293,-0.016341
1765409687.786546,-9.862504,0.601985,-0.478240,-0.172111,0.178984,-0.014966
1765409687.787514,-10.052606,0.573290,-0.269010,-0.174707,0.178984,-0.008705
1765409687.789486,-9.894786,0.001196,-0.734098,-0.173944,0.171500,0.007789
1765409687.791567,-9.704685,-0.292922,-1.107126,-0.173638,0.163559,-0.001527
1765409687.796461,-9.852941,-0.063367,-0.596604,-0.171348,0.170584,-0.019548
1765409687.798467,-9.753107,0.312649,-0.599593,-0.168141,0.184787,-0.012675
1765409687.799520,-9.690338,0.194883,-0.795074,-0.173333,0.169821,-0.004887
1765409687.803519,-10.003586,0.304878,-0.645624,-0.179747,0.165850,-0.019548
1765409687.806528,-10.064561,0.203850,-0.652798,-0.172569,0.183870,-0.000458
1765409687.811634,-9.797942,-0.382592,-0.863223,-0.170584,0.175776,0.002443
1765409687.812134,-9.988043,-0.465088,-0.841702,-0.173180,0.179747,-0.016188
1765409687.814559,-10.160808,-0.703611,-0.108800,-0.175166,0.179747,-0.027794
1765409687.816495,-9.967718,0.255858,-0.595409,-0.168904,0.192423,-0.021838
1765409687.818511,-9.716043,0.543998,-0.899091,-0.172875,0.186161,-0.017257
1765409687.821439,-10.247488,0.470469,-0.090866,-0.178984,0.175776,-0.008399
1765409687.823460,-10.070539,-0.026901,-0.609756,-0.180053,0.175776,0.000916
1765409687.824481,-9.864896,-0.278575,-1.070062,-0.174402,0.167530,-0.000611
1765409687.829356,-9.488282,-0.370636,-1.441894,-0.179594,0.173944,-0.017257
1765409687.831464,-9.854136,0.222382,-0.720947,-0.173028,0.180816,-0.021991
1765409687.833468,-9.668818,0.386179,-0.662362,-0.173028,0.184176,-0.012675
1765409687.836496,-9.826636,0.367049,-0.799259,-0.187383,0.171195,-0.009927
1765409687.838529,-9.997607,0.129125,-0.629483,-0.186619,0.184939,-0.005651
1765409687.841463,-9.711261,-0.380201,-1.077833,-0.176540,0.178525,0.003665
1765409687.843464,-9.785987,-0.479436,-0.937350,-0.180511,0.182496,-0.010996
1765409687.846537,-9.729793,-0.181731,-1.150167,-0.179442,0.182496,-0.024893
1765409687.848499,-9.787780,-0.048422,-0.784314,-0.174860,0.188452,-0.011912
1765409687.851468,-9.667024,0.168580,-0.729316,-0.168752,0.187383,-0.013592
1765409687.853497,-10.025107,0.315638,-0.325203,-0.178984,0.191201,-0.013134
1765409687.856547,-9.656861,-0.061573,-1.037781,-0.180663,0.170584,0.002138
1765409687.857461,-9.725011,-0.390961,-1.142994,-0.171500,0.170584,0.000153
1765409687.861449,-9.725011,-0.390961,-1.142994,-0.171500,0.187383,0.000153
1765409687.863479,-9.962935,-0.099235,-0.511717,-0.169210,0.189216,-0.016493
1765409687.866433,-9.591701,0.050215,-1.187231,-0.171348,0.194255,-0.009621
1765409687.868489,-9.827832,0.253467,-0.854256,-0.177304,0.194561,-0.011454
1765409687.871493,-10.243901,0.162602,-0.180536,-0.178678,0.194561,-0.008399
1765409687.873512,-10.243901,0.162602,-0.180536,-0.178678,0.190437,-0.008399
1765409687.876480,-9.797942,-0.369440,-1.159732,-0.173486,0.187230,-0.010385
1765409687.879534,-9.941415,-0.118364,-0.805237,-0.169515,0.187230,-0.017715
1765409687.881513,-10.080104,-0.025108,-0.309660,-0.167072,0.193186,-0.009010
1765409687.883540,-9.670013,0.071138,-1.098159,-0.168446,0.189674,-0.012828
1765409687.886445,-9.616212,0.370038,-1.394070,-0.175929,0.187230,-0.018021
1765409687.888487,-9.910329,0.329986,-0.800454,-0.176845,0.198073,-0.005498
1765409687.891515,-10.011356,0.044237,-0.508130,-0.168293,0.198073,0.007636
1765409687.893548,-9.824244,-0.282162,-0.670732,-0.171653,0.193339,0.007330
1765409687.896595,-9.554040,-0.204448,-1.132831,-0.174249,0.193186,-0.006872
1765409687.898538,-9.562408,-0.063965,-1.382114,-0.165086,0.190743,0.000611
1765409687.901546,-9.532519,-0.121353,-1.101148,-0.165086,0.189826,-0.003207
1765409687.903545,-9.732782,0.157819,-0.863223,-0.175929,0.202655,-0.014203
1765409687.906502,-9.708273,0.149450,-0.925394,-0.175929,0.208916,-0.014203
1765409687.909432,-9.789574,-0.064562,-0.889526,-0.171806,0.197768,0.001833
1765409687.909932,-9.876852,-0.092659,-0.944524,-0.170737,0.197157,-0.000916
1765409687.913476,-9.748923,-0.151841,-0.943328,-0.176082,0.201891,-0.006261
1765409687.916469,-9.656264,0.144070,-1.170492,-0.169515,0.204793,-0.012523
1765409687.917449,-9.706479,0.144070,-1.070062,-0.169515,0.200822,-0.012523
1765409687.921459,-10.121352,0.428623,-0.325203,-0.178067,0.207389,-0.009774
1765409687.923517,-9.972500,0.341344,-0.759804,-0.178220,0.216246,0.000458
1765409687.926535,-9.796746,-0.015543,-1.102941,-0.176998,0.195324,0.008552
1765409687.928513,-9.815279,-0.035270,-1.203969,-0.175471,0.195019,-0.007330
1765409687.931495,-10.031682,0.117169,-0.711980,-0.174402,0.199906,-0.004429
1765409687.933492,-9.710664,-0.023912,-0.944524,-0.176845,0.208152,-0.004429
1765409687.936472,-9.640720,0.298900,-1.090387,-0.180511,0.201738,-0.015882
1765409687.938492,-10.017933,0.349115,-0.587040,-0.187841,0.204640,-0.008094
1765409687.941456,-10.014943,-0.017934,-0.934959,-0.180205,0.199753,0.005651
1765409687.942469,-9.892395,-0.327594,-1.058106,-0.178067,0.194713,-0.001985
1765409687.946459,-9.870873,-0.192492,-0.905069,-0.184481,0.204182,-0.020464
1765409687.948515,-10.032877,0.139885,-0.802248,-0.178678,0.200822,-0.015272
1765409687.951457,-9.729196,0.182329,-1.367766,-0.179594,0.191964,-0.013286
1765409687.953560,-9.936632,0.560139,-1.158536,-0.181732,0.197157,-0.022297
1765409687.956534,-10.099234,0.594811,-0.468077,-0.188146,0.220828,-0.006720
1765409687.958491,-9.800333,0.071736,-1.054519,-0.183107,0.209069,0.010079
1765409687.959506,-9.833811,-0.278575,-1.168101,-0.186314,0.191048,-0.003971
1765409687.963512,-9.904947,-0.179938,-1.206360,-0.188605,0.200822,-0.022297
1765409687.966503,-9.986250,0.221186,-1.047346,-0.178373,0.212887,-0.015730
1765409687.968423,-9.687947,0.356887,-1.250598,-0.185245,0.211970,-0.015730
1765409687.970539,-10.228358,0.527260,-0.497370,-0.191354,0.210443,-0.018631
1765409687.973439,-10.069344,0.206241,-0.840507,-0.189979,0.217773,-0.000916
1765409687.976487,-9.736369,-0.258250,-1.342659,-0.183565,0.194713,0.000305
1765409687.978466,-9.539692,-0.193089,-1.695361,-0.193644,0.201738,-0.018173
1765409687.981478,-9.879243,0.176949,-1.091583,-0.185092,0.209374,-0.020311
1765409687.983549,-9.713055,0.154830,-1.186035,-0.192270,0.210138,-0.012981
1765409687.986506,-9.823050,0.548183,-0.980990,-0.197309,0.204640,-0.022907
1765409687.988488,-9.933045,0.565519,-0.928981,-0.199142,0.223119,-0.008552
1765409687.991467,-9.675991,-0.064562,-1.219512,-0.192728,0.206625,0.014355
1765409687.993473,-9.727402,-0.328790,-1.309182,-0.196088,0.195019,-0.006720
1765409687.996472,-9.803921,-0.105213,-1.282879,-0.195477,0.206167,-0.021228
1765409687.997476,-9.589908,-0.080105,-1.328312,-0.188757,0.209679,-0.008705
1765409687.999514,-9.634145,0.184122,-1.108321,-0.193033,0.208305,-0.018631
1765409688.003551,-10.169774,0.495576,-0.451937,-0.198684,0.217621,-0.025809
1765409688.006512,-9.886416,0.234338,-0.983979,-0.198226,0.222050,-0.001222
1765409688.008525,-9.748325,-0.178742,-1.463415,-0.195477,0.197309,0.000611
1765409688.009504,-9.976088,-0.191296,-1.019847,-0.196393,0.198226,-0.015577
1765409688.014542,-9.927068,-0.063367,-1.107723,-0.191201,0.220828,-0.010996
1765409688.015042,-9.505020,-0.017934,-1.420373,-0.190437,0.215788,-0.013134
1765409688.018515,-9.630558,0.410091,-1.366571,-0.200211,0.209374,-0.025504
1765409688.021464,-10.017335,0.602582,-0.615136,-0.199906,0.216094,-0.015272
1765409688.023594,-9.689740,0.084888,-1.037781,-0.197768,0.219453,0.005040
1765409688.024564,-9.624580,-0.187709,-1.310378,-0.197004,0.202502,0.000916
1765409688.028517,-9.668818,-0.394548,-1.276901,-0.204640,0.211970,-0.012217
1765409688.031489,-9.729793,-0.290531,-1.361789,-0.192575,0.211970,-0.017868
1765409688.034577,-9.475728,0.025108,-1.499282,-0.189368,0.216857,-0.020769
1765409688.036546,-9.745336,0.502750,-1.056910,-0.195019,0.219606,-0.030085
1765409688.038477,-9.894786,0.555954,-0.858441,-0.197004,0.229380,-0.016646
1765409688.039490,-9.561213,0.070540,-1.408417,-0.194713,0.217773,-0.005040
1765409688.043460,-9.785987,-0.082496,-1.299617,-0.195935,0.214108,-0.017104
1765409688.046458,-9.620994,-0.054998,-1.267336,-0.194866,0.229533,-0.021838
1765409688.048449,-9.406981,0.236729,-1.679818,-0.199753,0.223729,-0.029322
1765409688.051509,-9.648493,0.692252,-1.233859,-0.204793,0.223729,-0.032070
1765409688.053499,-9.909132,0.777140,-0.797465,-0.209985,0.235794,-0.019242
1765409688.056510,-9.742945,0.356887,-1.131038,-0.211818,0.235183,-0.005345
1765409688.058484,-9.681969,0.066356,-1.483740,-0.212123,0.227395,-0.015119
1765409688.061519,-9.637732,-0.027499,-1.645743,-0.212428,0.236710,-0.016952
1765409688.063504,-9.604255,-0.063367,-1.420373,-0.209527,0.236710,-0.018326
1765409688.066492,-9.662840,0.144668,-1.439502,-0.211359,0.241597,-0.028405
1765409688.068500,-9.904350,0.334768,-0.793878,-0.214414,0.245415,-0.027794
1765409688.070503,-9.992825,0.270206,-0.762793,-0.212581,0.246484,-0.017562
1765409688.073474,-10.023313,-0.071736,-0.948111,-0.215330,0.231060,-0.010690
1765409688.076505,-9.836799,-0.216404,-1.446676,-0.212887,0.231060,-0.024129
1765409688.078503,-9.843973,0.016141,-1.355811,-0.207541,0.238237,-0.027336
1765409688.081500,-9.587517,0.115375,-1.379722,-0.207389,0.235030,-0.024435
1765409688.083555,-9.916306,0.422645,-1.053324,-0.209985,0.229838,-0.027794
1765409688.084576,-9.692730,0.373027,-1.400048,-0.217010,0.240070,-0.020769
1765409688.089490,-9.615016,0.125538,-1.439502,-0.210443,0.230907,-0.011759
1765409688.091515,-9.678382,-0.298900,-1.561454,-0.213497,0.227853,-0.020159
1765409688.093495,-10.192491,-0.117767,-1.021042,-0.211359,0.247859,-0.033139
1765409688.094604,-9.813485,0.035868,-1.290053,-0.211970,0.247859,-0.028405
1765409688.098548,-9.813485,0.035868,-1.290053,-0.211970,0.238848,-0.028405
1765409688.101528,-9.753705,0.233740,-1.437111,-0.214414,0.234267,-0.027184
1765409688.103628,-10.105211,0.218795,-0.827953,-0.213345,0.241597,-0.022907
1765409688.106531,-9.984456,-0.050215,-1.202774,-0.214872,0.237168,-0.017715
1765409688.108545,-9.658057,-0.172764,-1.922525,-0.215025,0.237168,-0.022449
1765409688.111514,-9.968315,-0.210426,-1.283477,-0.216246,0.240375,-0.026267
1765409688.113515,-9.818267,-0.072932,-1.351028,-0.203265,0.244346,-0.021380
1765409688.114501,-9.827832,-0.013749,-1.355811,-0.208458,0.241597,-0.018631
1765409688.118454,-9.863700,0.124342,-1.413199,-0.214872,0.240834,-0.027031
1765409688.121551,-10.246293,0.075323,-0.729316,-0.210596,0.240834,-0.020922
1765409688.123514,-9.638927,-0.368245,-1.741989,-0.208610,0.240070,-0.010537
1765409688.126509,-9.685556,-0.242707,-1.478359,-0.212123,0.243735,-0.023366
1765409688.128511,-9.889405,-0.229555,-1.117288,-0.213192,0.243735,-0.025504
1765409688.129482,-9.747727,-0.114778,-1.382114,-0.208000,0.229533,-0.018937
1765409688.133483,-9.555235,0.044835,-1.757532,-0.208458,0.224951,-0.024893
1765409688.134532,-9.565996,0.281564,-1.727642,-0.205403,0.231671,-0.023518
1765409688.138490,-9.718434,0.271999,-1.287661,-0.206320,0.248928,-0.007636
1765409688.141479,-9.653275,-0.151243,-1.483740,-0.205403,0.228311,-0.001680
1765409688.143488,-10.087874,-0.322812,-0.928383,-0.210443,0.234878,-0.006872
1765409688.146534,-9.854136,-0.521282,-1.361789,-0.203724,0.235183,-0.010385
1765409688.148479,-9.781204,-0.318030,-1.414395,-0.198989,0.236863,-0.015424
1765409688.151495,-9.558823,-0.031086,-1.804160,-0.199906,0.230296,-0.021075
1765409688.153461,-10.133906,0.388570,-0.928981,-0.203876,0.231365,-0.022907
1765409688.156520,-10.133906,0.388570,-0.928981,-0.203876,0.240986,-0.022907
1765409688.158493,-9.707077,0.034672,-1.750358,-0.203571,0.230143,-0.008247
1765409688.161457,-9.791965,0.044237,-1.410808,-0.204487,0.240834,-0.015119
1765409688.163470,-9.833811,0.025108,-1.303204,-0.200669,0.241750,-0.008552
1765409688.166521,-9.444045,0.089670,-1.979914,-0.203571,0.240375,-0.012065
1765409688.168537,-9.926469,0.402319,-1.229675,-0.211359,0.235489,-0.022449
1765409688.171497,-10.205045,0.462697,-0.860234,-0.207236,0.262977,-0.008399
1765409688.172488,-9.904350,-0.088474,-1.178862,-0.204945,0.246026,0.005345
1765409688.174577,-9.693327,-0.256456,-1.678622,-0.213497,0.237779,-0.012065
1765409688.178523,-9.836202,-0.115375,-1.649928,-0.208763,0.237779,-0.017257
1765409688.181469,-9.688545,-0.028694,-1.710904,-0.202349,0.241750,-0.016646
1765409688.182455,-9.717837,0.291726,-1.674438,-0.202196,0.243277,-0.019395
1765409688.186538,-9.749520,0.523075,-1.348637,-0.206167,0.255953,-0.017868
1765409688.188562,-9.884026,0.417264,-1.128049,-0.204945,0.249386,-0.008247
1765409688.191516,-9.787182,-0.115973,-1.682807,-0.208152,0.244499,-0.001527
1765409688.194525,-9.730392,-0.164993,-1.841224,-0.211207,0.240375,-0.020617
1765409688.196543,-9.937828,0.094452,-1.383907,-0.205556,0.246942,-0.024282
1765409688.198601,-9.791965,0.194285,-1.433524,-0.206320,0.253814,-0.022907
1765409688.203528,-9.732184,0.486609,-1.666667,-0.206320,0.245415,-0.022907
1765409688.204028,-10.047822,0.532640,-1.145385,-0.218537,0.249538,-0.021838
1765409688.204563,-9.983260,0.090268,-1.269727,-0.214719,0.249233,-0.006567
1765409688.208472,-9.702892,0.059780,-1.842420,-0.213192,0.238848,-0.014050
1765409688.211533,-9.959349,0.132114,-1.730033,-0.213803,0.240223,-0.026573
1765409688.213535,-9.969511,0.269010,-1.432329,-0.208610,0.247859,-0.020769
1765409688.216494,-9.862504,0.283357,-1.559062,-0.214414,0.249997,-0.021991
1765409688.217524,-9.780008,0.507532,-1.463415,-0.219606,0.252135,-0.023518
1765409688.219536,-9.937828,0.522477,-1.270923,-0.220064,0.253509,-0.017868
1765409688.223547,-9.651482,0.190100,-2.110234,-0.222050,0.242055,-0.007025
1765409688.226509,-9.685556,-0.001196,-2.068388,-0.225715,0.243430,-0.014508
1765409688.228572,-9.778215,0.071736,-1.763510,-0.217010,0.260839,-0.017868
1765409688.231549,-9.777020,-0.153037,-1.395265,-0.220217,0.260229,-0.010232
1765409688.232561,-9.620397,0.011956,-1.785031,-0.229227,0.257022,-0.031612
1765409688.236546,-9.905546,0.497370,-1.569225,-0.226784,0.257022,-0.033598
1765409688.238485,-9.487086,0.178144,-2.080344,-0.220522,0.260229,-0.012370
1765409688.241478,-9.848756,0.120756,-1.560258,-0.221744,0.248775,-0.016799
1765409688.242473,-9.848756,0.120756,-1.560258,-0.221744,0.262519,-0.016799
1765409688.246482,-9.827832,-0.004185,-1.616451,-0.223729,0.244499,-0.016493
1765409688.248487,-9.476326,-0.108800,-2.241750,-0.222202,0.244499,-0.024740
1765409688.251504,-9.538497,0.231349,-2.068388,-0.222050,0.246790,-0.031307
1765409688.252566,-10.007172,0.358082,-1.176470,-0.220522,0.264199,-0.028863
1765409688.256476,-9.549257,0.251674,-1.744978,-0.218232,0.269850,-0.016646
1765409688.258463,-9.632950,-0.019130,-1.736609,-0.226784,0.249538,-0.020617
1765409688.261516,-9.888808,-0.243305,-1.485533,-0.228005,0.245721,-0.030391
1765409688.263527,-9.753705,-0.059780,-1.749163,-0.218690,0.250455,-0.028253
1765409688.267466,-9.150524,0.000000,-2.489239,-0.224951,0.253967,-0.038790
1765409688.268619,-9.559420,0.728120,-2.011597,-0.225867,0.256105,-0.042761
1765409688.270535,-9.559420,0.728120,-2.011597,-0.225867,0.255036,-0.042761
1765409688.273585,-9.748923,0.239120,-1.530368,-0.229685,0.255953,-0.022144
1765409688.274518,-9.368722,0.084290,-2.398374,-0.233809,0.259770,-0.030543
1765409688.278554,-9.656861,0.142276,-1.848398,-0.235030,0.262519,-0.036041
1765409688.281490,-9.591104,0.329986,-1.988283,-0.227547,0.262519,-0.034819
1765409688.282544,-9.828429,0.529053,-1.456241,-0.229991,0.262825,-0.030391
1765409688.286548,-9.611428,0.265423,-1.751554,-0.243583,0.279624,-0.033750
1765409688.288503,-9.845766,0.390961,-1.756337,-0.233961,0.260839,-0.026573
1765409688.291568,-9.837397,-0.018532,-2.032520,-0.239306,0.268017,-0.023671
1765409688.292572,-10.008965,0.096844,-1.600909,-0.235641,0.268017,-0.035583
1765409688.296509,-10.008965,0.096844,-1.600909,-0.235641,0.291841,-0.035583
1765409688.297556,-9.304159,0.043639,-2.100669,-0.235489,0.273057,-0.032987
1765409688.301511,-9.626971,0.351506,-1.822094,-0.240375,0.257632,-0.041844
1765409688.303549,-9.780008,0.434003,-1.744380,-0.237932,0.282525,-0.039706
1765409688.306480,-9.573170,0.155428,-1.833453,-0.235030,0.282525,-0.023366
1765409688.308457,-9.200143,-0.311454,-2.318866,-0.237168,0.270613,-0.025809
1765409688.311534,-9.802128,-0.112386,-1.545313,-0.244193,0.267712,-0.044746
1765409688.312534,-9.833811,-0.160210,-2.033716,-0.237932,0.267712,-0.042608
1765409688.316571,-9.399210,0.200263,-2.193926,-0.237932,0.265574,-0.042608
1765409688.318530,-9.656861,0.529053,-1.740794,-0.236558,0.277027,-0.045968
1765409688.321467,-9.918698,0.376016,-1.176470,-0.235947,0.280234,-0.024129
1765409688.323487,-9.735771,-0.233142,-1.854376,-0.241139,0.262367,-0.021533
1765409688.326507,-9.735173,-0.517695,-2.197513,-0.239306,0.259618,-0.030696
1765409688.327520,-9.770443,-0.442372,-1.897417,-0.235336,0.273209,-0.040470
1765409688.331484,-9.979673,0.005380,-1.576996,-0.225104,0.269239,-0.038332
1765409688.333510,-9.763269,0.033477,-1.884864,-0.233656,0.269239,-0.037721
1765409688.336571,-9.800931,0.163797,-2.054041,-0.236558,0.280693,-0.046120
1765409688.338566,-9.759683,0.013152,-1.990674,-0.227395,0.280693,-0.027031
1765409688.339533,-9.659253,-0.216404,-1.963175,-0.227395,0.275958,-0.027031
1765409688.343538,-10.037063,-0.101626,-1.653515,-0.231823,0.274431,-0.040623
1765409688.346590,-9.903154,-0.027499,-1.842420,-0.231060,0.282983,-0.029322
1765409688.348596,-9.635341,-0.166188,-2.284792,-0.222966,0.275653,-0.025656
1765409688.351541,-9.693925,-0.182927,-2.030727,-0.226173,0.273057,-0.031001
1765409688.353540,-10.031085,0.102822,-1.636777,-0.228005,0.278249,-0.034361
1765409688.354566,-9.652080,-0.045433,-2.294954,-0.230449,0.285274,-0.022907
1765409688.358479,-9.564800,-0.105213,-2.344572,-0.224951,0.272140,-0.018631
1765409688.359516,-9.894188,-0.182927,-1.753945,-0.226478,0.281303,-0.027184
1765409688.363492,-9.933045,-0.257652,-1.532161,-0.223424,0.281303,-0.022449
1765409688.366572,-9.538497,0.015543,-2.386418,-0.220370,0.272599,-0.033139
1765409688.368564,-9.574366,0.412482,-1.959589,-0.228158,0.277944,-0.029474
1765409688.371548,-9.751313,0.494978,-1.947633,-0.221133,0.277027,-0.015577
1765409688.373583,-9.784791,-0.107604,-1.721664,-0.226326,0.276722,-0.004734
1765409688.376478,-9.611428,-0.479436,-2.170014,-0.233656,0.267712,-0.018631
1765409688.378508,-9.663438,-0.215208,-2.342180,-0.224188,0.271224,-0.031154
1765409688.379546,-9.459588,-0.266619,-2.170014,-0.220522,0.269850,-0.023824
1765409688.383496,-9.501433,0.161406,-2.256097,-0.221897,0.273209,-0.036041
1765409688.386511,-9.964130,0.386179,-1.532759,-0.225867,0.277791,-0.035430
1765409688.388516,-9.582734,0.269010,-2.013391,-0.225104,0.285885,-0.018173
1765409688.391586,-9.561213,0.230751,-2.552606,-0.224951,0.260839,-0.023366
1765409688.392501,-9.747727,0.092061,-2.179579,-0.230143,0.288328,-0.029932
1765409688.396544,-9.483500,0.166188,-2.375657,-0.221133,0.288328,-0.018479
1765409688.398492,-9.390243,0.000598,-2.433046,-0.218995,0.283594,-0.020311
1765409688.401502,-9.599473,0.251076,-1.896222,-0.223882,0.281914,-0.034208
1765409688.404194,-9.909132,0.644428,-1.676231,-0.230143,0.287107,-0.035277
1765409688.404694,-9.351983,0.292922,-2.463534,-0.227242,0.291841,-0.015730
1765409688.408460,-9.241988,0.012554,-2.584887,-0.227089,0.280998,-0.022297
1765409688.411551,-9.725608,0.004185,-2.058823,-0.228005,0.290619,-0.027947
1765409688.413505,-9.760281,0.243902,-1.945241,-0.222813,0.287870,-0.032834
1765409688.414492,-9.453012,0.590626,-2.476088,-0.234420,0.296117,-0.041081
1765409688.419505,-9.209707,0.704208,-2.682329,-0.233809,0.296728,-0.026420
1765409688.421490,-9.679578,0.391559,-1.863343,-0.236710,0.301615,-0.023213
1765409688.423482,-9.913916,0.176949,-1.652319,-0.232282,0.305738,-0.017868
1765409688.426520,-9.906742,-0.123745,-1.806552,-0.238085,0.299171,-0.026878
1765409688.428506,-9.733380,0.042444,-2.158058,-0.236863,0.295811,-0.033750
1765409688.431502,-9.516378,0.070540,-2.239359,-0.233809,0.288787,-0.030085
1765409688.432566,-9.459588,0.227164,-2.489239,-0.235794,0.290466,-0.040470
1765409688.436593,-9.582734,0.415471,-2.294356,-0.240681,0.291535,-0.036041
1765409688.438558,-9.785987,0.231349,-1.921329,-0.243735,0.296881,-0.035736
1765409688.441551,-9.689740,0.249880,-2.045672,-0.235794,0.299629,-0.027642
1765409688.443593,-9.458392,-0.124342,-2.430057,-0.247400,0.296575,-0.031154
1765409688.446583,-9.709468,0.092061,-2.378048,-0.239306,0.291077,-0.040928
1765409688.448556,-9.661644,0.009565,-2.125777,-0.236099,0.292299,-0.035736
1765409688.449534,-9.758488,0.111789,-2.087518,-0.233656,0.293063,-0.044593
1765409688.453472,-9.576159,0.460306,-2.357723,-0.238237,0.293063,-0.049022
1765409688.456499,-9.576159,0.460306,-2.357723,-0.238237,0.294437,-0.049022
1765409688.458499,-9.375896,0.289335,-2.898732,-0.239917,0.285274,-0.037110
1765409688.459463,-9.677187,0.093855,-2.215447,-0.239154,0.285274,-0.041692
1765409688.463515,-9.815877,0.264228,-1.786824,-0.243277,0.301157,-0.049022
1765409688.466488,-9.554040,0.392755,-2.484457,-0.246331,0.301157,-0.045968
1765409688.468507,-9.554040,0.392755,-2.484457,-0.246331,0.293521,-0.045968
1765409688.469487,-9.640720,0.466284,-2.264467,-0.245721,0.285732,-0.038637
1765409688.473479,-9.725608,0.106408,-2.089311,-0.257632,0.281914,-0.039248
1765409688.476563,-9.671208,0.311454,-2.498206,-0.249386,0.295201,-0.052382
1765409688.478530,-9.588115,0.063367,-2.250119,-0.252440,0.290772,-0.043677
1765409688.481584,-9.588115,0.063367,-2.250119,-0.252440,0.284816,-0.043677
1765409688.482466,-9.532519,0.516499,-2.407341,-0.248622,0.285121,-0.059712
