time,acc_x_g,acc_y_g,acc_z_g,gyro_x_rad_s,gyro_y_rad_s,gyro_z_rad_s
1765408106.451281,-5.4174466996544695,6.2288276702117376,5.719513484591854,-0.006646763541458546,-0.006943442186353782,-0.001219087740304315
1765408106.451481,-5.425987930652487,6.135616277725913,5.748583811117454,-0.005989170449123936,-0.007198434096517326,-0.0007334137829436808
1765408106.451681,-5.43255836765858,6.0436238635393975,5.776947513045599,-0.00518641126177674,-0.00762181268142687,-0.00036978704824607977
1765408106.451881,-5.435194398564042,5.951925495352556,5.805151889020401,-0.004138892249080715,-0.008242074630431164,-0.00021895546534428758
1765408106.452076,-5.431844375307932,5.859891534212677,5.8335174077523915,-0.0027615304797310026,-0.00907232989488477,-0.00036320255097303203
1765408106.452276,-5.420444811042705,5.76727337292507,5.862097860529458,-0.0009890333532575411,-0.010107332224104941,-0.0008725483413142224
1765408106.452476,-5.399006594510093,5.674246018557925,5.890666717470706,0.0012199216164524307,-0.011321286151584342,-0.0018015697429717445
1765408106.452676,-5.365708221809295,5.581401982681857,5.918731682642179,0.0038798842732430485,-0.012666611569997857,-0.0031870342297307154
1765408106.452876,-5.31899176257835,5.489695620229086,5.945576998940562,0.006977418855772277,-0.014073818773796529,-0.005046534949635532
1765408106.453067,-5.2576561419694805,5.400342429770465,5.970330512225501,0.0104716076781744,-0.015452604988416474,-0.0073783002259437255
1765408106.453317,-5.180941376488178,5.314683479986304,5.99204988302258,0.014296294800200005,-0.016694222418641512,-0.010162312789452775
1765408106.453567,-5.088596818300704,5.234030212946454,6.0098198575168595,0.018363975700868604,-0.01767508893807186,-0.013362797305427327
1765408106.453817,-4.980926522891123,5.1595082510446275,6.022850516436424,0.022571117601913732,-0.018261521773485192,-0.016932010340086522
1765408106.454168,-4.858805836431691,5.091919639805247,6.030565372723765,0.02680458165414383,-0.018315382168475544,-0.02081511127381163
1765408106.454418,-4.72366536858402,5.0316410368160485,6.032668707115939,0.030948720019067455,-0.01770033596359913,-0.024955745897180838
1765408106.454668,-4.5774414535416295,4.978571054927695,6.029183833143005,0.03489264027862819,-0.016288366211948322,-0.029301870990602018
1765408106.454918,-4.422495309107116,4.932133822862637,6.020457448151362,0.03853707646652536,-0.013966122728983423,-0.03381129401341453
1765408106.45516,-4.261505791977321,4.89133859939915,6.007129108646481,0.04180030417432442,-0.010640672606215758,-0.03845638912419876
1765408106.45536,-4.0973429308711315,4.854887962553991,5.990068994255639,0.04462260725049296,-0.006244239520712056,-0.04322748525031507
1765408106.45556,-3.932931423388552,4.821320716939244,5.970291265398249,0.0469689422435441,-0.0007375870111018505,-0.04813452338020914
1765408106.45576,-3.7711146220028797,4.789171183149256,5.948853556917886,0.04882962968375656,0.005888199085558784,-0.05320675645101062
1765408106.45596,-3.614529632549129,4.7571248333445935,5.926754555365856,0.05021909892587916,0.013611646618149491,-0.058490498611694156
1765408106.456117,-3.465502894158107,4.7241518269257075,5.904841037928799,0.05117289763821156,0.022382522366103854,-0.06404518468444963
1765408106.456367,-3.325973390404486,4.689604592612512,5.8837336656277754,0.05174332524019325,0.032124974252632985,-0.06993822527719179
1765408106.456617,-3.1974479250609997,4.653272041289847,5.86377784970931,0.05199414879538353,0.042741907247800894,-0.07623927964743583
1765408106.456867,-3.080989951650105,4.615389662437543,5.845022794114452,0.05199490575859681,0.05412024641984224,-0.08301457410059376
1765408106.457126,-2.9772404413165687,4.576610157592189,5.82722887859481,0.05181528920266358,0.06613672215007554,-0.09032177423024478
1765408106.457376,-2.886466556444689,4.537942468985013,5.809901175866716,0.051520050489184385,0.07866382019590065,-0.09820573375425228
1765408106.457626,-2.8086319021872868,4.500667997970996,5.792345110859894,0.05116475508604208,0.09157555041660762,-0.10669526898357126
1765408106.457876,-2.7434808706449805,4.466242261350187,5.77373874053729,0.050792611755136934,0.1047526973023822,-0.11580099983278427
1765408106.458115,-2.690628708008061,4.436189368851782,5.753214542782499,0.05043248295489738,0.11808723951747187,-0.12551426356193798
1765408106.458315,-2.649648436711105,4.411996323178727,5.729942335457591,0.05009808319022233,0.13148568063184837,-0.13580711214303573
1765408106.458515,-2.620146224767853,4.395014263842889,5.703204858619145,0.04978828433392156,0.1448711188052012,-0.1466333955028135
1765408106.458715,-2.60181857714035,4.386373793854144,5.672458968829558,0.04948837599746489,0.15818399035441696,-0.15793087337063652
1765408106.458915,-2.5944875488099357,4.38692069243829,5.637377910288821,0.0491720793883219,0.17138154191379454,-0.1696241922584061
1765408106.459182,-2.5981133854310743,4.397176212397569,5.597873134170198,0.048804088144373634,0.1844362048010149,-0.18162845278159453
1765408106.459432,-2.6127867058433427,4.417323040547473,5.554096841270882,0.048342910234827785,0.19733314015196016,-0.19385302373038027
1765408106.459682,-2.638703743806433,4.447214752215614,5.5064279302470345,0.04774380643351739,0.2100672704502289,-0.20620526031884512
1765408106.459932,-2.676128339673366,4.486404245100799,5.455444263948266,0.04696165194733792,0.22264010572402862,-0.21859385521993113
1765408106.460183,-2.7253443577920264,4.5341857527881455,5.401884111265399,0.04595357676410042,0.235056629877019,-0.23093166637258367
1765408106.460433,-2.7866027485378373,4.589645466723497,5.346600075501882,0.04468126069445838,0.24732246311807873,-0.2431379797424002
1765408106.460683,-2.8600682038200422,4.651716889291138,5.2905095160526345,0.04311277082481129,0.2594414734022586,-0.2551402371855105
1765408106.460933,-2.9457705249640593,4.719238032939323,5.234545797208457,0.041223839011904774,0.2714139653241066,-0.26687527768816965
1765408106.461185,-3.043565156536822,4.7910079526018015,5.1796143725706,0.038998497380365586,0.2832355194272201,-0.27829012215597393
1765408106.461435,-3.1531058607623534,4.865839830117018,5.12655652234512,0.0364290307041225,0.2948964928935972,-0.28934230646464487
1765408106.461685,-3.27383035775889,4.942607398316621,5.076121520978234,0.03351526708692155,0.306382136716938,-0.2999997620808587
1765408106.461935,-3.404957617574088,5.020281563230706,5.028946069602118,0.030263302937660646,0.31767324286563975,-0.3102402739574507
1765408106.462163,-3.5454943915418733,5.09795503627883,4.985539267185002,0.02668382715473085,0.3287472088927726,-0.3200506007849551
1765408106.462413,-3.694248781209735,5.174854427864343,4.946272178747678,0.02279025429074465,0.33957939505166645,-0.3294253865804988
1765408106.462663,-3.8498493380207037,5.250340930058444,4.911371814124207,0.01859688898549113,0.35014464658376887,-0.3383659931107445
1765408106.462913,-4.010768640492793,5.323901826493746,4.880919392581063,0.01411732960196424,0.360418858057875,-0.3468793434397314
1765408106.463137,-4.1753508000874735,5.395135512673314,4.854853059870228,0.009363287135936217,0.3703804660505862,-0.35497682280389725
1765408106.463387,-4.341843408246673,5.463732800445114,4.832976423096785,0.00434394595201664,0.3800117684878865,-0.36267326556076385
1765408106.463637,-4.5084355694672125,5.529457252251284,4.8149753057054765,-0.0009340798524974314,0.3892999792807814,-0.36998606791810784
1765408106.463887,-4.673303729916708,5.59212712538097,4.8004445342137165,-0.006466226430476661,0.39823793591114154,-0.3769344807770156
1765408106.464179,-4.834665572529215,5.651601124460776,4.788924488597191,-0.012248999877459175,0.40682439018954547,-0.3835391252544219
1765408106.464429,-4.99083998104679,5.707769477506508,4.779944946241116,-0.018278680978271095,0.4150638291981165,-0.3898217236406503
1765408106.464679,-5.140308938523197,5.760550752194502,4.77307222036458,-0.02454988236037304,0.42296579343647694,-0.39580497197153586
1765408106.464929,-5.281775830685464,5.809893405020584,4.767954569074717,-0.031054136075729852,0.4305436905948546,-0.4015124380668161
1765408106.465228,-5.414214286388946,5.855779791774005,4.7643602877689455,-0.03777868170431175,0.43781315977842955,-0.4069683754474147
1765408106.465478,-5.53690239467776,5.898229825172635,4.7622032135668855,-0.04470559164210121,0.4447901199774526,-0.41219738907672604
1765408106.465728,-5.649438416289482,5.937301760940964,4.761551646823599,-0.051811317657589125,0.45148870474178127,-0.41722394583129996
1765408106.465978,-5.751735536778829,5.973088374612374,4.762618493354733,-0.05906668345254385,0.45791930019702726,-0.4220717683417811
1765408106.466154,-5.843994939137171,6.005707724332055,4.765732376754772,-0.06643729147610263,0.4640868638096685,-0.4267631757521855
1765408106.466404,-5.926658632568742,6.035288724479944,4.771291317065681,-0.07388426773284128,0.46998965246106716,-0.4313184425830576
1765408106.466654,-6.000345571194445,6.061952832490229,4.779702110175193,-0.0813652482583703,0.4756184668511398,-0.4357552475136046
1765408106.466904,-6.065776218843177,6.0857940200780964,4.791309990133036,-0.08883552171837478,0.4809565130671226,-0.4400882837300423
1765408106.467079,-6.123692122223102,6.106859617204332,4.806325003145359,-0.09624927228551858,0.4859799625316015,-0.444329100988003
1765408106.467329,-6.174778404685062,6.12513458160227,4.824753564615624,-0.10356089377226889,0.4906592525761371,-0.44848624457699127
1765408106.467579,-6.219597768425243,6.140531422073457,4.846344787232684,-0.11072635694720845,0.4949611204188701,-0.4525657436996171
1765408106.467829,-6.2585439224042005,6.152887587393807,4.870560424390913,-0.11770460693354638,0.498851304623084,-0.4565719700165761
1765408106.468107,-6.291820497181396,6.161971730143319,4.896574909999535,-0.12445895354351133,0.5022977783384305,-0.460508824968423
1765408106.46844,-6.319449009020618,6.167499662504858,4.923308808380627,-0.1309584036669103,0.5052743058244559,-0.46438112871776527
1765408106.468774,-6.341306266794368,6.169159624789038,4.949495101460059,-0.13717887661179137,0.5077640515979173,-0.4681960044573328
1765408106.469154,-6.357187480945669,6.166644684275828,4.97377284876284,-0.14310423543872156,0.5097629327224287,-0.47196401878117183
1765408106.469404,-6.366886845930006,6.1596884208987355,4.994797909509316,-0.14872705071229367,0.5112824040165983,-0.475699877152666
1765408106.469654,-6.370284086225081,6.148099439111575,5.011357828369585,-0.15404899352060025,0.5123514120608826,-0.4794225716381363
1765408106.469904,-6.367424563084903,6.131790877694974,5.022478600063304,-0.1590807562096694,0.5130173317033649,-0.48315498640305254
1765408106.470197,-6.35858199957931,6.1108023960221445,5.027513503416258,-0.16384143559704317,0.5133457773768344,-0.4869230358971862
1765408106.470447,-6.344295923137359,6.0853133514906395,5.026206768123799,-0.16835736630304726,0.5134192461601207,-0.4907544326438428
1765408106.470697,-6.325379766739417,6.055646639973727,5.018727103661656,-0.17266043804949766,0.5133346115175743,-0.4946771810095583
1765408106.470947,-6.30289951046736,6.022262894293639,5.005668549784332,-0.17678597557791478,0.5131995614237408,-0.49871789555534957
1765408106.471191,-6.278126004448184,5.985744623022467,4.9880187327275936,-0.180770318981216,0.5131281617033412,-0.5029000591510403
1765408106.471441,-6.25246608892706,5.946769977681298,4.967096953838932,-0.18464830275340852,0.5132358096883484,-0.5072423678120411
1765408106.471691,-6.227378323718103,5.90607688285248,4.944466383385866,-0.188450857226768,0.513633906705261,-0.5117573460205314
1765408106.471941,-6.204279108366343,5.8644203097246645,4.9218261424825345,-0.19220292774233927,0.5144246101233452,-0.5164504330681076
1765408106.472152,-6.184444825158132,5.822527477380587,4.900890341170633,-0.19592184396891363,0.5156960254525552,-0.5213197030366532
1765408106.472485,-6.168915751745537,5.781056466062561,4.8832622051518655,-0.19961620901376334,0.5175181675367702,-0.5263562702822555
1765408106.472819,-6.158408031488005,5.740562773989276,4.870312252773128,-0.20328533612178584,0.5199399583411707,-0.5315452806291546
1765408106.473076,-6.153240786324236,5.701476334311454,4.863069829362791,-0.2069192411515519,0.522987443206352,-0.5368672742986744
1765408106.473326,-6.1532858365838665,5.6640893091724385,4.862136700581009,-0.2104991934372889,0.5266633098295117,-0.5422996969376054
1765408106.473576,-6.1579466846744735,5.628553375153272,4.8676297414268,-0.21399882252908117,0.5309476958293577,-0.5478184274446736
1765408106.473826,-6.166171304828337,5.594884728302498,4.8791575571400365,-0.21738575788824785,0.5358001787749779,-0.5533993154465644
1765408106.474115,-6.176500445467281,5.562975662362476,4.895833647591249,-0.22062373668528998,0.5411627623730656,-0.5590197926521729
1765408106.474365,-6.18715029622072,5.532612640466595,4.916326444214504,-0.22367506210259588,0.5469636066854158,-0.5646605957903823
1765408106.474615,-6.196125896151868,5.503501306582523,4.938944079902034,-0.22650325082921138,0.5531212041543804,-0.57030753094055
1765408106.474865,-6.201359546336176,5.475298306332587,4.961749316300488,-0.22907568952288299,0.5595486931355771,-0.5759530833458341
1765408106.475086,-6.20086654396669,5.447648383007379,4.982697976276103,-0.23136612886330235,0.5661580349289457,-0.5815976039213128
1765408106.475336,-6.19290882927014,5.420223723036669,4.999792658553203,-0.23335687047221648,0.572863835745958,-0.587249819491883
1765408106.475586,-6.176155639387175,5.392761501347255,5.011242092053624,-0.23504053329008373,0.5795866383375597,-0.5929265037448707
1765408106.475836,-6.149828437212602,5.365095276220523,5.015614343553414,-0.23642131300703342,0.5862555292406797,-0.5986512693997409
1765408106.47608,-6.113815052715597,5.337176524842792,5.011969162073011,-0.23751566347015474,0.5928099146187459,-0.6044525698767769
1765408106.476413,-6.068736678407642,5.3090843030124555,4.9999528979305445,-0.23835232961001046,0.5992003245840553,-0.6103611175982366
1765408106.476747,-6.015953394307435,5.281023330899308,4.9798409740649605,-0.23897165917072696,0.6053881419629739,-0.6164070147912285
1765408106.477095,-5.957500048839091,5.253312712547246,4.952518255541962,-0.23942413878330818,0.6113442501268938,-0.62261691727894
1765408106.477345,-5.895953333259859,5.226367967532569,4.919395509765838,-0.23976815539602958,0.6170467583559303,-0.629011496873209
1765408106.477595,-5.834240603558543,5.200677967625173,4.882268820822296,-0.24006707333692637,0.6224781528332552,-0.6356033666133319
1765408106.477845,-5.7754092590757935,5.176776745148007,4.8431367597261525,-0.24038581649208393,0.627622376522064,-0.6423955509054106
1765408106.478134,-5.722380515575326,5.155209364949737,4.803995632210406,-0.24078722200588568,0.6324624056075037,-0.6493805603897008
1765408106.478384,-5.677712543092284,5.136491859255872,4.7666353266452575,-0.2413284639151364,0.6369788324707835,-0.6565401455603533
1765408106.478634,-5.6433959905192514,5.1210672734016605,4.732457930810693,-0.24205782910634493,0.6411497958650114,-0.6638457929473884
1765408106.478884,-5.6207012387128135,5.109262051710871,4.70233941301157,-0.243012077440088,0.6449523655892517,-0.6712599566844798
1765408106.479091,-5.610091827373737,5.10124806066251,4.676550761657812,-0.24421455335845532,0.6483652445022077,-0.6787379062322656
1765408106.479341,-5.611212146840714,5.097014883317348,4.6547480702938,-0.24567415297106018,0.6513724322137471,-0.6862299767245039
1765408106.479591,-5.622949861048375,5.096355165391766,4.6360320558905945,-0.24738519148941324,0.6539673327071207,-0.6936839861190396
1765408106.479841,-5.643565584248944,5.098864058065565,4.619068879203036,-0.24932815921913917,0.656156710426774,-0.7010476408146497
1765408106.480068,-5.670875095222951,5.103953082580807,4.602257471458166,-0.2514713046542438,0.657963908634898,-0.7082708398040268
1765408106.480318,-5.702463697268172,5.110878739743586,4.583923852690615,-0.253772947583084,0.6594308116228246,-0.715307838173211
1765408106.480568,-5.7359092592838286,5.1187857749096315,4.562520191269549,-0.25618439990143527,0.6606181358295481,-0.7221192113068496
1765408106.480818,-5.768990933208935,5.126763301684014,4.536806454922183,-0.25865334385192273,0.6616037844339641,-0.7286734994324234
1765408106.482149,-5.799864495846262,5.133909178945632,4.505995919289135,-0.26112748136148495,0.6624792146341654,-0.7349483727883809
1765408106.482482,-5.827191432456182,5.139395335329146,4.469851609723569,-0.2635582329995011,0.6633440327119977,-0.7409311948744629
1765408106.482816,-5.850215351497866,5.142525591608014,4.428727110375637,-0.2659042409512294,0.6642992953837898,-0.746618977334459
1765408106.48223,-5.868784537756192,5.142778745473795,4.383550629595514,-0.26813442170898405,0.6654401926398796,-0.7520178581933219
1765408106.48248,-5.883323078492743,5.139832844059938,4.335755588221094,-0.27023032614588005,0.6668488732546951,-0.7571423193697047
1765408106.48273,-5.894755870294882,5.133570306361825,4.2871650050601176,-0.27218760109485607,0.6685881363799503,-0.76201434893016
1765408106.48298,-5.9043958896458975,5.124066583380758,4.239841098607969,-0.27401640195940086,0.6706965680848846,-0.7666626627167237
1765408106.483155,-5.913805514261255,5.111566816872351,4.1959155862780495,-0.2757406748252613,0.6731854918849377,-0.7711219764567921
1765408106.483405,-5.924646621510883,5.096455378705421,4.157419286793925,-0.2773963161011765,0.6760378781055919,-0.7754322122517312
1765408106.483655,-5.938535462313944,5.079222299096008,4.126130545294865,-0.279028332494367,0.6792091595855658,-0.7796374660092621
1765408106.483905,-5.956916991052603,5.060428879229073,4.103459562032279,-0.28068724457453764,0.6826297528973636,-0.7837845736507344
1765408106.484097,-5.980969355737426,5.040673127111465,4.090379707125863,-0.2824250676832283,0.6862089893039025,-0.787921198066325
1765408106.484347,-6.011543635667331,5.020554900341061,4.087408402127402,-0.2842912385399709,0.6898401090611662,-0.7920934955183293
1765408106.484597,-6.049138442905536,5.000641051888773,4.094631248497993,-0.2863288311221174,0.6934059507411309,-0.796343559668382
1765408106.484847,-6.093905183341764,4.981432016760792,4.111756364706708,-0.2885713360963592,0.6967849656485542,-0.8007069252232153
1765408106.485144,-6.145677741161221,4.963332346136169,4.138183183768394,-0.2910401866543481,0.6998572159212948,-0.8052104117566203
1765408106.485394,-6.204019193051582,4.946627997708778,4.173071309936731,-0.29374312147204656,0.7025100881058183,-0.8098705179772853
1765408106.485644,-6.268277422396874,4.931472442682649,4.215399250859493,-0.2966733984509958,0.7046435642604134,-0.8146924802129579
1765408106.485894,-6.337641793481453,4.91788213149927,4.264008607609717,-0.2998098182678645,0.7061750021717784,-0.8196700247634823
1765408106.486121,-6.4111948790961915,4.905740300366409,4.317635218106577,-0.30311748665065524,0.7070434359917399,-0.8247857947697038
1765408106.486454,-6.487955936193511,4.894807217596908,4.374933032257872,-0.30654923941007817,0.7072133871295088,-0.8300124241278444
1765408106.486788,-6.566915063163119,4.8847351176412435,4.434497628155476,-0.3100476665447152,0.7066780790361876,-0.8353142450053137
1765408106.487123,-6.647058127035909,4.875087143073792,4.494894257672743,-0.31354768140314715,0.7054618223511756,-0.8406496083497195
1765408106.487373,-6.727383067036443,4.865360951392918,4.554692015781472,-0.3169795717834069,0.7036212383515795,-0.8459737298145189
1765408106.487623,-6.806908731263283,4.85501823177118,4.612503406739605,-0.32027244059609133,0.7012449600902286,-0.8512418532044062
1765408106.487873,-6.884678175062358,4.843520504309123,4.667027845756527,-0.32335790398660147,0.6984514933755568,-0.8564124081113478
1765408106.488152,-6.959759159601086,4.8303693738576685,4.71709733805534,-0.32617387936248016,0.695385015948023,-0.8614497993124453
1765408106.488402,-7.03124518816261,4.8151469005153205,4.761721585798265,-0.32866827254960823,0.6922090427141779,-0.8663265379107454
1765408106.488652,-7.098260566806776,4.797550357400237,4.8001283592234145,-0.3308023545888827,0.689098098584786,-0.8710245838704148
1765408106.488902,-7.15997243523351,4.7774163172014195,4.83179428037835,-0.33255359632696696,0.6862278047968245,-0.8755359467226591
1765408106.489158,-7.215611300384135,4.754731501747544,4.856461754270028,-0.33391771166683876,0.6837640554611285,-0.8798627082649698
1765408106.489408,-7.264499440643692,4.7296308774330775,4.874139131720116,-0.3349096663235352,0.6818521798865043,-0.8840166418004685
1765408106.489658,-7.3060842752316315,4.702385640784945,4.885082683891498,-0.33556345122280423,0.6806070940254064,-0.8880185179887607
1765408106.489908,-7.33997224394353,4.673384278539823,4.8897606923844465,-0.3359305015754711,0.6801054058334195,-0.8918970765457186
1765408106.490179,-7.365958311960386,4.643109131079072,4.888802210732461,-0.3360767604532616,0.6803802614304874,-0.8956875872663601
1765408106.490512,-7.384046842123864,4.61210974760465,4.882935554745589,-0.3360785331052757,0.681419434465527,-0.8994299511063888
1765408106.490846,-7.394461244315701,4.580973486730068,4.872923633723402,-0.3360174386620265,0.6831668054757205,-0.9031663665110388
1765408106.491066,-7.397642490824396,4.550293539637578,4.859504298944894,-0.33597489841308026,0.6855269986378003,-0.9069386647906146
1765408106.491316,-7.394239503520453,4.520634946055459,4.843343630862065,-0.33602665642509866,0.6883726123191622,-0.9107854864807853
1765408106.491566,-7.385095915039438,4.492500192985785,4.825008316456972,-0.3362377968756596,0.6915532631543712,-0.9147395190920147
1765408106.491816,-7.371236540367506,4.466297151766253,4.8049600832716575,-0.33665863752872094,0.6949055718324324,-0.9188250260499975
1765408106.492094,-7.353853694071485,4.442312630193931,4.783570986939329,-0.33732178089059334,0.6982632176027508,-0.9230558613045217
1765408106.492344,-7.334290297519035,4.420694145419646,4.761153848262094,-0.338240505152889,0.7014662608668841,-0.9274341069972816
1765408106.492594,-7.314015124678606,4.401440836918728,4.737998350252719,-0.33940856984595547,0.7043691002946781,-0.931949426242821
1765408106.492844,-7.294585909141282,4.384402645896029,4.714401842120851,-0.340801401612211,0.7068466954581798,-0.93657921015111
1765408106.493136,-7.2775982245872415,4.369286046007989,4.690686041351101,-0.3423785304413046,0.7087989899288151,-0.9412896108783105
1765408106.493469,-7.264621462601686,4.355665196228296,4.6671958557663675,-0.34408707301866626,0.7101537255021904,-0.9460375526834096
1765408106.493803,-7.257126446137688,4.342998978891826,4.6442818088855,-0.3458660015009459,0.7108679783262807,-0.9507737524351887
1765408106.494116,-7.256410933730678,4.330655848786711,4.622271100941382,-0.3476508895455553,0.7109287456837868,-0.9554466383466066
1765408106.494366,-7.263529564960842,4.317948509383826,4.601434383074824,-0.34937879739306166,0.7103527926614831,-0.9600068570529995
1765408106.494616,-7.27923438824645,4.304178617395218,4.581956230746419,-0.3509929490903023,0.7091858009786994,-0.9644118736803513
1765408106.494866,-7.303931047934148,4.2886886434296425,4.563916278119319,-0.3524468680645882,0.7075007219205992,-0.9686300833474262
1765408106.495082,-7.337653933318989,4.270915246443029,4.547284989934341,-0.35370767125222946,0.7053951634283941,-0.972643914929663
1765408106.495332,-7.3800617711849945,4.250437611525489,4.531934794780534,-0.3547582792459119,0.7029876481844247,-0.9764515843568846
1765408106.495582,-7.430453880217636,4.227015643561841,4.517665067324161,-0.35559838461085846,0.7004126543698215,-0.9800673503057785
1765408106.495832,-7.487806488444566,4.200615664988272,4.504237925986235,-0.3562441268701175,0.6978144707495003,-0.9835202644380098
1765408106.496131,-7.550827835073819,4.171423323497573,4.491420453597261,-0.3567265318052266,0.6953400431752045,-0.9868514858198263
1765408106.496381,-7.618029987443901,4.13984326593983,4.479027869733288,-0.35708886857583083,0.6931311500120194,-0.9901102971300817
1765408106.496631,-7.6878139720286605,4.106483308448279,4.466961699137331,-0.35738315673549614,0.6913164037633103,-0.9933490828127336
1765408106.496881,-7.758562623761243,4.072119789260575,4.455237171735349,-0.35766611499652157,0.6900037011123954,-0.9966177235170989
1765408106.497117,-7.828732892145872,4.037642698252341,4.443994916993231,-0.35799487875844294,0.6892737897865719,-0.999958059519637
1765408106.49745,-7.89693742504052,4.003983798229498,4.433493577403232,-0.35842281764304623,0.6891755601287443,-1.0033991622904432
1765408106.497784,-7.96200562891621,3.9720357735719225,4.424082607344075,-0.35899575544967244,0.6897235058332412,-1.0069540554015552
1765408106.498104,-8.023017931739863,3.9425726681379945,4.416158337818466,-0.35974883797099,0.6908975611434559,-1.0106182735313896
1765408106.498354,-8.07931279935788,3.916180624595101,4.410110350811868,-0.36070421971780614,0.6926452553701669,-1.0143703479545734
1765408106.498604,-8.130471882268239,3.8932049401968,4.406267562969778,-0.36186966145042887,0.6948858836577451,-1.0181740625395517
1765408106.498854,-8.176292379726732,3.87371728928667,4.404853441083053,-0.36323805990082014,0.6975162214382294,-1.0219821705832297
1765408106.49913,-8.216756462329723,3.85750634186535,4.405958111523846,-0.36478788002998075,0.7004172231183308,-1.0257411606268405
1765408106.49938,-8.252005497472188,3.84409418044421,4.409532030499207,-0.36648442944043524,0.7034611238649068,-1.0293965604322408
1765408106.49963,-8.282322603102696,3.8327780002075023,4.415400886169906,-0.36828189270715367,0.7065183840431456,-1.0328981883699122
1765408106.49988,-8.308122400819052,3.822692115498666,4.423295526776888,-0.37012601429480074,0.7094639838553735,-1.0362047704855155
1765408106.500106,-8.329943888991139,3.8128820215933903,4.432886900088939,-0.3719572757328894,0.7121827144366003,-1.0392874752056211
1765408106.500356,-8.348442085850959,3.8023822533922864,4.443816245070324,-0.3737143673188062,0.7145733172615875,-1.0421321254817253
1765408106.500606,-8.364375693012605,3.790292309361744,4.4557142732301545,-0.37533772715160124,0.7165515415225481,-1.0447400351250749
1765408106.500856,-8.37859007740841,3.7758472381549333,4.468207731859862,-0.3767729216345929,0.7180523461606532,-1.0471275185391369
1765408106.501037,-8.391996472027136,3.7584795319295847,4.480916227808661,-0.37797366731959814,0.7190315267803526,-1.0493241532067694
1765408106.50137,-8.405549089544825,3.737867162476699,4.493445893849274,-0.37890433327548156,0.7194669983141994,-1.0513699082662973
1765408106.501704,-8.420221659961907,3.7139613596896948,4.505388374300398,-0.37954180735880405,0.7193598368145617,-1.0533113584521423
1765408106.502049,-8.43698384256464,3.686989118504901,4.516332204796739,-0.3798766529165894,0.7187350128745106,-1.0551973619225896
1765408106.502299,-8.456776599257996,3.657429321644427,4.525888861167471,-0.37991351801452933,0.7176415847994028,-1.057074693982202
1765408106.502549,-8.480484744207208,3.625965909100283,4.533730092506515,-0.37967078212458655,0.7161520235188251,-1.0589841132868412
1765408106.502799,-8.508904732270123,3.593424603594458,4.5396294764471925,-0.37917944296914763,0.714360350373368,-1.0609572040904804
1765408106.503103,-8.542705783986186,3.5607002812582964,4.543499534609437,-0.37848127907515566,0.7123788648713204,-1.06301417633687
1765408106.503353,-8.582382398470498,3.5286809404246404,4.545414834649313,-0.3776263791220692,0.7103333775808434,-1.0651627002242892
1765408106.503603,-8.628196880200447,3.4981733635340233,4.545611703331641,-0.376670190128733,0.7083570254779171,-1.0673978143554104
1765408106.503853,-8.68011260389452,3.469836152045563,4.544458233489679,-0.3756702833300158,0.7065829398835144,-1.069702914032842
1765408106.504057,-8.73772250159633,3.4441268310719906,4.5423941485152035,-0.37468306343757923,0.7051362466447249,-1.072051736377855
1765408106.50439,-8.800182035686992,3.421269086627543,4.53984666632436,-0.3737606519644872,0.7041260570400227,-1.0744111167809367
1765408106.504724,-8.866160498551777,3.4012430638539475,4.537134097682278,-0.37294815310684565,0.7036382092291811,-1.0767441593319649
1765408106.505115,-8.933826969741924,3.383797366642169,4.534373032798314,-0.37228145930027096,0.7037295253004421,-1.0790134047557933
1765408106.505365,-9.000885651633702,3.3684782956452426,4.531406781641892,-0.37178568267105905,0.7044242531268684,-1.0811836133888788
1765408106.505615,-9.064668973897676,3.354671281104489,4.527770945865523,-0.3714742292465097,0.7057131517837887,-1.0832238832136123
1765408106.505865,-9.122287490309624,3.3416507530983113,4.522706473790719,-0.37134848678403565,0.7075553563042727,-1.0851089501193243
1765408106.506204,-9.170825992029947,3.3286358587678024,4.515222544418517,-0.3713980852927585,0.709882782984807,-1.0868196399914543
1765408106.506454,-9.207567433806728,3.314848982020774,4.504202712075867,-0.37160170646420165,0.7126065112863695,-1.0883425584215276
1765408106.506704,-9.230221168653033,3.2995724257481145,4.488539662123323,-0.3719284442126512,0.7156243715444438,-1.0896692189085455
1765408106.506954,-9.23713038475851,3.28219783430363,4.467278758590745,-0.3723397280005893,0.7188288848969749,-1.0907949051866934
1765408106.507083,-9.22743592318424,3.262264092681665,4.439749493455099,-0.3727917974287852,0.7221147229295927,-1.0917175959907213
1765408106.507333,-9.201179044795802,3.2394815554069267,4.405666327616819,-0.37323866196240024,0.7253849696210201,-1.0924372277410979
1765408106.507583,-9.159332802187487,3.2137420152088545,4.365185025813443,-0.3736354070978652,0.7285556714349042,-1.092955462170733
1765408106.507833,-9.103759547544433,3.1851148595301866,4.318906937948224,-0.3739416314644203,0.7315584366556432,-1.0932760181076784
1765408106.508108,-9.037100202872203,3.1538313927772488,4.267831336363274,-0.3741247312795563,0.7343411600574036,-1.0934055332122046
1765408106.508441,-8.962608147086216,3.12026112322981,4.213263719038387,-0.37416271050859695,0.7368672433125268,-1.093354807872025
1765408106.508775,-8.88394534085457,3.084884375844991,4.1566943476899505,-0.37404620978067654,0.7391138730176914,-1.093140148346181
1765408106.509055,-8.804959453367632,3.0482642420492168,4.0996646954496345,-0.37377951662828335,0.7410699532386806,-1.0927844386295125
1765408106.509305,-8.72945860148297,3.0110189968819694,4.043639197714224,-0.3733804219003773,0.7427341839236846,-1.092317591799001
1765408106.509555,-8.660996949931356,2.973795402568604,3.989896523988459,-0.37287889860164536,0.7441135937771982,-1.091776142343051
1765408106.509805,-8.602682323282474,2.9372438052342087,3.93945025435742,-0.3723146914537842,0.7452226404421217,-1.0912018759774773
1765408106.510103,-8.557016737538762,2.901996295727417,3.8930045617290814,-0.3717340162820561,0.7460828256616556,-1.0906395159402003
1765408106.510353,-8.52578054403585,2.868648401478594,3.8509465408233887,-0.37118566601937547,0.7467226553176693,-1.0901336002679614
1765408106.510603,-8.509968434478264,2.8377429856056215,3.8133731110424987,-0.3707168838099362,0.7471776984370347,-1.0897248082732014
1765408106.510853,-8.509780280212569,2.809753627367336,3.7801466683852407,-0.37036937780396967,0.7474904615565509,-1.089446123517851
1765408106.51116,-8.524663053710324,2.785065319333551,3.7509695415752775,-0.3701758145525389,0.747709805974695,-1.0893193185166807
1765408106.51141,-8.553394416554072,2.7639528673108056,3.7254637158499486,-0.3701570512385016,0.7478897035815446,-1.0893522532180198
1765408106.51166,-8.594196155233123,2.7465598962244337,3.703241696168911,-0.3703202767017075,0.7480872448048627,-1.0895373666058432
1765408106.51191,-8.644866865489256,2.7328818515266806,3.683958352809243,-0.37065815052598866,0.7483599640866212,-1.089851554186538
1765408106.512116,-8.702926470552807,2.7227551333630187,3.667340567585437,-0.3711489630654143,0.7487627096767274,-1.090257444587871
1765408106.512449,-8.765768105464327,2.715853534307634,3.6531981697542,-0.3717577784725608,0.7493444133140529,-1.0907059564887427
1765408106.512783,-8.830814113861106,2.7116936333966803,3.641423583170205,-0.37243846324218594,0.7501451664554788,-1.0911399109941957
1765408106.5131,-8.895671556543082,2.709651727200427,3.6319878130086902,-0.37313644948710406,0.7511939617351989,-1.0914983574560972
1765408106.51335,-8.958278665758314,2.708994412272232,3.624936980913502,-0.3737920416777198,0.7525073204313099,-1.0917211489245893
1765408106.5136,-9.017028824843145,2.708922440155747,3.6203882498982196,-0.3743440491085996,0.7540888403604304,-1.0917532334221924
1765408106.51385,-9.070856168835963,2.708624110879384,3.6185197394176747,-0.3747335092249363,0.7559295360072829,-1.0915481630541082
1765408106.514153,-9.11926903425772,2.7073321369714374,3.6195482827669263,-0.3749072580945079,0.7580087617178046,-1.091070464542418
1765408106.514403,-9.162323722874884,2.704377623516465,3.6236915044062163,-0.37482111407860697,0.7602955012110113,-1.090296710025178
1765408106.514653,-9.200539257132613,2.6992359582271126,3.6311147827853425,-0.37444247912769324,0.7627498244813099,-1.0892153126777109
1765408106.514903,-9.234761962947994,2.6915604304892775,3.6418673283890195,-0.3737522214593908,0.7653243403803005,-1.0878252143926506
1765408106.515124,-9.265995209365556,2.681199525809288,3.6558138766672768,-0.37274576119939834,0.7679655376863856,-1.086133742998602
1765408106.515374,-9.295213388751499,2.6681941166557364,3.6725693623350413,-0.3714333194616812,0.7706150252295693,-1.0841540180605769
1765408106.515624,-9.323180206908212,2.6527528573147094,3.6914440686932393,-0.36983931410576193,0.7732108176941497,-1.0819023613000747
1765408106.515874,-9.350290361685722,2.6352080409895016,3.7114067226459624,-0.36800091099825144,0.7756889057906099,-1.0793961608498368
1765408106.516118,-9.376451391467098,2.6159581436848094,3.7310727799159324,-0.36596578471385693,0.7779853537310931,-1.0766525111294272
1765408106.516451,-9.401018955636358,2.595405565263427,3.748724250544002,-0.3637892079265583,0.7800390764639605,-1.0736877432103549
1765408106.516785,-9.42279377937311,2.573898572046301,3.762365293809666,-0.36153066018417246,0.7817952865694036,-1.0705177615444863
1765408106.517103,-9.44008187159574,2.5516857180137604,3.7698140465172614,-0.3592502050143386,0.783209405095098,-1.0671589672530253
1765408106.517353,-9.450812363398086,2.5288890980930647,3.7688262717264434,-0.3570049137692867,0.7842510472792199,-1.0636294774464017
1765408106.517603,-9.452701410838163,2.505499642023391,3.757242149834572,-0.3548456065871148,0.7849075728516082,-1.0599503334208138
1765408106.517853,-9.443447464458927,2.481394123194777,3.7331452144398534,-0.3528141341788022,0.78518667682339,-1.0561464221123873
1765408106.518118,-9.420942407281036,2.456370701023177,3.695021746765247,-0.35094135185763703,0.7851175996356178,-1.052246895097341
1765408106.518368,-9.383483428328674,2.4301978182059605,3.6419089320807823,-0.34924586609682734,0.784750713806035,-1.0482849331603241
1765408106.518618,-9.329971426591685,2.402669681457654,3.5735203877097628,-0.34773358176739727,0.784155445550028,-1.04429677103902
1765408106.518868,-9.26008273742191,2.373660288259953,3.490338341481257,-0.3463980400239499,0.7834166888408116,-1.040319983003657
1765408106.519164,-9.174401354154998,2.343167606438618,3.39366300214727,-0.34522150359327913,0.7826300469039557,-1.0363911432375825
1765408106.519497,-9.074498842197343,2.31134084874106,3.2856119230945158,-0.3441767183871749,0.7818963536039781,-1.0325431018339009
1765408106.519831,-8.96295025547095,2.2784870378829774,3.1690653420864052,-0.3432292555954776,0.7813159536728133,-1.0288022209685608
1765408106.520168,-8.843277708817578,2.245057292706796,3.047556928738264,-0.34234030859422787,0.7809831715935596,-1.0251859515205823
1765408106.520418,-8.719818828693246,2.2116167278640706,2.925113080586788,-0.3414697829871528,0.7809813224969572,-1.021701077934224
1765408106.520668,-8.597524450441812,2.1788032084117095,2.806048796608497,-0.34057948581085923,0.7813785436770964,-1.0183428415091396
1765408106.520918,-8.481697587803337,2.147279458822463,2.6947340636703028,-0.33963620341288253,0.78222464022153,-1.0150950225421813
1765408106.521081,-8.377692161533638,2.11768159992615,2.5953491348607356,-0.33861445813387636,0.7835490299905569,-1.0119309704477881
1765408106.521331,-8.290593650138483,2.090566920359651,2.5116476955581115,-0.3374987413372253,0.785359767671222,-1.0088155246096842
1765408106.521581,-8.22490466575005,2.0663651818606366,2.4467444229858226,-0.3362850316884726,0.7876435616853262,-1.0057077181418264
1765408106.521831,-8.184257772165655,2.0453395249123423,2.4029401903258876,-0.33498143910646216,0.7903666705349996,-1.0025640553452586
1765408106.522095,-8.171176389521916,2.0275628945084763,2.3815946176676266,-0.33360788076152686,0.7934765492646705,-0.999342021995701
1765408106.522345,-8.18690168423268,2.0129131443040147,2.383050932321056,-0.3321947834605838,0.7969041069566637,-0.9960033974556848
1765408106.522595,-8.231298102560066,2.001085977316033,2.406612869365967,-0.330780889141576,0.8005664585033115,-0.9925169463995707
1765408106.522845,-8.302842970520617,1.9916218741215248,2.4505696198266396,-0.3294103070082297,0.8043701216853022,-0.9888601833127533
1765408106.523128,-8.39869775856288,1.983942505113356,2.5122634511277386,-0.3281290176234313,0.8082146895399801,-0.9850200832938326
1765408106.523461,-8.5148521474711,1.9773932274651875,2.5881950521114216,-0.3269810922731219,0.8119970388731619,-0.980992782733317
1765408106.523795,-8.646328514460242,1.9712891054597248,2.6741633108658633,-0.32600492679771426,0.8156160908790925,-0.9767824106754156
1765408106.524098,-8.787434014459196,1.9649610690716528,2.7654384221865316,-0.3252297886022846,0.8189780423279294,-0.9723992243585932
1765408106.524348,-8.93204843101835,1.9577971536492016,2.8569682437098654,-0.32467294261678004,0.8220018688938392,-0.9678572564603879
1765408106.524598,-9.073935997265886,1.9492734628741453,2.943615513731219,-0.32433756860048335,0.8246247736999164,-0.963171752914244
1765408106.524848,-9.207067172753273,1.9389717727731788,3.0204176160444884,-0.3242116205616842,0.8268071207617935,-0.9583567489550793
1765408106.525059,-9.325933179831374,1.9265843507638336,3.082853983690469,-0.3242677192306568,0.8285362996990909,-0.9534231321064234
1765408106.525309,-9.425834555965967,1.9119091986182857,3.1271027359439967,-0.3244641110519833,0.8298289770361372,-0.9483774543602056
1765408106.525559,-9.503126244722926,1.8948393985376277,3.1502684710017923,-0.32474666377629924,0.8307313153247026,-0.9432216230516209
1765408106.525809,-9.55540500346245,1.875349563393858,3.1505651953431735,-0.32505179526356753,0.8313169368875276,-0.9379534774015738
1765408106.526094,-9.581629024998472,1.8534820595952215,3.1274407347538777,-0.3253101548820286,0.8316826250901032,-0.9325681593308985
1765408106.526344,-9.582163782444631,1.829335679537204,3.08163183096564,-0.3254508093841147,0.8319419826638991,-0.927060089387866
1765408106.526594,-9.558751065376985,1.8030586743694,3.0151423549396332,-0.3254056432547629,0.8322174982826507,-0.9214252620944384
1765408106.526844,-9.514399696119943,1.7748462589253555,2.9311401793700695,-0.32511367478518854,0.8326316718214609,-0.9156635201387003
1765408106.527078,-9.453198437685723,1.7449409948001389,2.833772275338657,-0.3245250039657931,0.8332979685299613,-0.9097804794533533
1765408106.527411,-9.380056610936123,1.713633932158577,2.7279044903508867,-0.32360413262631305,0.834312394302834,-0.9037888411435746
1765408106.527745,-9.30038593821539,1.681265064634878,2.618802092278001,-0.322332431013991,0.8357464184437249,-0.8977089150636269
1765408106.528057,-9.219745409004972,1.648222735027011,2.51177646083364,-0.3207095774217741,0.8376418277439739,-0.8915682753826679
1765408106.528307,-9.143476557893507,1.6149420865724313,2.411828951235988,-0.3187538689986837,0.8400078792488709,-0.8854005522465901
1765408106.528557,-9.076358292127551,1.5819018909033702,2.323323780716483,-0.31650138059157285,0.8428208535952427,-0.8792434303192033
1765408106.528807,-9.022308918013064,1.54961770537762,2.249718552967594,-0.3140040210056345,0.8460258614767784,-0.8731359946105174
1765408106.529047,-8.984159400148426,1.518628846270437,2.1933749279209733,-0.3113265959956763,0.8495405857200464,-0.8671156483611913
1765408106.529297,-8.963516542415013,1.4894780289749034,2.155463672671526,-0.30854303846520453,0.8532605588613926,-0.8612148992341492
1765408106.529547,-8.960727189826333,1.4626849672632543,2.1359682325957894,-0.30573202072724137,0.8570655446194355,-0.8554583302943384
1765408106.529797,-8.974944449028028,1.4387170589031797,2.133779795986455,-0.3029722257863502,0.860826579122006,-0.8498600381338225
1765408106.530058,-9.004285686907393,1.4179604696414718,2.1468664111910973,-0.30033760859387354,0.8644132293637937,-0.8444217615852688
1765408106.530391,-9.046062353200893,1.400693729930245,2.1724915689705586,-0.29789300012310993,0.8677006547623957,-0.839131868189861
1765408106.530725,-9.097055581364938,1.3870645921564173,2.2074555734365595,-0.2956903833660952,0.8705761255046068,-0.8339653204260965
1765408106.531089,-9.153809604147723,1.3770706315160386,2.248335941783499,-0.2937661023518304,0.8729447567442508,-0.8288846993027241
1765408106.531339,-9.212916878126789,1.3705451628058913,2.2917094738340826,-0.29213917009257767,0.8747343353181379,-0.8238422944135825
1765408106.531589,-9.271273719368592,1.3671514437546424,2.334346473578393,-0.2908107452101193,0.8758992030337142,-0.818783161373774
1765408106.531839,-9.326291907300181,1.3663885270770888,2.3733745893327627,-0.2897647658388075,0.8764231817083674,-0.8136489188018754
1765408106.532062,-9.376058047301704,1.367610964695964,2.406413532140738,-0.2889696632248475,0.8763214741997253,-0.8083819486322331
1765408106.532312,-9.419436603208414,1.3700621825831718,2.4316814267513536,-0.2883810244656103,0.8756413846088655,-0.8029296073092018
1765408106.532562,-9.456114079454748,1.372918648899557,2.448070245235997,-0.2879450340509625,0.874461627724115,-0.7972480627379132
1765408106.532812,-9.48658224362138,1.3753400814362011,2.4551850085396807,-0.28760249074939004,0.872889994886146,-0.791305433373854
1765408106.533069,-9.512059517130266,1.3765204922867165,2.4533414933351216,-0.2872931623539451,0.8710592217057155,-0.785083996109442
1765408106.533319,-9.534353110804105,1.3757356001601044,2.4435195721106657,-0.2869602081932238,0.8691210344270154,-0.7785813268931283
1765408106.533569,-9.55567037683085,1.3723835214982376,2.427272474467822,-0.28655437525296784,0.8672385107242824,-0.771810332369293
1765408106.533819,-9.578395049685353,1.3660171859009558,2.406595889972268,-0.2860376626626052,0.8655770753567309,-0.7647982082101716
1765408106.534064,-9.604850166986733,1.3563679086266618,2.3837653862645167,-0.285386158815895,0.8642946567354055,-0.7575844082265485
1765408106.534397,-9.637071861415917,1.3433595234610753,2.361155143650223,-0.2845918010005198,0.8635317202633591,-0.7502177476686326
1765408106.534731,-9.67661573404406,1.3271119192402692,2.3410534263895455,-0.28366290029965086,0.8634020096995805,-0.7427528319828222
1765408106.535066,-9.72441152262018,1.3079327719395453,2.3254898484635644,-0.282623401348018,0.8639848320209389,-0.7352461001227926
1765408106.535316,-9.780675136301733,1.2862973222161473,2.316087759426245,-0.28151096860847824,0.8653196231986503,-0.7277518529599373
1765408106.535566,-9.844881706359107,1.262817902579157,2.31395307519249,-0.28037407555121285,0.867403350566426,-0.7203186512059363
1765408106.535816,-9.915798727068157,1.238206397465295,2.3196078024113462,-0.2792683220929003,0.870191032468872,-0.7129863932367861
1765408106.53612,-9.991573569605501,1.213232688513525,2.33297143168493,-0.27825224138723537,0.8735992917687091,-0.7057842423423468
1765408106.53637,-10.069864956543974,1.1886805963995903,2.3533875111367024,-0.27738288865327204,0.8775124862252053,-0.6987294307032171
1765408106.53662,-10.148004821093153,1.165301894172508,2.37968850594405,-0.27671152022618706,0.8817906923139545,-0.6918268995245397
1765408106.53687,-10.22317607579517,1.1437703401864736,2.410290490395092,-0.2762796598523121,0.8862787113077246,-0.6850697465634998
1765408106.537106,-10.292592563515266,1.1246403351729455,2.4433090363326158,-0.2761158150523275,0.8908152792724225,-0.6784404572082777
1765408106.537356,-10.353668878459603,1.108315734048403,2.4766871042418996,-0.2762330543462009,0.8952417417257896,-0.6719128194498749
1765408106.537606,-10.40416935743721,1.0950319431155247,2.508324428863236,-0.2766275861744831,0.899409588607654,-0.6654543047673539
1765408106.537856,-10.44232749902696,1.0848503915459822,2.5361970499912134,-0.27727839915865915,0.9031864477771608,-0.6590286390344048
1765408106.538154,-10.46692976203642,1.0776619130345193,2.5584570241778595,-0.2781479478608699,0.9064603884587612,-0.6525983362475715
1765408106.538487,-10.477360930060028,1.073196035771609,2.5735064015350875,-0.2791838125268724,0.9091426335874094,-0.646127072128936
1765408106.538821,-10.473611043532438,1.0710356090319366,2.580044524170153,-0.2803212271057561,0.9111689550037707,-0.6395818483054594
1765408106.539073,-10.456245928685478,1.070638350658133,2.5770916107330106,-0.2814863464770579,0.9125000867513569,-0.6329348975039643
1765408106.539323,-10.426345553389975,1.0713671379293945,2.563994270525925,-0.28260009696063165,0.9131214481460671,-0.6261652295309228
1765408106.539573,-10.385417413942143,1.0725289842977548,2.5404203148582725,-0.2835824208232967,0.9130423659661827,-0.6192596765493963
1765408106.539823,-10.33529469396799,1.0734198095820844,2.506349823280671,-0.2843566954614771,0.9122948646877542,-0.6122133162535529
1765408106.540164,-10.278029314760758,1.073370131102575,2.4620661136513813,-0.2848540874939039,0.9109319787187327,-0.6050292431640816
1765408106.540414,-10.215787955153509,1.071786824477553,2.408146055380369,-0.28501758932961985,0.9090254649949795,-0.5977177764367366
1765408106.540664,-10.150755877383926,1.06818756202457,2.345446849525662,-0.28480548631173885,0.9066627948995636,-0.5902952684344805
1765408106.540914,-10.085050481933859,1.0622258124222155,2.2750863025485963,-0.2841940302472545,0.9039433749374438,-0.5827826824388722
1765408106.541092,-10.020645012411611,1.053704621539762,2.198414195315396,-0.28317914879215655,0.9009740400226327,-0.5752040731548702
1765408106.541342,-9.959303122205315,1.0425776712560804,2.1169730169947583,-0.2817770747750405,0.8978639539121146,-0.567585077706056
1765408106.541592,-9.90252663728005,1.0289374613153668,2.032447944683229,-0.2800238174970827,0.8947191475170148,-0.5599515164065048
1765408106.541842,-9.85152048644683,1.0129926702867258,1.946608686264995,-0.2779734363043727,0.8916370318267428,-0.5523281853558852
1765408106.542074,-9.807178713162726,0.9950385659663461,1.8612479931142516,-0.2756951439250197,0.8887013088890002,-0.544737879309964
1765408106.542407,-9.770092729844855,0.9754249517581691,1.7781213319639892,-0.27326936442608996,0.8859777333053261,-0.5372006309136331
1765408106.542741,-9.740578236461094,0.9545257692595815,1.698889550201679,-0.270782974195723,0.8835111333992427,-0.529733123276184
1765408106.543081,-9.718712846180113,0.9327135315017315,1.6250639040129935,-0.26832404344480043,0.8813239897180642,-0.5223482357855506
1765408106.543331,-9.704374956439908,0.9103402290029424,1.5579529594892498,-0.2659764605893728,0.8794166924320305,-0.5150547028508239
1765408106.543581,-9.697276527840625,0.8877244143456098,1.4986134295583025,-0.2638148517859869,0.8777693760047853,-0.5078568933147927
1765408106.543831,-9.696986751314018,0.8651428152862154,1.44780966606714,-0.26190018856668634,0.8763450148223347,-0.5007547537217163
1765408106.544102,-9.70294803822946,0.8428250139692407,1.4059875965531006,-0.26027640366217464,0.8750933268173003,-0.49374398135739356
1765408106.544352,-9.71448909374671,0.8209510119356216,1.3732684668872293,-0.25896822748155734,0.8739550028377452,-0.48681647289987084
1765408106.544602,-9.730841378772823,0.7996522875498875,1.3494661740016354,-0.2579803469246679,0.8728658305295818,-0.4799610348884475
1765408106.544852,-9.75116455435502,0.7790163969204316,1.3341288085447545,-0.2572978915183474,0.8717603643537888,-0.4731642851393868
1765408106.545088,-9.774583723611356,0.7590941049339096,1.3266003560518054,-0.2568881674708003,0.8705748808166077,-0.466411655661585
1765408106.545338,-9.800237564295209,0.7399077826137609,1.3260940439158793,-0.2567034878704846,0.869249458051757,-0.45968842379196195
1765408106.545588,-9.827332953533256,0.7214606132424841,1.3317664764161101,-0.2566848937956398,0.867729151881885,-0.4529807165087771
1765408106.545838,-9.855198900804844,0.7037470396801655,1.3427817229637635,-0.25676652614552764,0.8659643988915146,-0.4462764245230098
1765408106.546107,-9.883330783036238,0.6867647536692103,1.358356115433204,-0.2568803809536855,0.8639109135822572,-0.4395659304535396
1765408106.546357,-9.91141567267149,0.6705272291609488,1.3777774502583866,-0.2569611542426865,0.8615294135724656,-0.4328425348026742
1765408106.546607,-9.93933159371096,0.6550743451221143,1.4003968148702477,-0.2569508607066776,0.8587854983486208,-0.4261024911515908
1765408106.546857,-9.967117655246561,0.6404783230070896,1.425596805830133,-0.25680290581241105,0.8556499462993683,-0.4193446374476843
1765408106.547079,-9.994917251750756,0.6268434061398023,1.4527450074912658,-0.25648531365572813,0.8520995910999974,-0.4125696933287991
1765408106.547412,-10.022901713992136,0.6142994735891654,1.4811447173804522,-0.25598286880736365,0.8481187879280435,-0.4057793416001467
1765408106.547746,-10.051185762838477,0.6029906524338876,1.5099950621662415,-0.25529801861717843,0.8437013032929863,-0.3989752189585218
1765408106.54805,-10.079747970183202,0.5930595673977478,1.5383701404158265,-0.2544504883493848,0.8388523151037129,-0.3921579371936342
1765408106.5483,-10.108369190940394,0.5846273944540351,1.5652234017641997,-0.2534756607291276,0.8335901439272225,-0.38532626932466474
1765408106.54855,-10.13660019999926,0.5777709059340266,1.5894205469352776,-0.2524218518529132,0.8279473592583427,-0.37847665461066826
1765408106.5488,-10.16376653643604,0.5725001601633171,1.6098011645522798,-0.25134668509366515,0.8219709808956206,-0.3716031590443053
1765408106.549061,-10.189013307223552,0.5687424965795854,1.625264753845738,-0.2503128310309926,0.8157215908746688,-0.36469794077932516
1765408106.549311,-10.211385806396503,0.5663379079184467,1.6348711894919552,-0.24938343329093252,0.8092712829878145,-0.35775212963825687
1765408106.549561,-10.229934940810013,0.5650473418322669,1.6379412881124333,-0.2486175571335308,0.8027005142620199,-0.3507569058372233
1765408106.549811,-10.243831685205231,0.5645710389334526,1.6341418483297876,-0.24806597211720702,0.7960940718858291,-0.3437045304636703
1765408106.550075,-10.252473575179323,0.564571320608458,1.6235417891649626,-0.24776752453470705,0.7895364915389076,-0.3365891562219536
1765408106.550325,-10.255568747609225,0.5646945474830299,1.6066309362197058,-0.24774628862141032,0.7831073254881309,-0.3294073748412891
1765408106.550575,-10.253187890454818,0.5645894535487097,1.5842989671116217,-0.24800962215958822,0.7768766554482552,-0.3221585556882947
1765408106.550825,-10.245779598682486,0.56392171989166,1.5577772245800217,-0.248547201001314,0.7709011955051772,-0.3148450553513764
1765408106.551089,-10.234148797350906,0.5623858990344123,1.5285494766710637,-0.24933106576802652,0.7652212581104185,-0.30747234574642307
1765408106.551422,-10.219401309906308,0.5597155137924673,1.4982396904529722,-0.25031666664324353,0.7598587763188607,-0.30004906219783695
1765408106.551756,-10.202860993625304,0.5556913123451869,1.468486737211331,-0.25144482985620475,0.7548164997691346,-0.292586945782385
1765408106.552044,-10.18596885810269,0.5501471911748721,1.4408178915855732,-0.25264450760339635,0.7500784153658796,-0.2851006551894667
1765408106.552294,-10.17017501028201,0.5429734095624341,1.4165336876480112,-0.25383613484393613,0.7456113712050962,-0.27760744499112305
1765408106.552544,-10.156833314001423,0.5341171823753629,1.3966147742434483,-0.25493540332280934,0.7413677854599192,-0.27012673459421105
1765408106.552794,-10.147105969301128,0.5235813514647866,1.3816571961509443,-0.25585725699490025,0.7372892139939871,-0.26267960799799384
1765408106.55305,-10.141882585959065,0.5114223427722151,1.3718381018008958,-0.2565199031023692,0.7333104731734347,-0.2552882767339502
1765408106.5533,-10.141717169321538,0.49774861640259244,1.3669112244156438,-0.25684862717125634,0.7293639958172274,-0.24797551223873013
1765408106.55355,-10.146786655338092,0.48272018627471813,1.3662306869972896,-0.256779208391608,0.7253841273258264,-0.24076402902014826
1765408106.5538,-10.1568749296964,0.4665488070191084,1.3688013782135928,-0.2562607563096763,0.7213111108224632,-0.233675789407345
1765408106.554125,-10.171385480637714,0.4494974080932338,1.3733532961980075,-0.25525782705772754,0.7170945384845461,-0.22673120445306685
1765408106.554375,-10.189383743103107,0.431876557125976,1.3784357451337643,-0.25375171976459604,0.7126960636572467,-0.21994822487821666
1765408106.554625,-10.209667212892827,0.41403554358339356,1.38252525304675,-0.2517408923554023,0.7080911998523975,-0.21334135638334098
1765408106.554875,-10.230858137289838,0.396346423847513,1.3841389007219413,-0.24924047020389797,0.7032700985565535,-0.20692069070386276
1765408106.555103,-10.251510806480047,0.379181013782657,1.3819434212934363,-0.24628086110906364,0.6982372900004518,-0.20069109627727985
1765408106.555353,-10.270224031650272,0.3628829486968292,1.3748510011183803,-0.2429055451208592,0.693010461596506,-0.19465173351171094
1765408106.555603,-10.285749665021877,0.3477389592304183,1.362095013353226,-0.23916817659343115,0.6876184179242326,-0.18879603170560078
1765408106.555853,-10.297089566475535,0.3339546480725616,1.343281762376912,-0.23512920563769396,0.6820984125406117,-0.18311218671049043
1765408106.557047,-10.303575312358646,0.32163949693916555,1.318416806037819,-0.23085227593029228,0.6764930674620777,-0.17758412984734884
1765408106.55738,-10.304926339069073,0.310803503189978,1.2879062739547302,-0.22640066670511608,0.6708470973460356,-0.17219281910914513
1765408106.557714,-10.301283022278252,0.30136488567898617,1.2525346451611192,-0.22183401465139244,0.6652040332038277,-0.16691765584064674
1765408106.557087,-10.293212079448162,0.29316631975349816,1.2134206685481241,-0.21720548875371004,0.6596031097377747,-0.16173784528305127
1765408106.557337,-10.281683223174966,0.2859967454320638,1.171953110057166,-0.212559519183885,0.6540764593331587,-0.15663356700386583
1765408106.557587,-10.268018006848836,0.2796161244191247,1.1297087596345905,-0.20793012348367435,0.6486467467529898,-0.15158686514608796
1765408106.557837,-10.253813808884264,0.27378062720942353,1.0883570027911773,-0.20333984417689455,0.643325368322951,-0.14658220488410775
1765408106.558044,-10.240847832603185,0.2682655894802232,1.049557568088284,-0.19879930771399668,0.6381113172781913,-0.14160668610725488
1765408106.558294,-10.230968081424145,0.26288375834650934,1.0148596690539624,-0.19430741744539634,0.6329907831717178,-0.13664995744489736
1765408106.558544,-10.225980364992626,0.2574970872401298,0.9856111006161242,-0.18985218659054806,0.6279375101148567,-0.13170391513200316
1765408106.558794,-10.227541721805267,0.2520213608971101,0.9628850793602761,-0.18541219456603864,0.62291388546589,-0.1267622906945678
1765408106.559042,-10.237070192608673,0.24642392656510337,0.9474307629954715,-0.1809586132541089,0.6178726681338479,-0.12182023237873243
1765408106.559292,-10.255678227679395,0.24071563810129804,0.9396500648390393,-0.1764577030101164,0.6127591999500851,-0.11687397453141966
1765408106.559542,-10.284132876380513,0.23493867631587223,0.9395988415746352,-0.17187362617434376,0.6075138894349947,-0.11192066849266057
1765408106.559792,-10.322841706978384,0.22915210134477768,0.9470063783670118,-0.16717137648778496,0.6020747400945703,-0.1069584154393901
1765408106.560065,-10.371860260386786,0.2234169112436119,0.9613052345004149,-0.1623195897250616,0.5963797343732382,-0.10198649689658773
1765408106.560315,-10.43091515615932,0.21778222971657024,0.9816645388732403,-0.15729299871888888,0.5903689651030654,-0.09700575200662871
1765408106.560565,-10.499436757660613,0.2122740449391026,1.0070226919497423,-0.15207432953679903,0.583986483194326,-0.09201901544661199
1765408106.560815,-10.57659637454825,0.20688744171502005,1.0361184510689252,-0.14665549509917072,0.5771818677964781,-0.08703151567870311
1765408106.561057,-10.661344743983534,0.20158246430072527,1.0675214043980248,-0.14103801179655692,0.569911527189569,-0.08205114545689583
1765408106.561257,-10.752450198766038,0.19628309155532825,1.0996637877869788,-0.13523263196948956,0.5621397319884985,-0.07708855268847226
1765408106.561457,-10.848536135635785,0.1908788242438485,1.1308759582347168,-0.1292582464797881,0.5538393811277684,-0.07215704135607223
1765408106.561657,-10.948118300578262,0.18522891457850876,1.159427807421359,-0.12314016802729194,0.5449925000237225,-0.0672722948891682
1765408106.561857,-11.049643153230488,0.1791695904858052,1.1835777730449333,-0.11690795801513428,0.5355904642687923,-0.062451932865256236
1765408106.562042,-11.151528961456282,0.17252430496282034,1.201629868211003,-0.11059300119657173,0.52563393637432,-0.05771490368084594
1765408106.562292,-11.252210976406351,0.1651162884441171,1.2119976414611693,-0.10422605035517378,0.5151325025361204,-0.05308071848183029
1765408106.562542,-11.350190932457744,0.1567819440455642,1.213272514615674,-0.09783495171164396,0.5041040024737871,-0.04856854832963548
1765408106.562792,-11.444089559460355,0.14738318060976233,1.2042927767597913,-0.09144272851853211,0.4925735609349848,-0.04419623164307074
1765408106.563084,-11.532699497893212,0.13681678442668826,1.1842090282114595,-0.08506615848460586,0.48057235338814286,-0.03997926585408937
1765408106.563334,-11.615035366754645,0.12501952675403907,1.1525420854741701,-0.07871493813137127,0.46813615982572526,-0.035929880334018054
1765408106.563584,-11.69037731719576,0.11196889889050045,1.1092294138349181,-0.0723914850144354,0.45530377078595385,-0.03205630045896217
1765408106.563834,-11.758303575538607,0.09768085326484273,1.0546552745485973,-0.06609138229941529,0.44211531351026184,-0.028362304307509294
1765408106.564046,-11.818706564810952,0.08220709849639574,0.989658737140768,-0.05980441524184937,0.42861057170278627,-0.024847134937292244
1765408106.564296,-11.87178749343413,0.065634768398148,0.9155143561481276,-0.0535160950277432,0.4148273794814383,-0.02150577220622168
1765408106.564546,-11.918026649765743,0.04809054183902801,0.8338834349589536,-0.04720953423529442,0.40080017722560607,-0.018329517019681746
1765408106.564796,-11.958130315423272,0.02975000086382083,0.7467381862122295,-0.04086754064368354,0.38655882591020235,-0.01530681790009622
1765408106.565057,-11.992958605016847,0.010851861561348628,0.6562648251408987,-0.034474817103432996,0.3721277814479353,-0.012424268628398407
1765408106.565307,-12.023440686408504,-0.008283987095937681,0.564753715905959,-0.028020171823692736,0.3575257180005902,-0.009667706891929933
1765408106.565557,-12.05048475349591,-0.027236181133070067,0.4744851914978134,-0.021498648067565955,0.34276565615252513,-0.007023336683803552
1765408106.565807,-12.074890065027153,-0.0454614807154598,0.38761893918436996,-0.014913480789508283,0.32785561068558833,-0.004478786530956811
1765408106.566062,-12.09726757051959,-0.062277193330563,0.3060935353113058,-0.008277787545065593,0.31279973455283655,-0.0020240150262658854
1765408106.566262,-12.117974621841483,-0.07684989784588266,0.23154178985998033,-0.0016159073636932118,0.29759990072874215,0.0003480071284002432
1765408106.566462,-12.137068389541072,-0.08819399898876189,0.16522720616116426,0.0050356834471052886,0.282257628547605,0.002640880323197933
1765408106.566662,-12.154281563407823,-0.09518320405178754,0.10800596791463779,0.011627929691900197,0.26677622617097,0.004854640661801625
1765408106.566862,-12.169022210953953,-0.0965773361451511,0.06031651134553326,0.01809926609782591,0.2511629903490661,0.006985906536212799
1765408106.567044,-12.180397404925001,-0.09106619879369966,0.022195514067656814,0.024376229045396686,0.2354312867919821,0.009028296019172011
1765408106.567244,-12.187258078897736,-0.07733140338758224,-0.006683607428586587,0.030374647158228723,0.2196023381874243,0.010973085087065538
1765408106.567444,-12.188261116776822,-0.054125778527558975,-0.026955085608240184,0.03600144742041272,0.2037065750205236,0.012810043878890844
1765408106.567644,-12.181944079909167,-0.020367904132646043,-0.03949376693933143,0.041157105795390406,0.18778445075720634,0.014528348574389855
1765408106.567844,-12.166807984960123,0.024753296038010162,-0.045341924511174726,0.04573875591380073,0.17188667645688563,0.016117441248780597
1765408106.568056,-12.14140378546908,0.08167135524478612,-0.045634560156896355,0.04964394587371069,0.1560738783550662,0.017567717750547166
1765408106.568306,-12.104418453949913,0.15034137200986908,-0.04152725383052699,0.05277499541095149,0.14041571710184797,0.018870962637876174
1765408106.568556,-12.054756809969868,0.23015474687507437,-0.03413000443067163,0.05504384820772289,0.12498952983377626,0.020020500928562814
1765408106.568806,-11.991615535094418,0.3198786220063338,-0.02444979553009921,0.05637724024481658,0.10987857192677956,0.021011077482236504
1765408106.569052,-11.914546122423722,0.4176286414436154,-0.01334397882548574,0.05672192549938919,0.0951699457254161,0.021838496487256175
1765408106.569252,-11.823503792667873,0.5208829825253593,-0.0014861593888016189,0.05604962690241143,0.08095230717410992,0.022499063016049918
1765408106.569452,-11.718879734460026,0.6265441911750199,0.010654083555761947,0.05436132488390742,0.06731344135085132,0.022988883892714137
1765408106.569652,-11.601514532915497,0.7310524860897109,0.022816984910157274,0.05169046872883983,0.05433780004044649,0.023303116179260234
1765408106.569852,-11.4726914206821,0.8305495710087314,0.03494434345556854,0.04810470494864748,0.04210409717263736,0.02343528797385945
1765408106.570065,-11.334108927856105,0.9210859919471797,0.04715880429683853,0.043705768009544455,0.030683054380645704,0.02337683696250977
1765408106.570265,-11.187833424177791,0.9988586851224788,0.05973284803024007,0.03862727946783503,0.02013537803437244,0.02311700382102135
1765408106.570465,-11.036232873251345,1.0604598646889407,0.07304971677011202,0.03303035526321105,0.010510037578013956,0.022643179564082776
1765408106.570665,-10.88189399927941,1.1031149832011595,0.08755847569911525,0.027097116867515474,0.0018429074675155263,0.021941746289586103
1765408106.570865,-10.72752612128958,1.1248868807904007,0.10372561010395404,0.02102241354824286,-0.005844173776331513,0.020999382101705783
1765408106.571082,-10.575855997472496,1.124825536188016,0.12198581277712252,0.015004257036322036,-0.012543893304558424,0.019804735931270134
1765408106.571332,-10.42951886016862,1.1030477185172736,0.14269461586883295,0.009233618667148079,-0.018263497649605817,0.018350324152571984
1765408106.571582,-10.290951291291334,1.0607377228716515,0.16608529471978148,0.003884326592748706,-0.02302439033847285,0.01663446271306915
1765408106.571832,-10.162291799654561,1.0000683716467806,0.19223231651138076,-0.0008961792290365867,-0.02686132118606943,0.0146630322301894
1765408106.572038,-10.045295049817852,0.924049423848167,0.22102371306837515,-0.004994525078677488,-0.02982119022162041,0.01245088410053432
1765408106.572288,-9.941265627346992,0.8363173508793412,0.25214501961303126,-0.008336919939763435,-0.03196148727514381,0.01002272873092722
1765408106.572538,-9.851016741035282,0.740885407869891,0.28507749203655164,-0.010892088720720823,-0.03334840085056701,0.007413391370263477
1765408106.572788,-9.77485792555962,0.6418758269215369,0.31911277233006863,-0.012671418391461806,-0.03405465798990751,0.004667369938504551
1765408106.574053,-9.712613363587685,0.5432568226896084,0.3533847579697137,-0.013726354570750762,-0.03415719271711046,0.0018376852326069477
1765408106.574253,-9.663669191439164,0.4486058869001874,0.3869172559617669,-0.01414331985502365,-0.03373477116638507,-0.0010159175959460743
1765408106.574453,-9.627044901236218,0.3609172967877573,0.4186836335278608,-0.014036617380374327,-0.032865713746668,-0.003829280948256348
1765408106.574653,-9.60148161991255,0.2824659140022396,0.4476729875047682,-0.013539912561636343,-0.03162584403545063,-0.006536463506775747
1765408106.574853,-9.585539143429425,0.21473223366764904,0.4729569079180357,-0.012796949671453513,-0.030086765845311943,-0.009072472608322744
1765408106.574168,-9.577693950367447,0.15838707801009638,0.4937514146923557,-0.011952162982921375,-0.028314533614913606,-0.01137592279713544
1765408106.574418,-9.576431373634042,0.1133298149033836,0.5094693861651559,-0.011141792022193855,-0.026368744521212833,-0.01339150551859585
1765408106.574668,-9.580326174715248,0.07877174842008328,0.5197595254278063,-0.010486021930147704,-0.024302046817218224,-0.015072204483002017
1765408106.574918,-9.588106879336497,0.053355428306009874,0.5245288325240103,-0.010082562399065149,-0.022160029737836078,-0.016381204743544975
1765408106.575041,-9.59870057357182,0.03529994040272251,0.5239467530421658,-0.010001963514362087,-0.01998143944886014,-0.0172934285869003
1765408106.575241,-9.611256564370281,0.022561427045473575,0.5184306078120496,-0.010284845515852348,-0.01779865510147825,-0.01779661496782899
1765408106.575441,-9.625149319970692,0.01299759843180785,0.5086135899130891,-0.010941093479704463,-0.01563835575646428,-0.017891862588898917
1765408106.575641,-9.639963093058778,0.004525350142984814,0.49529836372940594,-0.011950944071532072,-0.013522307927590727,-0.017593580239746602
1765408106.575841,-9.65546212948324,-0.004738193402636445,0.4794006250929279,-0.013267779385018061,-0.011468204338614202,-0.016928819610179814
1765408106.576048,-9.671551121884583,-0.016359191535365688,0.4618875444447198,-0.014822351244733412,-0.009490488584207347,-0.01593599854809004
1765408106.576248,-9.6882306786796,-0.03150118035990473,0.4437159425342789,-0.016528093011200975,-0.007601106198286761,-0.014663059808970324
1765408106.576448,-9.705552283475209,-0.050873516593648214,0.4257746486435314,-0.01828713423694282,-0.005810129098390042,-0.013165155015874043
1765408106.576648,-9.723576673612717,-0.07471532660951037,0.4088349086841379,-0.019996614753239883,-0.004126211639892258,-0.011501990231327046
1765408106.576848,-9.742338830533742,-0.1028132659833561,0.3935119060372612,-0.021554900717726193,-0.0025568573257964268,-0.009735006155735469
1765408106.577049,-9.76182186908196,-0.13454868359542052,0.38023938684073544,-0.022867338679863056,-0.0011085035226446873,-0.007924582333757906
1765408106.577299,-9.78194107352828,-0.16896772264787763,0.36925816799869926,-0.02385124352477012,0.0002135403623828675,-0.0061274479736163475
1765408106.577549,-9.802538293578777,-0.2048668352784354,0.3606182296314216,-0.024439895309320007,0.0014052456667079606,-0.004394456329452088
1765408106.577799,-9.823386078562258,-0.24088607479305654,0.35419333857612395,-0.024585408014636215,0.0024640462439306007,-0.0027688423549522704
1765408106.578046,-9.844200341993254,-0.27560302037336865,0.3497066268489871,-0.02426041956504525,0.003388995957474231,-0.0012850394106989607
1765408106.578246,-9.864659857483256,-0.3076210488708842,0.34676501003353605,-0.023458629182890035,0.004180865915364063,3.1918455369311853e-05
1765408106.578446,-9.884430338353372,-0.3356468776574027,0.34489962934820234,-0.02219427040634177,0.004842160326795262,0.0011664337967336549
1765408106.578646,-9.90319031653401,-0.358553854595938,0.343608797338625,-0.02050065410789012,0.005377037153450786,0.002111893681925744
1765408106.578846,-9.92065578656394,-0.37542920830753734,0.3423996390563929,-0.018427946613723264,0.005791124557513451,0.002869830478566238
1765408106.579045,-9.936600861301054,-0.38560511544092435,0.3408250455727281,-0.0160403648218502,0.006091234563513089,0.003448810731306496
1765408106.579245,-9.950872471382509,-0.38867473253385876,0.3385135363361402,-0.013412972645297465,0.00628499297363524,0.003863164523982366
1765408106.579445,-9.963398139484404,-0.38449516334335715,0.33519071339161394,-0.010628251593224392,0.006380422942183993,0.004131653294330229
1765408106.579645,-9.974186767783925,-0.37317969356634123,0.3306918859597294,-0.007772597434000144,0.006385528963257871,0.00427615106671103
1765408106.579845,-9.983323073841234,-0.35508152307891566,0.32496612435166655,-0.004932871760596394,0.006307923078620082,0.004320385407401338
1765408106.580045,-9.990956797429313,-0.3307706773808321,0.31807250056537517,-0.002193117160718377,0.006154521221193977,0.004288756706404889
1765408106.580245,-9.997288059518304,-0.3010050080658802,0.310169575396288,0.0003684703754432848,0.005931325766777189,0.004205238177468601
1765408106.580445,-10.00255028356743,-0.26669565768576614,0.30149934703041464,0.0026822279746686866,0.005643304798186353,0.004092361713395913
1765408106.580645,-10.006991985774079,-0.22886747880601074,0.2923670059404649,0.004689293210441572,0.005294374814144954,0.003970312586818179
1765408106.580845,-10.010858622585761,-0.18861567648182928,0.2831180029842652,0.006343379305639644,0.004887487711051308,0.003856174007689609
1765408106.581072,-10.014375588186995,-0.14706094046589108,0.27411408140935717,0.0076119954282680286,0.004424815339112955,0.0037633654245600888
1765408106.581272,-10.017733361712024,-0.10530592684770818,0.2657099670873994,0.00847706925402477,0.003908016550076618,0.003701302397657664
1765408106.581472,-10.02107567208517,-0.06439577408220899,0.2582322776840901,0.008934959381097323,0.0033385621805808205,0.0036752802489873463
1765408106.581672,-10.024491315254762,-0.025284515694805162,0.25196184762537893,0.008995880846209272,0.0027180848736216095,0.0036865617605986653
1765408106.581872,-10.028009904218447,0.011191768367719736,0.24712013147007,0.008682799181752065,0.0020487170282011006,0.00373263829600406
1765408106.582098,-10.031601457237272,0.04433501303655878,0.24385985392325643,0.008029870702277939,0.0013333828918147134,0.0038076331521771684
1765408106.582298,-10.035179492450208,0.07359878638144177,0.2422598315471997,0.007080518948345014,0.0005760176173111265,0.0039028206031075886
1765408106.582498,-10.038607254760395,0.09859587612078892,0.2423238972852343,0.005885243739032074,-0.00021830496028332313,0.004007238276948671
1765408106.582698,-10.041706752231194,0.11910020181864699,0.24398388211342792,0.004499263206207008,-0.0010433429480466274,0.004108370197714484
1765408106.582898,-10.044270277987774,0.13504342236390607,0.24710644492112172,0.002980090442540417,-0.0018917500005463579,0.0041928728920659995
1765408106.583052,-10.046073991741109,0.14650671955654695,0.25150325414085883,0.0013851444424668403,-0.002755215820849125,0.0042473122896783165
1765408106.583252,-10.04689298340689,0.15370831152346895,0.2569438100210857,-0.0002305092691803412,-0.0036246621393581312,0.004258880924263551
1765408106.583452,-10.046517079307982,0.1569871249986858,0.26317009867237184,-0.0018161989293248367,-0.0044904731977171404,0.004216073324318932
1765408106.583652,-10.044766488204099,0.15678276518310802,0.26991220206895317,-0.0033273874742652944,-0.005342743083042402,0.0041093041057604736
1765408106.583852,-10.04150627574687,0.15361176956164502,0.2769039454373892,-0.004727047557044266,-0.0061715253688106805,0.00393144909150682
1765408106.584033,-10.036658669219303,0.1480404673200994,0.2838976957854289,-0.005986621498916357,-0.006967073389799387,0.0036782758155423914
1765408106.584233,-10.030212293213742,0.1406555789550495,0.2906775046860641,-0.007086536982655145,-0.007720064104523835,0.0033487185712352736
1765408106.584433,-10.02222753824096,0.13203450809841116,0.29706985186434925,-0.008016273034173729,-0.008421805358322253,0.0029449583430330817
1765408106.584633,-10.012837402571229,0.12271757715633383,0.30295129891157074,-0.008773998593669598,-0.009064432988647135,0.0024722916260015255
1765408106.584833,-10.002243433218553,0.11318413292010972,0.308252459511634,-0.009365832344644652,-0.009641106327707783,0.001938802936633358
1765408106.585035,-9.990706823252433,0.10383381153276941,0.31295788516243656,-0.009804790256996094,-0.010146205325602313,0.001354879604843968
1765408106.585235,-9.978535181967333,0.09497367924237674,0.3171017853940892,-0.010109495356687745,-0.010575522041136902,0.0007326187512770663
1765408106.585435,-9.966065891332722,0.08681157698335651,0.320759923919672,-0.010302727299049259,-0.010926429847060791,8.517935770699046e-05
1765408106.585635,-9.95364726279258,0.07945564850261021,0.32403844975434937,-0.010409891106616305,-0.011198008883988801,-0.0005738674544509804
1765408106.585835,-9.941618885846864,0.072919580576812,0.32706072102361167,-0.010457484204954308,-0.011391105001831613,-0.0012311396248908563
1765408106.586023,-9.930292592838168,0.06713261297888441,0.3299533199550204,-0.010471635943564477,-0.01150830129321338,-0.0018739560380011946
1765408106.586223,-9.91993535333284,0.061953095430463234,0.33283245382803195,-0.010476783166266783,-0.011553788754925154,-0.002490734327606274
1765408106.586423,-9.910755205702037,0.05718436132084883,0.33579182446889677,-0.010494531294523898,-0.011533135880636446,-0.00307126701766197
1765408106.586623,-9.902891139334026,0.0525918576487369,0.33889289166714276,-0.010542736139552174,-0.011452971620233999,-0.0036068816856672575
1765408106.586823,-9.896407704013642,0.047920689704327425,0.34215828753689065,-0.0106348286467203,-0.011320607307606369,-0.004090498887307376
1765408106.587076,-9.891294924623491,0.042912925101313004,0.3455689221053974,-0.010779392293233644,-0.011143630013052512,-0.004516605938964973
1765408106.587276,-9.887473696831137,0.03732409855176192,0.3490650275856798,-0.010979990722539803,-0.01092950385562391,-0.004881167791839371
1765408106.587476,-9.88480628076028,0.03093836558132364,0.35255105911455276,-0.011235233015102283,-0.010685216606405146,-0.005181498900739332
1765408106.587676,-9.883110995862928,0.023581750866908745,0.3559040519836441,-0.01153905760528314,-0.010417003398279206,-0.005416119891357836
1765408106.587876,-9.882179882046598,0.015132998722874819,0.3589847485982146,-0.011881213349233604,-0.01013016715397914,-0.005584617887763088
1765408106.588068,-9.881797895364,0.005531641640845294,0.36165055886292913,-0.012247915555578531,-0.009829001671243695,-0.005687521215544431
1765408106.588268,-9.88176206535442,-0.005217002358817225,0.3637692009944834,-0.012622652740579275,-0.009516813417069536,-0.00572619151834625
1765408106.588468,-9.88189895309608,-0.0170401220902663,0.3652316968671176,-0.012987114057940547,-0.009196032005656031,-0.005702731628557755
1765408106.588668,-9.88207881253083,-0.0297991127841006,0.3659633500185793,-0.013322197994967528,-0.008868395228125964,-0.005619906560661243
1765408106.588868,-9.882225168599755,-0.04329460344531468,0.3659315167742902,-0.0136090532626591,-0.00853519187683033,-0.005481076354983631
1765408106.589064,-9.882319042090304,-0.05727444305879286,0.36514936079907734,-0.013830096938095887,-0.008197542713422257,-0.0052901396260302555
1765408106.589264,-9.882397605416255,-0.07144400295465121,0.3636752118280298,-0.013969954844266101,-0.007856694517096132,-0.005051483514865348
1765408106.589464,-9.882547544738141,-0.08547803271211371,0.3616075737562878,-0.014016274170119618,-0.007514296338644708,-0.004769932041228745
1765408106.589664,-9.882893870796845,-0.09903339285223574,0.35907630846921096,-0.013960366616091855,-0.0071726258567222125,-0.004450684690489731
1765408106.589864,-9.883585360874235,-0.11176220785170905,0.3562310164501014,-0.013797650397781804,-0.0068347385078345885,-0.0040992409686924
1765408106.590125,-9.884778092667503,-0.12332518848686734,0.35322794945871827,-0.01352787090864478,-0.006504520232701054,-0.0037213125294956718
1765408106.590375,-9.886618573443668,-0.1334049199111623,0.35021683462920844,-0.013155093691227525,-0.006186634677139336,-0.003322730451563398
1765408106.590625,-9.889227874412125,-0.14171876323278307,0.3473288728804243,-0.01268747967667122,-0.0058863680920317055,-0.0029093587931054554
1765408106.590875,-9.892688041353086,-0.14803079606307756,0.34466699375250814,-0.012136867722233498,-0.005609388863480382,-0.0024870229496257333
1765408106.59105,-9.897031819976975,-0.152162127503336,0.34229918498678796,-0.011518198019579942,-0.005361449664498068,-0.002061451715378265
1765408106.59125,-9.902236372299708,-0.15399906201195487,0.3402553799562523,-0.010848811238411743,-0.005148065313030419,-0.0016382210258511101
1765408106.59145,-9.908221268755655,-0.15349882587883962,0.33852805286650584,-0.010147657105666265,-0.004974197938403607,-0.0012226843950445224
1765408106.59165,-9.914850733878021,-0.15069268641194208,0.33707634099805933,-0.009434447122747991,-0.004843974701572307,-0.0008198845277158977
1765408106.59185,-9.921939896487261,-0.1456862103479363,0.33583314511656037,-0.008728789369833357,-0.004760455149175727,-0.00043445682742226753
1765408106.592044,-9.929264580579442,-0.13865625538521137,0.3347143238114516,-0.008049345644965759,-0.0047254583488327735,-7.054671934741887e-05
1765408106.592244,-9.936573948113482,-0.1298442658514923,0.33362892342213984,-0.0074130505127895045,-0.004739455618220024,0.0002682388039965909
1765408106.592444,-9.943605102728178,-0.11954568017158167,0.332489407335996,-0.006834429917030871,-0.004801532031342945,0.0005788369443862815
1765408106.592644,-9.950098622361867,-0.10809575655676013,0.3312210127521642,-0.006325056472374051,-0.004909417020878498,0.0008586980098713932
1765408106.592844,-9.955813928857424,-0.0958527304141607,0.3297695895359716,-0.005893177467784756,-0.00505958023781552,0.0011057332474050366
1765408106.593034,-9.960543432724759,-0.08317967856139463,0.32810747629903564,-0.0055435434396549155,-0.00524738391656124,0.0013182599061108556
1765408106.593234,-9.96412450946348,-0.07042661161874951,0.32623710114572085,-0.005277446581671866,-0.005467278910103267,0.0014949575267210863
1765408106.593434,-9.966448551354613,-0.05791419457096028,0.3241920924556289,-0.005092954975642884,-0.005713030113259607,0.0016348424183960572
1765408106.593634,-9.967466558857241,-0.04592027894864036,0.32203578933782095,-0.004985310090081711,-0.005977958771768467,0.0017372625585027226
1765408106.593834,-9.967190947122635,-0.03467020323127876,0.31985716732782526,-0.004947445322919089,-0.006255192026121323,0.0018019130943030396
1765408106.594033,-9.965693436221727,-0.02433149302845597,0.3177643640898617,-0.004970580891233755,-0.006537910128594993,0.001828869015366187
1765408106.594233,-9.963099112167237,-0.015013064601369324,0.31587620755966167,-0.0050448527690753016,-0.0068195777004636865,0.0018186255132697378
1765408106.594433,-9.959577042023065,-0.006768418278522981,0.31431238454059685,-0.005159938883592947,-0.007094140827980589,0.0017721338344242612
1765408106.594633,-9.955328196926562,0.0003980929579964181,0.3131831146956609,-0.005305651607484921,-0.007356172578294337,0.0016908254655392974
1765408106.594833,-9.950571795858076,0.006522863830578261,0.31257936846773055,-0.005472469424620774,-0.007600957770842528,0.0015766258538170393
1765408106.595046,-9.945531382278201,0.011673287893294552,0.31256467880832267,-0.005651983290196256,-0.007824519678108767,0.0014319620753338361
1765408106.595246,-9.940421874604242,0.015937350059315687,0.3131693746704772,-0.005837237034789911,-0.008023601244421459,0.0012597645885253812
1765408106.595446,-9.935438546846514,0.019413266214148482,0.31438769910244846,-0.0060229465543314735,-0.008195619289533202,0.0010634571859139772
1765408106.595646,-9.930748585914543,0.022199848245293738,0.3161779255312194,-0.006205588062470445,-0.00833861185672399,0.0008469277112427805
1765408106.595846,-9.926485644107588,0.024388109274530525,0.3184653129417453,-0.006383351437325847,-0.00845119538339928,0.0006144752468395528
1765408106.596035,-9.92274759173926,0.026054393324811156,0.3211475200968309,-0.00655596277557377,-0.008532540854489568,0.00037073313765596626
1765408106.596235,-9.919597379253664,0.027255164496683422,0.3241019223118199,-0.006724391553074025,-0.008582371477226179,0.00012056865544038788
1765408106.596435,-9.917066553058806,0.028023591025697712,0.3271941446764298,-0.00689046989058024,-0.008600981441131632,-0.00013103992359871246
1765408106.596635,-9.915160633183955,0.02836813222513239,0.3302870297091251,-0.007056460203537938,-0.008589272933109715,-0.0003791476804814118
1765408106.596835,-9.913865363585968,0.02827335871684485,0.33324921314369427,-0.007224610220401621,-0.008548803425267468,-0.0006190056772039237
1765408106.597035,-9.913152860105756,0.02770314778681524,0.3359625494985841,-0.0073967319354544085,-0.00848182883315413,-0.0008462343920999019
1765408106.597235,-9.91298690304486,0.026606191393846366,0.3383278353146073,-0.007573837292925202,-0.008391324310239024,-0.001056995117657629
1765408106.597435,-9.913326967275884,0.024923469961277995,0.34026857648292824,-0.007755860855213913,-0.008280964965955394,-0.0012481431206918011
1765408106.597635,-9.914130934178658,0.022597075902204573,0.3417328610169002,-0.007941497302043351,-0.008155052568961343,-0.0014173472086863495
1765408106.597835,-9.915356673523707,0.01957960659255632,0.34269364499946137,-0.00812817586011706,-0.008018379802316233,-0.0015631634856452543
1765408106.598054,-9.916962746918742,0.015843259357797373,0.3431478469471107,-0.00831218117338915,-0.007876031137082556,-0.0016850529398434587
1765408106.598254,-9.918908404389697,0.011387663234601922,0.34311455513648287,-0.00848891037576716,-0.00773312966786079,-0.0017833335934580741
1765408106.598454,-9.92115297844697,0.0062454239173579595,0.34263250005358836,-0.008653235380053737,-0.0075945510423587916,-0.0018590634865243163
1765408106.598654,-9.923654844574896,0.00048453482146901803,0.3417568709722635,-0.00879992680030756,-0.007464635950956159,-0.001913863458668762
1765408106.598854,-9.926370244198232,-0.005792706404021792,0.3405555664227565,-0.008924093957847384,-0.007346938201658452,-0.0019497030749387936
1765408106.599034,-9.92925230520283,-0.012454042361493589,0.3391049972912286,-0.009021598328036914,-0.007244043042673269,-0.001968680232329098
1765408106.599234,-9.932250531317658,-0.01934419815734668,0.3374856352951932,-0.009089401294272942,-0.007157479152709892,-0.001972821887738308
1765408106.599434,-9.935310956003734,-0.026293569887270756,0.335777647737579,-0.00912581317805674,-0.007087730637961687,-0.001963924668721932
1765408106.599634,-9.938377068611764,-0.03312777309451176,0.3340570387083583,-0.009130621434453059,-0.007034338262232398,-0.0019434462210448742
1765408106.599834,-9.941391455098008,-0.0396772095079888,0.33239257403491274,-0.009105089924010806,-0.006996068016652832,-0.0019124534539662525
1765408106.600125,-9.944297912170203,-0.04578590091413758,0.3308435082106642,-0.009051835443869793,-0.00697112287172948,-0.0018716308875941614
1765408106.600325,-9.947043728504068,-0.05131893350263455,0.3294579828019509,-0.008974600495319302,-0.00695737707576882,-0.00182134837349603
1765408106.600525,-9.949581871100074,-0.056167952155052506,0.32827195580270324,-0.008877951145614958,-0.006952615829232721,-0.0017617806932023025
1765408106.600725,-9.951872846766163,-0.06025431205509953,0.32730854623223044,-0.008766934544891029,-0.006954764432838785,-0.0016930627289167652
1765408106.600925,-9.953886020941273,-0.06352976993059702,0.32657776380135944,-0.008646731881557538,-0.006962091533670931,-0.0016154571000365678
1765408106.601082,-9.955600264222493,-0.0659748995998456,0.3260768028211275,-0.008522339640294863,-0.006973370984151035,-0.0015295103770718143
1765408106.601282,-9.957003937484686,-0.06759564664814972,0.3257912545156822,-0.008398305456976785,-0.006987985544278282,-0.0014361787699740593
1765408106.601482,-9.958094284993999,-0.06841858111723575,0.325697486701433,-0.00827853556542418,-0.0070059562125810776,-0.001336910526334495
1765408106.601682,-9.958876262893783,-0.06848548826591265,0.32576607853777334,-0.00816618008030385,-0.007027887536551257,-0.001233677499109165
1765408106.601882,-9.959360803430453,-0.0678479393103049,0.32596586485338486,-0.008063591546278793,-0.0070548311907781,-0.0011289530579612105
1765408106.602086,-9.959562552747222,-0.06656238598135328,0.32626803965775125,-0.007972343408110545,-0.007088082217604426,-0.0010256389181384114
1765408106.602286,-9.959497160873267,-0.0646861584613467,0.3266498436171237,-0.007893290932315469,-0.007128930032554688,-0.0009269483937258596
1765408106.602486,-9.959178213079422,-0.06227458752613869,0.3270974706911425,-0.007826658015046124,-0.007178388822162964,-0.0008362554016813418
1765408106.602686,-9.958613908297956,-0.059379372173772225,0.3276079155606136,-0.007772135810543586,-0.007236931496407993,-0.0007569169082910008
1765408106.602886,-9.957803637845782,-0.05604826273411396,0.32818958269082504,-0.007728979977518204,-0.007304250247702513,-0.0006920746042365142
1765408106.603062,-9.95673467938742,-0.05232605761674838,0.32886160909941237,-0.0076960943064606595,-0.00737906559387032,-0.0006444425310755202
1765408106.603262,-9.95537927684808,-0.0482567740391254,0.32965195380831486,-0.007672094022685528,-0.007459003579889081,-0.0006160911078155256
1765408106.603462,-9.953692421395676,-0.0438866921828466,0.33059432558273344,-0.007655353037855843,-0.007540555873404971,-0.0006082423599040395
1765408106.603662,-9.95161067547404,-0.039267872486882516,0.3317240184310288,-0.00764405091343088,-0.007619128242940992,-0.0006210937553856196
1765408106.603862,-9.94905237828134,-0.03446173907645579,0.33307279757194475,-0.007636239953826482,-0.007689169792135508,-0.0006536872852356479
1765408106.604123,-9.945919533909441,-0.02954236845800663,0.3346631245385132,-0.007629946762551279,-0.007744362328491544,-0.0007038368755749257
1765408106.604323,-9.942101629699035,-0.024599162240607732,0.33650216294719726,-0.007623308999750342,-0.007777842575306377,-0.0007681230862845078
1765408106.604523,-9.937481573767641,-0.019738585758956567,0.3385761411123009,-0.007614734627317595,-0.007782433512798656,-0.0008419600012574319
1765408106.604723,-9.931943839607857,-0.015084639140819993,0.34084575390792116,-0.007603063234877762,-0.007750872574669075,-0.0009197345143154007
1765408106.604923,-9.9253846856144,-0.010777756495759216,0.34324329344216137,-0.007587707850323214,-0.007676036442033858,-0.0009950134994239788
1765408106.605089,-9.917723957498861,-0.006971957721490871,0.34567203059885127,-0.007568759095453717,-0.00755116896013275,-0.0010608110395969378
1765408106.605289,-9.90891758298722,-0.0038302681665596423,0.3480080712597806,-0.0075470396243387545,-0.007370119649914876,-0.0011099062799109325
1765408106.605489,-9.898969566155618,-0.0015185594530216597,0.35010462641698403,-0.007524103278676361,-0.007127596980438953,-0.0011352017447927745
1765408106.605689,-9.887942123502821,-0.0001980119733299682,0.35179845363057566,-0.007502178044364381,-0.00681943405187266,-0.0011301101213751507
1765408106.605889,-9.875962561631596,-1.645285025270636e-05,0.3529181300082748,-0.007484054324024703,-0.006442857242796403,-0.0010889531401866294
1765408106.606091,-9.86322562464345,-0.0010989515794113981,0.3532937733777779,-0.007472922361057202,-0.005996744334481427,-0.0010073516180139777
1765408106.606291,-9.849990385549424,-0.0035381877966112474,0.35276781769610627,-0.007472166341156771,-0.005481856935908679,-0.0008825846218242701
1765408106.606491,-9.836571248457343,-0.007385157721299533,0.35120640208256304,-0.007485126440622068,-0.004901028059015502,-0.000713897397211508
1765408106.606691,-9.823323185824247,-0.012640782838906097,0.348510811801931,-0.007514842439400365,-0.004259278114070379,-0.0005027381993015453
1765408106.606891,-9.81062203675821,-0.01924898185423318,0.3446283077586581,-0.0075637942763914345,-0.003563825920425533,-0.0002529019006228415
1765408106.60808,-9.798841645482463,-0.02709175687237066,0.33956169318201773,-0.0076336569505538725,-0.002823961147496997,2.9444356018830422e-05
1765408106.60828,-9.788330656110533,-0.03598682642426293,0.3333770516446495,-0.007725088634863851,-0.002050753827884837,0.0003358777096792267
1765408106.60848,-9.779392373929898,-0.0456884262161671,0.32620913457387357,-0.007837571207554595,-0.0012565958113470975,0.0006559971018151649
1765408106.60868,-9.772270622851291,-0.05589219535461895,0.31826364187366263,-0.007969321841947631,-0.0004545971515140729,0.0009778691473588026
1765408106.60888,-9.76714279346451,-0.06624534059824677,0.30981486285885995,-0.008117291344948525,0.0003421067785535789,0.0012886310292359352
1765408106.608174,-9.764119070833303,-0.07636296437749568,0.3011963243861235,-0.008277256730964466,0.0011210542850157608,0.0015752139222575709
1765408106.608424,-9.763245534117308,-0.08585020523018448,0.29278269108398647,-0.008444002714017414,0.001871073322950271,0.0018251270021856386
1765408106.608674,-9.764509092364179,-0.09432802885775718,0.28496382616484184,-0.00861157622657449,0.002582750664356657,0.00202723157203041
1765408106.608924,-9.76784329759232,-0.10145909695551314,0.27811495077338255,-0.008773596635904426,0.003248733393296396,0.0021724408512986317
1765408106.609096,-9.773134703871493,-0.10697011008996091,0.27256777333309806,-0.00892360831059908,0.0038638700162160027,0.002254297925629204
1765408106.609296,-9.780229276833856,-0.11066851704436786,0.2685859261007876,-0.009055458419601776,0.004425197361757249,0.0022694018913353253
1765408106.609496,-9.788938155832419,-0.11245336492675082,0.26634602273887376,-0.009163667522410563,0.004931773453494504,0.002217658010919604
1765408106.609696,-9.799042593498259,-0.11232075977993448,0.2659250141916847,-0.009243749244858962,0.00538437709166596,0.0021023199921916084
1765408106.609896,-9.810298914426056,-0.11036365688732516,0.2672950872046459,-0.009292443616139857,0.005785133201905738,0.0019297926635062704
1765408106.61008,-9.82244490214107,-0.10676497161740502,0.2703275930604401,-0.009307851234448833,0.006137137261395521,0.0017091927371122768
1765408106.61028,-9.835208598087789,-0.10178369515454083,0.27480655405778387,-0.009289475907807127,0.006444124288863032,0.0014517099118641814
1765408106.61048,-9.848319401881792,-0.09573541814941516,0.2804505599850638,-0.00923819335148366,0.00671018750289383,0.0011698357955289642
1765408106.61068,-9.861520272017556,-0.08896980883262295,0.2869400764575391,-0.009156163472632733,0.006939533064429467,0.0008765263503974092
1765408106.61088,-9.874579210026948,-0.08184733666419866,0.29394594311534983,-0.009046696997517147,0.007136260546496764,0.0005843581547774094
1765408106.611065,-9.887298247537707,-0.07471662436183939,0.3011547099446611,-0.008914080153193669,0.007304166667211346,0.00030474534826898037
1765408106.611265,-9.8995187865039,-0.06789343270562215,0.3082876570617551,-0.00876336103998479,0.007446575398147059,4.729132033501042e-05
1765408106.611465,-9.911123052462319,-0.061642673858970445,0.3151122675898738,-0.008600107569073555,0.007566200689566229,-0.00018066193755638136
1765408106.611665,-9.922032180605816,-0.05616522512691067,0.3214465797622216,-0.008430151365146361,0.007665045882388108,-0.00037425749615838973
1765408106.611865,-9.932201850941617,-0.05159083909961396,0.32715777328268075,-0.00825933135503378,0.007744337883680563,-0.0005311337340377015
1765408106.612125,-9.941616494395019,-0.0479771429993532,0.3321567456749602,-0.00809324961448789,0.007804492849455219,-0.0006512654145011765
1765408106.612325,-9.950283021739924,-0.0453134995540547,0.33639050464126513,-0.0079370536442019,0.007845115790809307,-0.0007366831050433476
1765408106.612525,-9.9582248331483,-0.04352825690953087,0.3398339494659769,-0.007795260008575192,0.007865040342624734,-0.000791100828277284
1765408106.612725,-9.96547661122319,-0.04249861278997989,0.3424822017450645,-0.0076716298095198514,0.00786241055771671,-0.0008194685917415714
1765408106.612925,-9.972080122224886,-0.04206305631652133,0.34434429360458446,-0.00756909726145778,0.007834798716150445,-0.0008274760125658994
1765408106.61315,-9.97808093205234,-0.042036266880635303,0.3454386556924638,-0.007489743096570803,0.007779348921275187,-0.0008210577783206971
1765408106.61335,-9.983525669100809,-0.042225420718785746,0.3457903479191797,-0.007434799540799402,0.007692937488750743,-0.0008059651576491662
1765408106.61355,-9.98845944605629,-0.042445895020154424,0.34542958939885476,-0.00740467569000678,0.0075723457784456745,-0.0007874513771289894
1765408106.61375,-9.992923348187876,-0.04253428012752602,0.3443911687018059,-0.007398999553941495,0.0074144452696820445,-0.0007700795964794235
1765408106.61395,-9.996952256409566,-0.042357614911459326,0.34271456568877595,-0.007416680236867496,0.00721639401637002,-0.0007576280305456031
1765408106.614121,-10.000573393161261,-0.04181913072977423,0.34044465828535736,-0.007455994953470068,0.006975837435831692,-0.0007530591027050065
1765408106.614321,-10.003805831423305,-0.04086147506242999,0.33763269513032884,-0.007514699457649243,0.006691100043868307,-0.0007585345657920246
1765408106.614521,-10.006661010184036,-0.03946795841481033,0.3343371663923117,-0.007590151620265806,0.00636135530567233,-0.0007754739995933937
1765408106.614721,-10.009144196177516,-0.03766148029511898,0.33062444456499984,-0.0076794335969088455,0.005986767282927423,-0.0008046515604735921
1765408106.614921,-10.011256753296728,-0.0355005345305461,0.3265692666150505,-0.007779461407986826,0.005568599349798509,-0.0008463073935657115
1765408106.615049,-10.01299895233645,-0.033072432906928684,0.32225501617130947,-0.007887077970897372,0.005109276383167301,-0.0009002366614571013
1765408106.615249,-10.014372943032892,-0.0304848986037582,0.31777354169539995,-0.00799913117959312,0.004612379106448975,-0.0009658298975525577
1765408106.615449,-10.015385478798144,-0.027857514332854053,0.31322422977440656,-0.008112541092296347,0.00408255647016947,-0.001042069569903022
1765408106.615649,-10.016049966231604,-0.025313946759215798,0.3087121822492934,-0.008224360457705814,0.0035253601244387037,-0.001127515112695988
1765408106.615849,-10.016387375645113,-0.02297498620961584,0.30434539058100485,-0.008331829924018945,0.0029470196641966356,-0.0012203114195816435
1765408106.616055,-10.016425628499922,-0.020951959357825622,0.30023083388594457,-0.008432423586511695,0.0023541826277525416,-0.0013182346006743568
1765408106.616255,-10.016197398020344,-0.01934027276342534,0.2964697072263329,-0.00852387690775223,0.0017536434078201208,-0.0014187626163748958
1765408106.616455,-10.015736723973953,-0.018213453565277267,0.29315244812428076,-0.00860419276148974,0.0011520835940364224,-0.001519147003135935
1765408106.616655,-10.015075193837328,-0.017618536407299303,0.2903544589066103,-0.008671631202506979,0.0005558423047586324,-0.0016164706853450841
1765408106.616855,-10.014238497060036,-0.01757362564742124,0.2881331803272051,-0.008724697763919018,-2.927115290919251e-05,-0.001707695648178387
1765408106.617036,-10.013243929520808,-0.018067947843375478,0.28652665361002205,-0.008762147777790098,-0.0005981163957742385,-0.0017897185131580194
1765408106.617236,-10.012099057753773,-0.019064040975589867,0.2855532561406181,-0.008783018959093664,-0.0011463118291148862,-0.0018594534974520744
1765408106.617436,-10.010801434802579,-0.020501342988344304,0.2852121090437008,-0.008786693643842275,-0.0016702776611679684,-0.0019139509222885797
1765408106.617636,-10.009339149877832,-0.02230057240539094,0.28548378678668457,-0.008772980000344122,-0.002167237606952443,-0.0019505417124405743
1765408106.617836,-10.007692095847347,-0.024368738651370028,0.28633130979006316,-0.008742192571415348,-0.0026351874618629613,-0.001966984354770818
1765408106.618087,-10.005833942028042,-0.02660489228453138,0.28770167537392927,-0.008695209922666673,-0.003072839222951166,-0.0019615894291358823
1765408106.618287,-10.003734692161439,-0.0289065159754774,0.2895281191100923,-0.008633492498688987,-0.003479548322414673,-0.001933308454676892
1765408106.618487,-10.001363456813605,-0.03117594685977781,0.29173299139554987,-0.008559054746865587,-0.003855231373594961,-0.0018817885377824402
1765408106.618687,-9.998690963550965,-0.03332589592442154,0.2942309412879531,-0.008474396328545875,-0.004200281836062114,-0.0018074005176185106
1765408106.618887,-9.995691519294935,-0.03528331982226732,0.2969322063936407,-0.008382403197304805,-0.0045154873914846115,-0.0017112438396545706
1765408106.619165,-9.99234447663212,-0.03699150749572246,0.29974602747817364,-0.008286230060604326,-0.00480194633573253,-0.0015951248218540302
1765408106.619365,-9.98863548441962,-0.03841084909599713,0.302584256608357,-0.008189173171967724,-0.005060977307669925,-0.0014615053455178503
1765408106.619565,-9.984557798495976,-0.039518949919602156,0.3053650487659154,-0.00809453896102676,-0.005294020377100418,-0.0013134265733640846
1765408106.619765,-9.980113726951059,-0.040310438185879746,0.3080162759321822,-0.00800551199549839,-0.005502533397529643,-0.001154419255104596
1765408106.619965,-9.97531601986951,-0.04079626501006186,0.31047817968476615,-0.007925025904757391,-0.005687890296905908,-0.0009884102225457703
1765408106.621104,-9.97018884785172,-0.04100196649659759,0.31270489828758824,-0.007855642120217195,-0.0058512881235203455,-0.0008196231508385457
1765408106.624058,-9.96476802774188,-0.04096456985639683,0.3146647983826867,-0.00779944273387573,-0.005993670192089811,-0.0006524605102690685
1765408106.627103,-9.959100299692697,-0.040728459981307655,0.31633979060385675,-0.007757945520105228,-0.006115673614353772,-0.0004913559595355286
1765408106.629074,-9.953241649062337,-0.04034105448827581,0.31772387024667237,-0.007732050376373375,-0.0062176087559623295,-0.00034060410241495216
1765408106.631115,-9.94725483954957,-0.039849098384992884,0.31882106348253275,-0.00772202465800892,-0.006299474905683685,-0.00020419293552532261
1765408106.634194,-9.941206428425403,-0.03929584644208896,0.31964291203234463,-0.0077275293402966376,-0.006361011472794223,-8.566625741303088e-05
1765408106.636095,-9.935163551685976,-0.03871887383927198,0.3202056492308346,-0.007747682014559767,-0.006401778719330669,1.1973248083507029e-05
1765408106.63907,-9.929190758964735,-0.03814820032883112,0.3205273026359345,-0.007781149985895682,-0.0064212582824736885,8.633069639501778e-05
1765408106.64214,-9.923347220076217,-0.03760479667387604,0.32062508657050537,-0.00782626606526411,-0.006418962592750159,0.00013567548369168927
1765408106.64264,-9.91768467910153,-0.03709991182633707,0.3205135478332126,-0.00788115724062383,-0.006394541673399246,0.00015899958711838866
1765408106.646088,-9.912246462186232,-0.03663560612043342,0.3202038581984668,-0.007943871766311774,-0.006347873492493364,0.0001560718898631089
1765408106.649083,-9.9070675945881,-0.03620641536173127,0.31970434935268943,-0.008012487835606968,-0.0062791227891433364,0.00012747032558770415
1765408106.652079,-9.90217578301383,-0.03580159369829867,0.31902200851333606,-0.008085191193264073,-0.006188757931430588,7.457609861392575e-05
1765408106.654101,-9.89759286368659,-0.03540728782150313,0.318164439469356,-0.008160317963353892,-0.006077526070813222,-4.7247202770268783e-07
1765408106.657095,-9.893336359064175,-0.03500834388929599,0.31714184467303524,-0.008236366746613134,-0.005946399261632367,-9.485704674692491e-05
1765408106.657595,-9.889420931487258,-0.03458990473667718,0.3159687748540155,-0.008311988304310831,-0.005796513150754515,-0.000205176601249368
1765408106.662039,-9.885859655523083,-0.03413908602630659,0.31466552322841873,-0.00838596433759828,-0.005629121351962798,-0.0003275625640127038
1765408106.664039,-9.882665092191406,-0.03364672737128653,0.3132590414825169,-0.008457190072983924,-0.005445582258026174,-0.00045781688655484884
1765408106.665022,-9.879850133767809,-0.033108818876117975,0.3117832210655975,-0.008524675318867352,-0.005247384884352149,-0.0005915759996888458
1765408106.670024,-9.877428545945365,-0.03252709703366837,0.31027842601463834,-0.008587572621387077,-0.005036211103274843,-0.0007244929934992526
1765408106.671092,-9.875415134493142,-0.03190858925718015,0.3087902801735999,-0.008645231473304496,-0.004814024617561757,-0.0008524203930354413
1765408106.674036,-9.873825530288714,-0.03126432665225337,0.3073678276302807,-0.008697269022041402,-0.0045831710934870476,-0.0009715743085572145
1765408106.676063,-9.872675673482627,-0.030607688473517296,0.30606124768928017,-0.008743642867130568,-0.0043464689776998135,-0.001078668608639143
1765408106.679031,-9.871981123146501,-0.02995274245409977,0.30491932010119416,-0.00878471060452397,-0.004107269132163782,-0.001171019079112892
1765408106.681127,-9.871756312533787,-0.029312690952160225,0.3039868507620008,-0.008821263703266842,-0.0038694657718258943,-0.0012466233703271347
1765408106.684062,-9.87201385012623,-0.02869841289418154,0.30330230690556875,-0.008854528896951949,-0.0036374490376262646,-0.0013042191916044171
1765408106.687053,-9.872763956281265,-0.02811718543805731,0.30289591423219714,-0.008886135726201491,-0.003415995721482628,-0.0013433153540189085
1765408106.689064,-9.874014104444669,-0.0275718309967985,0.30278837123305424,-0.008918051817630218,-0.0032100979078805475,-0.0013641851294552787
1765408106.692098,-9.875768893081284,-0.02706058082451541,0.302990196732776,-0.008952488145858186,-0.0030247333217531037,-0.001367812717357803
1765408106.694045,-9.87803012793685,-0.0265777909386202,0.30350165747402147,-0.008991777656730334,-0.002864588924105757,-0.0013557908080306506
1765408106.697106,-9.88079702911988,-0.02611535963079464,0.3043132081906859,-0.009038234397764413,-0.002733760230909841,-0.0013301767030594975
1765408106.699066,-9.884066357495158,-0.025664471636755223,0.30540631222413733,-0.00909400461934128,-0.002635459643673584,-0.0012933217959747243
1765408106.7011,-9.887832138461913,-0.02521728651079521,0.30675440186466235,-0.009160921897370068,-0.002571772150835792,-0.0012476926225952782
1765408106.704072,-9.89208469019542,-0.024768358680500868,0.3083237174041404,-0.009240375082180754,-0.0025434916221444394,-0.0011957026876148638
1765408106.706165,-9.896808889557597,-0.02431574153680905,0.31007391398391404,-0.00933319522583377,-0.002550056675452568,-0.0011395742155528535
1765408106.707106,-9.901981925334836,-0.02386175817963496,0.31195857911586555,-0.009439567853512711,-0.0025895873574139903,-0.0010812466349909827
1765408106.712076,-9.907571040343853,-0.023413350812491622,0.3139260124611994,-0.009558977507876282,-0.002659009178543152,-0.0010223422733607105
1765408106.714086,-9.913531840145898,-0.022981877371985822,0.31592064915351614,-0.009690189647772175,-0.002754244411674049,-0.0009641898181462403
1765408106.716037,-9.91980759875986,-0.022582288090879244,0.3178853164188315,-0.009831271362705665,-0.0028704526912149407,-0.0009078949547552775
1765408106.719044,-9.926329674754326,-0.02223174937395368,0.31976419844081594,-0.009979650092762677,-0.0030023091048013793,-0.0008544383032727049
1765408106.72205,-9.933018824304952,-0.021947896501090417,0.3215061213955941,-0.010132210856595044,-0.0031443112946838076,-0.0008047760766932194
1765408106.724024,-9.939787019280944,-0.021746953123945943,0.32306766676018184,-0.010285435116483636,-0.003291103460310492,-0.0007599201681323228
1765408106.727016,-9.94653939915551,-0.02164197650960946,0.32441566876712524,-0.010435582538727046,-0.003437796380525357,-0.0007209812211518418
1765408106.729026,-9.953176153860959,-0.021641472500534047,0.3255287960632392,-0.010578907886857848,-0.00358025565947265,-0.0006891684189582816
1765408106.731106,-9.95959434538938,-0.02174853641101363,0.3263980972624118,-0.010711893293369482,-0.0037153315916619812,-0.0006657498295821588
1765408106.734026,-9.965689813555283,-0.021960518644460202,0.32702654726290437,-0.01083146822439755,-0.003841013031216599,-0.0006519839116611787
1765408106.737048,-9.971359312572066,-0.022269067394453935,0.32742773523823426,-0.010935189967872124,-0.003956499577138976,-0.0006490345090619069
1765408106.739023,-9.97650292092512,-0.022660368513094945,0.32762387619330013,-0.011021365940290384,-0.004062197623618074,-0.0006578793215162242
1765408106.744037,-9.98102665069252,-0.023115515429955127,0.3276433089229819,-0.011089111356888205,-0.004159654339801013,-0.0006792189735478589
1765408106.744537,-9.984845135148383,-0.02361110986452657,0.327517624842094,-0.01113834754573471,-0.004251447072984208,-0.0007133936364198848
1765408106.746381,-9.987884305784492,-0.02412027046780701,0.3272786417644629,-0.011169755214546115,-0.004341043328204938,-0.0007603165161866111
1765408106.749068,-9.990084016249877,-0.02461413417453849,0.32695556001324655,-0.011184702262673676,-0.004432640782693038,-0.0008194351694204244
1765408106.752007,-9.991400552300403,-0.025063729251769373,0.3265726497529287,-0.011185165787212058,-0.004530991075372072,-0.0008897290225445723
1765408106.752507,-9.991808876031897,-0.02544193308714617,0.32614764210123004,-0.011173661037288842,-0.004641207988377254,-0.0009697436916312701
1765408106.756023,-9.991304367738236,-0.02572523924880961,0.3256907735572444,-0.011153176984682392,-0.004768560919715699,-0.001057653091213954
1765408106.759005,-9.989903834572072,-0.025895233497485286,0.32520434661529507,-0.011127104969367708,-0.004918255569045846,-0.0011513354672148908
1765408106.761103,-9.987645658691246,-0.02593984522949794,0.3246827248953794,-0.011099141890811718,-0.005095201873143534,-0.0012484541473328722
1765408106.764007,-9.984589096069781,-0.025854439017820856,0.3241127539196799,-0.011073155212413118,-0.005303765451137683,-0.0013465451951523474
1765408106.767037,-9.9808128526854,-0.02564265213865066,0.3234746321793046,-0.0110530082447129,-0.005547498155449093,-0.0014431224165742736
1765408106.769006,-9.976413121964578,-0.025316734971232355,0.3227432791617331,-0.011042354676745912,-0.0058288481994769005,-0.0015358067489597395
1765408106.77002,-9.971501215477005,-0.024897177025546325,0.3218902230643465,-0.011044419693493717,-0.0061488594037492255,-0.0016224731137389644
1765408106.774016,-9.966200749092442,-0.0244116066029895,0.32088589762757325,-0.011061791293807292,-0.006506881160309253,-0.0017013936438932194
1765408106.777045,-9.960644194611902,-0.02389316525341863,0.3197020861759888,-0.011096247574240412,-0.0069003234164234884,-0.0017713518127244728
1765408106.779016,-9.95496864276563,-0.023378603168029623,0.318314250773752,-0.01114864218043099,-0.007324497768547712,-0.0018317080241333549
1765408106.781003,-9.94931082766249,-0.022906215662702033,0.3167036191796194,-0.011218862646913824,-0.0077725813087293595,-0.001882406655571051
1765408106.784022,-9.943801672053588,-0.0225136013632282,0.31485901540571715,-0.011305868186748235,-0.008235727107595747,-0.0019239224115707436
1765408106.787005,-9.93856075735167,-0.02223523270947615,0.3127784720261317,-0.011407805940229363,-0.008703331456894666,-0.001957151141736736
1765408106.789003,-9.933691228797036,-0.022100012603089653,0.3104707006888249,-0.011522196790126385,-0.009163455663152353,-0.001983259193209864
1765408106.792012,-9.929275676303886,-0.022129185724783364,0.3079564633870576,-0.011646173187870763,-0.009603385576820478,-0.0020035153742561005
1765408106.793992,-9.92537342039565,-0.02233496810614036,0.30526970936742154,-0.011776744317602615,-0.010010293344061439,-0.002019136890726179
1765408106.796024,-9.922019426841063,-0.022720030206590677,0.30245812371654435,-0.0119110612466342,-0.010371949577924606,-0.0020311792030087462
1765408106.799025,-9.91922487731669,-0.023277713268361123,0.29958264935893986,-0.012046656187767625,-0.010677429198772667,-0.002040487113222873
1765408106.801009,-9.916979259812738,-0.023992762160229945,0.2967156358181219,-0.012181632820592439,-0.010917759937241651,-0.002047706606160158
1765408106.802018,-9.915253674480201,-0.02484243341660691,0.29393745641789826,-0.012314787496027081,-0.011086469817922944,-0.002053343534979026
1765408106.807044,-9.914004901074643,-0.025797976432550603,0.29133166270627886,-0.01244564584149938,-0.011179994959935772,-0.0020578499312118794
1765408106.809077,-9.913179733955914,-0.026826547718948546,0.2889790119154941,-0.012574408231961012,-0.01119791585142949,-0.0020617194023134994
1765408106.812025,-9.912719192278999,-0.027893506878881823,0.28695099296260396,-0.012701810596205499,-0.011143000639534766,-0.0020655769081402006
1765408106.812525,-9.912562370824412,-0.028964815704414164,0.2853037057022052,-0.012828920157889669,-0.011021046159877935,-0.0020702524960775153
1765408106.816049,-9.912649829687009,-0.03000911031302464,0.28407304000550343,-0.012956894227221086,-0.01084052356168646,-0.0020768304149055075
1765408106.819066,-9.91292655143099,-0.030999074273935518,0.2832720534409643,-0.013086732740979464,-0.010612057749319328,-0.0020866641308960963
1765408106.821066,-9.913344627056482,-0.03191197571710355,0.2828912398819452,-0.013219053743673307,-0.01034779243499071,-0.0021013471949373522
1765408106.824048,-9.913865849516618,-0.032729524444633895,0.28290191646707197,-0.013353916674491886,-0.010060706640434763,-0.002122632481658444
1765408106.826108,-9.914464222525805,-0.03343742551607468,0.2832622435140848,-0.013490711453995215,-0.009763951721493584,-0.002152298957845788
1765408106.829081,-9.915128148079946,-0.034025035237509535,0.2839246955688177,-0.013628123350898391,-0.00947027114768416,-0.002191975402684381
1765408106.831092,-9.915861881193184,-0.034485341019451214,0.28484342836514454,-0.013764175777270656,-0.00919154730224381,-0.0022429413591167654
1765408106.834062,-9.91668577039949,-0.03481521723879121,0.2859800635747228,-0.013896345323134099,-0.00893849292868958,-0.002305932184197609
1765408106.837023,-9.91763487949972,-0.03501572947628244,0.2873069189240614,-0.014021736227574622,-0.0087204788336804,-0.002380975089900917
1765408106.839045,-9.918755866282982,-0.035092244568751346,0.28880746316204325,-0.014137297493906603,-0.008545472894424548,-0.002467277662467182
1765408106.842111,-9.92010236879914,-0.035054216664422905,0.290474402984999,-0.014240065631914179,-0.008420059611014776,-0.0025631815597745924
1765408106.84409,-9.921729405418192,-0.034914671249564565,0.292306055247895,-0.014327417110974891,-0.008349510465884353,-0.0026661849409328462
1765408106.847074,-9.923687389365861,-0.03468949735228504,0.2943016761562928,-0.014397314175278189,-0.008337879301575833,-0.002773031574615816
1765408106.849071,-9.926016408287293,-0.034396614936210025,0.2964565078075539,-0.014448525004937549,-0.00838810091728612,-0.00287986319784136
1765408106.852048,-9.928741436866412,-0.03405494958898376,0.2987574571832928,-0.014480796373167421,-0.008502073692642007,-0.0029824298569788724
1765408106.854107,-9.93186904339977,-0.033683068249911775,0.30118031756186026,-0.014494957336600712,-0.008680710668691511,-0.003076345690884036
1765408106.856058,-9.935385941458614,-0.033297440417791625,0.3036892064230408,-0.014492938298607816,-0.00892395223054548,-0.003157366823441157
1765408106.85899,-9.93925952129993,-0.03291056110258062,0.3062385104240359,-0.014477700387209252,-0.009230746300520048,-0.003221661688889686
1765408106.862017,-9.943440229145683,-0.03252941068786054,0.30877708470039683,-0.014453081635135466,-0.009599011753199698,-0.0032660475160673054
1765408106.863996,-9.947865266230604,-0.03215472953030322,0.311253751950967,-0.01442357398796119,-0.010025602215699859,-0.0032881771215325663
1765408106.864987,-9.952462736047368,-0.03178130926779722,0.31362262506944655,-0.014394047836049714,-0.010506281724184649,-0.003286670626911719
1765408106.869019,-9.957155419679694,-0.03139909819313477,0.31584692762045086,-0.014369442855762655,-0.011035715482411806,-0.003261192401226885
1765408106.872015,-9.961863843334294,-0.03099462148433505,0.317900821697977,-0.014354448173817144,-0.011607472355987986,-0.003212474364303234
1765408106.873986,-9.96650883395828,-0.030552211902592954,0.3197696614937917,-0.014353198626397227,-0.012214034763606831,-0.003142286241670769
1765408106.877013,-9.971013962634935,-0.03005484439159861,0.32144948118810013,-0.014369014218567672,-0.012846819483336176,-0.0030533551609240343
1765408106.877513,-9.975308144074393,-0.029484765121675166,0.32294636465713455,-0.014404206538016738,-0.01349622730046362,-0.0029492418698160608
1765408106.882008,-9.979328411566575,-0.028824303717506418,0.32427595691321925,-0.014459968480958972,-0.01415175094608482,-0.002834186207097442
1765408106.882508,-9.983022659998689,-0.02805711299195831,0.3254630119335892,-0.014536352286550733,-0.014802169964564172,-0.0027129364413472057
1765408106.886109,-9.986351973697609,-0.02716974323459654,0.32654063756553775,-0.014632329167363034,-0.015435847776075212,-0.00259057296346654
1765408106.889056,-9.98929207986204,-0.02615322340465532,0.3275488706162447,-0.014745916270361098,-0.01604112820354443,-0.002472327536953922
1765408106.892017,-9.99183355635865,-0.025004344929645022,0.3285323782999326,-0.014874354024534292,-0.016606812827066764,-0.0023633915001248147
1765408106.894002,-9.993980637477627,-0.02372652672149128,0.32953728309466296,-0.015014317220694268,-0.01712268850135873,-0.0022687080624821604
1765408106.897028,-9.995748659588205,-0.022330272594205277,0.3306071997043935,-0.015162145348751498,-0.017580066473801306,-0.002192755756649933
1765408106.899002,-9.9971602683283,-0.020833198275772968,0.3317785656016938,-0.015314080871511973,-0.017972289913291518,-0.002139342863515244
1765408106.901979,-9.998240544246014,-0.019259464353096986,0.3330754113323952,-0.015466505770756233,-0.018295162637980384,-0.0021114352002069023
1765408106.903994,-9.99901139024547,-0.017638388201148023,0.3345040383953145,-0.015616165158921426,-0.018547249584351878,-0.0021110292743118254
1765408106.90709,-9.999485924948017,-0.016002197644377793,0.33604859455662506,-0.01576036376195685,-0.018730007208320926,-0.00213906707449691
1765408106.909028,-9.999663998107279,-0.014383322919634145,0.33766885350241865,-0.0158971198215421,-0.018847724796936118,-0.0021953794030790956
1765408106.910049,-9.999529927795459,-0.012812031457241045,0.3393012005223674,-0.01602526248617376,-0.01890728779037595,-0.0022786486838079077
1765408106.913037,-9.999053057262005,-0.011315238967980751,0.3408629604281853,-0.016144462092106834,-0.018917796562857688,-0.002386397169026091
1765408106.91612,-9.99819101786628,-0.009916861020911497,0.342259308885741,-0.016255187542981893,-0.018890080616781237,-0.0025150222698940477
1765408106.91908,-9.99689504217947,-0.00863935698313912,0.3433915519569185,-0.016358592529866323,-0.018836143088897344,-0.0026599056595331314
1765408106.921102,-9.995116467965609,-0.007505618657635485,0.344165574332339,-0.016456343174036353,-0.018768563377276202,-0.0028156113121059587
1765408106.924053,-9.992813611123626,-0.006540377570381555,0.34449949748604475,-0.01655041086948525,-0.018699881902683246,-0.00297616569456452
1765408106.926071,-9.989958272272712,-0.005770759859374342,0.3443298623415084,-0.016642860164668646,-0.018641989557467997,-0.0031353954154129315
1765408106.928998,-9.986541193167092,-0.005226094953903244,0.3436159233753684,-0.01673565927445036,-0.018605543476248543,-0.0032872943595100273
1765408106.931047,-9.982575861419523,-0.004937202068375323,0.3423419298557464,-0.01683053162369328,-0.018599431851395964,-0.003426399709001556
1765408106.934046,-9.978100267556243,-0.004935110300482878,0.340517556690478,-0.016928854330031527,-0.0186303148221897,-0.003548159901289023
1765408106.936035,-9.973176533754817,-0.005248864652004362,0.33817688834033216,-0.01703159812655993,-0.018702272826558577,-0.003649268464278539
1765408106.939934,-9.96788863423948,-0.005902150959889052,0.33537649186415897,-0.017139297463961256,-0.018816594364826866,-0.0037279219719468432
1765408106.942022,-9.96233858827065,-0.006909010936619464,0.33219304446700887,-0.017252040934953528,-0.018971732045696584,-0.003783953901045762
1765408106.94402,-9.956641512437491,-0.008269519189636238,0.3287206727653328,-0.01736947731809142,-0.01916344974589942,-0.0038188100586155427
1765408106.946992,-9.950919863104103,-0.009966461503242478,0.32506778882430293,-0.017490836897361306,-0.019385171147442103,-0.003835361815646399
1765408106.949028,-9.945297187049253,-0.011963683974823282,0.32135307750369885,-0.017614970070274315,-0.019628517244056537,-0.0038375847830821527
1765408106.950034,-9.939891766318636,-0.014206234204982474,0.31770052676078936,-0.017740407001976717,-0.019883991600604542,-0.003830147731111619
1765408106.954071,-9.93481065480569,-0.016622124534119546,0.31423377928580465,-0.01786544335730898,-0.020141747620106315,-0.0038179567227086446
1765408106.955016,-9.930144665303644,-0.019125630265054337,0.31107028690879623,-0.017988255508076527,-0.020392360381373795,-0.003805692788116449
1765408106.959038,-9.925964781203506,-0.021622226408545685,0.30831567758924067,-0.018107042357752373,-0.020627528238762304,-0.003797381051285095
1765408106.961055,-9.922320238545124,-0.02401517671513598,0.3060586020173226,-0.018220182329700834,-0.02084064188193161,-0.0037960378423057676
1765408106.9641,-9.919238268129678,-0.026213283852147416,0.30436632646819756,-0.018326387064227026,-0.021027175376528023,-0.0038034482888952576
1765408106.96605,-9.916725303261575,-0.028138692651414336,0.303281447927951,-0.018424829768681626,-0.021184873112641067,-0.0038201150577511656
1765408106.969012,-9.914769324371033,-0.029733421874099816,0.30282008906923563,-0.018515226614027134,-0.02131373013437749,-0.0038453869623372543
1765408106.970033,-9.913342873287354,-0.03096371036979175,0.302971641325724,-0.018597855011668284,-0.021415789158144304,-0.0038777382776241744
1765408106.973993,-9.91240619490737,-0.031821969772102915,0.3036997799370133,-0.018673502612274403,-0.021494796808354203,-0.003915144459971844
1765408106.976972,-9.911910084601663,-0.03232655100655074,0.3049444679908766,-0.018743353600305667,-0.021555764946859367,-0.003955494960129224
1765408106.979003,-9.91179829835254,-0.03251943115174545,0.3066250136510475,-0.018808832409378022,-0.021604472265193627,-0.003996990506187425
1765408106.981953,-9.91200959185271,-0.032461686837115915,0.3086444666817463,-0.018871436192328266,-0.021646931344277406,-0.004038477423758211
1765408106.984036,-9.912479463160516,-0.032226771330807286,0.31089538283326834,-0.018932591636128506,-0.021688850780120693,-0.004079672260269132
1765408106.987044,-9.913141577639744,-0.031892243615714584,0.31326644956475574,-0.01899356657879729,-0.02173513788922305,-0.004121235624462211
1765408106.989087,-9.91392876746517,-0.031531276175388,0.31564904360278223,-0.019055453985020464,-0.021789499309050744,-0.004164675152313588
1765408106.992062,-9.91477343809382,-0.03120546752080078,0.31794264291685015,-0.019119228530363165,-0.02185419254289154,-0.004212093447489511
1765408106.992562,-9.915607255054148,-0.03096004357154862,0.32005819733943913,-0.019185857600055995,-0.021929960083360924,-0.00426583366958935
1765408106.99601,-9.916360252216798,-0.030821761521416087,0.32191913105647635,-0.019256432644175956,-0.022016145443425568,-0.004328094044522676
1765408106.999043,-9.916959925765541,-0.030799218166234866,0.3234604494884825,-0.019332278352462453,-0.022110958437591532,-0.004400575175269855
1765408107.001026,-9.917331163279094,-0.030885056592420794,0.3246270263685608,-0.01941500055757762,-0.022211837376495697,-0.00448420204809428
1765408107.001966,-9.9173977855615,-0.031059634270913565,0.32537220611312756,-0.01950644920993021,-0.022315852287445984,-0.004578943652125855
1765408107.007814,-9.917086098109134,-0.03129577109239886,0.3256574457441431,-0.019608593672590588,-0.02242009959270829,-0.004683743603771682
1765408107.008993,-9.91633037341323,-0.03156405066229744,0.3254532543107704,-0.01972332632740201,-0.022522046925413295,-0.004796569880242962
1765408107.010996,-9.915079769163375,-0.03183787795934255,0.3247414358084557,-0.01985222404822646,-0.02261979477119933,-0.004914583290354935
1765408107.014032,-9.913305814124628,-0.03209740355296182,0.32351842539121606,-0.01999630483930232,-0.022712232994576233,-0.0050344089003505526
1765408107.016077,-9.911009235246665,-0.03233173601949361,0.3217990905809691,-0.0201558175318443,-0.02279908775781116,-0.005152475833279718
1765408107.018969,-9.90822473645599,-0.03253943588048197,0.31961996742038107,-0.020330096234639623,-0.022880872814869457,-0.005265378640546366
1765408107.021999,-9.90502262927628,-0.03272771698404748,0.3170409376007926,-0.020517501158649972,-0.022958769384957955,-0.005370214348034455
1765408107.023995,-9.901506944781438,-0.03291082007418038,0.31414483429769224,-0.02071545565118018,-0.023034458068069637,-0.005464859255039896
1765408107.027051,-9.897810484255412,-0.03310778052976248,0.31103500638729714,-0.020920576452170898,-0.023109920596289534,-0.005548159818570832
