time,acc_x_g,acc_y_g,acc_z_g,gyro_x_rad_s,gyro_y_rad_s,gyro_z_rad_s
1765410104.946178,-8.823528,-4.236011,-1.568030,-0.006720,-0.005498,-0.001374
1765410104.946378,-8.762552,-4.281444,-1.518412,-0.008399,-0.003971,-0.001680
1765410104.946578,-8.858201,-4.259923,-1.435916,-0.006567,-0.009010,-0.000305
1765410104.946778,-8.877331,-4.229435,-1.527379,-0.008858,-0.007025,0.001680
1765410104.946941,-8.755380,-4.256934,-1.618842,-0.009316,-0.004734,-0.001069
1765410104.947191,-8.755380,-4.256934,-1.618842,-0.009316,-0.009621,-0.001069
1765410104.947441,-8.845049,-4.183404,-1.530368,-0.005956,-0.009316,0.000458
1765410104.947691,-8.839071,-4.061453,-1.506456,-0.007483,-0.007178,0.000916
1765410104.947957,-8.800215,-4.219273,-1.533955,-0.005651,-0.005192,0.006872
1765410104.948207,-8.884504,-4.411764,-1.594333,-0.003665,-0.006261,0.009927
1765410104.948457,-8.978956,-4.560019,-1.568627,-0.003665,-0.009774,0.009927
1765410104.948707,-8.949664,-4.635939,-1.637374,-0.001069,-0.007025,0.007789
1765410104.948975,-9.181610,-4.395026,-1.498685,-0.003512,-0.010537,0.003054
1765410104.949175,-9.416546,-4.411764,-1.410808,-0.000916,-0.009163,0.007789
1765410104.949375,-9.452414,-4.417742,-1.592539,-0.003818,-0.008552,0.005803
1765410104.949575,-9.588115,-4.049498,-1.428144,-0.011148,-0.015272,-0.001680
1765410104.949775,-9.824843,-3.702774,-1.264945,-0.020617,-0.023060,0.001069
1765410104.949951,-9.908535,-3.662123,-1.439502,-0.032529,-0.035277,0.006872
1765410104.950201,-9.937828,-3.521042,-1.537542,-0.043524,-0.036805,0.010232
1765410104.950451,-9.936632,-3.764945,-1.617647,-0.060781,-0.041997,0.018784
1765410104.950701,-10.096244,-3.978957,-1.480153,-0.073457,-0.063225,0.017868
1765410104.951026,-10.073528,-3.904830,-1.609278,-0.084299,-0.061697,0.010690
1765410104.951276,-9.735173,-3.978957,-2.100669,-0.094990,-0.065515,0.020922
1765410104.951526,-9.755498,-4.209708,-1.973936,-0.104305,-0.080634,0.022144
1765410104.951776,-10.052606,-4.436872,-1.624820,-0.102625,-0.086437,0.027031
1765410104.952037,-9.884026,-4.912721,-2.056432,-0.103389,-0.086590,0.033598
1765410104.952370,-9.542084,-5.277977,-2.361908,-0.102625,-0.081856,0.025504
1765410104.952704,-9.567789,-5.224772,-1.987087,-0.096822,-0.086743,0.019242
1765410104.952969,-10.057388,-5.154232,-1.412004,-0.095906,-0.098349,0.013134
1765410104.953219,-10.132710,-5.092658,-1.531564,-0.094684,-0.096059,0.010232
1765410104.953469,-9.931850,-4.741152,-1.763510,-0.089797,-0.092852,0.015577
1765410104.953719,-9.981467,-4.797345,-1.630798,-0.094531,-0.104000,0.020617
1765410104.953946,-10.199663,-4.862505,-1.313367,-0.094073,-0.117744,0.020311
1765410104.954196,-10.012553,-4.997608,-1.786227,-0.088881,-0.117744,0.022755
1765410104.954446,-9.741750,-4.884624,-2.028336,-0.082925,-0.121868,0.023060
1765410104.954696,-10.040051,-4.512195,-1.309182,-0.085674,-0.120188,0.023213
1765410104.954945,-9.900167,-4.661047,-1.322334,-0.086132,-0.115912,0.029780
1765410104.955195,-9.839190,-4.759684,-1.718077,-0.078496,-0.126449,0.028405
1765410104.955445,-9.986848,-4.602462,-1.270923,-0.089034,-0.135459,0.026267
1765410104.955695,-10.077712,-4.409373,-1.012075,-0.084299,-0.137903,0.033445
1765410104.956037,-9.558823,-4.509803,-1.545911,-0.082009,-0.138666,0.035430
1765410104.956287,-9.286225,-4.607843,-1.917742,-0.086896,-0.136834,0.033445
1765410104.956537,-9.207316,-4.579746,-1.639168,-0.075442,-0.135154,0.039401
1765410104.956787,-9.207316,-4.579746,-1.142994,-0.075442,-0.148746,0.039401
1765410104.957031,-9.656861,-4.328072,-1.067671,-0.077733,-0.133169,0.038332
1765410104.957281,-9.378286,-4.357962,-1.285270,-0.074984,-0.134390,0.050702
1765410104.957531,-9.337039,-4.416546,-1.458034,-0.074067,-0.152258,0.052687
1765410104.957781,-9.557627,-4.490674,-1.035390,-0.071166,-0.142484,0.058796
1765410104.958032,-9.237803,-4.508608,-1.038379,-0.062308,-0.124311,0.063530
1765410104.958282,-9.439262,-4.534911,-1.321138,-0.057574,-0.145080,0.069944
1765410104.958532,-9.685556,-4.561214,-1.161525,-0.062156,-0.145080,0.068417
1765410104.958782,-9.241988,-4.479913,-1.366571,-0.048258,-0.126755,0.075747
1765410104.959037,-9.007650,-4.780009,-1.850191,-0.050549,-0.133169,0.080329
1765410104.959370,-9.473337,-4.777020,-1.096365,-0.050855,-0.130267,0.074373
1765410104.959704,-9.472739,-4.722620,-1.147178,-0.032376,-0.127671,0.083536
1765410104.960165,-9.255737,-4.781204,-1.861549,-0.023824,-0.127671,0.080787
1765410104.960415,-9.361548,-4.707077,-1.599115,-0.028863,-0.113926,0.075595
1765410104.960665,-9.344810,-4.294595,-1.442492,-0.012217,-0.099266,0.083383
1765410104.960915,-8.769726,-4.732185,-2.375059,-0.014813,-0.099266,0.098349
1765410104.961126,-9.526542,-4.473936,-1.292444,-0.018631,-0.079871,0.086590
1765410104.961376,-9.796148,-4.618603,-1.166906,-0.002443,-0.079871,0.104000
1765410104.961626,-9.485293,-4.591105,-1.875896,0.007330,-0.089797,0.102625
1765410104.961876,-9.829028,-4.423122,-1.104137,-0.007178,-0.072846,0.097280
1765410104.962068,-9.472739,-4.565997,-1.131038,0.009621,-0.072846,0.109192
1765410104.962318,-9.418339,-4.597082,-1.611669,0.002291,-0.101251,0.110567
1765410104.962568,-9.857722,-4.371114,-1.224892,0.001069,-0.091477,0.106596
1765410104.962818,-9.263509,-4.540291,-1.634385,0.001069,-0.067501,0.106596
1765410104.963511,-9.038736,-4.518172,-2.042085,0.025351,-0.091477,0.122020
1765410104.963761,-9.129601,-4.729196,-1.945241,0.022144,-0.091477,0.119882
1765410104.964011,-9.685556,-4.027977,-1.413199,0.029627,-0.083078,0.121257
1765410104.964261,-9.237803,-4.368722,-1.942850,0.023824,-0.068875,0.137292
1765410104.965157,-9.745336,-4.066236,-1.327714,0.038026,-0.069639,0.135765
1765410104.965407,-9.809898,-4.588115,-1.095170,0.037721,-0.058032,0.149967
1765410104.965657,-9.914514,-4.824844,-1.243424,0.049480,-0.068264,0.156382
1765410104.965907,-10.100429,-4.611430,-0.799856,0.054367,-0.064904,0.147371
1765410104.965219,-9.785987,-4.337637,-1.663080,0.056963,-0.085216,0.157145
1765410104.965469,-10.048421,-4.429698,-1.214730,0.062003,-0.085216,0.159894
1765410104.965719,-9.784791,-4.445839,-1.200382,0.053145,-0.066737,0.159589
1765410104.965969,-9.647895,-4.280248,-1.506456,0.067501,-0.058643,0.166766
1765410104.965988,-9.734576,-4.441654,-1.445480,0.068570,-0.076358,0.174097
1765410104.966238,-10.417861,-4.263510,-1.170492,0.072082,-0.071013,0.178220
1765410104.966488,-10.142874,-4.294595,-0.777140,0.089797,-0.056047,0.190132
1765410104.966738,-9.782400,-4.447632,-0.793281,0.082161,-0.061850,0.194408
1765410104.966925,-9.680773,-4.351985,-1.594333,0.077580,-0.061850,0.195171
1765410104.967175,-9.927068,-4.713056,-1.387494,0.092088,-0.072998,0.203265
1765410104.967425,-9.634145,-4.983261,-1.690578,0.090561,-0.065668,0.200822
1765410104.967675,-9.707077,-4.432089,-1.844213,0.098655,-0.056505,0.189674
1765410104.967981,-9.685556,-4.480511,-1.453850,0.098655,-0.042455,0.189674
1765410104.968231,-9.744141,-4.156504,-0.903276,0.098044,-0.036957,0.201433
1765410104.968481,-9.309540,-4.261118,-0.907460,0.098502,-0.048411,0.208305
1765410104.968731,-9.405188,-3.934720,-2.002630,0.099418,-0.049633,0.213650
1765410104.968919,-9.429697,-4.356766,-1.456241,0.120340,-0.057421,0.229533
1765410104.969252,-9.286225,-4.497848,-1.808943,0.118355,-0.046731,0.231976
1765410104.969586,-10.156623,-4.228837,-0.417862,0.117286,-0.039859,0.228311
1765410104.970012,-9.872069,-4.270683,-0.841105,0.123853,-0.028711,0.242361
1765410104.970262,-9.777617,-4.082376,-1.801769,0.125686,-0.056047,0.249233
1765410104.970512,-10.387374,-4.434481,-0.627690,0.125533,-0.052840,0.251524
1765410104.970762,-10.203251,-4.300573,-0.478240,0.147982,-0.047953,0.261145
1765410104.970977,-9.591104,-4.425513,-1.283477,0.148135,-0.059254,0.268323
1765410104.971227,-9.695719,-4.463175,-1.230273,0.137445,-0.085368,0.261145
1765410104.971477,-10.225968,-4.018412,-1.038976,0.151189,-0.080787,0.272140
1765410104.971727,-10.395742,-4.147537,-0.314443,0.159894,-0.073457,0.285274
1765410104.971963,-10.750238,-3.836083,-0.468077,0.164781,-0.065668,0.295659
1765410104.972213,-10.159015,-4.154112,-1.152558,0.159741,-0.081092,0.307113
1765410104.972463,-9.995216,-4.412362,-1.591942,0.172264,-0.092852,0.311236
1765410104.972713,-10.236131,-4.445241,-1.633190,0.182343,-0.074984,0.315970
1765410104.972987,-9.930654,-4.177427,-1.342659,0.181122,-0.077427,0.317039
1765410104.973237,-9.528933,-3.993304,-1.560856,0.177456,-0.063225,0.324522
1765410104.973487,-8.936513,-4.096724,-2.534672,0.185092,-0.084147,0.339488
1765410104.973737,-8.990912,-4.290411,-2.323051,0.184939,-0.084147,0.336892
1765410104.973985,-9.655068,-4.772835,-1.582974,0.187077,-0.079412,0.339336
1765410104.974318,-10.345527,-4.465566,-1.085605,0.202196,-0.076816,0.332005
1765410104.974652,-10.417263,-4.111669,-0.731109,0.196699,-0.059101,0.341016
1765410104.975019,-10.774747,-4.145145,-0.047824,0.193339,-0.064141,0.343154
1765410104.975269,-10.857243,-3.779292,0.088474,0.201433,-0.076511,0.355218
1765410104.975519,-10.210424,-3.959827,-1.214730,0.193950,-0.070708,0.371712
1765410104.975769,-9.534910,-4.276063,-1.435916,0.212734,-0.105374,0.376140
1765410104.975958,-9.534910,-4.276063,-1.435916,0.212734,-0.092088,0.376140
1765410104.976208,-9.554040,-4.393830,-1.467001,0.222202,-0.109039,0.374155
1765410104.976458,-10.203251,-3.426590,-1.139407,0.218995,-0.111483,0.376904
1765410104.976708,-9.987445,-3.816355,-2.098278,0.214566,-0.109039,0.391106
1765410104.976948,-10.123744,-3.911406,-1.840028,0.229227,-0.103694,0.401186
1765410104.977198,-10.291127,-4.084768,-0.619321,0.232740,-0.067806,0.411570
1765410104.977448,-9.949186,-4.076996,-1.060497,0.241597,-0.102473,0.430507
1765410104.977698,-10.087276,-3.917383,-0.963654,0.234114,-0.102473,0.423788
1765410104.978014,-9.116450,-4.402199,-1.514227,0.226020,-0.095753,0.428522
1765410104.978347,-8.737445,-3.723696,-1.865136,0.240375,-0.091019,0.431576
1765410104.978681,-9.116450,-4.273075,-1.131038,0.219606,-0.112857,0.422871
1765410104.978954,-10.196675,-3.176709,-1.226088,0.227395,-0.116981,0.421039
1765410104.979204,-10.524867,-3.289694,-1.196198,0.242666,-0.130572,0.454331
1765410104.979454,-10.205642,-3.790650,-0.484218,0.244193,-0.141568,0.471435
1765410104.979704,-10.274986,-4.164873,0.071736,0.236558,-0.156382,0.477697
1765410104.979988,-10.901481,-4.417742,0.108800,0.233351,-0.156382,0.469450
1765410104.980238,-10.703012,-4.184600,-0.539216,0.244652,-0.189368,0.466701
1765410104.980488,-10.399927,-3.067312,-0.942133,0.251066,-0.190132,0.465632
1765410104.980738,-10.399927,-3.067312,-0.942133,0.251066,-0.179442,0.465632
1765410104.981000,-10.358679,-3.170731,-0.896700,0.255800,-0.189368,0.513585
1765410104.981333,-10.658774,-3.622668,-1.025825,0.246179,-0.189368,0.526566
1765410104.981667,-10.270204,-3.892874,-1.231468,0.255800,-0.165697,0.541074
1765410104.982001,-9.727402,-4.307149,-1.541128,0.268170,-0.165544,0.546419
1765410104.982251,-9.595885,-4.377092,-1.392874,0.256716,-0.184634,0.530384
1765410104.982501,-9.241988,-3.844452,-1.752750,0.267101,-0.194713,0.523053
1765410104.982751,-8.593973,-3.549737,-2.579507,0.272599,-0.194713,0.532522
1765410104.982984,-8.970588,-3.262195,-1.970947,0.268170,-0.208305,0.538936
1765410104.983234,-9.386058,-3.639407,-1.770086,0.260381,-0.179747,0.545197
1765410104.983484,-9.185795,-3.706360,-1.313964,0.263741,-0.191506,0.547183
1765410104.983734,-10.053204,-3.549737,-1.224294,0.260839,-0.210749,0.552680
1765410104.983989,-10.963054,-3.538378,-0.218795,0.267406,-0.216399,0.554666
1765410104.984322,-11.044952,-3.302247,-0.002391,0.278249,-0.197462,0.574366
1765410104.984656,-10.468675,-3.298660,-0.109995,0.270002,-0.228769,0.577726
1765410104.984998,-10.356287,-2.997967,-1.018651,0.265268,-0.228769,0.589790
1765410104.985248,-10.039454,-3.615495,-2.147298,0.263436,-0.234267,0.598648
1765410104.985498,-10.384982,-3.816953,-0.551172,0.269544,-0.208152,0.596663
1765410104.985748,-10.429816,-3.819344,-0.298302,0.277791,-0.172417,0.601550
1765410104.985991,-9.667024,-3.295074,-0.837518,0.281609,-0.203265,0.597579
1765410104.986241,-9.836202,-2.855093,-1.611071,0.269392,-0.205709,0.605673
1765410104.986491,-9.836202,-2.855093,-1.611071,0.269392,-0.212276,0.605673
1765410104.986741,-9.658057,-3.404471,-0.889526,0.279929,-0.207847,0.617127
1765410104.986987,-9.725608,-3.033237,-0.503348,0.279318,-0.232282,0.622319
1765410104.987320,-9.719033,-2.281205,-0.879364,0.287107,-0.243430,0.636063
1765410104.987654,-9.226445,-3.106169,-1.266140,0.288634,-0.243430,0.667523
1765410104.988025,-9.226445,-3.106169,-1.266140,0.288634,-0.256258,0.667523
1765410104.988275,-10.148253,-3.136059,-0.803443,0.284052,-0.256563,0.687071
1765410104.988525,-9.482305,-3.767336,-0.955284,0.276722,-0.255342,0.685085
1765410104.988775,-8.902437,-3.891678,-1.838235,0.284969,-0.251524,0.687071
1765410104.988981,-8.038617,-4.125418,-2.005021,0.275195,-0.272751,0.679129
1765410104.989314,-9.726207,-2.710425,-1.123864,0.285121,-0.300546,0.665843
1765410104.989648,-9.726207,-3.268770,-1.334290,0.271682,-0.271682,0.689667
1765410104.990017,-9.069224,-3.369799,-2.025347,0.282983,-0.255036,0.692416
1765410104.990267,-8.296866,-3.553921,-2.362506,0.273515,-0.234267,0.694859
1765410104.990517,-8.522835,-2.935198,-1.357006,0.279624,-0.262825,0.690736
1765410104.990767,-8.956241,-2.394787,-2.275227,0.281762,-0.253356,0.706007
1765410104.990937,-8.324963,-3.004543,-2.710425,0.284816,-0.247553,0.727388
1765410104.991187,-8.825322,-3.266379,-2.006815,0.286496,-0.245262,0.723875
1765410104.991437,-9.122428,-3.409851,-1.226686,0.286496,-0.239306,0.723875
1765410104.991687,-9.448828,-2.715208,-1.074844,0.274278,-0.249997,0.713643
1765410104.991987,-9.383069,-2.357723,-0.760402,0.274278,-0.258701,0.735940
1765410104.992320,-11.108918,-3.136059,-0.178144,0.270308,-0.273362,0.745561
1765410104.992654,-10.850071,-3.539574,0.469871,0.266490,-0.249080,0.729220
1765410104.993023,-9.704685,-2.715208,-1.148972,0.278555,-0.239459,0.732275
1765410104.993273,-9.189383,-2.266858,-2.363103,0.275195,-0.270461,0.755946
1765410104.993523,-9.696915,-2.507173,-1.580583,0.257632,-0.280540,0.764498
1765410104.993773,-9.201936,-2.222620,-1.397656,0.268781,-0.211970,0.784046
1765410104.993930,-8.158176,-3.182687,-1.750358,0.257480,-0.211970,0.794583
1765410104.994180,-7.769607,-3.142037,-1.420373,0.257174,-0.232587,0.779311
1765410104.994430,-9.407578,-2.910090,-1.877690,0.256258,-0.238390,0.774272
1765410104.994680,-8.816355,-3.236489,-2.164634,0.257632,-0.245110,0.780228
1765410104.995017,-9.057866,-2.719990,-1.077833,0.252440,-0.234267,0.775341
1765410104.995350,-9.313127,-2.819823,-0.286944,0.238848,-0.234267,0.777784
1765410104.995684,-10.532639,-2.172405,0.127929,0.244193,-0.236405,0.791681
1765410104.996022,-10.483022,-2.538259,-0.457915,0.242972,-0.248775,0.807106
1765410104.996272,-11.153753,-2.433046,0.201459,0.250913,-0.249691,0.814894
1765410104.996522,-9.873264,-3.493543,-0.934959,0.243888,-0.242361,0.824057
1765410104.996772,-10.111190,-2.914873,0.057389,0.235183,-0.273209,0.797637
1765410104.996961,-9.305355,-2.780966,0.010163,0.232587,-0.273668,0.807869
1765410104.997211,-9.236010,-2.329029,-1.937470,0.243430,-0.300240,0.812603
1765410104.997461,-9.110472,-2.604017,-1.542324,0.225104,-0.297797,0.811840
1765410104.997711,-8.775106,-2.583692,-2.604017,0.224646,-0.289550,0.810771
1765410104.997932,-9.039932,-1.662482,-1.874701,0.246637,-0.294132,0.827264
1765410104.998265,-8.755380,-2.264467,-2.275227,0.227700,-0.268781,0.851546
1765410104.998599,-9.241988,-2.336202,-1.653515,0.235947,-0.268323,0.852768
1765410104.998947,-9.104494,-2.886178,-1.286466,0.228922,-0.264657,0.874454
1765410104.999197,-9.349592,-3.187470,-1.257174,0.225257,-0.293521,0.846048
1765410104.999447,-10.284551,-2.522716,-0.975610,0.228311,-0.259312,0.840245
1765410104.999697,-9.833213,-2.828790,-0.517695,0.228616,-0.247095,0.847881
1765410104.999946,-10.494978,-2.231587,-0.738881,0.223577,-0.249080,0.842383
1765410105.000196,-11.132232,-2.782161,0.357484,0.201127,-0.249080,0.843300
1765410105.000446,-10.935556,-2.688905,0.424438,0.213192,-0.250149,0.841161
1765410105.000696,-10.838115,-2.423481,-0.051411,0.212581,-0.264810,0.849408
1765410105.001078,-10.839311,-2.259684,0.331181,0.210443,-0.273057,0.856891
1765410105.001411,-10.634863,-2.818029,-0.463893,0.203876,-0.271377,0.861778
1765410105.001745,-9.631754,-3.011716,-1.300813,0.195019,-0.271377,0.852768
1765410105.001987,-9.219272,-2.507173,-2.801291,0.187077,-0.278707,0.841009
1765410105.002237,-9.885818,-1.768890,-0.614538,0.196851,-0.279013,0.848644
1765410105.002487,-10.169774,-3.002152,-0.395744,0.181732,-0.231518,0.860251
1765410105.002737,-9.392036,-2.364897,-0.523673,0.182954,-0.234267,0.848492
1765410105.003043,-9.490674,-1.903395,-2.118603,0.186314,-0.258243,0.855364
1765410105.003293,-8.995695,-1.342061,-1.301411,0.193950,-0.293368,0.872316
1765410105.003543,-10.424437,-1.339072,-0.090866,0.187688,-0.230754,0.886671
1765410105.003793,-10.090864,-2.815638,0.500956,0.180511,-0.230754,0.908357
1765410105.004015,-10.090864,-2.815638,0.500956,0.180511,-0.263894,0.908357
1765410105.004265,-11.078430,-2.870636,0.298900,0.172722,-0.281456,0.873537
1765410105.004515,-10.364058,-2.378048,-0.404711,0.178678,-0.291688,0.868345
1765410105.004765,-9.796746,-2.264467,-0.322812,0.160352,-0.302073,0.868039
1765410105.005032,-9.524150,-2.337398,-0.384385,0.151953,-0.302073,0.860251
1765410105.005365,-9.524150,-2.337398,-0.384385,0.151953,-0.313527,0.860251
1765410105.005699,-9.389048,-1.582377,-1.483740,0.155007,-0.329867,0.878730
1765410105.006063,-9.375896,-2.061812,-1.123864,0.143553,-0.322231,0.889114
1765410105.006313,-9.620994,-3.072692,-1.794596,0.141721,-0.293521,0.888198
1765410105.006563,-9.675991,-2.656623,-0.719751,0.145691,-0.302073,0.863763
1765410105.006813,-9.675991,-2.656623,-0.719751,0.145691,-0.290161,0.863763
1765410105.007065,-9.084169,-1.925514,-1.390483,0.124769,-0.299019,0.865291
1765410105.007315,-10.027497,-2.058823,-0.671927,0.119882,-0.299019,0.860556
1765410105.007565,-10.467478,-1.667862,-0.408895,0.133627,-0.260992,0.863763
1765410105.007815,-11.099952,-1.419177,-0.346724,0.132710,-0.260992,0.879799
1765410105.008003,-11.227880,-1.424557,1.288857,0.120188,-0.253509,0.885144
1765410105.008336,-12.436033,-2.027140,1.050932,0.115148,-0.237016,0.905608
1765410105.008670,-12.060616,-3.039215,1.671449,0.114995,-0.253356,0.891405
1765410105.008997,-11.897415,-2.741511,0.578670,0.105222,-0.280387,0.869261
1765410105.009247,-10.022716,-2.248326,-0.786705,0.101251,-0.278402,0.862389
1765410105.009497,-9.521161,-1.892635,-0.691057,0.111636,-0.299935,0.867276
1765410105.009747,-9.234815,-2.199904,-1.108321,0.096669,-0.293521,0.862694
1765410105.010076,-9.153513,-2.048063,-2.034911,0.094684,-0.307418,0.849561
1765410105.010326,-9.153513,-2.048063,-2.034911,0.094684,-0.292757,0.849561
1765410105.010576,-8.525824,-1.384505,-2.013391,0.097280,-0.266643,0.862694
1765410105.010826,-8.249640,-2.490435,-1.140602,0.085979,-0.266643,0.870330
1765410105.011024,-8.643591,-2.477283,-0.652798,0.072235,-0.273209,0.846659
1765410105.011274,-9.475131,-2.100669,-1.437111,0.076205,-0.284510,0.826043
1765410105.011524,-9.558225,-0.972023,-1.193209,0.076205,-0.282067,0.826043
1765410105.011774,-9.379482,-2.180774,-1.539335,0.065515,-0.267864,0.860709
1765410105.011959,-10.007172,-2.393591,1.258967,0.055589,-0.261450,0.831235
1765410105.012209,-10.291725,-1.810139,-0.159015,0.071777,-0.262977,0.836122
1765410105.012459,-9.509803,-1.328312,-0.588235,0.071013,-0.309403,0.837038
1765410105.012709,-9.768052,-0.881755,-0.866810,0.071319,-0.318566,0.845896
1765410105.013001,-9.727402,-1.970349,-0.528455,0.072388,-0.299629,0.874148
1765410105.013334,-9.524150,-2.730751,-0.225968,0.069180,-0.325897,0.859640
1765410105.013668,-10.510519,-2.192132,-0.003587,0.051313,-0.338572,0.828180
1765410105.013988,-10.304877,-1.733620,-0.530846,0.054214,-0.338572,0.823752
1765410105.014238,-9.900764,-1.645743,-1.813725,0.067348,-0.325286,0.822988
1765410105.014488,-9.923481,-2.135342,-0.454926,0.047495,-0.320093,0.814436
1765410105.014738,-10.381395,-1.326518,-0.129723,0.049327,-0.311389,0.803746
1765410105.015007,-10.012553,-1.878288,-0.704208,0.035125,-0.331242,0.812145
1765410105.015257,-10.393352,-1.296030,-1.351626,0.030085,-0.330784,0.796721
1765410105.015507,-9.744141,-1.153754,-1.102343,0.040317,-0.290161,0.819323
1765410105.015757,-9.520563,-2.214849,-1.171688,0.030543,-0.286649,0.823446
1765410105.016053,-9.520563,-2.214849,-1.171688,0.030543,-0.287565,0.823446
1765410105.016303,-10.044834,-1.771281,-0.080105,0.021533,-0.278096,0.788932
1765410105.016553,-9.653275,-1.406623,-0.193687,0.030238,-0.288023,0.794125
1765410105.016803,-9.527737,-1.944046,-0.386179,0.007178,-0.295506,0.790765
1765410105.017045,-9.395025,-1.682209,-0.081301,0.000458,-0.303447,0.771217
1765410105.017295,-9.054877,-1.078431,-1.122668,0.007636,-0.309861,0.774577
1765410105.017545,-9.079387,-1.076040,-1.585366,0.016035,-0.326355,0.789238
1765410105.017795,-8.825919,-1.154950,-1.275705,0.006872,-0.311847,0.792445
1765410105.017914,-9.026780,-1.551889,-1.812530,-0.001374,-0.305891,0.793972
1765410105.018247,-9.323289,-2.093496,-1.050932,-0.000764,-0.304516,0.789849
1765410105.018581,-9.114058,-1.635581,-0.607365,-0.001680,-0.277027,0.768010
1765410105.018945,-9.521759,-1.416786,-0.615734,-0.007636,-0.289397,0.771065
1765410105.019195,-9.391438,-1.365375,-0.487805,-0.013134,-0.300546,0.753197
1765410105.019445,-9.502629,-1.575801,-0.653993,-0.013744,-0.300851,0.761749
1765410105.019695,-9.220468,-2.028933,-0.781922,-0.023671,-0.277791,0.749074
1765410105.019967,-9.340028,-1.615256,0.156624,-0.013286,-0.296728,0.737009
1765410105.020217,-9.554040,-1.718077,0.272597,-0.046578,-0.285885,0.722195
1765410105.020467,-9.078191,-1.012673,-0.842300,-0.021228,-0.308029,0.715323
1765410105.020717,-8.455881,-0.961262,-1.343257,-0.029474,-0.322231,0.727388
1765410105.020932,-8.438545,-1.380918,-0.974414,-0.036346,-0.342848,0.733649
1765410105.021182,-9.709468,-1.731229,0.691057,-0.043830,-0.327576,0.718988
1765410105.021432,-9.395025,-2.362506,0.076518,-0.050855,-0.331853,0.707993
1765410105.021682,-8.882113,-1.079627,-2.048063,-0.042761,-0.344223,0.678213
1765410105.021957,-8.684838,-0.763988,-1.633787,-0.060018,-0.330478,0.686002
1765410105.022207,-9.347201,-0.914634,-0.437590,-0.051160,-0.324369,0.695928
1765410105.022457,-9.736369,-1.659493,0.434003,-0.062003,-0.301767,0.689820
1765410105.022707,-9.698110,-1.535150,-0.263032,-0.071777,-0.297186,0.666301
1765410105.023059,-9.947392,-1.119679,-0.852463,-0.064599,-0.281456,0.659887
1765410105.023392,-9.518172,-1.038976,-0.735294,-0.066279,-0.281456,0.672257
1765410105.023726,-9.518172,-1.038976,-0.735294,-0.066279,-0.259465,0.672257
1765410105.024036,-10.103418,-0.724534,0.430416,-0.072540,-0.239154,0.685238
1765410105.024286,-9.934240,-1.638570,0.090866,-0.071319,-0.246942,0.689667
1765410105.024536,-9.247966,-2.034911,0.347920,-0.073762,-0.231976,0.670425
1765410105.024786,-8.500118,-1.702534,0.077714,-0.075595,-0.231976,0.642630
1765410105.025029,-8.047584,-1.172884,-0.995337,-0.081092,-0.281456,0.633620
1765410105.025279,-8.396699,-0.359876,-1.044954,-0.087201,-0.272751,0.620028
1765410105.025529,-7.839550,-0.927188,-1.267336,-0.082772,-0.272751,0.648586
1765410105.025779,-7.385221,-1.660688,-1.808943,-0.085216,-0.261145,0.625373
1765410105.026108,-7.849114,-1.599713,-2.037302,-0.090255,-0.272751,0.609491
1765410105.026441,-8.674078,-1.267336,-1.011478,-0.096211,-0.265421,0.594372
1765410105.026775,-8.897655,-0.914036,-0.154232,-0.091630,-0.189979,0.593914
1765410105.026986,-8.490554,-0.760999,-0.622310,-0.093615,-0.189979,0.597732
1765410105.027236,-9.215087,-0.419058,0.489000,-0.108887,-0.196546,0.589943
1765410105.027486,-8.420611,-1.213534,-0.710784,-0.115912,-0.211359,0.609796
1765410105.027736,-8.810975,-1.320540,-0.653993,-0.098349,-0.203571,0.594372
1765410105.028061,-8.234097,-1.895026,-0.749641,-0.115912,-0.178373,0.576046
1765410105.028311,-8.810376,-0.825562,0.123147,-0.118661,-0.177762,0.546572
1765410105.028561,-8.898851,-0.186514,0.185318,-0.115301,-0.182191,0.555887
1765410105.028811,-9.552844,-0.747848,-0.011956,-0.125533,-0.208305,0.562301
1765410105.029041,-9.912720,-1.308584,0.418460,-0.121104,-0.211665,0.559094
1765410105.029291,-9.446436,-1.433524,0.523673,-0.122478,-0.192423,0.545503
1765410105.029541,-9.127211,-1.317551,-0.062769,-0.118966,-0.212428,0.531147
1765410105.029791,-8.738641,-0.984577,-0.621712,-0.131183,-0.228005,0.531147
1765410105.030010,-8.828311,-0.596604,-0.432807,-0.128740,-0.199753,0.510225
1765410105.030260,-8.290291,-0.074725,-1.232664,-0.127976,-0.199753,0.518930
1765410105.030510,-8.515063,-0.720947,-0.787900,-0.131794,-0.195171,0.527940
1765410105.030760,-8.707555,-0.816595,-0.161406,-0.131489,-0.174707,0.521679
1765410105.031033,-8.604733,-1.212936,-0.866810,-0.136070,-0.168293,0.516181
1765410105.031366,-8.315398,-0.942133,-1.510043,-0.148135,-0.151342,0.503658
1765410105.031700,-8.545551,-0.884744,-0.953491,-0.146150,-0.151342,0.501979
1765410105.032006,-7.870636,-1.046150,-0.496174,-0.149051,-0.135612,0.494954
1765410105.032256,-7.722380,-0.961860,-0.653993,-0.151495,-0.144011,0.481362
1765410105.032506,-7.515542,-0.707795,-0.995337,-0.152258,-0.148288,0.474642
1765410105.032756,-8.436154,-0.411884,-0.319225,-0.149662,-0.147066,0.474642
1765410105.032990,-8.855211,-0.555954,-0.247489,-0.156992,-0.140194,0.472962
1765410105.033240,-9.493064,-1.147776,0.658776,-0.171500,-0.143248,0.463647
1765410105.033490,-9.355571,-1.059302,0.111191,-0.163865,-0.132252,0.445168
1765410105.033740,-8.896460,-1.141798,-0.004185,-0.168752,-0.129503,0.443641
1765410105.033947,-8.820539,-0.804041,-0.539216,-0.167377,-0.135154,0.428217
1765410105.034197,-8.971784,-0.509923,-0.039455,-0.170584,-0.135154,0.423635
1765410105.034447,-8.212577,-0.958871,-1.164515,-0.182801,-0.125991,0.421192
1765410105.034697,-8.605929,-0.315041,-0.497370,-0.177762,-0.100640,0.408058
1765410105.034910,-8.964609,-0.781922,0.388570,-0.169210,-0.105832,0.423482
1765410105.035160,-9.825441,-0.681492,1.410808,-0.180205,-0.124158,0.395688
1765410105.035410,-9.599473,-0.480631,0.041846,-0.177151,-0.104763,0.400880
1765410105.035660,-8.316594,-0.569106,-1.017456,-0.171806,-0.112857,0.400575
1765410105.036034,-9.196555,-0.325203,0.327594,-0.175776,-0.112399,0.391259
1765410105.036367,-9.344213,-1.190220,1.455045,-0.189216,-0.104153,0.393855
1765410105.036701,-9.576159,-0.899091,0.475849,-0.185398,-0.100335,0.372933
1765410105.036997,-8.535986,-1.351028,-0.266619,-0.189368,-0.115759,0.367894
1765410105.037247,-9.404591,-1.226686,0.882353,-0.188146,-0.133169,0.339641
1765410105.037497,-8.987924,-0.503348,0.418460,-0.183260,-0.118050,0.335518
1765410105.037747,-8.776302,-0.359876,0.005380,-0.194866,-0.134238,0.332769
1765410105.038010,-8.189860,-0.322812,-0.526064,-0.199447,-0.132405,0.335823
1765410105.038260,-8.427785,-0.085485,-0.193687,-0.190743,-0.142179,0.341626
1765410105.038510,-8.610114,-0.543998,0.532042,-0.187688,-0.146760,0.346819
1765410105.038760,-8.515063,-0.924797,-0.371832,-0.195477,-0.149357,0.334296
1765410105.038958,-8.096603,-0.892515,-0.918221,-0.187230,-0.133321,0.317650
1765410105.039208,-8.153993,-0.885342,-0.681492,-0.182954,-0.131641,0.310930
1765410105.039458,-8.525227,-0.934361,0.234338,-0.189826,-0.130572,0.297491
1765410105.039708,-8.801410,-0.252869,0.001196,-0.192881,-0.108581,0.285274
1765410105.039970,-8.999879,-0.077714,0.197274,-0.185703,-0.109039,0.293521
1765410105.040220,-8.729075,-0.583453,-0.416069,-0.190895,-0.118355,0.298560
1765410105.040470,-9.191773,-0.803443,0.380201,-0.200517,-0.116981,0.278707
1765410105.040720,-9.362743,-0.327594,0.955882,-0.192881,-0.094073,0.270766
1765410105.040967,-8.693208,-0.627690,-0.118364,-0.203113,-0.086285,0.279165
1765410105.041217,-9.427306,-0.174558,0.359876,-0.200975,-0.103084,0.264657
1765410105.041467,-10.043041,-0.767575,1.675036,-0.206778,-0.103084,0.263436
1765410105.041717,-9.075202,-0.535629,0.824964,-0.197004,-0.091324,0.261145
1765410105.041979,-8.925155,-0.293520,0.603778,-0.195935,-0.114995,0.252898
1765410105.042229,-8.712338,-0.700622,0.628886,-0.205403,-0.120035,0.252898
1765410105.042479,-9.100907,-0.426231,0.328192,-0.197157,-0.128129,0.245262
1765410105.042729,-9.230630,-0.409493,0.888331,-0.194102,-0.126755,0.244499
1765410105.042967,-8.573647,-0.463893,-0.395744,-0.200975,-0.110261,0.241139
1765410105.043217,-8.761955,-0.436394,0.203850,-0.196699,-0.133321,0.237016
1765410105.043467,-8.528215,-0.945122,0.101626,-0.204182,-0.114995,0.224340
1765410105.043717,-8.745814,-0.681492,-0.019130,-0.196851,-0.124617,0.218079
1765410105.044009,-8.965805,-0.516499,0.634266,-0.204334,-0.114995,0.201738
1765410105.044259,-9.191773,-0.352104,0.528455,-0.204334,-0.117439,0.201738
1765410105.044509,-8.950860,-0.710784,0.414873,-0.211207,-0.112552,0.197768
1765410105.044759,-8.757771,-0.512912,-0.143472,-0.206778,-0.112552,0.189826
1765410105.045006,-8.757771,-0.512912,-0.143472,-0.206778,-0.114690,0.189826
1765410105.045256,-9.189383,-0.311454,0.485414,-0.202502,-0.107970,0.175013
1765410105.045506,-9.330462,-0.032281,0.389766,-0.202502,-0.101709,0.175013
1765410105.045756,-8.717119,-0.243305,-0.310258,-0.211970,-0.101098,0.178831
1765410105.046005,-8.614299,-0.532042,-0.194883,-0.213497,-0.101098,0.181885
1765410105.046338,-9.068028,-0.608560,0.799856,-0.214414,-0.092393,0.169821
1765410105.046672,-9.166666,-0.609158,0.856647,-0.206167,-0.094226,0.168599
1765410105.046961,-8.874341,-0.460306,0.375418,-0.211818,-0.099418,0.160352
1765410105.047211,-9.163078,-0.211621,0.141679,-0.210290,-0.120188,0.151647
1765410105.047461,-9.405785,-0.302487,0.575084,-0.217315,-0.119577,0.153174
1765410105.047711,-9.525346,-0.265423,0.879962,-0.213039,-0.114537,0.150120
1765410105.048015,-9.312529,-0.656384,0.656384,-0.221591,-0.114232,0.146455
1765410105.048215,-9.340028,-0.498565,0.388570,-0.213039,-0.114232,0.134696
1765410105.048415,-9.340028,-0.498565,0.388570,-0.213039,-0.126449,0.134696
1765410105.048615,-9.097322,-0.602582,0.344333,-0.209527,-0.117133,0.118661
1765410105.048815,-9.084767,-0.255858,0.554161,-0.212887,-0.110719,0.113621
1765410105.048964,-9.030965,-0.237924,0.711382,-0.218537,-0.126755,0.113010
1765410105.049214,-8.993303,-0.052606,0.170971,-0.207389,-0.126755,0.111636
1765410105.049464,-9.206120,-0.347920,0.567910,-0.208152,-0.131031,0.111177
1765410105.049714,-9.037540,-0.328192,0.285748,-0.202807,-0.115912,0.105374
1765410105.050011,-9.267097,-0.269010,0.472262,-0.206625,-0.128129,0.105222
1765410105.050261,-9.637732,-0.241511,0.700024,-0.215330,-0.126755,0.094684
1765410105.050511,-9.751313,-0.071736,0.781325,-0.207694,-0.126755,0.098807
1765410105.050761,-9.751313,-0.071736,0.781325,-0.207694,-0.120035,0.098807
1765410105.050973,-9.427306,-0.425634,0.712578,-0.211054,-0.144164,0.090255
1765410105.051223,-9.506814,-0.482425,0.438785,-0.206320,-0.144164,0.083841
1765410105.051473,-9.621591,-0.260641,0.383788,-0.199142,-0.145691,0.076969
1765410105.051723,-9.477522,-0.288140,0.710186,-0.197768,-0.132863,0.078191
1765410105.052010,-9.493662,-0.135103,0.888331,-0.200211,-0.121562,0.069028
1765410105.052260,-9.197153,-0.188307,0.686274,-0.193950,-0.125686,0.071319
1765410105.052510,-9.004064,-0.115973,0.283357,-0.190285,-0.136834,0.069333
1765410105.052760,-9.136776,-0.008369,0.561932,-0.187536,-0.137292,0.070097
1765410105.052998,-9.042323,-0.236729,0.764586,-0.180205,-0.124617,0.071624
1765410105.053248,-8.940698,-0.338355,0.800454,-0.180205,-0.121104,0.065973
1765410105.053498,-8.912601,-0.343137,0.856647,-0.175929,-0.125686,0.058948
1765410105.053748,-8.709947,-0.345528,0.542205,-0.175318,-0.122937,0.056505
1765410105.054018,-8.682447,-0.249880,0.500956,-0.165086,-0.123700,0.054367
1765410105.054268,-9.136776,-0.206839,1.267336,-0.158520,-0.109650,0.051007
1765410105.054518,-9.074006,-0.228360,1.227881,-0.151953,-0.112857,0.051007
1765410105.054768,-9.126015,-0.251674,1.060497,-0.149662,-0.109345,0.041386
1765410105.054966,-8.823528,-0.172166,0.828551,-0.139125,-0.096822,0.045051
1765410105.055216,-8.839669,-0.222382,0.814204,-0.139125,-0.096822,0.045051
1765410105.055466,-9.098516,0.010760,1.304400,-0.127518,-0.093157,0.035736
1765410105.055716,-9.137971,-0.159015,1.171688,-0.121562,-0.084758,0.038637
1765410105.056007,-9.093734,-0.194285,1.050932,-0.109956,-0.084758,0.043830
1765410105.056257,-8.998086,-0.327594,1.055117,-0.113163,-0.077274,0.040317
1765410105.056507,-8.952653,-0.529053,1.236250,-0.101404,-0.069639,0.042913
1765410105.056757,-8.732065,-0.908656,0.889526,-0.093921,-0.066737,0.040012
1765410105.056982,-8.952653,-0.914036,0.994141,-0.083230,-0.072693,0.031460
1765410105.057232,-9.002869,-0.924199,0.925394,-0.072846,-0.051924,0.030543
1765410105.057482,-8.974174,-1.013869,0.928981,-0.060170,-0.051924,0.029169
1765410105.057732,-9.086560,-1.153754,1.231468,-0.052229,-0.039095,0.031765
1765410105.057945,-8.978956,-1.417982,0.970827,-0.036041,-0.032376,0.030085
1765410105.058195,-8.880918,-1.371353,0.695839,-0.019548,-0.031612,0.024587
1765410105.058445,-8.907221,-1.111908,0.698230,-0.011301,-0.025045,0.015730
1765410105.058695,-9.269487,-0.755021,1.073649,-0.004887,-0.017104,0.009468
1765410105.058940,-9.222260,-0.439981,0.920612,0.002138,-0.012981,0.004734
1765410105.059140,-9.225250,-0.014347,0.817790,0.001527,-0.005651,0.001374
1765410105.059340,-9.300572,0.176949,0.789694,0.000305,-0.003818,0.001069
1765410105.059540,-9.370515,0.362267,0.618125,0.001222,-0.009927,0.003054
1765410105.059740,-9.516378,0.274988,0.463295,0.003207,-0.002749,0.009621
1765410105.060021,-9.438066,0.251076,0.439981,0.000764,0.004429,0.004123
1765410105.060221,-9.748923,0.156026,0.900287,-0.001069,0.008247,0.006720
1765410105.060421,-9.789574,-0.209828,0.859636,-0.004276,0.012523,0.010232
1765410105.060621,-9.607842,-0.098039,0.168580,0.000153,0.003971,0.003512
1765410105.060821,-9.576756,0.054998,0.011956,0.000458,0.010996,0.005498
1765410105.060986,-9.916904,-0.127331,0.469871,0.003818,0.009163,0.006567
1765410105.061186,-9.977283,0.017934,0.300096,0.002291,0.018173,0.003665
1765410105.061386,-9.812290,0.019130,-0.063367,0.004734,0.019700,0.003665
1765410105.061586,-9.526542,0.198470,-0.407700,0.004887,0.017715,0.002749
1765410105.061786,-10.053802,0.093257,0.334768,0.002749,0.010385,0.006872
1765410105.061965,-9.977283,-0.069943,0.099235,0.002749,0.017257,0.006872
1765410105.062165,-9.990434,-0.132712,0.088474,0.000000,0.019090,0.000611
1765410105.062365,-9.800333,0.018532,-0.239120,-0.000305,0.019090,-0.004123
1765410105.062565,-9.800333,0.018532,-0.239120,-0.000305,0.010843,-0.004123
1765410105.062765,-10.150046,0.326399,0.142276,-0.000458,0.015882,0.003818
1765410105.063005,-10.166186,0.023912,0.245098,-0.005192,0.019853,0.006109
1765410105.063205,-10.246890,-0.156624,0.255858,-0.007941,0.012217,0.002902
1765410105.063405,-10.278573,-0.002391,0.277379,-0.002443,0.007330,-0.001527
1765410105.063605,-10.181729,0.245098,0.191296,-0.006261,0.010690,-0.004581
1765410105.063805,-10.159015,0.344333,0.322812,-0.009468,0.010843,0.002138
1765410105.063979,-10.225968,0.206839,0.367647,-0.011759,0.003665,0.005651
1765410105.064179,-10.263031,0.011956,0.338355,-0.011606,-0.000916,0.003665
1765410105.064379,-10.261237,-0.041248,0.380201,-0.013134,0.000458,0.000000
1765410105.064579,-10.349113,-0.016141,0.496174,-0.010690,-0.000153,-0.001069
1765410105.064779,-10.446555,0.036466,0.486011,-0.013592,-0.003207,-0.001374
1765410105.064990,-10.369438,0.040650,0.395744,-0.012370,-0.003207,-0.001222
1765410105.065190,-10.369438,0.040650,0.395744,-0.012370,-0.007025,-0.001222
1765410105.065390,-10.313247,-0.014347,0.390363,-0.011912,-0.013592,-0.001527
1765410105.065590,-10.215207,-0.074127,0.390961,-0.010996,-0.010232,-0.001222
1765410105.065790,-10.125537,-0.066954,0.309063,-0.010232,-0.010079,-0.000764
1765410105.065922,-10.160808,-0.063367,0.426829,-0.008399,-0.013286,-0.001374
1765410105.066122,-10.160808,-0.063367,0.426829,-0.008399,-0.014355,-0.001374
1765410105.066322,-9.952174,-0.133309,0.236729,-0.008094,-0.016493,-0.005803
1765410105.066522,-9.887015,0.019130,0.284553,-0.009927,-0.015730,-0.007025
1765410105.066722,-9.850550,0.096844,0.203850,-0.006109,-0.016035,-0.001680
1765410105.066930,-9.797942,0.000000,0.208632,-0.009316,-0.016035,-0.000305
1765410105.067130,-9.797942,0.000000,0.208632,-0.009316,-0.017410,-0.000305
1765410105.067330,-9.930056,0.004782,0.294118,-0.007025,-0.009927,-0.004581
1765410105.067530,-9.849951,0.048422,0.271401,-0.007483,-0.009927,-0.004429
1765410105.067730,-9.795551,-0.005978,0.209230,-0.010385,-0.012523,-0.003665
1765410105.068020,-9.904947,0.065758,0.235533,-0.010232,-0.018479,-0.003512
1765410105.068220,-9.911524,0.045433,0.246294,-0.010385,-0.016341,-0.002749
1765410105.068420,-9.917501,-0.106408,0.363462,-0.011301,-0.013897,-0.000458
1765410105.068620,-9.941415,-0.117169,0.345528,-0.013134,-0.014508,-0.002749
1765410105.068820,-9.898971,-0.105213,0.194883,-0.013592,-0.012675,-0.001374
1765410105.068974,-9.861907,-0.138690,0.295911,-0.008705,-0.016799,-0.003054
1765410105.069174,-9.988043,-0.027499,0.465686,-0.011606,-0.014508,0.000153
1765410105.069374,-10.019128,0.020325,0.467480,-0.009927,-0.012828,0.002138
1765410105.069574,-9.916904,-0.132712,0.395744,-0.010537,-0.014203,-0.001069
1765410105.069774,-9.916904,-0.132712,0.395744,-0.010537,-0.015577,-0.001069
1765410105.069963,-9.891200,-0.079507,0.399330,-0.009621,-0.014813,-0.004123
1765410105.070163,-9.929459,-0.059780,0.444763,-0.010079,-0.013744,-0.001222
1765410105.070363,-9.947392,-0.142276,0.462697,-0.010537,-0.015882,-0.003207
1765410105.070563,-9.893590,-0.070540,0.355093,-0.009316,-0.013134,-0.002291
1765410105.070763,-9.843375,-0.075323,0.328192,-0.004887,-0.010996,0.001374
1765410105.070998,-9.782400,-0.131516,0.449546,-0.010537,-0.009163,0.002291
1765410105.071248,-9.819464,-0.115973,0.319823,-0.008552,-0.013897,0.001527
1765410105.071498,-9.792562,-0.089670,0.258250,-0.006109,-0.013134,0.001985
1765410105.071748,-9.814680,-0.142874,0.377810,-0.007941,-0.012523,-0.002291
1765410105.071950,-9.800333,-0.062171,0.396939,-0.004887,-0.008705,-0.003971
1765410105.072150,-9.853538,0.019130,0.322812,-0.005040,-0.010232,0.000000
1765410105.072350,-9.823050,-0.080105,0.408297,-0.005651,-0.011301,0.000458
1765410105.072550,-9.888808,-0.088474,0.457915,-0.006872,-0.008552,-0.000458
1765410105.072750,-9.896580,0.004782,0.365854,-0.008552,-0.006567,-0.002596
1765410105.072984,-9.787182,0.002391,0.338953,-0.005040,-0.005192,-0.001833
1765410105.073184,-9.759683,-0.034672,0.315638,-0.005803,-0.007636,0.000458
1765410105.073384,-9.824244,0.019130,0.308465,-0.006109,-0.008705,-0.000305
1765410105.073584,-9.806311,0.056193,0.287542,-0.008247,-0.005803,-0.000916
1765410105.073784,-9.821257,-0.032879,0.334768,-0.008552,-0.005651,0.001222
1765410105.073971,-9.893590,-0.047824,0.352104,-0.007178,-0.006109,0.000153
1765410105.074171,-9.923481,0.025108,0.280966,-0.007789,-0.001222,-0.001833
1765410105.074371,-9.809898,-0.009565,0.245098,-0.007178,-0.001985,0.001222
1765410105.074571,-9.842180,-0.041248,0.291129,-0.008552,-0.003512,0.001069
1765410105.074771,-10.005977,0.017934,0.380201,-0.007636,-0.004276,0.001680
1765410105.075067,-9.973696,-0.015543,0.289335,-0.006872,0.000458,0.000764
1765410105.075267,-10.001194,-0.046628,0.392157,-0.009010,-0.004887,-0.000611
1765410105.075467,-10.078907,-0.017336,0.462697,-0.009010,-0.000458,-0.001222
1765410105.075667,-10.084887,0.039455,0.396341,-0.006872,0.000611,-0.001527
1765410105.075867,-9.943806,-0.056193,0.203252,-0.009163,-0.000305,0.000153
1765410105.075952,-9.949186,-0.063367,0.311454,-0.009774,-0.005498,-0.001527
1765410105.076152,-10.102820,0.010760,0.477044,-0.007941,-0.002596,-0.000916
1765410105.076352,-10.084887,0.030488,0.382592,-0.009621,-0.002596,-0.001069
1765410105.076552,-9.990434,-0.085485,0.289335,-0.008858,-0.005498,-0.000153
1765410105.076752,-10.036465,-0.083692,0.377810,-0.011148,-0.004429,-0.001680
1765410105.076990,-10.017335,-0.023912,0.309063,-0.009010,-0.004276,-0.001222
1765410105.077190,-9.925274,0.031683,0.300096,-0.007941,-0.008858,-0.001374
1765410105.077390,-9.955164,-0.039455,0.352702,-0.009927,-0.006872,-0.000916
1765410105.077590,-9.977880,-0.022716,0.350311,-0.007789,-0.007789,-0.000611
1765410105.077790,-9.912720,0.011358,0.236729,-0.008247,-0.006414,-0.000764
1765410105.077975,-9.846962,-0.093257,0.185318,-0.009316,-0.004123,0.000764
1765410105.078175,-9.925871,-0.039455,0.331779,-0.008399,-0.008247,-0.000764
1765410105.078375,-10.040649,0.046628,0.353898,-0.010843,-0.009163,0.000000
1765410105.078575,-9.933045,-0.039455,0.276184,-0.006720,-0.001374,0.001222
1765410105.078775,-9.953370,-0.087279,0.321616,-0.008705,-0.005956,0.000611
1765410105.078972,-10.007172,-0.014945,0.351506,-0.008705,-0.005956,-0.000916
1765410105.079172,-9.983260,-0.033477,0.270206,-0.008705,-0.007330,-0.000916
1765410105.079372,-9.930654,-0.070540,0.284553,-0.011148,-0.005192,0.000916
1765410105.079572,-10.009563,-0.061573,0.431014,-0.011912,-0.006414,-0.000458
1765410105.079772,-10.052606,-0.009565,0.347920,-0.006414,-0.005803,0.000153
1765410105.079974,-10.004781,-0.063965,0.382592,-0.007789,-0.005803,-0.001374
1765410105.080174,-10.004781,-0.063965,0.382592,-0.007789,-0.008705,-0.001374
1765410105.080374,-10.021520,-0.040650,0.383788,-0.009010,-0.009927,-0.002596
1765410105.080574,-9.936632,-0.013152,0.255858,-0.007789,-0.009927,-0.001527
1765410105.080774,-9.936632,-0.013152,0.255858,-0.007789,-0.008399,-0.001527
1765410105.080995,-9.948587,-0.060976,0.405906,-0.007483,-0.008552,-0.002596
1765410105.081195,-9.927666,0.002391,0.306074,-0.003818,-0.007330,-0.000764
1765410105.081395,-9.852941,-0.054998,0.268412,-0.009163,-0.008705,-0.000153
1765410105.081595,-9.911524,-0.093257,0.368843,-0.008858,-0.008705,0.000153
1765410105.081795,-10.007771,-0.017934,0.391559,-0.007178,-0.009316,0.000305
1765410105.081911,-9.927666,-0.010760,0.347920,-0.007789,-0.006109,-0.000458
1765410105.082111,-9.898373,-0.077714,0.416069,-0.010996,-0.005192,-0.001680
1765410105.082311,-9.921686,-0.021521,0.347920,-0.005498,-0.008399,-0.002443
1765410105.082511,-9.854136,-0.003587,0.210426,-0.006720,-0.008399,0.000611
1765410105.082711,-9.814680,-0.050215,0.282162,-0.008399,-0.007941,0.001374
1765410105.082975,-9.910329,-0.059182,0.412482,-0.010385,-0.007330,-0.001374
1765410105.083175,-9.953370,-0.029890,0.386179,-0.006567,-0.005956,0.000000
1765410105.083375,-9.880439,-0.013152,0.334768,-0.009010,-0.004887,-0.000764
1765410105.083575,-9.836202,-0.092061,0.314443,-0.009010,-0.007025,-0.002596
1765410105.083775,-9.921089,-0.069345,0.287542,-0.006567,-0.007483,-0.001680
1765410105.084025,-9.964728,-0.003587,0.374223,-0.007025,-0.003054,-0.001069
1765410105.084225,-9.966521,-0.056193,0.450741,-0.008858,-0.003054,0.000000
1765410105.084425,-9.967119,0.001196,0.382592,-0.009621,-0.005803,-0.001222
1765410105.084625,-10.010758,0.015543,0.288140,-0.007025,-0.002902,0.000305
1765410105.084825,-9.912720,-0.084290,0.305476,-0.007025,-0.006109,0.000305
1765410105.084998,-10.028693,-0.064562,0.454926,-0.010385,-0.008094,-0.000458
1765410105.085198,-10.054996,0.011956,0.389168,-0.006720,-0.005803,-0.000153
1765410105.085398,-10.054996,0.011956,0.389168,-0.006720,-0.006109,-0.000153
1765410105.085598,-9.947392,-0.072932,0.383190,-0.007789,-0.006567,-0.001374
1765410105.085798,-10.026302,-0.023912,0.409493,-0.008552,-0.007025,0.000916
1765410105.086014,-9.945002,0.017336,0.351506,-0.006261,-0.003971,-0.000611
1765410105.086214,-9.853538,-0.039455,0.218795,-0.008094,-0.003971,-0.000305
1765410105.086414,-9.929459,-0.035868,0.383788,-0.010079,-0.008399,-0.000916
1765410105.086614,-10.025107,0.001196,0.373625,-0.010079,-0.005803,-0.001069
1765410105.086814,-9.935436,-0.007174,0.315638,-0.005956,-0.003207,0.001833
1765410105.086978,-9.874461,-0.053802,0.245696,-0.009316,-0.010232,0.000764
1765410105.087178,-9.923481,-0.043042,0.326997,-0.007178,-0.010232,-0.000611
1765410105.087378,-9.997607,0.029890,0.367049,-0.009316,-0.007636,-0.000916
1765410105.087578,-10.010758,-0.060378,0.366451,-0.008858,-0.006872,0.000305
1765410105.087778,-9.999401,-0.108800,0.370636,-0.007483,-0.009163,-0.002291
1765410105.088047,-10.066953,-0.006576,0.379005,-0.006261,-0.007483,-0.002596
1765410105.088247,-9.980869,-0.022716,0.328790,-0.009621,-0.003512,0.001527
1765410105.088447,-9.878646,-0.087877,0.321616,-0.009316,-0.005192,-0.000458
1765410105.088647,-9.995814,-0.050215,0.447154,-0.008552,-0.010690,0.000153
1765410105.088847,-9.967718,-0.020325,0.381396,-0.007789,-0.006720,0.000458
1765410105.089036,-9.616212,-0.282162,0.553563,-0.008247,-0.007025,0.000305
1765410105.089236,-9.179817,-0.104017,-0.279770,-0.009163,-0.003512,-0.007941
1765410105.089436,-9.462577,0.386777,-0.184122,-0.008552,-0.008247,-0.003971
1765410105.089636,-10.090864,0.185916,0.988761,-0.003207,0.002138,0.009621
1765410105.089836,-9.966521,-0.277379,1.030607,-0.008858,0.012217,0.007178
1765410105.090037,-9.876852,-0.010760,0.686872,-0.008858,0.011454,0.007178
1765410105.090287,-9.500237,-0.313247,-0.187709,-0.011301,0.000000,0.001527
1765410105.090537,-9.689142,-0.367049,-0.419656,-0.001527,-0.018021,-0.003054
1765410105.090787,-10.405307,0.206839,0.937350,-0.002596,0.019395,-0.010537
1765410105.091058,-10.312649,0.438187,1.195600,-0.010232,0.019395,-0.005040
1765410105.091258,-9.614418,0.133907,0.027499,-0.012065,0.011301,0.006567
1765410105.091458,-9.609037,-0.412482,-0.114180,-0.007636,-0.007178,0.010385
1765410105.091658,-9.843973,-0.625299,0.288140,-0.005651,-0.004581,-0.006109
1765410105.091858,-10.247488,0.104615,0.876375,-0.007178,0.008858,-0.014203
1765410105.092001,-10.046627,0.533835,0.360473,-0.006109,0.016035,-0.003818
1765410105.092201,-9.695121,0.115973,0.033477,-0.008552,0.003207,0.007789
1765410105.092401,-9.791965,-0.344931,0.303682,-0.009621,-0.000305,0.009010
1765410105.092601,-9.791965,-0.344931,0.303682,-0.009621,0.002902,0.009010
1765410105.092801,-9.789574,-0.184122,0.249880,-0.007789,0.003818,-0.010232
1765410105.092989,-9.728598,0.095648,0.101626,-0.009316,0.003818,-0.006872
1765410105.093189,-9.912720,0.387374,0.301889,-0.005192,0.003665,0.000611
1765410105.093389,-9.956359,0.117169,0.431612,-0.005956,0.006567,0.004887
1765410105.093589,-9.907339,-0.295313,0.382592,-0.011301,0.005956,0.003818
1765410105.093789,-9.921089,-0.266619,0.227164,-0.010079,0.005803,-0.002749
1765410105.094009,-9.809898,-0.013152,0.120158,-0.006109,0.005803,-0.007330
1765410105.094209,-9.756096,0.112386,0.276184,-0.005040,0.011148,-0.005192
1765410105.094409,-9.788976,0.185318,0.315638,-0.006720,0.010079,0.000305
1765410105.094609,-9.840983,0.105811,0.181731,-0.009774,0.007483,0.003512
1765410105.094809,-9.916306,-0.187709,0.239718,-0.012370,0.010232,0.003512
1765410105.095007,-10.065758,-0.364658,0.497370,-0.008552,0.007330,0.003054
1765410105.095207,-10.098038,-0.127929,0.554758,-0.008705,0.006414,-0.008858
1765410105.095407,-9.945002,0.204448,0.258250,-0.007025,0.004276,-0.007636
1765410105.095607,-9.814680,0.182927,0.159015,-0.006109,0.004276,0.000764
1765410105.095807,-9.930654,0.038259,0.395744,-0.008552,0.008399,0.006261
1765410105.095995,-9.955164,-0.185318,0.364658,-0.009621,0.006872,0.005345
1765410105.096195,-9.955164,-0.185318,0.228360,-0.009621,0.005956,0.005345
1765410105.096395,-9.930654,-0.173362,0.163797,-0.006567,0.001374,-0.003665
1765410105.096595,-10.071137,0.114778,0.377810,-0.005498,0.001374,-0.003360
1765410105.096795,-10.027497,0.175753,0.439981,-0.009010,0.010079,-0.000305
1765410105.096971,-9.869678,-0.038857,0.174558,-0.008094,0.008705,0.002138
1765410105.097171,-9.958751,-0.163797,0.154830,-0.009010,0.001374,0.002596
1765410105.097371,-10.123744,-0.121951,0.396939,-0.007330,0.010843,0.000764
1765410105.097571,-10.105211,-0.076518,0.518890,-0.006872,0.010843,-0.001833
1765410105.097771,-10.088473,-0.003587,0.444165,-0.009468,0.007941,-0.002596
1765410105.097986,-10.037660,0.040650,0.245098,-0.011912,-0.002138,0.000153
1765410105.098186,-9.976088,0.051411,0.150048,-0.007330,0.001069,0.000611
1765410105.098386,-9.976088,0.051411,0.150048,-0.007330,-0.000305,0.000611
1765410105.098586,-10.087276,-0.062171,0.497967,-0.007025,0.002749,-0.001985
1765410105.098786,-10.099831,-0.008369,0.346724,-0.008705,0.000916,-0.000764
1765410105.098959,-9.993423,-0.022716,0.211621,-0.010537,-0.001527,0.000305
1765410105.099159,-10.087276,-0.005978,0.429818,-0.008552,-0.001527,-0.002443
1765410105.099359,-10.139286,-0.023314,0.379603,-0.009316,0.001680,-0.001069
1765410105.099559,-10.080104,-0.050215,0.289335,-0.007941,-0.001222,-0.000764
1765410105.099759,-10.009563,-0.101626,0.241511,-0.009774,-0.002443,-0.001527
1765410105.100051,-10.060975,-0.020325,0.315638,-0.009010,-0.003054,-0.000305
1765410105.100301,-10.050214,-0.037661,0.357484,-0.007789,0.002596,0.000000
1765410105.100551,-10.004781,-0.113582,0.370636,-0.010537,-0.002749,-0.003207
1765410105.100801,-10.004781,-0.129125,0.289335,-0.008094,-0.007636,-0.003054
1765410105.101913,-9.970706,-0.027499,0.184720,-0.004429,-0.002749,-0.002596
1765410105.103985,-9.888210,0.002989,0.280966,-0.006567,-0.002749,-0.000153
1765410105.107055,-9.973696,0.078312,0.386179,-0.008094,-0.002749,0.001069
1765410105.109038,-9.973696,0.078312,0.386179,-0.008094,-0.005651,0.001069
1765410105.112052,-9.932447,-0.182927,0.269010,-0.007941,-0.006567,0.001527
1765410105.114037,-10.011356,-0.161406,0.398733,-0.006567,-0.006872,-0.001222
1765410105.115046,-9.971304,0.013152,0.320421,-0.007330,-0.005345,-0.002138
1765410105.119086,-9.910329,0.125538,0.198470,-0.007178,-0.003054,-0.001985
1765410105.120988,-9.833811,0.031086,0.227164,-0.007789,-0.008094,0.001069
1765410105.124039,-9.950979,-0.080105,0.344333,-0.008094,-0.006414,0.003971
1765410105.126103,-9.998802,-0.081899,0.364060,-0.007789,-0.006261,0.002596
1765410105.129041,-9.998802,-0.081899,0.364060,-0.007789,-0.003054,0.002596
1765410105.132142,-9.923481,-0.062171,0.295313,-0.009468,-0.007330,-0.003054
1765410105.134039,-9.954566,0.047824,0.353898,-0.009163,-0.007636,-0.002138
1765410105.136038,-9.884026,0.098039,0.280368,-0.009010,-0.003054,0.000916
1765410105.138980,-9.827234,-0.024510,0.173362,-0.009774,-0.002291,0.001680
1765410105.139982,-9.890601,-0.114778,0.313247,-0.011606,-0.007636,0.000153
1765410105.143958,-9.982065,-0.141081,0.416069,-0.006414,-0.009774,-0.002902
1765410105.146936,-9.900764,-0.077714,0.307269,-0.007178,-0.007941,-0.001222
1765410105.149000,-9.858918,0.045433,0.283357,-0.009621,-0.007025,-0.004276
1765410105.151040,-9.892395,0.077714,0.325203,-0.008552,-0.007025,-0.000305
1765410105.153973,-9.870873,0.000000,0.287542,-0.007483,-0.006261,0.003818
1765410105.156931,-9.827832,-0.091463,0.252272,-0.010385,-0.001527,0.001985
1765410105.157973,-9.907937,-0.130320,0.349115,-0.010232,-0.003512,-0.001985
1765410105.161010,-9.989238,-0.077714,0.431612,-0.006414,-0.004276,-0.004887
1765410105.163941,-9.947989,0.026901,0.344931,-0.006261,-0.004276,-0.004276
1765410105.166996,-9.934240,0.044237,0.381396,-0.008094,0.000000,-0.001374
1765410105.169001,-9.909132,-0.005978,0.309660,-0.008094,-0.001833,0.000153
1765410105.171042,-9.873863,-0.031086,0.241511,-0.007025,-0.001222,0.002291
1765410105.173982,-9.879243,-0.088474,0.292922,-0.008858,-0.003207,0.001527
1765410105.176932,-9.974891,-0.077116,0.448948,-0.008858,-0.003207,-0.001985
1765410105.178941,-9.979673,-0.009565,0.419656,-0.008399,-0.003818,-0.002138
1765410105.181923,-9.848756,-0.008967,0.217599,-0.008399,0.000000,0.000153
1765410105.182423,-9.754900,-0.062769,0.191894,-0.010843,-0.001833,0.003360
1765410105.186927,-9.933045,-0.032281,0.400526,-0.006109,-0.004429,0.000916
1765410105.188961,-9.995216,-0.017934,0.392157,-0.008094,-0.000916,-0.002596
1765410105.191959,-9.855330,-0.047226,0.318627,-0.010385,0.000305,-0.002291
1765410105.193935,-9.854733,-0.054998,0.329388,-0.007025,0.001527,-0.000153
1765410105.194963,-9.927666,-0.038259,0.338355,-0.008858,-0.002291,0.001222
1765410105.198939,-9.856527,-0.080105,0.235533,-0.007025,-0.000458,0.000916
1765410105.201937,-9.887612,-0.052606,0.352702,-0.009163,-0.000458,-0.004429
1765410105.204018,-9.988043,-0.014945,0.431612,-0.010079,-0.003665,-0.002749
1765410105.206956,-9.945600,0.015543,0.327594,-0.009010,0.000153,-0.001374
1765410105.207456,-9.848756,-0.035868,0.291726,-0.012217,0.000153,-0.000916
1765410105.212028,-9.900167,-0.028694,0.294118,-0.008705,0.001374,0.001222
1765410105.212528,-9.927068,-0.026303,0.312052,-0.010079,-0.000153,0.001222
1765410105.217049,-9.907937,-0.057987,0.319225,-0.010385,0.003360,-0.000611
1765410105.218991,-9.948587,-0.014347,0.314443,-0.012065,-0.000611,-0.000611
1765410105.220051,-9.958751,0.041846,0.285748,-0.008858,-0.000611,0.000153
1765410105.223979,-9.958751,0.041846,0.285748,-0.008858,0.005803,0.000153
1765410105.226024,-9.931850,-0.027499,0.344333,-0.008247,0.003360,-0.000458
1765410105.228067,-9.999401,-0.034672,0.405308,-0.009468,0.002902,0.000305
1765410105.231101,-9.964130,-0.031086,0.304280,-0.008705,0.003207,0.000458
1765410105.234039,-9.882233,-0.039455,0.218795,-0.008705,0.003207,-0.000916
1765410105.236978,-9.943806,-0.039455,0.304878,-0.011148,0.000916,0.000000
1765410105.239026,-10.007771,0.004782,0.375418,-0.010843,0.004123,-0.001374
1765410105.241991,-9.928263,-0.004782,0.235533,-0.006567,0.005803,0.000764
1765410105.242491,-9.849353,-0.094452,0.211023,-0.008858,0.001833,0.000305
1765410105.244935,-9.948587,-0.068149,0.347920,-0.010232,0.001069,0.000458
1765410105.249020,-10.017933,-0.044237,0.374821,-0.006109,-0.002291,0.000000
1765410105.252005,-9.917501,0.005978,0.202056,-0.009621,-0.001222,0.000153
1765410105.253977,-9.950979,-0.013152,0.254663,-0.008705,-0.001222,0.001374
1765410105.256984,-10.008965,-0.020325,0.344333,-0.007330,0.000764,-0.000764
1765410105.258964,-9.996411,-0.024510,0.350311,-0.009163,0.002291,0.003818
1765410105.261971,-9.950979,-0.034672,0.221784,-0.011301,0.006261,0.003054
1765410105.263964,-10.026900,-0.052606,0.388570,-0.010843,0.000153,0.001527
1765410105.266015,-10.076518,-0.034672,0.423242,-0.008094,0.000153,0.001374
1765410105.269033,-10.076518,-0.034672,0.423242,-0.008094,0.000611,0.001374
1765410105.271946,-9.898373,-0.025108,0.216404,-0.009468,0.003818,0.002596
1765410105.273986,-9.984456,-0.047226,0.322214,-0.009774,-0.000764,0.001069
1765410105.276952,-10.032280,0.001196,0.413678,-0.007025,-0.000458,0.003207
1765410105.278963,-10.040649,-0.033477,0.340746,-0.006872,0.003054,0.002291
1765410105.281974,-10.040649,-0.033477,0.340746,-0.006872,0.000153,0.002291
1765410105.284014,-9.995216,0.022119,0.276184,-0.008399,-0.000611,-0.000153
1765410105.286950,-9.970109,0.058584,0.314443,-0.008705,-0.000611,0.000000
1765410105.288956,-9.949782,-0.003587,0.347322,-0.011759,-0.004429,0.003818
1765410105.291950,-9.973696,-0.014945,0.346126,-0.010537,-0.003054,0.004123
1765410105.294000,-9.942610,-0.073529,0.233142,-0.010690,-0.003207,0.004123
1765410105.296947,-9.923481,-0.083692,0.233142,-0.006414,-0.002596,0.000764
1765410105.299016,-9.943806,-0.047824,0.312649,-0.007330,-0.002443,0.001222
1765410105.302010,-9.992227,0.008369,0.260641,-0.008552,-0.000153,-0.001527
1765410105.303936,-9.982065,-0.022716,0.300693,-0.009468,-0.001985,0.003665
1765410105.306995,-9.999999,-0.015543,0.374223,-0.008858,-0.002749,0.003512
1765410105.308993,-9.986250,0.026303,0.272597,-0.005498,-0.000764,0.003512
1765410105.312025,-9.921686,-0.019130,0.331181,-0.009621,-0.004123,0.001833
1765410105.314070,-9.931850,-0.048422,0.383788,-0.007941,-0.005956,0.003360
1765410105.317052,-9.935436,-0.004185,0.300693,-0.007636,-0.005345,0.003207
1765410105.319018,-9.923481,-0.047226,0.244500,-0.008705,-0.004734,0.000305
1765410105.321961,-9.919296,-0.044237,0.319225,-0.008094,-0.005345,0.003512
1765410105.324044,-9.952174,-0.014347,0.310856,-0.009010,-0.003971,0.002138
1765410105.326021,-9.931850,-0.032281,0.243902,-0.009010,-0.002443,0.002138
1765410105.329011,-9.935436,-0.081899,0.285748,-0.009927,-0.004429,0.000153
1765410105.330038,-9.912122,-0.061573,0.284553,-0.011148,-0.001527,0.002749
1765410105.334016,-9.839788,0.003587,0.180536,-0.010843,0.000611,-0.000305
1765410105.336214,-9.869678,0.056193,0.213415,-0.010537,0.002138,0.003818
1765410105.338994,-9.892993,0.016738,0.283357,-0.004123,0.002596,0.005956
1765410105.343407,-9.882831,-0.004782,0.300096,-0.007636,0.006414,0.005192
1765410105.345566,-9.832017,0.008369,0.335964,-0.006414,0.007636,0.003512
1765410105.346083,-9.825441,-0.016141,0.335964,-0.011148,0.002138,0.003207
1765410105.348991,-9.844571,-0.043042,0.296509,-0.012065,0.000153,0.002749
1765410105.352032,-9.832017,-0.042444,0.234338,-0.012675,0.004887,0.004123
1765410105.354056,-9.863102,-0.037064,0.371234,-0.008399,0.004887,0.005498
1765410105.357022,-9.997607,-0.059780,0.605571,-0.007789,0.001833,0.003054
1765410105.359016,-10.020324,-0.049617,0.504543,-0.010690,-0.002443,0.000458
1765410105.361951,-9.858320,-0.062171,0.078910,-0.010690,-0.006109,0.002291
1765410105.364012,-9.898373,0.013152,0.246294,-0.009163,-0.002138,0.000153
1765410105.367008,-9.973696,0.022716,0.508130,-0.010232,0.000611,0.002749
1765410105.369012,-9.911524,0.011956,0.339550,-0.007941,-0.000764,0.000000
1765410105.370017,-9.761477,-0.007174,0.077714,-0.009316,-0.000764,0.002443
1765410105.374046,-9.807508,-0.034075,0.231946,-0.013286,-0.003665,0.004123
1765410105.377014,-9.910329,-0.021521,0.364658,-0.011606,0.002443,0.002291
1765410105.378950,-9.894786,0.015543,0.277379,-0.011301,0.000611,0.003512
1765410105.382013,-9.793160,-0.005978,0.150646,-0.010232,0.000916,0.002902
1765410105.384003,-9.815279,-0.007174,0.199067,-0.009927,-0.001833,0.005651
1765410105.387024,-9.930056,-0.037064,0.308465,-0.009468,0.003971,0.006261
1765410105.388987,-9.906144,-0.045433,0.337159,-0.010232,0.004123,0.005192
1765410105.391998,-9.868484,0.016141,0.279770,-0.010690,0.006414,0.002443
1765410105.392498,-9.794952,-0.000598,0.091463,-0.008552,0.005040,0.005651
1765410105.397177,-9.893590,0.003587,0.202654,-0.009774,0.005498,0.005345
1765410105.398995,-10.017933,-0.055595,0.430416,-0.011912,0.009621,0.003818
1765410105.401964,-10.005977,-0.115973,0.396341,-0.010385,0.013592,0.003054
1765410105.404057,-9.931850,-0.053802,0.300693,-0.012523,0.009621,0.003818
1765410105.406969,-9.922284,-0.041846,0.332975,-0.009010,0.009468,0.003207
1765410105.408980,-9.964130,-0.004782,0.380799,-0.010996,0.009468,0.004734
1765410105.409968,-9.918099,0.004782,0.299498,-0.013134,0.007025,0.004276
1765410105.414044,-9.917501,0.000000,0.301291,-0.013897,0.008247,0.004276
1765410105.416087,-9.922284,-0.056193,0.296509,-0.011759,0.008399,0.004734
1765410105.419155,-9.949782,-0.026901,0.312052,-0.009927,0.007025,0.006109
1765410105.422029,-9.912122,-0.002391,0.197274,-0.009621,0.005803,0.005803
1765410105.424075,-9.965326,-0.013749,0.270206,-0.010537,0.006414,0.003971
1765410105.427047,-9.937828,-0.010163,0.385581,-0.008705,0.006414,0.007025
1765410105.429074,-9.916306,0.000000,0.321616,-0.009621,0.006872,0.004429
1765410105.430074,-9.882831,-0.060976,0.221186,-0.009316,0.006109,0.006109
1765410105.433979,-9.983858,-0.054998,0.335964,-0.010537,0.004887,0.004429
1765410105.437057,-10.075920,-0.046628,0.486011,-0.011454,0.003971,0.004887
1765410105.437557,-10.054996,-0.011358,0.410689,-0.011606,0.003971,0.003971
1765410105.441996,-9.974891,0.022716,0.297107,-0.011606,-0.001680,0.003971
1765410105.444001,-9.857722,0.054998,0.142874,-0.011148,-0.000305,0.005498
1765410105.447046,-9.917501,0.040650,0.282162,-0.010996,0.000153,0.009468
1765410105.449037,-9.951577,-0.051411,0.345528,-0.011912,0.004581,0.007330
1765410105.451110,-9.966521,-0.093257,0.308465,-0.012065,0.004581,0.006261
1765410105.454035,-9.966521,-0.093257,0.308465,-0.012065,0.003512,0.006261
1765410105.457035,-10.052606,-0.044237,0.376614,-0.012217,0.007483,0.005956
1765410105.459010,-10.026302,0.017934,0.346724,-0.011606,0.007483,0.004276
1765410105.462014,-10.026302,0.017934,0.346724,-0.011606,0.003512,0.004276
1765410105.462514,-10.030487,-0.001196,0.463295,-0.013897,0.000916,0.009468
1765410105.465035,-9.970109,-0.046031,0.395744,-0.012981,0.008705,0.008705
1765410105.468044,-9.882233,-0.063965,0.230153,-0.013134,-0.000916,0.007941
1765410105.472044,-9.922883,-0.060976,0.221186,-0.011301,-0.000916,0.004581
1765410105.473991,-9.969511,-0.017934,0.284553,-0.010537,0.001527,0.005498
1765410105.476981,-9.901959,0.016738,0.196676,-0.008705,0.001680,0.005651
1765410105.479030,-9.867885,-0.003587,0.233740,-0.010537,0.003054,0.005498
1765410105.482060,-9.887612,-0.004185,0.340148,-0.013744,0.003818,0.006414
1765410105.484007,-9.931850,-0.007174,0.265423,-0.012370,0.003818,0.005651
1765410105.487052,-9.953370,-0.045433,0.288140,-0.013286,0.004734,0.007025
1765410105.489091,-9.938425,-0.068747,0.301291,-0.014813,0.007330,0.006261
1765410105.492066,-9.939023,0.024510,0.332975,-0.013744,0.007330,0.003971
1765410105.494070,-9.913916,0.105213,0.236131,-0.011912,0.004887,0.006109
1765410105.496998,-9.901959,0.065160,0.312052,-0.011454,0.006414,0.008705
1765410105.499003,-9.923481,0.010760,0.297704,-0.008094,0.008247,0.008094
1765410105.502031,-9.924676,-0.049020,0.266619,-0.010385,0.010079,0.009621
1765410105.504019,-9.936632,-0.133907,0.276184,-0.011759,0.006872,0.006567
1765410105.507031,-9.936632,-0.133907,0.276184,-0.011759,0.004734,0.006567
1765410105.507531,-9.869678,-0.059182,0.242707,-0.011301,0.011759,0.003818
1765410105.512012,-9.893590,0.074127,0.165591,-0.011759,0.010996,0.004123
1765410105.514023,-9.988641,0.034672,0.375418,-0.016341,0.007789,0.006567
1765410105.517120,-10.027497,0.061573,0.359876,-0.014355,0.007789,0.005345
1765410105.519040,-10.027497,0.061573,0.359876,-0.014355,0.007483,0.005345
1765410105.522000,-9.879243,-0.057389,0.251076,-0.014508,0.009010,0.008094
1765410105.524018,-10.078907,0.013152,0.515304,-0.015577,0.009010,0.004429
1765410105.525082,-9.910329,0.034672,0.233142,-0.013439,0.007789,0.004123
1765410105.527062,-9.919296,0.113582,0.182927,-0.013134,0.006872,0.006261
1765410105.531097,-9.959946,0.038259,0.310258,-0.017868,0.011606,0.009774
1765410105.534043,-10.004781,-0.078910,0.290531,-0.017562,0.005803,0.010079
1765410105.537088,-10.058583,-0.083692,0.387374,-0.015577,0.009927,0.009468
1765410105.537588,-9.898971,-0.151841,0.205643,-0.013286,0.009774,0.009316
1765410105.542076,-9.939023,-0.092061,0.180536,-0.011454,0.003360,0.005192
1765410105.544034,-10.026302,0.038259,0.288140,-0.012523,0.008552,0.005192
1765410105.547059,-10.029889,0.040650,0.306074,-0.010843,0.011148,0.006414
1765410105.549036,-9.951577,0.154232,0.190100,-0.011606,0.008094,0.007178
1765410105.551076,-9.903752,0.015543,0.203252,-0.012065,0.008552,0.013897
1765410105.554033,-9.922284,-0.054998,0.197274,-0.014203,0.007789,0.011301
1765410105.557010,-9.930654,0.019130,0.188905,-0.015882,0.008094,0.008247
1765410105.559042,-9.895982,-0.033477,0.246294,-0.016952,0.006567,0.011148
1765410105.562038,-9.949782,0.056193,0.304878,-0.018784,0.008552,0.008247
1765410105.563972,-9.998802,-0.086083,0.491392,-0.018784,0.007483,0.008247
1765410105.567039,-9.930654,-0.071138,0.373027,-0.013286,0.011148,0.007178
1765410105.568987,-9.864896,0.010760,0.210426,-0.011148,0.006567,0.009468
1765410105.572028,-9.781204,-0.130320,0.040650,-0.014203,0.002138,0.010079
1765410105.573999,-10.056790,0.030488,0.416069,-0.012828,0.002138,0.008247
1765410105.577029,-9.966521,-0.003587,0.294118,-0.013744,0.015882,0.009163
1765410105.579111,-9.855330,0.129125,0.199067,-0.014508,0.011454,0.007941
1765410105.582031,-9.934240,0.100430,0.393352,-0.017715,0.010843,0.010537
1765410105.584049,-10.007771,0.041846,0.361669,-0.015272,0.007941,0.011301
1765410105.587080,-9.954566,0.002989,0.203252,-0.016188,0.007941,0.013439
1765410105.588978,-9.976088,-0.050813,0.364658,-0.018021,0.009621,0.007636
1765410105.591980,-10.004781,-0.111191,0.359876,-0.015577,0.011301,0.011606
1765410105.593998,-9.879841,-0.076518,0.258250,-0.012981,0.006872,0.009621
1765410105.596976,-9.867287,-0.014945,0.246891,-0.016035,0.011454,0.007483
1765410105.598956,-9.787780,-0.003587,0.112386,-0.015272,0.006261,0.008858
1765410105.602041,-9.962935,0.066954,0.351506,-0.014508,0.011148,0.009774
1765410105.604056,-9.900764,-0.036466,0.335964,-0.015424,0.009927,0.011606
1765410105.607029,-9.944403,0.072334,0.335964,-0.015577,0.010232,0.009010
1765410105.609007,-9.844571,0.031086,0.320421,-0.013897,0.006414,0.012828
1765410105.611981,-9.857722,0.092659,0.151841,-0.015272,0.006414,0.009621
1765410105.614075,-9.907339,0.111789,0.187709,-0.015424,0.008094,0.014508
1765410105.617009,-9.933643,-0.065160,0.334170,-0.020311,0.008858,0.011606
1765410105.619009,-9.977283,-0.062769,0.281564,-0.016493,0.012370,0.011912
1765410105.622024,-9.890003,-0.105213,0.282759,-0.017257,0.013134,0.013134
1765410105.624032,-9.919893,-0.068149,0.258250,-0.017562,0.014661,0.009621
1765410105.627112,-9.936632,-0.008369,0.265423,-0.016952,0.012217,0.011301
1765410105.629002,-9.873264,-0.045433,0.306671,-0.016341,0.013439,0.011912
1765410105.632041,-9.872069,0.035868,0.369440,-0.017257,0.013286,0.011759
1765410105.634109,-9.974294,0.019727,0.326997,-0.017104,0.011301,0.011454
1765410105.635537,-9.912720,0.004185,0.254663,-0.020159,0.011148,0.012217
1765410105.639612,-9.728598,0.041846,0.087279,-0.016799,0.014661,0.012370
1765410105.640112,-9.758488,0.028694,0.057389,-0.017868,0.007178,0.014813
1765410105.644061,-10.047822,-0.016738,0.400526,-0.017410,0.007178,0.010079
1765410105.645089,-10.066953,-0.019130,0.383788,-0.020006,0.015424,0.013744
1765410105.647042,-9.962935,-0.075323,0.115973,-0.018173,0.015730,0.011301
1765410105.650107,-9.976088,-0.056791,0.297704,-0.019853,0.014661,0.012065
1765410105.655048,-9.985652,-0.078910,0.371234,-0.016493,0.015272,0.015424
1765410105.657033,-9.910329,0.017934,0.200263,-0.011759,0.015272,0.010385
1765410105.659042,-9.940218,0.016738,0.252272,-0.013592,0.014661,0.011759
1765410105.662052,-10.028095,0.086681,0.429220,-0.012217,0.013439,0.011759
1765410105.663987,-10.093256,0.157819,0.328192,-0.016646,0.015577,0.010385
1765410105.667064,-9.872069,0.087877,0.026303,-0.020617,0.017104,0.013134
1765410105.667564,-9.892395,0.044237,0.139885,-0.020159,0.018937,0.014508
1765410105.672053,-9.952174,-0.029890,0.265423,-0.017715,0.018173,0.016341
1765410105.674034,-9.939023,-0.096246,0.302487,-0.018631,0.018479,0.014203
1765410105.677031,-9.884026,-0.049020,0.138690,-0.018021,0.018479,0.011912
1765410105.679044,-9.884026,-0.049020,0.138690,-0.018021,0.014508,0.011912
1765410105.682034,-9.915112,-0.041846,0.319823,-0.012675,0.018021,0.015119
1765410105.684032,-9.897775,0.050215,0.160210,-0.018173,0.012217,0.012675
1765410105.687044,-9.968913,0.115375,0.270206,-0.015272,0.011606,0.010843
1765410105.689035,-9.890601,0.080105,0.190698,-0.018479,0.015577,0.015730
1765410105.692027,-9.831419,0.134505,0.114778,-0.016952,0.017868,0.015577
1765410105.694062,-9.742347,0.074127,0.026901,-0.023060,0.014661,0.018173
1765410105.697052,-9.900764,0.037661,0.172166,-0.020922,0.012981,0.017104
1765410105.699087,-10.010758,-0.057389,0.184122,-0.019090,0.021380,0.014966
1765410105.700117,-10.053802,0.000598,0.442970,-0.017410,0.021380,0.017715
1765410105.704070,-9.917501,0.008369,0.366451,-0.017410,0.024282,0.017715
1765410105.707078,-10.044236,-0.032281,0.536824,-0.018479,0.013897,0.016799
1765410105.709056,-10.009563,-0.133907,0.315638,-0.017257,0.013897,0.016952
1765410105.712115,-9.863700,-0.092659,0.008369,-0.014508,0.014966,0.014813
1765410105.714070,-9.969511,0.044237,0.218795,-0.015577,0.014966,0.011759
1765410105.716054,-10.139884,0.164993,0.593018,-0.016799,0.019548,0.013897
1765410105.719080,-10.089668,0.156026,0.413678,-0.016035,0.015424,0.017410
1765410105.722080,-9.921089,0.102822,0.127331,-0.019242,0.014203,0.020006
1765410105.724044,-9.921089,0.102822,0.127331,-0.019242,0.011301,0.020006
1765410105.724993,-9.998802,-0.082496,0.337757,-0.016493,0.012065,0.016341
1765410105.729059,-10.025704,-0.047226,0.297704,-0.018021,0.014355,0.014355
1765410105.732079,-9.846365,-0.068149,0.073529,-0.015882,0.015577,0.018173
1765410105.732579,-9.875656,-0.033477,0.032281,-0.017257,0.013439,0.014966
1765410105.736063,-9.875656,-0.033477,0.032281,-0.017257,0.018479,0.014966
1765410105.737106,-9.843375,0.056193,0.174558,-0.016799,0.023976,0.016493
1765410105.742045,-9.715446,0.080703,0.064562,-0.018173,0.021991,0.016799
1765410105.744047,-9.766856,0.050215,0.148254,-0.021075,0.019700,0.014966
1765410105.747019,-9.943806,0.066356,0.324008,-0.020311,0.017715,0.016952
1765410105.749063,-10.029292,0.111789,0.505739,-0.021228,0.023824,0.019395
1765410105.750087,-9.912122,-0.008369,0.391559,-0.022907,0.021991,0.019548
1765410105.754093,-9.821257,-0.145863,0.162602,-0.026725,0.016952,0.020006
1765410105.755057,-9.826038,-0.113582,0.019130,-0.022449,0.018937,0.016341
1765410105.759020,-9.884026,-0.013749,0.215208,-0.017715,0.018937,0.014813
1765410105.762079,-10.010758,0.121951,0.416069,-0.017868,0.021075,0.014508
1765410105.764064,-10.019128,0.190100,0.493783,-0.018479,0.021228,0.020006
1765410105.767078,-9.863700,0.052606,0.083692,-0.018631,0.021686,0.022144
1765410105.769071,-9.778812,-0.040650,-0.081899,-0.016035,0.017410,0.019853
1765410105.770101,-9.824244,-0.062171,0.094452,-0.015424,0.017410,0.019242
1765410105.774049,-9.891200,0.087279,0.324008,-0.017257,0.023518,0.017562
1765410105.776993,-9.832614,0.141679,0.265423,-0.021533,0.023366,0.018326
1765410105.779024,-9.832614,0.141679,0.265423,-0.021533,0.020617,0.018326
1765410105.782044,-9.921089,0.051411,0.313247,-0.022144,0.021075,0.023671
1765410105.784023,-9.836799,-0.010163,0.213415,-0.023824,0.024587,0.023518
1765410105.787060,-9.793758,-0.060378,0.152439,-0.024435,0.022602,0.023213
1765410105.789086,-9.763269,-0.074725,0.118962,-0.022755,0.022449,0.018631
1765410105.792048,-9.933643,0.027499,0.332377,-0.019395,0.023824,0.017868
1765410105.793986,-9.882831,0.088474,0.344931,-0.020617,0.027489,0.022297
1765410105.797100,-9.825441,0.043639,0.214012,-0.024893,0.023518,0.022144
1765410105.799067,-9.762074,-0.092061,-0.114778,-0.025656,0.016493,0.020769
1765410105.802104,-9.788976,-0.112386,-0.086083,-0.026114,0.021075,0.018784
1765410105.804087,-9.907937,0.049020,0.289933,-0.021533,0.031460,0.016646
1765410105.807148,-9.911524,0.105213,0.538020,-0.023824,0.034819,0.021991
1765410105.809039,-9.869678,0.069345,0.274390,-0.026114,0.029474,0.020464
1765410105.812098,-9.791367,0.041846,-0.022716,-0.020464,0.022602,0.019090
1765410105.812598,-9.751313,0.072932,0.057389,-0.013134,0.028863,0.023976
1765410105.817078,-9.947392,0.058584,0.502750,-0.014813,0.030849,0.023366
1765410105.819056,-10.089668,0.033477,0.533238,-0.020464,0.029627,0.022755
1765410105.820060,-9.811094,-0.011956,0.010163,-0.017868,0.025198,0.023976
1765410105.824148,-9.811094,0.149450,0.018532,-0.020159,0.022449,0.021838
1765410105.827129,-9.988043,0.115375,0.344333,-0.019548,0.022144,0.025962
1765410105.829110,-9.996411,0.029890,0.225968,-0.025504,0.022144,0.024129
1765410105.831224,-9.996411,0.029890,0.225968,-0.025504,0.026420,0.024129
1765410105.834048,-9.813485,-0.023912,0.031086,-0.021533,0.026878,0.023976
1765410105.839516,-9.892395,-0.007174,0.180536,-0.022602,0.028863,0.025045
1765410105.840016,-9.981467,0.033477,0.390961,-0.019853,0.033139,0.021991
1765410105.842151,-10.068149,0.005380,0.399330,-0.021686,0.032376,0.023213
1765410105.844107,-9.986848,-0.075921,0.253467,-0.019700,0.028711,0.025198
1765410105.845054,-9.965924,0.040053,0.178742,-0.020922,0.027184,0.019700
1765410105.848074,-9.921686,0.101028,0.135103,-0.023518,0.028405,0.023671
1765410105.852012,-9.921686,0.101028,0.135103,-0.023518,0.026725,0.023671
1765410105.854018,-9.960544,0.014347,0.098039,-0.022602,0.028253,0.022602
1765410105.857071,-9.966521,0.065758,0.066954,-0.021075,0.030085,0.023366
1765410105.859045,-9.992227,0.121951,0.308465,-0.020922,0.037263,0.026267
1765410105.860091,-9.959349,0.046628,0.322812,-0.027184,0.037263,0.024587
1765410105.864156,-10.044236,0.048422,0.306074,-0.027489,0.032987,0.022602
1765410105.867083,-9.918698,-0.021521,0.106408,-0.024587,0.029780,0.025809
1765410105.869067,-9.895385,-0.021521,0.122549,-0.025351,0.030849,0.025351
1765410105.872086,-9.927068,0.096844,0.146461,-0.024129,0.033445,0.024435
1765410105.874120,-9.978478,0.029890,0.306074,-0.025504,0.034972,0.024740
1765410105.877032,-9.978478,0.029890,0.306074,-0.025504,0.033750,0.024740
1765410105.879048,-10.065758,0.091463,0.567910,-0.021686,0.038179,0.024129
1765410105.882081,-9.942610,0.022119,0.535629,-0.021991,0.038179,0.027947
1765410105.884074,-9.900764,-0.050215,0.176351,-0.021228,0.012981,0.024893
1765410105.887043,-10.072930,-0.098637,0.159613,-0.022907,0.012981,0.020769
1765410105.889045,-10.072930,-0.098637,0.159613,-0.022907,0.022602,0.020769
1765410105.892064,-9.706479,0.117169,-0.293520,-0.020617,0.028863,0.020617
1765410105.894047,-9.698708,0.269010,-0.217001,-0.021533,0.030543,0.022144
1765410105.895029,-10.049617,0.205643,0.426829,-0.023671,0.034667,0.027947
1765410105.899071,-9.979673,0.058584,0.478240,-0.018784,0.042455,0.032987
1765410105.900084,-9.707077,-0.087279,0.194883,-0.020464,0.038637,0.030085
1765410105.904081,-9.662242,-0.060378,-0.077116,-0.027642,0.031460,0.022602
1765410105.905086,-9.934838,0.023912,0.082496,-0.021228,0.023366,0.019700
1765410105.909092,-10.096842,0.206839,0.414873,-0.018937,0.039248,0.027794
1765410105.912107,-9.809898,0.160210,0.093257,-0.024129,0.038332,0.031918
1765410105.912607,-9.806311,0.143472,0.029292,-0.029016,0.038332,0.025962
1765410105.915111,-10.058583,0.028694,0.193089,-0.025809,0.032987,0.027489
1765410105.919067,-10.005977,-0.117169,0.255261,-0.020464,0.040470,0.032529
1765410105.922094,-9.817072,-0.007174,0.324008,-0.025809,0.047495,0.025504
1765410105.924079,-9.852941,0.166786,0.496174,-0.026420,0.046884,0.025656
1765410105.927171,-9.795551,0.075323,-0.027499,-0.025809,0.026878,0.029169
1765410105.929107,-10.089071,0.122549,0.181731,-0.024587,0.022755,0.025351
1765410105.931147,-10.047822,-0.013152,0.316236,-0.023213,0.045051,0.030543
1765410105.934142,-9.921089,-0.002989,0.337159,-0.022297,0.040470,0.030849
1765410105.937136,-10.008965,0.017934,0.388570,-0.026878,0.031001,0.025198
1765410105.939151,-9.952174,0.037064,-0.058584,-0.023060,0.026267,0.026725
1765410105.943579,-9.771639,0.153037,-0.212817,-0.020159,0.035888,0.029169
1765410105.944083,-9.719033,0.171569,0.098637,-0.022297,0.044746,0.027947
1765410105.947060,-9.988043,0.033477,0.616930,-0.024740,0.042608,0.033750
1765410105.949045,-9.968913,-0.009565,0.255261,-0.028405,0.032834,0.027489
1765410105.952101,-9.942610,0.015543,0.067551,-0.027336,0.032987,0.028100
1765410105.954077,-9.586919,0.080703,-0.291726,-0.026573,0.041997,0.027031
1765410105.957048,-9.899570,0.139885,0.306671,-0.022602,0.038179,0.026267
1765410105.959023,-9.930654,0.137494,0.400526,-0.024740,0.044899,0.030543
1765410105.962084,-9.949782,0.147657,0.206839,-0.023518,0.039554,0.029322
1765410105.964012,-9.727402,0.045433,-0.042444,-0.022297,0.042913,0.030849
1765410105.967113,-9.729793,-0.037661,-0.080105,-0.026267,0.032223,0.028863
1765410105.968105,-9.985652,0.021521,0.191296,-0.023518,0.038485,0.029169
1765410105.972108,-9.937230,0.034672,0.186514,-0.025198,0.047037,0.026420
1765410105.974115,-9.846962,0.196078,0.178144,-0.024282,0.038026,0.028405
1765410105.975090,-9.907339,0.136298,0.208034,-0.028100,0.038026,0.030543
1765410105.979081,-10.233141,0.153037,0.539216,-0.026725,0.040470,0.031612
1765410105.981172,-10.002390,0.014945,0.426829,-0.025809,0.045357,0.034972
1765410105.984022,-9.795551,-0.065758,0.072932,-0.029474,0.036194,0.029627
1765410105.987019,-9.805116,-0.020325,-0.094452,-0.031460,0.027794,0.025809
1765410105.989101,-9.753705,0.156026,-0.391559,-0.027489,0.030238,0.026114
1765410105.992108,-9.596484,0.219990,-0.416069,-0.024435,0.043066,0.030696
1765410105.994082,-9.691534,0.196078,0.041846,-0.026420,0.056963,0.032070
1765410105.997108,-10.016738,0.138690,0.566714,-0.027336,0.056963,0.035583
1765410105.999091,-9.967718,-0.066954,0.290531,-0.025809,0.045968,0.037110
1765410106.000084,-9.841581,-0.028694,-0.025108,-0.029932,0.042913,0.033292
1765410106.004089,-9.728000,-0.020325,0.032879,-0.027336,0.050549,0.032834
1765410106.005085,-9.892395,0.093257,0.309660,-0.023671,0.046884,0.030543
1765410106.009066,-10.144069,0.130320,0.403515,-0.028558,0.040164,0.028558
1765410106.012033,-9.991630,0.205643,-0.070540,-0.028100,0.045968,0.029932
1765410106.012533,-9.735771,0.062171,-0.263032,-0.022755,0.050091,0.036957
1765410106.017032,-10.053802,-0.012554,0.316236,-0.022755,0.049633,0.034361
1765410106.019103,-10.316833,0.062171,0.900287,-0.022907,0.050244,0.031918
1765410106.022047,-9.876852,0.004782,-0.027499,-0.028100,0.046578,0.030696
1765410106.024022,-9.620994,0.147059,-0.521282,-0.029780,0.037721,0.027489
1765410106.027053,-9.804518,0.211621,-0.107604,-0.028253,0.046426,0.033750
1765410106.029063,-10.221784,0.178144,0.649809,-0.025809,0.052687,0.037110
1765410106.032106,-10.081299,0.116571,0.398135,-0.029780,0.054214,0.036346
1765410106.034136,-9.922284,0.182927,0.154830,-0.029169,0.054214,0.034819
1765410106.035116,-9.875656,0.025108,-0.141081,-0.028405,0.044288,0.034819
1765410106.039092,-10.009563,-0.019727,0.108202,-0.027336,0.042302,0.037415
1765410106.043574,-10.081897,0.125538,0.619321,-0.026114,0.062156,0.033292
1765410106.044113,-9.677187,0.069345,0.017934,-0.027642,0.034056,0.036194
1765410106.046115,-9.810495,-0.002391,-0.111191,-0.031918,0.034056,0.029780
1765410106.049013,-9.810495,-0.002391,-0.111191,-0.031918,0.043219,0.029780
1765410106.052074,-10.118362,0.069345,0.392157,-0.024587,0.056963,0.036957
1765410106.054069,-9.774031,-0.038259,0.162004,-0.031612,0.056963,0.036346
1765410106.055067,-9.774031,-0.038259,0.162004,-0.031612,0.043982,0.036346
1765410106.059027,-9.808105,0.114778,-0.312052,-0.029322,0.044288,0.030849
1765410106.062084,-9.808105,0.114778,-0.312052,-0.029322,0.052076,0.030849
1765410106.064075,-9.892395,0.303682,0.400526,-0.027794,0.059865,0.040470
1765410106.067079,-9.843375,0.069943,0.306074,-0.031001,0.059865,0.043219
1765410106.069091,-10.003586,-0.031086,0.077116,-0.032681,0.048869,0.037263
1765410106.072057,-9.744141,0.001196,-0.197274,-0.025962,0.050549,0.037568
1765410106.074024,-9.729793,0.080105,0.050215,-0.022144,0.060018,0.037110
1765410106.077025,-9.903154,0.255858,0.363462,-0.025198,0.058643,0.036499
1765410106.079033,-10.132113,0.231349,0.489000,-0.034361,0.052840,0.035736
1765410106.082061,-9.842180,0.029890,-0.022716,-0.031460,0.049175,0.041081
1765410106.084083,-9.765661,-0.073529,-0.071138,-0.028558,0.052076,0.041539
1765410106.087104,-9.836202,0.001793,0.142874,-0.031918,0.055589,0.037415
1765410106.089083,-10.092658,0.120756,0.259445,-0.030085,0.056352,0.031918
1765410106.092073,-10.095646,0.171569,0.109397,-0.031612,0.056352,0.034056
1765410106.094018,-9.797344,0.167384,-0.290531,-0.028863,0.062461,0.036805
1765410106.097054,-9.868484,0.182927,-0.001196,-0.030543,0.057421,0.037263
1765410106.099063,-9.978478,0.190100,0.212817,-0.033445,0.057421,0.035736
1765410106.102108,-10.006575,0.069345,0.187709,-0.027184,0.062461,0.041997
1765410106.104058,-9.835006,0.053802,-0.064562,-0.028558,0.064294,0.038026
1765410106.107155,-10.214011,0.184122,0.622908,-0.029627,0.059559,0.034514
1765410106.109112,-10.218196,0.205643,0.549378,-0.031307,0.058490,0.039095
1765410106.112086,-10.068746,0.193687,0.069345,-0.031460,0.047953,0.038179
1765410106.114050,-10.068746,0.193687,0.069345,-0.031460,0.058490,0.038179
1765410106.117052,-9.791965,-0.119560,-0.095648,-0.030391,0.052076,0.038943
1765410106.119631,-10.050214,0.096246,0.320421,-0.030696,0.055131,0.036346
1765410106.122062,-10.014346,0.277977,0.236729,-0.031765,0.058490,0.035583
1765410106.124112,-9.780008,0.242707,-0.243902,-0.033750,0.061392,0.038332
1765410106.127117,-9.710664,0.131516,-0.215208,-0.032223,0.050549,0.041997
1765410106.127617,-10.156025,0.065758,0.367049,-0.030085,0.053298,0.041081
1765410106.132119,-10.087276,0.090866,0.306671,-0.031307,0.059407,0.037874
1765410106.134133,-9.845766,0.086083,-0.090866,-0.033139,0.062461,0.036499
1765410106.137032,-9.628167,0.108202,-0.310856,-0.031307,0.058796,0.040470
1765410106.139085,-9.892993,0.219990,0.014347,-0.034361,0.053451,0.035888
1765410106.142116,-10.140482,0.327594,0.274390,-0.030696,0.059712,0.041233
1765410106.147572,-9.936033,0.123745,0.042444,-0.032681,0.065515,0.046273
1765410106.148072,-9.897178,0.148254,0.219990,-0.030391,0.063988,0.041539
1765410106.149076,-9.992825,0.123147,0.331181,-0.030391,0.059254,0.041539
1765410106.152081,-10.015541,0.043639,0.148254,-0.034667,0.049175,0.041844
1765410106.154046,-10.004184,0.154830,-0.172166,-0.030849,0.051007,0.038332
1765410106.157092,-9.693925,0.089670,-0.310258,-0.032070,0.058948,0.041539
1765410106.159062,-9.693925,0.089670,-0.310258,-0.032070,0.060170,0.041539
1765410106.162059,-9.872069,0.179340,0.009565,-0.031918,0.058490,0.040317
1765410106.164052,-9.937828,0.180536,0.069345,-0.033598,0.068570,0.039248
1765410106.167114,-9.560018,0.164395,-0.309063,-0.030849,0.067501,0.042455
1765410106.169098,-9.910329,0.182329,0.255261,-0.031612,0.062919,0.041692
1765410106.172084,-10.060376,0.116571,0.396341,-0.032070,0.059712,0.042761
1765410106.172584,-9.937230,0.107604,0.099235,-0.031154,0.056352,0.042302
1765410106.177050,-9.655666,0.153037,-0.399330,-0.031612,0.058338,0.041386
1765410106.179077,-9.830223,0.268412,-0.029890,-0.033139,0.060170,0.038332
1765410106.182041,-10.034073,0.294118,0.140483,-0.035277,0.060170,0.044746
1765410106.184086,-10.166186,0.166188,0.282759,-0.035583,0.061087,0.047189
1765410106.185934,-9.886416,0.032281,-0.107604,-0.037110,0.064141,0.046578
1765410106.189141,-9.812290,0.074127,-0.164993,-0.031918,0.059712,0.042608
1765410106.190093,-9.818865,0.145265,-0.095648,-0.032681,0.063835,0.040775
1765410106.192122,-9.830821,0.307269,-0.005978,-0.030391,0.066737,0.042761
1765410106.197061,-9.961740,0.307269,0.164993,-0.033139,0.069639,0.045204
1765410106.197561,-9.881036,0.176351,0.128527,-0.031918,0.067501,0.053145
1765410106.202085,-9.797344,0.003587,0.056193,-0.031918,0.065363,0.053145
1765410106.204109,-9.836202,0.115973,-0.024510,-0.037874,0.060323,0.043830
1765410106.207111,-9.997607,0.105811,0.031683,-0.037263,0.060323,0.042455
1765410106.209176,-9.819464,0.196676,-0.127929,-0.035277,0.067501,0.045204
1765410106.212136,-9.882831,0.197872,0.015543,-0.032681,0.064752,0.041692
1765410106.214164,-10.033475,0.212817,0.072932,-0.035277,0.067501,0.042608
1765410106.215109,-9.940218,0.132712,-0.062171,-0.037110,0.064294,0.041386
1765410106.219073,-9.764465,0.163797,-0.297704,-0.031001,0.073151,0.044593
1765410106.222062,-9.826636,0.142276,-0.098039,-0.035125,0.072235,0.043371
1765410106.224133,-10.074127,0.227762,0.413678,-0.038637,0.075747,0.042608
1765410106.227083,-10.183523,0.292922,0.355691,-0.037415,0.076969,0.044746
1765410106.229133,-9.967718,0.221186,-0.014945,-0.035736,0.069333,0.047037
1765410106.232150,-9.882831,0.210426,-0.123147,-0.039706,0.063683,0.043830
1765410106.234070,-10.035867,0.285748,0.132712,-0.032529,0.069639,0.047189
1765410106.236144,-9.905546,0.160210,0.049020,-0.034208,0.062461,0.053603
1765410106.239114,-9.838593,0.157221,-0.107006,-0.041844,0.062461,0.046578
1765410106.241205,-9.992825,0.218795,-0.087279,-0.036499,0.064141,0.047342
1765410106.244214,-9.817072,0.141679,-0.316834,-0.030543,0.070555,0.052229
1765410106.247173,-9.836202,0.151841,0.025108,-0.037263,0.069639,0.051465
1765410106.249150,-9.947392,0.097441,0.022119,-0.044746,0.072693,0.044746
1765410106.250144,-9.910329,0.093257,-0.133309,-0.035277,0.072693,0.043677
1765410106.254146,-9.945002,0.173362,0.095050,-0.034361,0.072693,0.044288
1765410106.257104,-10.035867,0.355691,0.228360,-0.037110,0.073915,0.044899
1765410106.259169,-10.017933,0.223577,0.132712,-0.040623,0.072693,0.047800
1765410106.262071,-9.913317,0.252869,-0.073529,-0.038790,0.068111,0.047342
1765410106.264245,-9.861309,0.190100,-0.117767,-0.034056,0.066584,0.049633
1765410106.267140,-9.744739,0.027499,-0.338355,-0.040317,0.063072,0.046731
1765410106.269186,-9.955761,0.295313,-0.094452,-0.038026,0.074526,0.041997
1765410106.272159,-9.910329,0.197274,-0.031086,-0.036041,0.074526,0.051313
1765410106.274138,-9.910329,0.197274,-0.031086,-0.036041,0.071166,0.051313
1765410106.277083,-9.895982,0.269010,-0.193687,-0.041233,0.070708,0.045968
1765410106.279111,-9.824244,0.339550,-0.291726,-0.039859,0.074678,0.046731
1765410106.282113,-10.108798,0.372429,0.322812,-0.034972,0.082009,0.050549
1765410106.284130,-10.206838,0.307269,0.801052,-0.038179,0.082009,0.056200
1765410106.287096,-10.206838,0.307269,0.801052,-0.038179,0.068264,0.056200
1765410106.289110,-9.630558,0.101626,-0.686274,-0.045509,0.057727,0.051618
1765410106.292124,-9.702294,0.259445,-0.498565,-0.038332,0.064446,0.052076
1765410106.294059,-9.815279,0.274988,0.038259,-0.034208,0.076969,0.055741
1765410106.297086,-9.698708,0.129125,-0.069345,-0.040012,0.079718,0.055436
1765410106.299045,-9.591701,0.137494,-0.275586,-0.045509,0.073304,0.052840
1765410106.302064,-9.752509,0.074127,-0.164395,-0.043830,0.074984,0.052076
1765410106.302564,-9.942610,0.174558,0.211621,-0.035125,0.074984,0.051313
1765410106.307133,-9.824843,0.119560,-0.013152,-0.036194,0.070097,0.048717
1765410106.309085,-9.872069,0.198470,-0.063367,-0.040928,0.070097,0.047037
1765410106.312060,-9.676588,0.301291,-0.357484,-0.040928,0.068417,0.052076
1765410106.314063,-9.726207,0.205045,-0.364658,-0.036499,0.069028,0.051007
1765410106.317086,-9.959946,0.296509,0.043042,-0.034819,0.079718,0.050091
1765410106.319055,-10.066953,0.302487,0.316834,-0.036805,0.082314,0.058490
1765410106.320127,-9.801530,-0.006576,-0.172764,-0.042455,0.080481,0.054672
1765410106.324073,-9.812887,0.274988,-0.334768,-0.039706,0.071777,0.047953
1765410106.325138,-9.916904,0.302487,0.060378,-0.038790,0.085063,0.053451
1765410106.327151,-9.855330,0.318030,0.010163,-0.039859,0.081398,0.056047
1765410106.332109,-9.855330,0.318030,0.010163,-0.039859,0.080176,0.056047
1765410106.334134,-9.897775,0.173362,-0.166786,-0.044135,0.078649,0.056810
1765410106.337136,-9.895982,0.098637,-0.167384,-0.037874,0.074067,0.059865
1765410106.339167,-9.757292,0.107604,-0.301291,-0.040012,0.078038,0.051771
1765410106.342097,-9.830223,0.241511,-0.185916,-0.042913,0.082314,0.049938
1765410106.344158,-9.807508,0.197274,-0.328192,-0.042913,0.085827,0.049938
1765410106.346221,-9.995216,0.239120,0.224773,-0.036041,0.085216,0.055283
1765410106.349161,-9.990434,0.275586,0.219990,-0.042761,0.095142,0.054825
1765410106.352129,-9.802128,0.203252,-0.315638,-0.040775,0.082925,0.057727
1765410106.354101,-9.841581,0.087279,-0.107006,-0.040775,0.078954,0.056200
1765410106.357107,-9.882831,0.157819,-0.024510,-0.037874,0.075289,0.054672
1765410106.359055,-9.856527,0.322812,-0.158417,-0.037874,0.082161,0.049327
1765410106.362051,-9.726207,0.429220,-0.396341,-0.042150,0.084452,0.052993
1765410106.364118,-9.732184,0.321616,-0.361071,-0.040623,0.080481,0.058490
1765410106.367114,-9.870873,0.280966,-0.294715,-0.041539,0.080481,0.056963
1765410106.369094,-9.953370,0.311454,-0.161406,-0.040775,0.088117,0.058338
1765410106.372138,-9.878048,0.239718,-0.093855,-0.038637,0.095142,0.062919
1765410106.374092,-10.046627,0.267814,0.209230,-0.041997,0.087354,0.058948
1765410106.377116,-9.992227,0.160808,-0.083692,-0.047037,0.086132,0.058948
1765410106.379066,-9.904350,0.162602,-0.347322,-0.043677,0.080176,0.056810
1765410106.382108,-9.929459,0.197274,-0.121951,-0.040928,0.086896,0.060628
1765410106.384135,-10.018531,0.109995,0.062769,-0.042302,0.091324,0.056658
1765410106.387137,-10.064561,0.187709,0.037661,-0.042302,0.094837,0.050549
1765410106.389134,-9.735771,0.206241,-0.489000,-0.042150,0.089186,0.056352
1765410106.392117,-9.743543,0.345528,-0.528455,-0.042302,0.086285,0.054520
1765410106.394078,-9.949782,0.397537,-0.208034,-0.037721,0.091630,0.054520
1765410106.397072,-10.127330,0.326399,0.484816,-0.039706,0.104000,0.057727
1765410106.399068,-10.007771,0.425036,0.350909,-0.042150,0.110261,0.058338
1765410106.402091,-9.699903,0.209230,-0.326399,-0.044440,0.083078,0.064446
1765410106.404106,-9.858320,0.164395,-0.358082,-0.050549,0.073151,0.057574
1765410106.405126,-9.844571,0.194883,-0.335964,-0.039554,0.086285,0.057879
1765410106.409049,-9.725011,0.373027,-0.285748,-0.038179,0.097280,0.058490
1765410106.412169,-9.875656,0.541607,-0.111191,-0.043830,0.097586,0.058643
1765410106.414138,-10.044236,0.337159,-0.002989,-0.049175,0.089950,0.063835
1765410106.417175,-10.025107,0.228957,-0.169775,-0.042913,0.088575,0.065363
1765410106.419083,-9.881036,0.210426,-0.219393,-0.041539,0.095295,0.066584
1765410106.422207,-9.894188,0.131516,-0.125538,-0.045968,0.086743,0.060628
1765410106.424173,-10.033475,0.267814,-0.043042,-0.044746,0.086743,0.059407
1765410106.425145,-10.033475,0.267814,-0.043042,-0.044746,0.090255,0.059407
1765410106.429135,-9.782400,0.400526,-0.506934,-0.044135,0.092546,0.060323
1765410106.432066,-9.996411,0.355691,-0.044237,-0.043371,0.096211,0.063225
1765410106.434097,-10.249879,0.274390,0.307269,-0.043982,0.094379,0.061545
1765410106.435097,-10.209229,0.266021,0.193687,-0.044135,0.094226,0.059254
1765410106.439207,-9.875656,0.289933,-0.318627,-0.045357,0.093768,0.061697
1765410106.442156,-9.873863,0.310856,-0.210426,-0.046273,0.090713,0.059407
1765410106.443633,-9.923481,0.337159,-0.158417,-0.045204,0.085674,0.060934
1765410106.445700,-10.003586,0.320421,-0.261239,-0.045204,0.089492,0.060934
1765410106.449145,-9.610233,0.379603,-0.793878,-0.047342,0.095753,0.060323
1765410106.452093,-9.817670,0.451339,-0.435796,-0.043524,0.093768,0.063072
1765410106.454097,-10.133906,0.358680,0.217599,-0.046120,0.102014,0.064446
1765410106.456121,-10.237924,0.383190,0.303085,-0.046731,0.102014,0.065668
1765410106.459119,-10.237924,0.383190,0.303085,-0.046731,0.102167,0.065668
1765410106.462051,-9.872069,0.126136,-0.197274,-0.049938,0.087812,0.064141
1765410106.462551,-10.135101,0.204448,0.126734,-0.048564,0.085827,0.061392
1765410106.467071,-9.929459,0.297704,-0.332377,-0.045662,0.088881,0.062156
1765410106.469148,-9.806910,0.387374,-0.771162,-0.048869,0.088881,0.060476
1765410106.472075,-9.801530,0.191296,-0.583453,-0.051160,0.088575,0.059865
1765410106.474091,-10.010758,0.213415,-0.066356,-0.050549,0.102167,0.060476
1765410106.477076,-9.949782,0.284553,0.059780,-0.043219,0.104305,0.059254
1765410106.479081,-9.896580,0.303085,-0.059780,-0.047647,0.099113,0.058032
1765410106.480107,-10.027497,0.377810,-0.036466,-0.045815,0.092088,0.058032
1765410106.484148,-10.027497,0.377810,-0.036466,-0.045815,0.085979,0.058032
1765410106.487159,-9.806311,0.426829,-0.471066,-0.048564,0.097280,0.060781
1765410106.489080,-9.808702,0.500359,-0.308465,-0.047647,0.097280,0.062766
1765410106.492117,-9.744739,0.285748,-0.418460,-0.052076,0.097586,0.063835
1765410106.494133,-9.824244,0.338355,-0.456719,-0.049175,0.087659,0.062919
1765410106.497134,-10.150046,0.425634,0.058584,-0.048717,0.097128,0.063530
1765410106.499137,-9.921089,0.208034,-0.050215,-0.047037,0.100335,0.067501
1765410106.502136,-9.930654,0.303085,-0.098039,-0.045662,0.095906,0.063225
1765410106.504079,-9.956957,0.282162,-0.202056,-0.050244,0.085368,0.062461
1765410106.507091,-10.069344,0.295313,-0.264825,-0.049633,0.086437,0.061545
1765410106.509112,-9.909132,0.325203,-0.448350,-0.046578,0.093157,0.064141
1765410106.512198,-9.901959,0.309063,-0.355691,-0.047800,0.094837,0.063835
1765410106.514130,-10.172762,0.411286,0.190100,-0.046884,0.098044,0.062308
1765410106.516147,-10.102820,0.347920,0.124342,-0.045204,0.098044,0.065668
1765410106.519174,-9.820659,0.296509,-0.349115,-0.048717,0.090103,0.063683
1765410106.522181,-9.661644,0.397537,-0.807030,-0.051771,0.083078,0.061392
1765410106.524171,-10.035867,0.503348,-0.101626,-0.051007,0.099266,0.065363
1765410106.527151,-9.943208,0.349115,-0.113582,-0.046578,0.099266,0.071166
1765410106.529146,-9.800333,0.290531,-0.387374,-0.051160,0.094531,0.066737
1765410106.532223,-9.726207,0.362267,-0.423242,-0.050396,0.095753,0.067806
1765410106.534127,-9.913916,0.301291,-0.214012,-0.046120,0.090561,0.073151
1765410106.537142,-10.114776,0.273792,-0.027499,-0.045662,0.091935,0.069028
1765410106.539118,-9.989238,0.260043,-0.074127,-0.052840,0.096517,0.064904
1765410106.542165,-9.868484,0.411286,-0.457317,-0.048717,0.093462,0.064904
1765410106.545740,-9.582734,0.353300,-0.865017,-0.048106,0.087354,0.066584
1765410106.547179,-9.910927,0.420851,-0.304878,-0.051771,0.085216,0.062308
1765410106.549122,-9.989238,0.376614,-0.159015,-0.049327,0.106596,0.068264
1765410106.552100,-10.065758,0.318030,0.010163,-0.045815,0.103847,0.069486
1765410106.552600,-9.959946,0.313845,-0.232544,-0.052687,0.100793,0.062308
1765410106.557060,-9.992825,0.466284,-0.077714,-0.049633,0.094379,0.065821
1765410106.559110,-9.716043,0.461502,-0.469871,-0.047647,0.099724,0.071929
1765410106.562111,-9.836202,0.451339,-0.261836,-0.051771,0.090866,0.069333
1765410106.564151,-9.955761,0.484218,-0.106408,-0.053145,0.099876,0.067653
1765410106.567109,-9.678382,0.327594,-0.777140,-0.049327,0.093157,0.073609
1765410106.567609,-9.634145,0.237924,-0.741272,-0.050549,0.098960,0.069180
1765410106.572153,-9.835604,0.337159,-0.056791,-0.048411,0.106138,0.065973
1765410106.574130,-10.008965,0.435796,0.011956,-0.051771,0.106749,0.071013
1765410106.577101,-9.825441,0.277379,-0.457915,-0.056200,0.095753,0.066890
1765410106.578070,-9.965326,0.339550,-0.228360,-0.055741,0.098960,0.063835
1765410106.582121,-9.942013,0.322812,-0.187709,-0.048564,0.097586,0.071929
1765410106.584131,-9.808702,0.242109,-0.200861,-0.051007,0.097586,0.065515
1765410106.587113,-9.629362,0.489000,-0.899689,-0.052840,0.101862,0.063683
1765410106.589099,-9.742945,0.527857,-0.693448,-0.049786,0.111636,0.064904
1765410106.592178,-10.014346,0.651602,0.057389,-0.045051,0.111636,0.071166
1765410106.594223,-10.057388,0.543998,0.131516,-0.049480,0.115606,0.076511
1765410106.597107,-9.953370,0.442372,-0.019130,-0.053603,0.101709,0.072846
1765410106.599153,-9.765661,0.384983,-0.670732,-0.056810,0.098655,0.072235
1765410106.602171,-9.640123,0.190100,-0.991152,-0.054520,0.091172,0.076053
1765410106.604115,-9.867885,0.279770,-0.373027,-0.058490,0.106443,0.067042
1765410106.607148,-10.106407,0.468675,0.215208,-0.054214,0.117592,0.067348
1765410106.609195,-10.117167,0.448350,0.166188,-0.051313,0.107360,0.070250
1765410106.612274,-10.117167,0.448350,0.166188,-0.051313,0.097738,0.070250
1765410106.614097,-9.870276,0.400526,-0.622908,-0.055436,0.102931,0.070860
1765410106.617061,-9.873863,0.300096,-0.322812,-0.048258,0.107818,0.072693
1765410106.619077,-9.846962,0.320421,-0.182329,-0.049022,0.108581,0.071319
1765410106.622117,-9.732782,0.443568,-0.689861,-0.056963,0.101404,0.065363
1765410106.624199,-9.962935,0.771162,-0.404113,-0.052534,0.100945,0.067042
1765410106.626198,-9.995814,0.626494,-0.127929,-0.050244,0.105680,0.079718
1765410106.629149,-9.992825,0.413678,-0.090866,-0.055741,0.105680,0.078038
1765410106.630144,-10.047822,0.325203,-0.113582,-0.061087,0.109039,0.074831
1765410106.634154,-9.598277,0.102822,-1.018651,-0.055589,0.102625,0.078496
1765410106.637161,-9.933643,0.302487,-0.490196,-0.052534,0.094990,0.066126
1765410106.639156,-9.939023,0.462697,-0.227762,-0.055436,0.111788,0.068264
1765410106.642151,-9.735771,0.341942,-0.568508,-0.054978,0.111788,0.073762
1765410106.644120,-9.854136,0.492587,-0.472262,-0.054978,0.109650,0.073762
1765410106.647138,-10.099234,0.569106,0.101626,-0.055589,0.115148,0.072235
1765410106.649287,-9.849951,0.217599,-0.400526,-0.052687,0.109803,0.075595
1765410106.650240,-9.793758,0.457317,-0.750837,-0.062003,0.103694,0.063835
1765410106.654091,-9.816475,0.447154,-0.719751,-0.058185,0.108276,0.071471
1765410106.657114,-9.816475,0.447154,-0.719751,-0.058185,0.109956,0.071471
1765410106.659158,-9.870873,0.508130,-0.258250,-0.054062,0.125838,0.075595
1765410106.662066,-9.895982,0.397537,-0.184122,-0.057574,0.125838,0.071166
1765410106.664210,-9.895982,0.397537,-0.184122,-0.057574,0.109345,0.071166
1765410106.666178,-9.959946,0.324008,-0.552965,-0.057116,0.104763,0.075136
1765410106.668249,-9.800333,0.300693,-0.613343,-0.057116,0.113926,0.075136
1765410106.671651,-9.703490,0.389766,-0.738881,-0.052687,0.106749,0.071166
1765410106.675643,-9.728598,0.323410,-0.698828,-0.052993,0.106749,0.071929
1765410106.676226,-10.406504,0.633668,0.337757,-0.055436,0.115301,0.065210
1765410106.679085,-10.007172,0.591822,-0.379005,-0.053909,0.123395,0.077122
1765410106.682066,-9.941415,0.298302,-0.468675,-0.058185,0.108581,0.076511
1765410106.683167,-9.992825,0.542205,-0.417264,-0.058796,0.112857,0.068111
1765410106.687186,-10.016738,0.479436,-0.509326,-0.050244,0.113316,0.080787
1765410106.689103,-9.744739,0.449546,-0.715567,-0.054367,0.116064,0.072235
1765410106.692138,-10.159015,0.745457,-0.065758,-0.058948,0.124158,0.068111
1765410106.694124,-9.967718,0.533238,-0.376016,-0.050702,0.124158,0.082314
1765410106.697175,-9.765063,0.301291,-0.526064,-0.049022,0.109803,0.081703
1765410106.699180,-9.766259,0.373625,-0.497967,-0.059559,0.117133,0.074984
1765410106.700197,-9.885221,0.484218,-0.533238,-0.059559,0.111636,0.074984
1765410106.704152,-9.905546,0.465088,-0.384983,-0.052993,0.113316,0.077427
1765410106.707198,-9.948587,0.545194,-0.478240,-0.056047,0.113621,0.078496
1765410106.709151,-9.948587,0.545194,-0.478240,-0.056047,0.115148,0.078496
1765410106.712160,-9.785987,0.468675,-0.581062,-0.053756,0.113468,0.078191
1765410106.714198,-9.772237,0.423840,-0.933166,-0.054978,0.102014,0.078649
1765410106.717119,-9.867287,0.563128,-0.898493,-0.058796,0.119882,0.071624
1765410106.719086,-10.205642,0.718556,-0.246294,-0.048106,0.119882,0.079107
1765410106.720206,-10.205642,0.718556,-0.246294,-0.048106,0.129809,0.079107
1765410106.724138,-10.274986,0.665351,0.105213,-0.060934,0.122937,0.077427
1765410106.725169,-10.016139,0.332377,-0.231349,-0.061850,0.119119,0.085368
1765410106.729123,-9.854136,0.235533,-0.854854,-0.057421,0.105680,0.078954
1765410106.732182,-9.783595,0.526064,-0.907460,-0.059559,0.112857,0.075136
1765410106.734105,-9.861309,0.485414,-0.686872,-0.058185,0.117592,0.077274
1765410106.737099,-9.971903,0.498565,-0.423242,-0.053451,0.119271,0.076969
1765410106.739159,-9.962337,0.487207,-0.222979,-0.059559,0.124006,0.079718
1765410106.742119,-9.909132,0.587040,-0.308465,-0.054978,0.125686,0.078191
1765410106.744156,-9.837397,0.379005,-0.652798,-0.055131,0.112094,0.080787
1765410106.747221,-9.837397,0.407700,-0.766977,-0.058032,0.109192,0.075136
1765410106.749232,-9.692131,0.539216,-0.869799,-0.055131,0.121104,0.075289
1765410106.752203,-9.599473,0.576279,-0.790889,-0.057116,0.124464,0.076511
1765410106.754181,-9.965326,0.793878,-0.319225,-0.057574,0.119424,0.078954
1765410106.755149,-10.173959,0.582855,0.148852,-0.060170,0.125533,0.085674
1765410106.759128,-9.799137,0.309660,-0.645624,-0.061087,0.117897,0.084910
1765410106.762164,-9.751313,0.413678,-0.805834,-0.059254,0.115606,0.074373
1765410106.764194,-9.683763,0.462697,-0.808823,-0.055131,0.125533,0.079412
1765410106.765161,-9.811094,0.510521,-0.428025,-0.055131,0.119730,0.079412
1765410106.769122,-9.964130,0.576877,-0.199665,-0.059254,0.124769,0.071777
1765410106.772216,-9.770443,0.680296,-0.574486,-0.059559,0.123547,0.078649
1765410106.774199,-9.585723,0.581062,-1.009086,-0.056505,0.115148,0.083994
1765410106.777204,-9.735771,0.583453,-0.805237,-0.061697,0.115148,0.081245
1765410106.779229,-10.144069,0.639646,0.017934,-0.055894,0.129351,0.082925
1765410106.782151,-9.760879,0.494978,-0.436394,-0.060934,0.132863,0.082925
1765410106.784151,-10.001792,0.564323,-0.327594,-0.063683,0.116675,0.076053
1765410106.787111,-10.022118,0.540411,-0.422645,-0.066584,0.117744,0.079718
1765410106.789173,-9.861309,0.386179,-0.780727,-0.060323,0.117744,0.084452
1765410106.792098,-9.836799,0.465088,-0.745457,-0.063377,0.127060,0.074526
1765410106.794083,-10.026302,0.632472,-0.190100,-0.058032,0.133474,0.076358
1765410106.797128,-9.980869,0.502152,-0.204448,-0.055741,0.132558,0.084452
1765410106.799136,-9.922284,0.682688,-0.455524,-0.058643,0.125380,0.077733
1765410106.802139,-9.858320,0.600191,-0.464491,-0.060628,0.125380,0.084605
1765410106.803183,-9.844571,0.481229,-0.701817,-0.056352,0.124311,0.088728
1765410106.807109,-9.776422,0.503348,-0.791487,-0.058032,0.113010,0.084758
1765410106.809150,-9.655666,0.567910,-0.925394,-0.065363,0.125991,0.079412
1765410106.812156,-9.681969,0.762793,-0.863223,-0.058032,0.135307,0.083689
1765410106.814142,-9.840983,0.554758,-0.205045,-0.059712,0.132558,0.086896
1765410106.817191,-9.839788,0.436394,-0.437590,-0.062461,0.128740,0.083536
1765410106.819151,-9.726207,0.453132,-0.853658,-0.061850,0.128129,0.082161
1765410106.820158,-9.568985,0.405308,-1.104735,-0.057727,0.123547,0.081703
1765410106.824132,-9.701099,0.588833,-0.844094,-0.062156,0.120493,0.080481
1765410106.827212,-9.836202,0.761597,-0.420253,-0.059254,0.135307,0.077580
1765410106.829111,-9.713055,0.821975,-0.393950,-0.059254,0.144317,0.089186
1765410106.832134,-9.622189,0.601387,-0.845289,-0.060628,0.118813,0.093921
1765410106.834139,-9.801530,0.508130,-0.840507,-0.067348,0.118813,0.087812
1765410106.837113,-9.916306,0.576279,-0.755619,-0.063072,0.131031,0.089644
1765410106.838246,-9.829028,0.515304,-0.683883,-0.056505,0.142637,0.091477
1765410106.842205,-9.850550,0.553563,-0.388570,-0.059712,0.136987,0.084452
1765410106.844156,-9.864896,0.617527,-0.484816,-0.063530,0.134238,0.085216
1765410106.845174,-9.809898,0.636059,-0.869201,-0.061697,0.134238,0.091783
1765410106.849169,-9.923481,0.588833,-0.841702,-0.059712,0.131947,0.089950
1765410106.851811,-10.076518,0.551172,-0.345528,-0.062614,0.137750,0.085368
1765410106.855791,-10.007771,0.728120,-0.406504,-0.062461,0.140499,0.086132
1765410106.857281,-9.943806,0.669536,-0.551172,-0.062461,0.134390,0.091477
1765410106.859225,-9.970109,0.708991,-0.457915,-0.064141,0.134390,0.088423
1765410106.862181,-9.702294,0.482425,-0.813606,-0.061087,0.127671,0.094990
1765410106.864195,-9.696316,0.526064,-0.843496,-0.062766,0.130878,0.090866
1765410106.867175,-9.796746,0.545194,-0.878766,-0.064294,0.130878,0.087965
1765410106.869202,-9.796746,0.545194,-0.878766,-0.064294,0.133932,0.087965
1765410106.872243,-10.090864,0.640842,-0.468077,-0.064141,0.131794,0.082314
1765410106.874128,-10.169774,0.762793,-0.146461,-0.064141,0.131641,0.083383
1765410106.877132,-9.675991,0.818986,-1.126255,-0.066584,0.122478,0.090103
1765410106.879129,-9.730392,0.750837,-1.048541,-0.069791,0.122478,0.089644
1765410106.882160,-9.730392,0.750837,-1.048541,-0.069791,0.137750,0.089644
1765410106.884172,-9.736967,0.469871,-0.749641,-0.063683,0.136987,0.090866
1765410106.887156,-9.821257,0.504543,-0.704806,-0.065210,0.131641,0.083078
1765410106.889216,-9.949782,0.728120,-0.663558,-0.063988,0.132252,0.081551
1765410106.890178,-9.861309,0.616930,-0.801052,-0.057879,0.132863,0.090713
1765410106.894183,-9.861309,0.616930,-0.801052,-0.057879,0.132710,0.090713
1765410106.897119,-9.833811,0.654591,-0.816595,-0.066737,0.137750,0.083841
1765410106.899148,-10.000596,0.645624,-0.597800,-0.059254,0.144164,0.086896
1765410106.902187,-10.101624,0.701817,-0.494381,-0.061850,0.145844,0.087048
1765410106.904155,-9.823050,0.661167,-0.786705,-0.069944,0.145844,0.085521
1765410106.907148,-9.855330,0.752630,-0.889526,-0.065210,0.135307,0.088881
1765410106.909136,-9.969511,0.781922,-0.730512,-0.062461,0.138972,0.092699
1765410106.912154,-10.109396,0.788498,-0.579866,-0.063377,0.144775,0.091172
1765410106.914253,-9.984456,0.608560,-0.538020,-0.064294,0.143859,0.094990
1765410106.917160,-9.754900,0.566714,-0.654591,-0.063988,0.143859,0.092393
1765410106.918121,-9.598277,0.624103,-1.140602,-0.065821,0.129045,0.090866
1765410106.920178,-9.775226,0.638450,-1.089192,-0.068722,0.131336,0.089034
1765410106.924130,-9.772237,0.584648,-1.015064,-0.064294,0.142026,0.089797
1765410106.927153,-9.772237,0.584648,-1.015064,-0.064294,0.146150,0.089797
1765410106.929179,-9.899570,0.625299,-0.618125,-0.066890,0.144164,0.087659
1765410106.930169,-10.008368,0.754424,-0.565519,-0.065821,0.134238,0.087965
1765410106.932204,-9.879841,0.771162,-0.926590,-0.063377,0.142637,0.090408
1765410106.937172,-9.762074,0.657580,-0.765782,-0.066584,0.136070,0.093768
1765410106.939165,-9.762074,0.657580,-0.765782,-0.066584,0.142942,0.093768
1765410106.942181,-9.864896,0.691057,-0.638450,-0.065821,0.137903,0.092699
1765410106.944164,-9.643710,0.813008,-1.012673,-0.065515,0.134085,0.089950
1765410106.947246,-9.641318,0.845289,-1.258967,-0.066279,0.130114,0.092393
1765410106.951733,-9.810495,0.665949,-0.823768,-0.069028,0.132558,0.095600
1765410106.952233,-9.814680,0.582257,-0.828551,-0.065668,0.146455,0.090255
1765410106.954218,-9.778812,0.542802,-0.747250,-0.068264,0.145080,0.089492
1765410106.957149,-9.706479,0.713773,-0.734696,-0.067653,0.143553,0.089492
1765410106.959175,-9.747727,0.750239,-0.922405,-0.065057,0.139277,0.095142
1765410106.962174,-9.484695,0.655189,-1.484337,-0.069333,0.139277,0.094379
1765410106.964185,-9.832614,0.824964,-0.926590,-0.067959,0.145080,0.089492
1765410106.967203,-9.935436,0.597800,-0.222979,-0.063225,0.158520,0.098807
1765410106.969178,-9.845168,0.646820,-0.482425,-0.067348,0.147066,0.091324
1765410106.972118,-9.533715,0.778933,-1.023434,-0.073151,0.135612,0.089339
1765410106.974168,-9.415350,0.759206,-1.525586,-0.071166,0.135612,0.092088
1765410106.977193,-9.710664,0.688666,-0.903874,-0.066737,0.143095,0.096822
1765410106.977693,-9.938425,0.724534,-0.402917,-0.064294,0.153327,0.094531
1765410106.981254,-9.938425,0.724534,-0.402917,-0.064294,0.155923,0.094531
1765410106.984224,-9.643710,0.857843,-1.184840,-0.069180,0.141110,0.097128
1765410106.987205,-9.910329,0.701817,-0.850072,-0.071777,0.134390,0.099724
1765410106.989172,-9.808702,0.547585,-0.835724,-0.066279,0.150120,0.100029
1765410106.990150,-9.799137,0.526064,-0.591822,-0.066279,0.150120,0.097128
1765410106.994209,-9.788976,0.838116,-0.809421,-0.068570,0.148746,0.091172
1765410106.997171,-9.892395,0.711382,-0.836920,-0.066279,0.137597,0.096822
1765410106.999165,-9.758488,0.579866,-0.979196,-0.067959,0.146913,0.096059
1765410107.002697,-9.575562,0.651004,-1.194404,-0.066279,0.150731,0.090866
1765410107.004201,-9.878048,0.734696,-0.454328,-0.065973,0.149815,0.091935
1765410107.007169,-9.849951,0.817790,-0.649809,-0.063225,0.148440,0.093004
1765410107.009219,-9.799736,0.846485,-0.814204,-0.065973,0.146760,0.095753
1765410107.011219,-9.514585,0.689861,-1.541128,-0.068875,0.140499,0.095906
1765410107.014162,-10.102820,0.801052,-0.423242,-0.066584,0.147371,0.094226
1765410107.016179,-10.007172,0.639646,-0.471066,-0.064904,0.151647,0.100182
1765410107.017207,-9.921089,0.777140,-0.611549,-0.071319,0.151647,0.090103
1765410107.022193,-9.680773,0.781922,-1.189622,-0.074678,0.142332,0.088575
1765410107.024210,-9.697512,0.771162,-1.343257,-0.069028,0.133321,0.092852
1765410107.025196,-9.726207,0.704208,-1.262554,-0.069486,0.147982,0.093004
1765410107.029260,-9.934240,0.870995,-0.658178,-0.071777,0.159436,0.094379
1765410107.030193,-10.028693,0.838116,-0.433405,-0.066737,0.156229,0.096975
1765410107.034293,-10.028693,0.838116,-0.433405,-0.066737,0.147829,0.096975
1765410107.036256,-9.759683,0.766977,-1.190818,-0.069944,0.146302,0.102014
1765410107.039245,-9.734576,0.565519,-1.148374,-0.064904,0.148288,0.102473
1765410107.042179,-9.856527,0.632472,-0.906265,-0.067348,0.147371,0.090866
1765410107.044188,-10.032280,0.927786,-0.564323,-0.063072,0.149967,0.088423
1765410107.047189,-9.850550,1.058704,-0.749641,-0.066584,0.156840,0.097280
1765410107.049149,-9.626971,0.845289,-1.156145,-0.068875,0.140957,0.102014
1765410107.052184,-9.704685,0.573888,-1.144189,-0.071166,0.140957,0.098197
1765410107.054136,-9.833213,0.860832,-1.080822,-0.071166,0.145997,0.098197
1765410107.057157,-9.839788,0.951698,-0.854854,-0.060170,0.153480,0.101251
1765410107.059234,-9.936632,0.970827,-0.876375,-0.065668,0.147066,0.101862
1765410107.062160,-10.003586,0.769966,-0.914634,-0.068264,0.150120,0.104458
1765410107.064201,-9.805714,0.497370,-1.147776,-0.068875,0.150120,0.104153
1765410107.067139,-10.098038,0.520684,-0.662362,-0.067501,0.150578,0.093004
1765410107.068128,-10.142874,0.621712,-0.533238,-0.066432,0.152258,0.095142
1765410107.070185,-9.964130,0.787900,-0.948111,-0.065821,0.149815,0.087965
1765410107.074131,-9.619798,0.996533,-1.455643,-0.069333,0.141110,0.085827
1765410107.077152,-9.640123,1.080822,-1.229077,-0.076664,0.141110,0.093157
1765410107.079160,-9.745336,1.021042,-1.067671,-0.065057,0.143401,0.101556
1765410107.080151,-9.863102,0.801052,-0.815997,-0.070097,0.147066,0.104611
1765410107.084132,-9.962935,0.773553,-0.657580,-0.075747,0.147066,0.095906
1765410107.087149,-9.788976,0.602582,-1.076638,-0.074220,0.142637,0.102014
1765410107.089158,-9.524150,0.636059,-1.667862,-0.067195,0.127365,0.095600
1765410107.092145,-9.653275,1.048541,-1.149569,-0.071166,0.145997,0.088423
1765410107.094171,-9.641318,0.949306,-0.967240,-0.066737,0.153633,0.104458
1765410107.097232,-9.817072,0.789694,-0.718556,-0.075442,0.145386,0.099266
1765410107.097732,-9.785987,0.717958,-1.127451,-0.076816,0.138972,0.097128
1765410107.100187,-9.574366,0.928981,-1.655906,-0.067501,0.135612,0.096822
1765410107.102206,-9.518770,0.957676,-1.365375,-0.065210,0.147982,0.101862
1765410107.105222,-9.530128,0.828551,-1.195002,-0.068264,0.150426,0.101862
1765410107.109171,-9.820060,0.729316,-0.481827,-0.071471,0.156840,0.100640
1765410107.112137,-9.481706,0.622310,-1.477762,-0.071471,0.149204,0.100640
1765410107.114183,-9.757890,0.906863,-1.107723,-0.068111,0.144622,0.098349
1765410107.117134,-9.743543,0.884744,-1.183644,-0.072693,0.154243,0.098960
1765410107.119189,-10.051410,0.976805,-0.590626,-0.068722,0.154091,0.102778
1765410107.122190,-9.654470,0.683883,-1.241033,-0.070402,0.158520,0.101404
1765410107.124150,-9.999999,0.986968,-0.708991,-0.069028,0.144470,0.096517
1765410107.127126,-9.632950,0.845887,-1.510043,-0.069944,0.154702,0.105527
1765410107.129202,-9.873264,1.089192,-0.948111,-0.068264,0.145844,0.099724
1765410107.132201,-9.725608,0.814204,-0.920612,-0.072693,0.155618,0.102473
1765410107.134231,-9.796746,0.676710,-0.737685,-0.070555,0.155618,0.105527
1765410107.137231,-9.623982,0.602582,-1.390483,-0.070555,0.151342,0.094226
1765410107.139241,-9.814680,0.886537,-1.041368,-0.068570,0.150426,0.096822
1765410107.142279,-10.026302,0.939742,-0.689263,-0.067806,0.163254,0.098502
1765410107.142779,-9.955761,0.986968,-0.439981,-0.071166,0.160047,0.097433
1765410107.145240,-9.745336,1.018651,-1.067073,-0.073151,0.152869,0.096211
1765410107.149200,-9.451219,0.881157,-1.795791,-0.070555,0.139277,0.102320
1765410107.152241,-9.606049,0.857245,-1.267934,-0.070250,0.146913,0.097738
1765410107.154234,-9.763269,0.863223,-1.002511,-0.069791,0.165697,0.103084
1765410107.156266,-9.776422,0.670134,-0.809421,-0.073609,0.163101,0.101251
1765410107.159161,-9.707077,0.980990,-1.368962,-0.071319,0.152564,0.096517
1765410107.162147,-9.585126,0.900885,-1.431133,-0.068875,0.150884,0.104916
1765410107.164991,-9.385460,0.930177,-1.730033,-0.066126,0.160047,0.101251
1765410107.167188,-9.962935,0.873984,-0.569106,-0.068875,0.165697,0.102473
1765410107.169222,-9.851147,0.952893,-0.722142,-0.069180,0.172264,0.100487
1765410107.172218,-9.752509,0.859636,-1.160928,-0.070097,0.154549,0.106291
1765410107.174209,-9.398612,0.961860,-1.854376,-0.070708,0.155771,0.100029
1765410107.177171,-9.838593,1.029412,-1.050932,-0.065515,0.166308,0.107054
1765410107.179154,-9.675991,0.810617,-0.970827,-0.064599,0.179594,0.110719
1765410107.182174,-10.040649,0.896700,-0.913438,-0.072082,0.158978,0.099571
1765410107.184148,-9.677187,0.804639,-1.471784,-0.072998,0.163406,0.099571
1765410107.187210,-10.050214,0.993544,-0.821377,-0.062003,0.156382,0.100487
1765410107.189229,-9.894786,0.831540,-0.734696,-0.069791,0.163101,0.103542
1765410107.192202,-9.964130,1.116690,-1.027020,-0.072846,0.163101,0.097433
1765410107.194208,-9.844571,1.119082,-1.474175,-0.069944,0.161421,0.105069
1765410107.197248,-9.702892,1.036585,-1.513630,-0.068417,0.167530,0.109956
1765410107.197748,-9.909731,0.881157,-0.961262,-0.073304,0.167530,0.106291
1765410107.200208,-9.752509,0.756217,-1.032998,-0.073762,0.169973,0.102931
1765410107.204242,-9.809898,0.850072,-1.025825,-0.071319,0.163559,0.101404
1765410107.207199,-9.809898,0.850072,-1.025825,-0.071319,0.151342,0.101404
1765410107.209163,-9.865494,1.150167,-1.365375,-0.073762,0.159436,0.098197
1765410107.212191,-9.594690,1.147776,-1.306193,-0.074984,0.167988,0.103847
1765410107.214192,-10.060975,1.200382,-0.590626,-0.076358,0.166155,0.106291
1765410107.215183,-9.921089,0.999522,-1.109517,-0.077122,0.162032,0.111788
1765410107.219145,-9.921089,0.999522,-1.109517,-0.077122,0.148288,0.111788
1765410107.222161,-9.728598,1.037781,-1.609278,-0.074831,0.159130,0.111177
1765410107.225225,-10.027497,0.896700,-0.967240,-0.072388,0.154091,0.110414
1765410107.227311,-10.041844,0.856050,-0.814204,-0.077580,0.164781,0.103084
1765410107.229256,-9.809898,1.021042,-1.278096,-0.073915,0.163406,0.102014
1765410107.231400,-9.904350,1.183046,-1.212338,-0.071013,0.156840,0.106138
1765410107.234247,-9.960544,1.129842,-1.108321,-0.080940,0.158520,0.108734
1765410107.236284,-10.310855,1.262554,-0.653993,-0.079871,0.158520,0.107818
1765410107.239284,-9.745336,0.915830,-1.367169,-0.080940,0.168446,0.118966
1765410107.241321,-9.654470,0.840507,-1.494500,-0.079718,0.156076,0.113010
1765410107.244148,-9.698708,0.790889,-1.293639,-0.082009,0.162337,0.109192
1765410107.247165,-10.013150,0.898493,-0.975610,-0.075136,0.163254,0.104000
1765410107.249206,-9.866092,0.928981,-1.194404,-0.076664,0.167683,0.104000
1765410107.252219,-9.866092,0.928981,-1.104735,-0.076664,0.161879,0.104000
1765410107.254241,-9.667024,0.957676,-1.348039,-0.076969,0.157298,0.107360
1765410107.259721,-9.680176,1.065877,-1.425155,-0.075747,0.157298,0.107818
1765410107.260221,-9.680176,1.065877,-1.425155,-0.075747,0.167988,0.107818
1765410107.261241,-9.716043,1.037183,-0.900287,-0.075289,0.173638,0.106749
1765410107.264249,-9.716043,1.037183,-0.900287,-0.075289,0.164934,0.106749
1765410107.267300,-9.507411,0.811215,-1.704926,-0.079565,0.157298,0.105222
1765410107.269178,-9.775226,1.000717,-1.355213,-0.076511,0.157298,0.097280
1765410107.272180,-9.725608,1.056313,-1.050932,-0.070250,0.169057,0.105832
1765410107.274226,-9.563604,1.045552,-1.300813,-0.069791,0.162337,0.106291
1765410107.277151,-9.588712,1.217719,-1.293041,-0.078802,0.162185,0.102778
1765410107.279172,-9.725608,1.296030,-1.379722,-0.075747,0.159436,0.112094
1765410107.282221,-9.756694,1.109517,-1.306791,-0.070860,0.156687,0.120646
1765410107.284167,-9.802128,0.966045,-1.165710,-0.077274,0.161879,0.115148
1765410107.287183,-9.803921,0.896700,-1.212338,-0.080176,0.158520,0.112857
1765410107.289193,-9.596484,0.836322,-1.518412,-0.074984,0.158520,0.111636
1765410107.292153,-9.626971,0.976207,-1.619440,-0.076358,0.166614,0.110108
1765410107.293161,-9.708273,1.126255,-1.316356,-0.075900,0.173791,0.110567
1765410107.296206,-9.704685,1.030607,-1.034194,-0.076511,0.178984,0.114843
1765410107.299164,-9.652080,0.989957,-1.356408,-0.080176,0.173180,0.112094
1765410107.302192,-9.780008,1.074844,-1.416786,-0.076664,0.173028,0.108123
1765410107.303241,-9.632950,0.963654,-1.346246,-0.076511,0.179136,0.112705
1765410107.307173,-9.758488,0.992348,-1.195002,-0.077274,0.177456,0.110719
1765410107.309226,-9.691534,0.910449,-1.355811,-0.080940,0.174707,0.106443
1765410107.310171,-9.527737,1.023434,-1.746772,-0.078649,0.176693,0.106138
1765410107.313194,-9.546865,0.982783,-1.747967,-0.074831,0.179594,0.108429
1765410107.317229,-9.546865,0.982783,-1.747967,-0.074831,0.185856,0.108429
1765410107.319225,-9.974891,1.285868,-0.773553,-0.074067,0.186772,0.103236
1765410107.320278,-9.810495,1.270923,-1.254782,-0.076053,0.186772,0.108734
1765410107.324243,-9.748923,1.152558,-1.355811,-0.078649,0.179747,0.113163
1765410107.327177,-9.934838,1.070660,-1.279292,-0.077274,0.179747,0.112094
1765410107.329153,-9.952174,1.052128,-0.930177,-0.072998,0.184023,0.115454
1765410107.330238,-9.794355,1.086800,-1.297226,-0.078649,0.183718,0.110261
1765410107.334176,-9.823050,1.032998,-1.591344,-0.079871,0.169362,0.112705
1765410107.337222,-9.945600,1.012673,-1.325920,-0.080176,0.168904,0.107207
1765410107.339232,-9.824244,1.128646,-1.175275,-0.075136,0.182801,0.110567
1765410107.342230,-9.824244,1.219512,-1.233261,-0.078496,0.183565,0.108887
1765410107.344202,-9.941415,1.243424,-1.206360,-0.076969,0.176540,0.114690
1765410107.347195,-10.095049,1.116690,-1.108321,-0.077122,0.172722,0.113468
1765410107.349165,-9.813485,0.960665,-1.683405,-0.080940,0.181274,0.113010
1765410107.352211,-9.884624,1.154950,-1.359397,-0.079260,0.181274,0.107665
1765410107.354184,-9.934838,1.128646,-1.110713,-0.076358,0.183412,0.112552
1765410107.359832,-9.931850,1.215925,-1.146580,-0.078954,0.175013,0.111330
1765410107.360332,-9.756096,1.207556,-1.594930,-0.082772,0.177915,0.109039
1765410107.362302,-9.683763,1.263749,-1.685198,-0.082772,0.178373,0.109039
1765410107.364268,-9.759683,1.147776,-1.386896,-0.081092,0.180663,0.115301
1765410107.365219,-9.802725,1.049737,-1.335485,-0.085216,0.181580,0.113774
1765410107.369197,-9.744141,1.012673,-1.258967,-0.079565,0.181732,0.115301
1765410107.372216,-9.699903,1.011478,-1.261358,-0.077427,0.174555,0.109192
1765410107.372716,-9.671208,1.054519,-1.304400,-0.078038,0.173180,0.109803
1765410107.377242,-9.391438,1.017456,-1.960784,-0.081245,0.165086,0.107818
1765410107.379175,-9.543280,1.257771,-1.666667,-0.079107,0.166919,0.102625
1765410107.381238,-9.687947,1.309182,-1.267336,-0.075747,0.172722,0.109039
1765410107.384246,-9.788378,1.303204,-1.048541,-0.081703,0.172722,0.112857
1765410107.385239,-9.554638,1.282879,-1.520803,-0.081703,0.169362,0.118661
1765410107.390269,-9.467957,1.059302,-1.633190,-0.082620,0.164170,0.117744
1765410107.392259,-9.257531,0.986370,-2.104256,-0.078954,0.166766,0.114843
1765410107.394187,-9.551649,1.163319,-1.465806,-0.076664,0.166308,0.110719
1765410107.397258,-9.509803,1.146580,-1.427546,-0.075442,0.177304,0.111330
1765410107.398241,-9.307747,1.217719,-1.868125,-0.082161,0.173638,0.113010
1765410107.402326,-9.499043,1.274510,-1.779053,-0.082009,0.159589,0.112705
1765410107.404194,-9.618005,1.300813,-1.652319,-0.081398,0.167224,0.116064
1765410107.406230,-9.505020,1.079627,-1.732424,-0.081398,0.182343,0.120188
1765410107.409204,-9.655068,0.968436,-1.376734,-0.080940,0.182343,0.115301
1765410107.411197,-9.946198,1.016260,-1.108321,-0.079412,0.185092,0.110719
1765410107.414223,-9.891200,0.993544,-1.330703,-0.076205,0.175318,0.109345
1765410107.417234,-9.649688,1.117886,-1.610473,-0.081551,0.178220,0.103084
1765410107.419220,-9.641318,1.218316,-1.577594,-0.078802,0.172875,0.102931
1765410107.422176,-9.673599,1.390483,-1.396461,-0.078802,0.174249,0.105985
1765410107.424206,-9.576756,1.367766,-1.557867,-0.080634,0.172875,0.109039
1765410107.427189,-9.484097,1.412601,-1.612864,-0.082925,0.181274,0.112094
1765410107.429249,-9.435676,1.107126,-1.695361,-0.080329,0.176082,0.118813
1765410107.432156,-9.604255,1.013869,-1.695959,-0.082620,0.165239,0.107054
1765410107.433276,-9.716641,1.230870,-1.541128,-0.084910,0.184176,0.102320
1765410107.437247,-9.674795,1.272716,-1.443089,-0.084910,0.177762,0.102320
1765410107.439246,-9.661644,1.322334,-1.280488,-0.085827,0.171042,0.108734
1765410107.442273,-9.576159,1.318747,-1.702534,-0.084147,0.171042,0.111177
1765410107.444211,-9.576159,1.318747,-1.702534,-0.084147,0.179289,0.111177
1765410107.446275,-9.629362,1.099952,-1.757532,-0.077885,0.171500,0.116217
1765410107.449186,-9.992825,1.183046,-1.072453,-0.082467,0.187536,0.111177
1765410107.451294,-9.807508,1.238642,-1.426351,-0.079871,0.169821,0.115148
1765410107.454277,-9.928861,1.205763,-1.104735,-0.081551,0.169821,0.111483
1765410107.455252,-9.733380,1.252989,-1.886059,-0.086437,0.172722,0.110414
1765410107.459224,-9.923481,1.319942,-1.422764,-0.077885,0.165697,0.114385
1765410107.462306,-9.460185,1.171090,-1.969153,-0.081551,0.183870,0.111025
1765410107.464260,-9.844571,1.684600,-1.321138,-0.080481,0.175776,0.115148
1765410107.467218,-9.814680,1.295433,-1.455045,-0.087354,0.181885,0.121104
