time,acc_x_g,acc_y_g,acc_z_g,gyro_x_rad_s,gyro_y_rad_s,gyro_z_rad_s
1765408207.783575,-7.129363,-0.186514,6.976326,-0.006872,-0.007789,-0.000458
1765408207.783775,-7.122190,-0.252272,7.013390,-0.007636,-0.009774,-0.001069
1765408207.783975,-7.128167,-0.279770,7.050454,-0.007483,-0.005345,0.000305
1765408207.784175,-7.149688,-0.216404,7.001434,-0.008094,-0.005498,-0.001833
1765408207.784407,-7.060019,-0.173960,6.859157,-0.008247,-0.004581,-0.002291
1765408207.784657,-6.989478,-0.214012,6.909373,-0.008399,-0.004276,-0.001680
1765408207.784907,-7.088713,-0.241511,7.135341,-0.009927,-0.009010,0.001985
1765408207.785157,-6.972142,-0.254663,7.037899,-0.009163,-0.009010,-0.001833
1765408207.785372,-6.972142,-0.254663,7.037899,-0.009163,-0.010232,-0.001833
1765408207.785572,-6.459827,0.156624,6.337875,-0.011912,-0.008094,-0.007483
1765408207.785772,-6.407221,0.241511,6.447273,-0.016952,0.002291,-0.001374
1765408207.785972,-6.296030,-0.033477,6.364179,-0.021228,0.011759,0.006261
1765408207.786172,-5.975011,-0.163797,6.030607,-0.025198,0.011759,0.004429
1765408207.786488,-5.786704,-0.028097,5.860831,-0.030391,0.020922,-0.003665
1765408207.786738,-5.735293,0.178144,6.019846,-0.033139,0.033445,-0.001985
1765408207.786988,-5.734097,0.093855,6.205164,-0.041081,0.047189,0.004734
1765408207.787238,-5.848876,-0.009565,6.336680,-0.041081,0.057421,0.005956
1765408207.787441,-6.076040,-0.143472,6.571018,-0.045204,0.068264,0.008552
1765408207.787641,-6.221902,-0.364658,6.942251,-0.044593,0.080176,0.010690
1765408207.787841,-6.209348,-0.538020,7.122787,-0.043524,0.100487,0.007025
1765408207.788041,-6.128048,-0.523673,7.074963,-0.039859,0.100487,0.005651
1765408207.788241,-6.113103,-0.472262,6.816116,-0.039859,0.111025,0.005651
1765408207.788462,-6.122668,-0.325801,6.790410,-0.029780,0.129503,0.014966
1765408207.788712,-6.243423,-0.334768,7.679339,-0.024282,0.155312,0.024587
1765408207.788962,-6.032998,-0.518890,7.505977,-0.020006,0.172417,0.038485
1765408207.789212,-5.799258,-0.983979,7.109038,-0.020464,0.172417,0.036194
1765408207.789440,-5.799258,-0.983979,7.109038,-0.020464,0.189063,0.036194
1765408207.789690,-5.695241,-0.820182,7.173600,-0.015577,0.215941,0.028863
1765408207.789940,-5.710186,-0.570899,7.491630,-0.011454,0.235947,0.031460
1765408207.790190,-5.795073,-0.711382,7.633308,-0.010690,0.239001,0.045509
1765408207.790460,-5.710186,-1.132831,7.473696,-0.010232,0.249997,0.045509
1765408207.790710,-5.710186,-1.132831,7.473696,-0.010232,0.265574,0.045509
1765408207.790960,-5.294117,-0.952893,6.840626,-0.005345,0.306960,0.027794
1765408207.791210,-5.298899,-0.625299,6.995456,0.005651,0.306960,0.029322
1765408207.791476,-5.667144,-0.320421,7.514346,0.007025,0.343001,0.036805
1765408207.791726,-5.493783,-0.579268,7.373266,0.004429,0.343001,0.051771
1765408207.791976,-5.213414,-1.266140,6.669057,-0.000916,0.358120,0.056047
1765408207.792226,-5.044237,-1.446676,6.551888,0.006872,0.378584,0.040623
1765408207.792479,-5.545193,-0.722740,7.472500,0.012217,0.405615,0.025962
1765408207.792679,-5.564322,-0.381994,7.633906,0.009927,0.434478,0.038332
1765408207.792879,-5.295313,-0.838713,6.700142,0.009316,0.429744,0.049633
1765408207.793079,-5.094451,-1.249402,6.533357,0.012675,0.447612,0.044440
1765408207.793279,-5.140482,-1.071258,7.039095,0.018784,0.489303,0.032529
1765408207.793425,-5.247489,-0.807030,7.175992,0.019242,0.503353,0.030849
1765408207.793675,-5.402916,-0.722142,7.079147,0.019242,0.506713,0.030849
1765408207.793925,-5.544595,-0.520086,7.049258,0.021686,0.527482,0.028711
1765408207.794175,-5.603179,-0.501554,7.312290,0.018479,0.550542,0.040928
1765408207.794444,-5.710186,-0.630081,7.394786,0.015424,0.561385,0.033139
1765408207.794694,-5.648015,-0.777738,6.848397,0.010996,0.571312,0.035430
1765408207.794944,-5.665350,-0.995935,6.981109,0.010996,0.581544,0.035430
1765408207.795194,-5.775944,-0.444165,7.172404,0.017257,0.598801,0.016799
1765408207.795451,-5.862624,-0.255858,7.021759,0.002749,0.614836,0.020769
1765408207.795701,-5.983978,-0.337159,6.850789,0.009010,0.621403,0.028405
1765408207.795951,-6.047943,-0.888929,6.898612,-0.000764,0.636827,0.035583
1765408207.796201,-6.142993,-0.706600,7.295551,0.006567,0.649808,0.009468
1765408207.796407,-6.238641,-0.082496,7.379243,0.001985,0.672257,0.003971
1765408207.796607,-6.121472,-0.184122,6.837637,-0.003207,0.664163,0.017257
1765408207.796807,-6.165112,-0.040650,6.445480,0.003207,0.665385,0.021380
1765408207.797007,-6.611669,-0.350311,7.077952,-0.005803,0.677908,0.013134
1765408207.797207,-6.918340,-0.039455,7.471304,-0.007330,0.685696,0.007483
1765408207.797411,-6.770682,0.178144,7.041486,-0.015730,0.681267,0.010537
1765408207.797661,-6.724055,0.258250,6.481946,-0.016341,0.680809,0.018021
1765408207.797911,-6.667861,-0.064562,6.634385,-0.034819,0.686154,0.010385
1765408207.798161,-6.847202,0.219990,6.776063,-0.037568,0.690278,0.003971
1765408207.798452,-7.261477,0.612147,6.986488,-0.034972,0.699288,0.008552
1765408207.798702,-7.111429,0.295911,6.431133,-0.044746,0.697761,0.019853
1765408207.798952,-7.111429,0.295911,6.431133,-0.044746,0.696234,0.019853
1765408207.799202,-7.481468,0.304878,7.052845,-0.057116,0.704480,0.023976
1765408207.799508,-7.473098,-0.075323,7.178383,-0.067806,0.716392,0.014661
1765408207.799758,-7.251314,-0.095050,6.349832,-0.065668,0.711811,0.013897
1765408207.800008,-7.471304,-0.048422,6.335485,-0.074220,0.703259,0.012523
1765408207.800258,-7.819224,0.160210,6.965566,-0.060934,0.706007,-0.001833
1765408207.800424,-7.366092,0.209230,6.281683,-0.083230,0.721585,0.010843
1765408207.800674,-7.086919,-0.279770,5.787899,-0.090103,0.701426,0.011301
1765408207.800924,-7.217838,-0.089072,5.952295,-0.089644,0.697608,-0.000305
1765408207.801174,-7.329028,0.086083,5.917025,-0.089186,0.711811,-0.004429
1765408207.801404,-6.994858,0.564921,5.357484,-0.087812,0.723112,0.008705
1765408207.801654,-6.935676,0.052606,5.433404,-0.114537,0.724792,0.009316
1765408207.801904,-7.522118,-0.204448,5.834528,-0.120340,0.723570,0.006109
1765408207.802154,-7.846724,-0.268412,6.120276,-0.125991,0.723570,-0.008705
1765408207.802414,-7.755260,0.634266,5.935556,-0.122937,0.731817,-0.010690
1765408207.802614,-8.168340,0.949306,6.414394,-0.138666,0.726013,-0.000458
1765408207.802814,-8.167144,0.033477,6.571018,-0.147829,0.714865,0.021533
1765408207.803014,-7.761836,-0.541607,5.845886,-0.153480,0.707077,0.010537
1765408207.803214,-7.596842,-0.136896,5.565518,-0.150731,0.701579,-0.011301
1765408207.803434,-8.770324,0.593018,6.707316,-0.161116,0.710742,-0.016493
1765408207.803684,-8.553323,0.277977,6.733619,-0.173180,0.718378,0.006720
1765408207.803934,-8.553323,0.277977,6.733619,-0.173180,0.713491,0.006720
1765408207.804184,-8.009325,-0.082496,5.915829,-0.185856,0.704938,-0.006872
1765408207.804393,-8.186274,0.233142,6.014466,-0.189674,0.704938,-0.004581
1765408207.804643,-7.935197,-0.066954,5.973815,-0.206320,0.708298,0.002749
1765408207.804893,-7.928622,-0.159613,5.638450,-0.212581,0.710742,-0.002291
1765408207.805143,-8.387135,0.176949,6.459827,-0.213803,0.699135,0.003512
1765408207.805466,-8.642992,-0.090866,6.530367,-0.233503,0.697761,0.004276
1765408207.805716,-8.073887,0.007174,5.479434,-0.230754,0.697761,0.011759
1765408207.805966,-7.717598,-0.262434,5.586441,-0.239001,0.681115,0.011606
1765408207.806216,-7.997966,-0.615136,6.178861,-0.243277,0.684322,0.001374
1765408207.806442,-7.969870,-0.300096,5.707794,-0.248164,0.702495,0.003360
1765408207.806692,-7.843734,-0.133907,6.043758,-0.256105,0.685238,-0.005651
1765408207.806942,-9.026182,0.258250,6.590147,-0.258243,0.685238,0.006414
1765408207.807192,-8.524628,-0.420851,6.252988,-0.263130,0.696997,0.016952
1765408207.807359,-7.851505,-0.150048,5.442969,-0.252287,0.686460,0.011454
1765408207.807609,-7.938186,-0.640842,6.383308,-0.275653,0.686460,0.015119
1765408207.807859,-8.215566,0.025108,6.245217,-0.252135,0.676228,0.012828
1765408207.808109,-8.582017,-0.028694,6.251792,-0.277638,0.685696,0.016799
1765408207.808338,-8.539574,-0.132712,6.747966,-0.287565,0.683253,0.022449
1765408207.808588,-8.214968,-0.551172,6.241630,-0.282983,0.680046,0.023060
1765408207.808838,-7.289573,-1.053921,4.941415,-0.298408,0.680046,0.027947
1765408207.809088,-8.070300,-0.758010,5.481826,-0.297797,0.656833,0.009010
1765408207.809373,-8.744021,-0.277977,7.132950,-0.303295,0.679129,0.003207
1765408207.809623,-7.800693,-0.793281,5.639646,-0.330020,0.719294,0.018326
1765408207.809873,-6.764705,-0.832735,4.257532,-0.334296,0.698677,0.015882
1765408207.810123,-8.243662,-0.487805,6.380319,-0.339183,0.665385,0.000611
1765408207.810406,-9.282639,-0.282759,7.901721,-0.342695,0.698983,0.008399
1765408207.810656,-8.296268,0.053204,6.443089,-0.347735,0.728304,0.028100
1765408207.810906,-7.845528,-0.741272,5.711979,-0.360869,0.700357,0.030238
1765408207.811156,-8.373982,-0.780727,6.695958,-0.367435,0.682489,0.021075
1765408207.811402,-8.518053,-0.265423,6.846006,-0.359342,0.706160,0.027184
1765408207.811735,-8.237684,0.171569,6.344451,-0.367741,0.715323,0.032834
1765408207.812069,-7.907699,-0.466284,6.260161,-0.393703,0.706313,0.032529
1765408207.812373,-7.287182,-1.266140,5.686274,-0.373086,0.695776,0.047037
1765408207.812623,-7.319464,-1.159732,5.221185,-0.355524,0.694859,0.032681
1765408207.812873,-7.566953,-0.510521,5.770564,-0.345292,0.704938,0.016035
1765408207.813123,-7.616570,-0.147059,5.751434,-0.371559,0.716545,0.022602
1765408207.813342,-7.642873,-0.407700,5.715566,-0.357203,0.689361,0.042761
1765408207.813592,-7.822811,-0.648613,5.528454,-0.367588,0.687071,0.043982
1765408207.813842,-7.930415,-0.566714,5.815399,-0.363159,0.685849,0.027794
1765408207.814092,-7.407938,0.352702,4.668818,-0.372933,0.706313,0.023518
1765408207.814371,-7.571137,0.175753,4.842778,-0.386983,0.677144,0.048869
1765408207.814621,-8.611907,-0.390961,6.162123,-0.411112,0.686002,0.052993
1765408207.814871,-8.994499,-0.267217,6.417981,-0.412639,0.686002,0.035430
1765408207.815121,-8.994499,-0.267217,6.417981,-0.412639,0.693179,0.035430
1765408207.815440,-9.354375,0.109995,6.034193,-0.441503,0.691499,0.033292
1765408207.815690,-9.520563,0.261836,5.846484,-0.461356,0.708298,0.045968
1765408207.815940,-9.557627,-0.120756,6.333094,-0.472199,0.703717,0.048106
1765408207.816190,-9.353179,0.059780,6.332496,-0.461661,0.705855,0.035430
1765408207.816385,-7.514346,-0.288737,4.550454,-0.459218,0.698983,0.048564
1765408207.816635,-7.672166,0.015543,4.631754,-0.457080,0.689209,0.041692
1765408207.816885,-8.308225,0.057389,5.791487,-0.461356,0.699288,0.041386
1765408207.817135,-9.396819,0.419656,6.029411,-0.465937,0.688292,0.062156
1765408207.817355,-8.647776,-0.247489,5.429817,-0.482431,0.685085,0.050702
1765408207.817605,-8.419415,0.277379,4.588713,-0.490067,0.679893,0.050702
1765408207.817855,-8.514465,-0.058584,5.205643,-0.507324,0.671799,0.054367
1765408207.818105,-7.667383,0.078910,4.809899,-0.508393,0.694248,0.051160
1765408207.818391,-6.930893,-0.597202,3.895265,-0.541990,0.700968,0.050244
1765408207.818641,-7.642275,-0.317432,3.971185,-0.545655,0.683253,0.043982
1765408207.818891,-8.201816,-0.257652,5.068149,-0.567341,0.700052,0.040317
1765408207.819141,-8.409851,0.142276,5.720946,-0.579253,0.694248,0.044440
1765408207.819499,-8.425393,-0.763391,5.686872,-0.609338,0.720821,0.043677
1765408207.819749,-8.754782,-0.628886,5.407699,-0.568257,0.688598,0.050244
1765408207.819999,-9.942013,-0.212817,7.269846,-0.558331,0.660803,0.046426
1765408207.820249,-10.022716,0.087279,6.770085,-0.549626,0.686460,0.045968
1765408207.820360,-7.996771,-0.418460,4.609038,-0.559247,0.673173,0.057727
1765408207.820610,-7.305116,-0.754424,4.685556,-0.537714,0.673173,0.071777
1765408207.820860,-9.042921,-0.700622,6.250597,-0.568257,0.666301,0.045968
1765408207.821110,-8.974174,-0.063367,4.981468,-0.573144,0.703869,0.041233
1765408207.821346,-8.974174,-0.063367,4.981468,-0.573144,0.714254,0.041233
1765408207.821596,-8.220348,-0.951698,5.497967,-0.606131,0.689209,0.073457
1765408207.821846,-8.057149,-0.600191,4.735772,-0.617432,0.705244,0.067653
1765408207.822096,-8.613103,-1.355811,5.241511,-0.637438,0.702801,0.057727
1765408207.822466,-8.837277,-0.976207,6.115495,-0.615752,0.691499,0.060170
1765408207.822716,-7.883787,-0.941535,4.372309,-0.622624,0.710589,0.063988
1765408207.822966,-6.208751,-1.135820,3.020086,-0.620181,0.668745,0.060628
1765408207.823216,-8.549736,-1.038976,5.784313,-0.621708,0.668745,0.070250
1765408207.823472,-10.485414,-0.992348,7.166427,-0.616210,0.669356,0.067348
1765408207.823722,-8.674676,-0.527260,4.872070,-0.626900,0.715018,0.066432
1765408207.823972,-7.409133,-0.894907,3.620277,-0.641256,0.702648,0.073915
1765408207.824222,-8.837277,-1.157341,5.744858,-0.655917,0.662942,0.073304
1765408207.824385,-10.230749,-0.875179,5.951696,-0.662025,0.686002,0.069944
1765408207.824635,-9.219272,-0.115375,4.945002,-0.686613,0.737162,0.063988
1765408207.824885,-8.582017,-0.677905,4.988641,-0.711963,0.724028,0.084605
1765408207.825135,-9.972500,-0.957676,6.762912,-0.685391,0.665538,0.087048
1765408207.825352,-10.173959,-0.622310,6.645144,-0.653779,0.673173,0.080023
1765408207.825685,-7.822811,-1.452056,3.961621,-0.662178,0.711811,0.085827
1765408207.826019,-7.380439,-0.473458,2.992587,-0.662178,0.704938,0.085827
1765408207.826476,-8.981945,0.145863,4.733381,-0.645226,0.661414,0.087048
1765408207.826726,-9.866092,-0.434003,6.496891,-0.674548,0.661414,0.094684
1765408207.826976,-9.866092,-0.434003,6.496891,-0.674548,0.716545,0.094684
1765408207.827226,-6.808345,-0.771760,2.274031,-0.714101,0.730595,0.091172
1765408207.827433,-6.835245,-0.268412,2.700860,-0.715629,0.682337,0.081398
1765408207.827683,-8.749999,-0.035868,5.261836,-0.729220,0.707993,0.085674
1765408207.827933,-9.572572,-0.257054,5.942132,-0.726319,0.707993,0.094531
1765408207.828183,-9.097919,-0.300693,5.381396,-0.730289,0.713338,0.082009
1765408207.828405,-9.218077,-0.491392,5.340745,-0.732580,0.678671,0.103084
1765408207.828655,-8.595168,-0.842300,4.510999,-0.739910,0.694096,0.079412
1765408207.828905,-8.073887,0.000000,3.872548,-0.731511,0.710284,0.092088
1765408207.829155,-9.480511,-0.533238,5.254662,-0.763734,0.699593,0.094073
1765408207.829376,-10.104015,-0.044237,5.807030,-0.750753,0.672104,0.092088
1765408207.829626,-9.870873,-0.037064,5.114179,-0.792139,0.697761,0.092088
1765408207.829876,-8.779291,-0.390961,5.190100,-0.828944,0.697761,0.096669
1765408207.830126,-10.040649,-0.141679,5.740076,-0.788932,0.693943,0.099113
1765408207.830403,-10.075322,-1.352821,6.294834,-0.781907,0.687223,0.123089
1765408207.830653,-10.090864,-1.016260,4.949785,-0.761138,0.692874,0.103236
1765408207.830903,-8.880918,-0.349115,4.996412,-0.743118,0.703106,0.093462
1765408207.831153,-9.895982,0.283357,5.597799,-0.761596,0.691499,0.117592
1765408207.831405,-8.190458,-0.873984,4.230033,-0.761596,0.672563,0.117592
1765408207.831655,-7.900525,-0.746054,3.206599,-0.781602,0.661720,0.114843
1765408207.831905,-7.931013,-0.755619,3.665709,-0.801455,0.656527,0.105832
1765408207.832155,-9.570778,-0.667145,5.474652,-0.818559,0.663400,0.103847
1765408207.832384,-10.219989,-0.698828,4.990435,-0.809855,0.678213,0.116370
1765408207.832634,-10.219989,-0.698828,4.990435,-0.809855,0.658360,0.116370
1765408207.832884,-10.665949,-1.442492,6.270324,-0.819628,0.692263,0.110414
1765408207.833134,-10.663557,-0.683883,5.734097,-0.820087,0.692263,0.111788
1765408207.833450,-10.167382,-0.594213,5.687469,-0.834442,0.681573,0.123700
1765408207.833700,-10.453131,-0.740076,5.639646,-0.832915,0.681573,0.136070
1765408207.833950,-9.510998,-1.300215,4.789574,-0.848339,0.680198,0.147677
1765408207.834200,-8.240075,-1.195600,3.464849,-0.882242,0.689056,0.136834
1765408207.834471,-7.688904,-1.804160,3.787661,-0.874759,0.670883,0.124769
1765408207.834721,-7.332615,-0.703611,3.196437,-0.830624,0.662942,0.138361
1765408207.834971,-6.098756,-2.143113,1.597322,-0.826501,0.655611,0.164323
1765408207.835221,-5.977403,-1.331898,2.394787,-0.802830,0.663400,0.138361
1765408207.835367,-7.033715,-1.307389,2.788139,-0.809855,0.670730,0.133474
1765408207.835617,-6.718077,-0.994739,2.951936,-0.815505,0.662331,0.144622
1765408207.835867,-7.599234,-0.686274,2.925633,-0.828944,0.657902,0.135154
1765408207.836117,-8.427785,-0.381396,4.069822,-0.849866,0.667218,0.145386
1765408207.836402,-8.767335,-1.315758,4.610234,-0.859029,0.680351,0.154702
1765408207.836735,-8.181491,-0.625897,3.456480,-0.848950,0.669356,0.150120
1765408207.837069,-8.210185,-0.675514,3.458871,-0.856280,0.650877,0.155465
1765408207.837409,-8.353060,-0.884744,4.319703,-0.861931,0.668745,0.155465
1765408207.837659,-8.468435,-0.322812,3.281324,-0.852004,0.671952,0.163254
1765408207.837909,-8.376373,-0.878766,4.013629,-0.868956,0.676839,0.159741
1765408207.838159,-9.045312,-0.379005,3.672883,-0.873385,0.678519,0.147829
1765408207.838509,-8.842658,-0.483022,3.612506,-0.908051,0.676381,0.160505
1765408207.838759,-8.761356,-1.254184,4.791367,-0.932028,0.662178,0.150884
1765408207.839009,-9.371711,0.133309,4.042324,-0.878882,0.666759,0.140346
1765408207.839259,-7.559779,-1.062291,3.201817,-0.877966,0.672563,0.173333
1765408207.839476,-8.589190,-0.659971,3.487565,-0.855517,0.648586,0.163406
1765408207.839726,-9.522954,0.495576,4.130798,-0.842383,0.648586,0.156076
1765408207.839976,-8.473217,-0.678503,4.347800,-0.875064,0.666607,0.181274
1765408207.840226,-7.973456,-0.825562,1.958393,-0.866512,0.658055,0.185856
1765408207.840400,-8.173121,-0.919416,2.466523,-0.894154,0.640798,0.170126
1765408207.840650,-9.286225,-1.023434,4.161884,-0.894918,0.685696,0.157603
1765408207.840900,-8.041008,0.134505,2.851506,-0.893696,0.685696,0.161268
1765408207.841150,-5.707197,-1.013869,0.487207,-0.898583,0.664469,0.189521
1765408207.841373,-6.908177,-1.456241,1.702534,-0.909273,0.640645,0.180816
1765408207.841706,-7.829985,-1.556671,2.177188,-0.903317,0.650419,0.165544
1765408207.842040,-8.561692,-1.146580,3.537781,-0.897666,0.675006,0.156229
1765408207.842382,-8.043997,-0.460306,2.767814,-0.926224,0.686918,0.162337
1765408207.842632,-8.645982,-0.536824,3.808584,-0.961196,0.647364,0.173028
1765408207.842882,-7.666785,-1.653515,3.390722,-0.952950,0.664621,0.174249
1765408207.843132,-7.760641,-0.708393,2.256695,-0.902248,0.664621,0.180663
1765408207.843346,-8.638210,-1.451458,3.431372,-0.901179,0.660498,0.184634
1765408207.843596,-9.582734,-1.142396,4.454805,-0.885449,0.670883,0.177609
1765408207.843846,-10.050214,-1.115495,4.056073,-0.890489,0.698372,0.186925
1765408207.844096,-8.515063,-1.548900,3.370396,-0.893390,0.678213,0.192728
1765408207.844369,-9.885221,-0.986968,4.295791,-0.914618,0.684016,0.180511
1765408207.844619,-9.697512,-1.395863,3.684839,-0.932028,0.703259,0.188299
1765408207.844869,-9.646101,-1.065280,4.208512,-0.916909,0.711505,0.188452
1765408207.845119,-11.077832,-1.298422,5.971424,-0.933249,0.690278,0.198837
1765408207.845426,-11.869918,-1.048541,6.418579,-0.925614,0.692110,0.199753
1765408207.845759,-10.216402,-1.129842,4.250358,-0.922559,0.692110,0.190743
1765408207.846093,-10.216402,-1.129842,4.250358,-0.922559,0.675922,0.190743
1765408207.846367,-9.351983,-0.640842,3.617886,-0.912633,0.667218,0.201738
1765408207.846617,-10.817789,-0.703013,4.774031,-0.961349,0.669203,0.206778
1765408207.846867,-9.986250,-1.623027,4.488282,-0.968069,0.654542,0.219453
1765408207.847117,-10.393352,-1.324725,4.320301,-0.911869,0.629955,0.204640
1765408207.847424,-8.535389,-1.541726,3.164753,-0.895681,0.660803,0.217773
1765408207.847674,-8.122907,-1.420971,3.253228,-0.879951,0.662483,0.215177
1765408207.847924,-8.153993,-1.075442,2.662601,-0.867887,0.637591,0.211207
1765408207.848174,-8.556312,-0.879962,3.048780,-0.884838,0.619723,0.208152
1765408207.848414,-7.607603,-1.071855,2.260282,-0.883617,0.643088,0.219148
1765408207.848664,-7.716403,-0.893113,2.477283,-0.890794,0.642783,0.230602
1765408207.848914,-7.197513,-1.803563,2.135342,-0.908815,0.623235,0.210290
1765408207.849164,-7.771400,-0.813606,1.794596,-0.906066,0.623235,0.211054
1765408207.849367,-7.771400,-0.813606,1.794596,-0.906066,0.631940,0.211054
1765408207.849700,-8.610711,-1.060497,2.874222,-0.887129,0.650724,0.230602
1765408207.850034,-8.614896,-1.626614,2.767814,-0.905455,0.668897,0.232434
1765408207.850379,-8.599353,-1.260162,3.137254,-0.883158,0.638660,0.222508
1765408207.850629,-9.247966,-0.890124,3.365016,-0.910647,0.649044,0.229227
1765408207.850879,-9.247966,-0.890124,3.365016,-0.910647,0.645990,0.229227
1765408207.851129,-8.581420,-1.105930,3.608919,-0.916451,0.680504,0.227395
1765408207.851341,-9.265303,-1.133429,3.522238,-0.875523,0.650572,0.248317
1765408207.851591,-9.945002,-1.351028,3.741033,-0.861473,0.636827,0.245873
1765408207.851841,-9.661644,-1.212338,3.640602,-0.843605,0.662789,0.225409
1765408207.852091,-9.661644,-1.212338,3.640602,-0.843605,0.674548,0.225409
1765408207.852345,-9.833811,-1.071258,3.715925,-0.851852,0.647212,0.243277
1765408207.852678,-10.422045,-0.995935,3.907221,-0.871399,0.647212,0.228464
1765408207.853012,-9.894786,-1.135820,2.734338,-0.884533,0.660956,0.227089
1765408207.853354,-9.882831,-0.880559,3.860593,-0.877355,0.656986,0.230907
1765408207.853604,-9.935436,-1.251793,3.652558,-0.882089,0.651640,0.239459
1765408207.853854,-10.264226,-0.879962,3.668101,-0.875064,0.644768,0.244957
1765408207.854104,-10.216402,-1.290650,4.172644,-0.874301,0.675312,0.242361
1765408207.854378,-10.994140,-1.135820,5.002988,-0.864222,0.652709,0.242514
1765408207.854628,-9.688545,-0.577475,3.368005,-0.857960,0.656222,0.234114
1765408207.854878,-9.611428,-0.375418,2.933404,-0.890642,0.656222,0.251982
1765408207.855128,-8.586799,-1.317551,2.141917,-0.910342,0.657596,0.266032
1765408207.855395,-8.669296,-2.024749,3.324964,-0.882242,0.644768,0.254731
1765408207.855645,-9.528933,-1.564443,3.075083,-0.882242,0.680962,0.254731
1765408207.855895,-8.700381,-1.484935,1.959589,-0.826195,0.652099,0.257327
1765408207.856145,-8.535389,-1.032998,3.508488,-0.812451,0.648739,0.255342
1765408207.856411,-8.479196,-1.239239,2.576518,-0.809244,0.658818,0.257022
1765408207.856744,-7.657818,-1.001315,1.789813,-0.819476,0.662178,0.275653
1765408207.857078,-7.835365,-1.474175,1.948230,-0.818865,0.636674,0.264352
1765408207.857538,-8.518650,-0.827953,2.715806,-0.826043,0.653320,0.265574
1765408207.857788,-8.368004,-1.331301,2.362506,-0.829250,0.653320,0.275806
1765408207.858038,-7.534671,-1.225490,2.040292,-0.826501,0.644768,0.286343
1765408207.858288,-8.219750,-1.973338,2.267455,-0.817032,0.604298,0.276264
1765408207.858471,-8.646580,-1.570421,2.125777,-0.801150,0.608727,0.268017
1765408207.858721,-9.098516,-0.932568,2.506576,-0.807411,0.629955,0.268170
1765408207.858971,-9.102103,-1.506456,3.142037,-0.794430,0.627969,0.270155
1765408207.859221,-9.208511,-1.313367,2.010999,-0.806953,0.620334,0.285732
1765408207.859388,-10.634863,-1.595528,3.097800,-0.826043,0.594525,0.271071
1765408207.859638,-11.160328,-1.274510,3.776901,-0.828639,0.638049,0.253051
1765408207.859888,-10.498564,-1.321138,3.434959,-0.795805,0.669050,0.280845
1765408207.860138,-9.747727,-1.677427,2.443806,-0.770912,0.673021,0.292452
1765408207.860376,-9.037540,-1.715088,2.112625,-0.746019,0.634689,0.296575
1765408207.860709,-8.993303,-2.085126,2.598039,-0.733038,0.647670,0.284052
1765408207.861042,-9.177425,-0.731109,1.505858,-0.711200,0.660040,0.281609
1765408207.861382,-8.262194,-0.688666,1.737207,-0.730442,0.639118,0.298866
1765408207.861632,-9.324485,-1.108919,2.688905,-0.740369,0.614072,0.293521
1765408207.861882,-9.039932,-0.881755,1.979914,-0.738231,0.632551,0.297644
1765408207.862132,-9.001673,-1.850789,2.517934,-0.759458,0.631329,0.297033
1765408207.862425,-10.742467,-1.213534,3.208991,-0.745408,0.633009,0.268323
1765408207.862675,-10.646819,-1.034194,3.503108,-0.743423,0.645532,0.280082
1765408207.862925,-9.711859,-1.180057,2.434242,-0.724639,0.667676,0.289703
1765408207.863175,-9.050095,-0.431014,2.314084,-0.709367,0.654848,0.293673
1765408207.863397,-8.523433,-0.999522,2.217838,-0.722195,0.641714,0.299171
1765408207.863647,-8.603538,-0.672525,1.312769,-0.709978,0.625679,0.294590
1765408207.863897,-9.986848,-0.575084,2.220229,-0.716239,0.618196,0.300546
1765408207.864147,-10.808225,-0.598996,4.023194,-0.728151,0.614378,0.303753
1765408207.864452,-10.708989,-0.921808,3.763749,-0.753044,0.658207,0.293215
1765408207.864785,-8.349473,-1.413199,0.555954,-0.739452,0.647975,0.296270
1765408207.865119,-8.552725,-0.686274,1.628407,-0.702801,0.614530,0.292910
1765408207.865411,-9.886416,-0.862028,3.162362,-0.670883,0.599564,0.308029
1765408207.865661,-10.083690,-1.140602,3.556910,-0.663094,0.617585,0.300088
1765408207.865911,-8.560496,-0.992348,1.725251,-0.651335,0.625221,0.290466
1765408207.866161,-8.318387,-0.836920,0.799856,-0.640339,0.609796,0.293063
1765408207.866436,-7.305116,-0.752032,0.698230,-0.638507,0.609796,0.304974
1765408207.866686,-8.500716,-0.395146,1.490913,-0.655458,0.605978,0.303753
1765408207.866936,-10.537421,-0.880559,3.305834,-0.660193,0.583529,0.313832
1765408207.867186,-11.471185,-1.220708,4.098517,-0.667370,0.590401,0.311847
1765408207.867407,-9.045910,-1.215925,1.146580,-0.645837,0.630871,0.305280
1765408207.867657,-7.639286,-0.927786,0.508728,-0.645532,0.630871,0.311847
1765408207.867907,-9.016020,-1.264945,2.262075,-0.643088,0.576962,0.312763
1765408207.868157,-12.423480,-0.991152,4.888809,-0.616363,0.558025,0.313374
1765408207.868403,-10.964849,-1.835246,2.195122,-0.618654,0.635758,0.301920
1765408207.868653,-7.576518,-0.559541,0.151841,-0.605215,0.598495,0.308640
1765408207.868903,-8.913795,-1.273314,2.085126,-0.619417,0.598495,0.308792
1765408207.869153,-10.669536,-0.876375,3.153993,-0.619417,0.562760,0.308792
1765408207.869387,-10.139884,-0.934361,1.485533,-0.619875,0.593303,0.318872
1765408207.869720,-8.504303,-1.024032,0.925394,-0.627817,0.613614,0.313068
1765408207.870054,-8.504303,-1.024032,0.925394,-0.627817,0.607658,0.313068
1765408207.870432,-9.182806,-1.441894,2.067193,-0.608116,0.574213,0.329715
1765408207.870682,-9.143352,-1.385700,1.417982,-0.580627,0.589943,0.316886
1765408207.870932,-7.878407,-1.339670,-0.270206,-0.555277,0.592845,0.327882
1765408207.871182,-8.091821,-0.968436,0.720947,-0.537103,0.592845,0.334907
1765408207.871418,-8.883308,-1.260162,1.753945,-0.526260,0.584140,0.326966
1765408207.871668,-8.309421,-1.517217,0.527857,-0.520763,0.608422,0.329867
1765408207.871918,-7.675752,-1.289455,-0.048422,-0.518472,0.617890,0.329104
1765408207.872168,-9.178621,-0.909254,2.038498,-0.516639,0.597121,0.326202
1765408207.872407,-10.295312,-1.208752,3.161166,-0.534660,0.597121,0.324828
1765408207.872740,-10.505140,-1.213534,2.033716,-0.532369,0.619570,0.329867
1765408207.873074,-10.132710,-0.981588,1.892037,-0.525344,0.615599,0.335060
1765408207.873442,-10.493782,-1.357006,2.939981,-0.528704,0.601550,0.328951
1765408207.873692,-9.473935,-1.047943,1.743185,-0.512669,0.613767,0.322384
1765408207.873942,-9.295193,-0.830942,1.368962,-0.494190,0.615447,0.337808
1765408207.874192,-9.323887,-1.059899,2.107245,-0.485332,0.614530,0.338725
1765408207.874430,-9.605451,-1.092778,2.425873,-0.469144,0.629497,0.335060
1765408207.874680,-9.253944,-1.120277,1.597322,-0.476780,0.629497,0.332158
1765408207.874930,-9.520563,-0.487805,1.795791,-0.465479,0.592234,0.330173
1765408207.875180,-10.438784,-0.346724,3.216164,-0.462120,0.604604,0.336739
1765408207.875407,-9.956957,-0.976805,2.064801,-0.462578,0.627511,0.353538
1765408207.875657,-9.317311,-0.901482,1.716284,-0.465174,0.606131,0.348040
1765408207.875907,-9.983260,-0.899091,2.498804,-0.474948,0.575435,0.323300
1765408207.876157,-9.983260,-0.899091,2.498804,-0.474948,0.586889,0.323300
1765408207.876392,-10.277378,-0.772358,2.266858,-0.480751,0.610102,0.343154
1765408207.876725,-10.453131,-0.704208,2.002630,-0.476933,0.598801,0.339336
1765408207.877059,-11.209348,-1.201578,3.359636,-0.468686,0.597579,0.338267
1765408207.877517,-11.082017,-0.798661,2.323051,-0.430965,0.597579,0.334449
1765408207.877767,-9.978478,-0.190100,1.036585,-0.395383,0.603993,0.349110
1765408207.878017,-9.683165,-1.032998,2.204686,-0.404545,0.602313,0.352317
1765408207.878267,-9.162481,-0.902678,1.352821,-0.378584,0.609796,0.337808
1765408207.878433,-8.744618,-0.854854,0.200861,-0.386983,0.612240,0.337350
1765408207.878683,-9.587517,-0.466284,1.146580,-0.371101,0.587652,0.347430
1765408207.878933,-11.085007,-0.708991,3.358441,-0.359952,0.588111,0.341321
1765408207.879183,-9.165470,-1.206360,0.705404,-0.373697,0.621403,0.342695
1765408207.879390,-8.104973,-0.752032,-0.654591,-0.374155,0.600175,0.337198
1765408207.879640,-9.491271,-0.716164,1.737207,-0.369421,0.584140,0.331089
1765408207.879890,-10.063366,-0.688666,2.186753,-0.376904,0.591318,0.345444
1765408207.880140,-8.943088,-0.554161,-0.049020,-0.366214,0.629038,0.344223
1765408207.880402,-8.565279,-0.658776,-0.054998,-0.364687,0.620181,0.351706
1765408207.880652,-9.905546,-1.107126,2.307508,-0.357662,0.610407,0.358883
1765408207.880902,-9.568387,-0.986968,1.451458,-0.341626,0.633009,0.354302
1765408207.881152,-8.894068,-0.870397,0.606169,-0.344681,0.619875,0.352622
1765408207.881442,-9.686153,-0.807030,1.359397,-0.329104,0.594372,0.343001
1765408207.881775,-10.261237,-0.881157,1.495098,-0.307723,0.601244,0.361632
1765408207.882109,-10.423241,-1.176470,1.911764,-0.306654,0.614683,0.367588
1765408207.882395,-10.257052,-1.328312,1.798182,-0.297186,0.605520,0.340252
1765408207.882645,-9.506216,-1.123864,0.829746,-0.288634,0.610407,0.337808
1765408207.882895,-9.301768,-0.793281,0.218795,-0.288787,0.607200,0.352164
1765408207.883145,-10.956479,-0.674318,2.600430,-0.268170,0.590249,0.353691
1765408207.883366,-11.449066,-1.230870,3.485174,-0.286038,0.625373,0.348957
1765408207.883616,-9.844571,-0.811812,0.900287,-0.275958,0.616668,0.357509
1765408207.883866,-9.500237,-0.658776,0.662960,-0.269697,0.593456,0.357051
1765408207.884116,-10.396938,-0.749641,2.446198,-0.272751,0.585820,0.355982
1765408207.884355,-10.572692,-0.902080,1.961980,-0.265421,0.588416,0.371101
1765408207.884605,-9.693327,-0.821377,0.951100,-0.264657,0.588416,0.359189
1765408207.884855,-9.953370,-0.795074,1.258967,-0.261298,0.571464,0.344833
1765408207.885105,-9.585126,-0.499761,0.768771,-0.245415,0.587958,0.357051
1765408207.885352,-9.585126,-0.499761,0.768771,-0.245415,0.593914,0.357051
1765408207.885685,-10.136297,-0.769369,1.578790,-0.248928,0.557720,0.366977
1765408207.886019,-10.523073,-0.976805,1.911167,-0.237168,0.557720,0.355218
1765408207.886379,-9.753107,-0.507532,0.648015,-0.227853,0.600633,0.342237
1765408207.886629,-9.369917,0.180536,0.713175,-0.219453,0.592234,0.366061
1765408207.886879,-9.994618,-0.644428,1.734816,-0.209374,0.568257,0.370642
1765408207.887129,-9.610831,-0.930177,1.012673,-0.198837,0.576504,0.361021
1765408207.887354,-9.165470,-0.169177,-0.107604,-0.174097,0.587347,0.364992
1765408207.887604,-9.866092,-0.160210,1.128646,-0.172111,0.565967,0.358120
1765408207.887854,-10.686273,-0.156624,1.837637,-0.169515,0.561996,0.366214
1765408207.888104,-9.558225,-0.875777,0.208034,-0.176387,0.586431,0.367588
1765408207.888402,-8.773314,-0.777140,-0.451339,-0.164475,0.579864,0.351248
1765408207.888652,-9.457196,-0.189503,0.777140,-0.146760,0.569479,0.346208
1765408207.888902,-10.374221,-0.305476,1.780248,-0.154396,0.578489,0.349720
1765408207.889152,-9.680176,-0.227762,0.252869,-0.151647,0.583071,0.352622
1765408207.889417,-9.821855,-0.738283,0.659971,-0.152869,0.583071,0.351095
1765408207.889667,-10.818985,-0.407700,1.992468,-0.133779,0.586889,0.342390
1765408207.889917,-10.649210,-0.123147,1.559660,-0.129656,0.587958,0.346819
1765408207.890167,-9.757890,-0.209230,0.504543,-0.129656,0.600633,0.346819
1765408207.890437,-9.461978,-0.095648,0.326997,-0.122173,0.571006,0.353844
1765408207.890687,-9.979673,-0.308465,1.199187,-0.124311,0.571006,0.360258
1765408207.890937,-9.979673,-0.308465,1.199187,-0.124311,0.582918,0.360258
1765408207.891187,-9.468554,-0.132114,0.404113,-0.121409,0.589332,0.353080
1765408207.891424,-9.678382,-0.234935,0.653395,-0.116370,0.583682,0.363770
1765408207.891674,-9.520563,-0.682688,0.485414,-0.113010,0.589332,0.370948
1765408207.891924,-9.384265,-0.618723,0.374223,-0.106138,0.589332,0.360410
1765408207.892174,-9.625177,-0.628886,0.760402,-0.109650,0.588874,0.353386
1765408207.892398,-10.300095,-0.533238,1.606886,-0.101251,0.595441,0.350178
1765408207.892648,-10.157221,-0.408895,0.906863,-0.093310,0.595441,0.355829
1765408207.892898,-10.157221,-0.408895,0.906863,-0.093310,0.574824,0.355829
1765408207.893148,-9.999401,-0.844094,1.030607,-0.087048,0.578184,0.352469
1765408207.893390,-10.013150,-0.311454,0.714969,-0.079871,0.569479,0.351095
1765408207.893640,-10.190099,-0.377810,0.992348,-0.070097,0.554818,0.366825
1765408207.893890,-10.092059,-0.643233,0.645624,-0.057116,0.554818,0.367894
1765408207.894140,-9.996411,-0.840507,0.532042,-0.054825,0.564898,0.367588
1765408207.894439,-9.717837,-0.758010,-0.027499,-0.042302,0.557873,0.361632
1765408207.894689,-10.279769,-0.485414,0.357484,-0.038026,0.541837,0.360258
1765408207.894939,-10.492586,-0.548183,0.381396,-0.032681,0.569937,0.367894
1765408207.895189,-10.417263,-0.485414,0.180536,-0.024740,0.569937,0.376904
1765408207.895420,-10.882351,-0.847680,0.818986,-0.024740,0.543823,0.376904
1765408207.895670,-11.477162,-0.823768,1.187829,-0.016646,0.561691,0.357967
1765408207.895920,-10.285150,-0.530846,-0.229555,0.000000,0.561691,0.365756
1765408207.896170,-10.017933,-0.138690,-0.101626,0.009163,0.531758,0.363159
1765408207.896403,-10.560735,-0.154232,0.251674,0.000764,0.531758,0.366519
1765408207.896603,-10.954685,-0.209230,0.028694,0.000764,0.516639,0.366519
1765408207.896803,-11.058105,-0.069943,0.156026,0.006109,0.527940,0.359800
1765408207.897003,-10.750836,0.151841,-0.263032,0.010996,0.535423,0.370795
1765408207.897203,-10.854854,0.050215,0.017934,0.007025,0.516028,0.371864
1765408207.897418,-10.708391,0.189503,-0.314443,0.013439,0.516028,0.363465
1765408207.897668,-11.526780,0.034672,0.829746,0.009468,0.501979,0.364381
1765408207.897918,-11.056909,0.083692,0.487805,0.010232,0.514043,0.350178
1765408207.898168,-11.307984,0.545194,0.729316,0.012370,0.499077,0.347430
1765408207.898588,-11.247607,0.164993,0.835724,0.012370,0.475864,0.347430
1765408207.898838,-11.172882,0.133907,-0.093257,0.004887,0.448528,0.335518
1765408207.899088,-11.053322,0.324008,0.355093,0.009163,0.452498,0.322079
1765408207.899338,-10.936153,0.674916,0.174558,0.007789,0.436158,0.311083
1765408207.899427,-11.074843,0.975012,0.291129,0.003818,0.421650,0.313679
1765408207.899627,-11.125057,0.729316,0.067551,0.010843,0.403629,0.313374
1765408207.899827,-10.827952,0.465088,-0.218197,0.004887,0.395383,0.316275
1765408207.900027,-11.031800,0.208034,0.384385,0.003054,0.386067,0.291535
1765408207.900227,-11.203967,0.583453,0.593018,0.006567,0.377515,0.272751
1765408207.900444,-10.943327,0.773553,0.172764,0.004581,0.352622,0.271377
1765408207.900694,-11.015661,0.967838,0.109995,-0.000458,0.333380,0.255800
1765408207.900944,-11.212337,0.840507,0.291726,-0.000153,0.316428,0.258701
1765408207.901194,-11.103539,0.139885,0.137494,-0.003971,0.306349,0.251524
1765408207.901365,-11.231466,0.190100,0.570899,0.000611,0.295048,0.221133
1765408207.901615,-11.412002,0.487805,0.619919,-0.007483,0.280998,0.205709
1765408207.901865,-11.490911,0.809421,0.653993,-0.006872,0.257632,0.191354
1765408207.902115,-11.355809,1.047346,0.160808,-0.009621,0.240834,0.187688
1765408207.902409,-11.345647,0.728120,0.753228,-0.012523,0.233351,0.187383
1765408207.902609,-10.749640,0.554758,-0.028694,-0.015272,0.226936,0.172722
1765408207.902809,-11.080822,0.594213,0.329986,-0.023976,0.195019,0.152411
1765408207.903009,-10.856048,0.775944,-0.132712,-0.022602,0.194255,0.139735
1765408207.903209,-11.044952,0.815399,0.047824,-0.029016,0.176540,0.136528
1765408207.903372,-11.196197,0.759804,0.756815,-0.026267,0.187841,0.123547
1765408207.903622,-10.972021,0.707795,0.298900,-0.032223,0.170890,0.113468
1765408207.903872,-10.932567,0.608560,0.515304,-0.041233,0.151800,0.104305
1765408207.904122,-10.730511,0.832138,0.137494,-0.038637,0.142942,0.087354
1765408207.904415,-10.748445,0.809421,0.194883,-0.042761,0.131336,0.096822
1765408207.904665,-10.762792,0.382592,0.434601,-0.049480,0.121257,0.078496
1765408207.904915,-10.932567,0.494978,0.471664,-0.051313,0.111483,0.065057
1765408207.905165,-10.649807,0.297704,0.249880,-0.061239,0.102473,0.058948
1765408207.905364,-10.569104,0.485414,0.099235,-0.057116,0.094226,0.040012
1765408207.905564,-10.441773,0.595409,0.144668,-0.065363,0.093462,0.038026
1765408207.905764,-10.538018,0.419656,0.447154,-0.065515,0.088270,0.037110
1765408207.905964,-10.561932,0.291726,0.324008,-0.066890,0.076053,0.030849
1765408207.906164,-10.931969,0.093257,0.651602,-0.070402,0.064294,0.020922
1765408207.906456,-11.237444,-0.069345,0.625299,-0.067348,0.060781,0.016952
1765408207.906706,-11.163318,-0.410689,0.370636,-0.063225,0.039401,0.017868
1765408207.906956,-11.347440,-0.673123,0.601387,-0.056047,0.039401,0.008094
1765408207.907206,-11.347440,-0.673123,0.601387,-0.056047,0.039554,0.008094
1765408207.907385,-11.510041,-0.852463,0.718556,-0.046120,0.025045,-0.002291
1765408207.907635,-11.452056,-0.888331,0.570301,-0.038790,0.018021,-0.009774
1765408207.907885,-11.386894,-1.032998,0.753228,-0.026573,0.005498,-0.007483
1765408207.908135,-11.146579,-1.127451,0.753228,-0.015272,-0.000916,-0.013897
1765408207.908419,-10.798659,-1.037183,0.524271,-0.015424,-0.011148,-0.024893
1765408207.908619,-10.492586,-0.694046,0.386179,-0.011301,-0.014966,-0.034972
1765408207.908819,-10.089668,-0.113582,0.254663,-0.004734,-0.014203,-0.030696
1765408207.909019,-9.896580,0.274390,0.234338,-0.006414,-0.019090,-0.023671
1765408207.909219,-9.781204,0.261239,0.340746,-0.007330,-0.024282,-0.013439
1765408207.909379,-9.528933,-0.132114,0.114778,-0.008705,-0.026420,0.000611
1765408207.909579,-9.409969,-0.258250,0.126136,-0.011912,-0.014508,-0.007789
1765408207.909779,-9.610233,-0.119560,0.461502,-0.017868,-0.014508,-0.014661
1765408207.909979,-9.601864,-0.054998,0.414873,-0.017257,-0.009774,-0.008247
1765408207.910179,-9.528933,-0.156624,0.102822,-0.018631,-0.021075,-0.004887
1765408207.910375,-9.616212,-0.053802,0.283955,-0.020769,-0.014966,-0.005498
1765408207.910625,-9.793160,-0.178144,0.565519,-0.021686,-0.007789,0.001527
1765408207.910875,-9.809300,-0.400526,0.511717,-0.020769,-0.007789,0.004276
1765408207.911125,-9.809300,-0.400526,0.511717,-0.020769,-0.010537,0.004276
1765408207.911386,-9.991630,-0.338953,0.575084,-0.019853,-0.003665,0.001374
1765408207.911586,-9.972500,-0.355691,0.533238,-0.019090,-0.003665,0.005803
1765408207.911786,-9.971304,-0.393352,0.478838,-0.018326,-0.002749,0.008552
1765408207.911986,-9.883428,-0.566714,0.381396,-0.012981,-0.004581,0.010843
1765408207.912186,-9.883428,-0.566714,0.381396,-0.012981,-0.006109,0.010843
1765408207.912356,-9.986848,-0.327594,0.538020,-0.010996,-0.004429,0.003512
1765408207.912556,-9.953370,-0.283357,0.481229,-0.002291,-0.004429,0.009468
1765408207.912756,-9.862504,-0.297704,0.433405,-0.002291,-0.005345,0.009621
1765408207.912956,-9.954566,-0.252272,0.504543,-0.000764,-0.003512,0.005345
1765408207.913156,-9.750119,-0.292922,0.277379,0.000458,-0.003054,0.007483
1765408207.913381,-9.689740,-0.271401,0.082496,0.005040,-0.003665,0.007330
1765408207.913581,-9.758488,-0.148254,0.241511,0.004734,-0.005803,0.003818
1765408207.913781,-9.826636,-0.170971,0.302487,0.006872,-0.003818,0.005956
1765408207.913981,-9.754900,-0.132712,0.237924,0.009316,-0.001833,0.005956
1765408207.914181,-9.895982,0.021521,0.332975,0.010537,-0.001680,0.003665
1765408207.914406,-9.776422,0.147657,0.235533,0.005803,0.002138,0.007483
1765408207.914606,-9.783595,0.113582,0.174558,0.009010,0.000916,0.007636
1765408207.914806,-9.797942,0.100430,0.191296,0.006261,0.001833,0.009010
1765408207.915006,-9.956957,-0.022716,0.361071,0.007330,0.003818,0.009163
1765408207.915206,-9.970706,0.015543,0.425634,0.006109,0.002749,0.004581
1765408207.915543,-10.063366,0.081301,0.478240,0.005345,-0.000305,0.002443
1765408207.915743,-9.952174,0.148254,0.341344,0.007025,0.001680,0.004429
1765408207.915943,-9.849353,0.189503,0.182927,0.005803,-0.000153,0.000916
1765408207.916143,-9.929459,0.264228,0.313247,0.004734,0.000916,-0.000153
1765408207.916343,-9.973696,0.294118,0.326399,-0.000764,0.000000,0.003971
1765408207.916387,-10.013150,0.229555,0.361071,-0.000305,0.002596,0.005345
1765408207.916587,-9.977283,0.228360,0.273792,-0.002138,0.000611,0.003054
1765408207.916787,-9.931850,0.211023,0.254663,-0.007636,0.002291,0.003054
1765408207.916987,-9.895982,0.270206,0.161406,-0.006109,-0.002291,0.000458
1765408207.917187,-10.005977,0.302487,0.304280,-0.007330,-0.002291,0.001069
1765408207.917494,-10.005977,0.302487,0.304280,-0.007330,-0.001069,0.001069
1765408207.917694,-10.106407,0.107006,0.400526,-0.011606,0.001069,0.000611
1765408207.917894,-10.064561,0.074127,0.291129,-0.010537,-0.003665,0.000611
1765408207.918094,-10.047226,0.105811,0.325203,-0.011606,-0.000611,-0.004276
1765408207.918294,-10.105808,0.162004,0.374821,-0.013897,-0.005651,-0.004734
1765408207.918421,-10.168577,0.110593,0.493783,-0.014813,-0.006109,-0.002138
1765408207.918621,-10.031085,0.038259,0.347322,-0.014050,-0.003207,0.000916
1765408207.918821,-9.998802,-0.002391,0.284553,-0.014355,-0.006567,-0.000764
1765408207.919021,-9.920491,0.032281,0.201459,-0.010232,-0.006261,-0.004123
1765408207.919221,-9.945002,0.039455,0.289335,-0.012828,-0.006261,-0.001680
1765408207.919384,-9.998802,-0.024510,0.320421,-0.011606,-0.007178,-0.002749
1765408207.919584,-10.052606,-0.080105,0.376614,-0.013134,-0.010232,-0.004123
1765408207.919784,-9.989238,-0.101626,0.310856,-0.012675,-0.006567,-0.004276
1765408207.919984,-9.950979,-0.047226,0.258847,-0.008552,-0.006109,-0.003054
1765408207.920184,-9.919893,-0.050215,0.258250,-0.014050,-0.006567,-0.008094
1765408207.920347,-9.936632,-0.066954,0.277379,-0.012217,-0.012828,-0.007941
1765408207.920547,-9.991630,-0.047824,0.348517,-0.010385,-0.012370,-0.005345
1765408207.920747,-10.002390,-0.018532,0.430416,-0.011759,-0.008247,-0.007025
1765408207.920947,-9.880439,-0.071736,0.325203,-0.011148,-0.007636,-0.007178
1765408207.921147,-9.829626,-0.015543,0.233142,-0.010537,-0.012675,-0.007636
1765408207.921360,-9.840983,0.056193,0.229555,-0.012217,-0.010537,-0.004887
1765408207.921560,-9.832614,0.047824,0.267814,-0.014813,-0.010537,-0.005803
1765408207.921760,-9.844571,0.003587,0.266021,-0.019395,-0.010537,-0.003360
1765408207.921960,-9.873264,-0.049020,0.346126,-0.016646,-0.009927,-0.003665
1765408207.922160,-9.898373,-0.145863,0.391559,-0.016952,-0.007483,-0.002291
1765408207.922381,-9.891200,-0.155428,0.368245,-0.014966,-0.008247,-0.003512
1765408207.922581,-9.865494,-0.117169,0.247489,-0.012675,-0.007178,-0.004123
1765408207.922781,-9.808105,-0.073529,0.253467,-0.009163,-0.011301,-0.000305
1765408207.922981,-9.891200,-0.169177,0.345528,-0.011454,-0.009621,-0.001985
1765408207.923181,-9.930654,-0.214012,0.472860,-0.010996,-0.009774,-0.000764
1765408207.923468,-9.979673,-0.186514,0.456719,-0.011454,-0.006109,-0.001374
1765408207.923668,-9.878646,-0.148254,0.312052,-0.012523,-0.007941,-0.002902
1765408207.923868,-9.906742,-0.104615,0.310856,-0.008858,-0.007941,-0.001527
1765408207.924068,-9.894188,-0.106408,0.344931,-0.008552,-0.009163,0.001222
1765408207.924268,-9.895982,-0.175753,0.331181,-0.009774,-0.008705,0.001069
1765408207.924492,-9.860114,-0.243902,0.358680,-0.007178,-0.007636,-0.000153
1765408207.924742,-9.892395,-0.249880,0.367049,-0.004734,-0.005956,-0.001527
1765408207.924992,-9.899570,-0.157819,0.331181,-0.005040,-0.005956,-0.001680
1765408207.925242,-9.863700,-0.086083,0.266021,-0.005040,-0.003971,-0.003665
1765408207.925380,-9.840386,-0.033477,0.240913,-0.002596,-0.004581,-0.003971
1765408207.925580,-9.875058,-0.032281,0.292922,-0.005192,-0.006109,0.001985
1765408207.925780,-9.940218,-0.069943,0.351506,-0.005956,-0.009316,0.003665
1765408207.925980,-9.955164,-0.105811,0.413678,-0.004276,-0.009163,-0.000458
1765408207.926180,-9.986848,-0.045433,0.423242,-0.004276,-0.005345,-0.000458
1765408207.926375,-9.919296,0.017934,0.301291,-0.003360,-0.006720,0.002596
1765408207.926542,-9.892395,0.004185,0.290531,-0.005803,-0.006720,0.001374
1765408207.926708,-9.892395,0.004185,0.290531,-0.005803,-0.006414,0.001374
1765408207.926875,-9.909731,0.010163,0.307867,-0.006414,-0.003512,0.003665
1765408207.927042,-9.909132,-0.024510,0.277379,-0.009163,-0.005651,0.003360
1765408207.927208,-9.964130,-0.007174,0.342539,-0.006261,-0.004123,0.000305
1765408207.927369,-9.939023,-0.002391,0.353300,-0.005498,-0.004123,-0.001833
1765408207.927569,-9.943806,0.047824,0.324008,-0.006567,-0.006261,0.000000
1765408207.927769,-9.903752,0.065160,0.205045,-0.005498,-0.005803,0.002291
1765408207.927969,-9.919893,0.035270,0.227762,-0.007178,-0.009468,0.003360
1765408207.928169,-9.941415,0.005380,0.291726,-0.007941,-0.006567,0.001985
1765408207.928373,-9.936632,0.016738,0.335964,-0.007178,-0.002749,0.001222
1765408207.928573,-9.988043,0.026303,0.394548,-0.006109,-0.008552,-0.001222
1765408207.928773,-9.924676,-0.004782,0.353898,-0.009163,-0.008247,0.004123
1765408207.928973,-9.946795,-0.010163,0.335964,-0.008858,-0.008247,-0.000153
1765408207.929173,-9.882831,0.002391,0.318030,-0.007178,-0.006567,-0.001222
1765408207.929361,-9.934240,0.010760,0.288140,-0.008705,-0.005498,-0.003665
1765408207.929561,-9.946198,0.063367,0.347920,-0.009163,-0.007178,-0.003054
1765408207.929761,-9.962935,0.025108,0.382592,-0.010079,-0.007789,-0.000916
1765408207.929961,-9.991630,0.014347,0.457915,-0.009468,-0.008094,-0.001833
1765408207.930161,-9.991630,0.014347,0.457915,-0.009468,-0.009010,-0.001833
1765408207.930360,-9.943806,-0.016141,0.339550,-0.009468,-0.008705,-0.001680
1765408207.930560,-9.915112,-0.011956,0.301291,-0.007330,-0.004734,-0.003665
1765408207.930760,-9.886416,0.019130,0.334170,-0.007330,-0.003971,-0.002902
1765408207.930960,-9.936033,0.005380,0.377810,-0.011148,-0.007025,-0.001833
1765408207.931160,-9.936033,0.005380,0.377810,-0.011148,-0.009621,-0.001833
1765408207.931415,-9.940218,-0.078910,0.408895,-0.008399,-0.006872,-0.001527
1765408207.931615,-9.931850,-0.046628,0.364060,-0.009927,-0.005956,-0.004734
1765408207.931815,-9.890003,-0.066356,0.338953,-0.011148,-0.007025,-0.005040
1765408207.932015,-9.868484,-0.052606,0.243305,-0.011301,-0.007025,-0.003207
1765408207.932215,-9.831419,-0.025108,0.295313,-0.009927,-0.006872,-0.000764
1765408207.932367,-9.900764,-0.051411,0.345528,-0.009010,-0.005956,-0.002291
1765408207.932617,-9.921089,-0.112984,0.392157,-0.009468,-0.008552,-0.000611
1765408207.932867,-9.962935,-0.028097,0.379005,-0.009927,-0.007330,-0.002902
1765408207.933117,-9.886416,-0.054998,0.291726,-0.010079,-0.003512,-0.001985
1765408207.933368,-9.819464,-0.127331,0.243305,-0.007941,-0.007178,0.000153
1765408207.933568,-9.864896,-0.066356,0.327594,-0.006720,-0.005803,-0.001069
1765408207.933768,-9.939023,-0.063367,0.345528,-0.006567,-0.007025,-0.001527
1765408207.933968,-9.887612,-0.107604,0.360473,-0.008552,-0.008552,-0.000153
1765408207.934168,-9.953370,-0.102822,0.310856,-0.009468,-0.003207,0.000764
1765408207.934383,-9.943208,-0.105213,0.337159,-0.006567,-0.002138,0.000611
1765408207.934583,-9.854136,-0.104615,0.258250,-0.006109,-0.006109,-0.000153
1765408207.934783,-9.878048,-0.047824,0.251076,-0.009316,-0.007330,0.000916
1765408207.934983,-9.930056,-0.054998,0.380201,-0.009316,-0.008094,0.000916
1765408207.935183,-10.006575,-0.092061,0.403515,-0.006261,-0.004276,0.001985
1765408207.935364,-9.979673,-0.086083,0.394548,-0.006414,-0.006872,-0.000153
1765408207.935564,-9.895982,-0.013152,0.208034,-0.005192,-0.003971,-0.000764
1765408207.935764,-9.797942,-0.001196,0.219990,-0.005498,-0.006414,0.001985
1765408207.935964,-9.942610,-0.024510,0.334768,-0.009621,-0.010843,-0.000153
1765408207.936164,-10.003586,0.005978,0.413678,-0.007789,-0.007025,0.001680
1765408207.936344,-9.984456,0.010760,0.370636,-0.007789,-0.002596,0.000000
1765408207.936544,-9.881634,-0.013152,0.266619,-0.007941,-0.008705,0.002138
1765408207.936744,-9.878646,-0.022716,0.246294,-0.006414,-0.008705,0.000458
1765408207.936944,-9.878646,-0.029890,0.301291,-0.006414,-0.007330,0.002138
1765408207.937144,-9.930654,0.038259,0.319225,-0.008247,-0.005803,-0.000153
1765408207.937367,-9.930654,0.038259,0.319225,-0.008247,-0.003054,-0.000153
1765408207.937567,-9.942013,-0.022716,0.328790,-0.012523,-0.005040,0.001833
1765408207.937767,-9.945600,-0.041846,0.368245,-0.009010,-0.005040,0.000611
1765408207.937967,-9.983260,-0.007771,0.391559,-0.007178,-0.004734,-0.000305
1765408207.938167,-9.903154,-0.039455,0.273792,-0.007330,-0.007330,-0.000916
1765408207.938393,-9.903154,-0.039455,0.273792,-0.007330,-0.007025,-0.000916
1765408207.938593,-9.909132,0.000000,0.333572,-0.006567,-0.006414,-0.001069
1765408207.938793,-9.897775,-0.019130,0.350311,-0.006109,-0.008399,-0.002291
1765408207.938993,-9.937230,0.013152,0.321616,-0.005956,-0.006872,-0.000764
1765408207.939193,-9.906742,-0.014347,0.329986,-0.007636,-0.005498,0.000153
1765408207.939383,-9.873264,-0.031086,0.320421,-0.007025,-0.009774,-0.000153
1765408207.939583,-9.824843,0.022716,0.267217,-0.006720,-0.003360,-0.000764
1765408207.939783,-9.801530,-0.010760,0.239718,-0.005651,-0.005192,-0.001985
1765408207.939983,-9.809300,-0.081301,0.248685,-0.008705,-0.007636,0.000305
1765408207.940183,-9.899570,-0.057987,0.356289,-0.009468,-0.008247,0.000611
1765408207.940371,-9.911524,-0.014347,0.318030,-0.007330,-0.005498,-0.003207
1765408207.940571,-9.823647,-0.053802,0.267814,-0.008399,-0.006414,-0.002749
1765408207.940771,-9.813485,-0.046628,0.240316,-0.010385,-0.005498,-0.001222
1765408207.940971,-9.905546,-0.040053,0.353898,-0.007789,-0.007483,-0.002291
1765408207.941171,-9.989238,-0.053204,0.335964,-0.006567,-0.007330,-0.000916
1765408207.941369,-9.995216,-0.053802,0.379603,-0.005803,-0.007330,-0.002291
1765408207.941569,-9.926469,-0.052606,0.340746,-0.009010,-0.007330,-0.002291
1765408207.941769,-9.895982,-0.039455,0.307269,-0.007330,-0.009316,-0.000153
1765408207.941969,-9.897178,-0.047824,0.265423,-0.007789,-0.008094,0.001069
1765408207.942169,-9.937828,-0.080105,0.306074,-0.006872,-0.007330,0.001069
1765408207.942374,-10.008368,-0.069345,0.347920,-0.005651,-0.007330,-0.003054
1765408207.942574,-9.992825,-0.026901,0.423242,-0.009163,-0.008094,-0.003207
1765408207.942774,-9.955761,-0.017934,0.381396,-0.010385,-0.004887,-0.000916
1765408207.942974,-9.562408,-0.299498,0.365854,-0.008094,-0.004887,0.000000
1765408207.943174,-8.994499,-0.154232,-0.162602,-0.008094,-0.005651,0.000000
1765408207.943344,-9.433285,0.312052,0.059182,-0.008399,-0.013134,-0.015424
1765408207.943544,-9.959349,0.312052,0.549378,-0.006567,0.003054,0.000611
1765408207.943744,-9.787780,-0.044237,0.662960,-0.003512,0.008858,0.018021
1765408207.943944,-9.738162,-0.280966,0.705404,-0.010537,0.008858,0.000764
1765408207.944144,-9.738162,-0.280966,0.705404,-0.010537,0.004123,0.000764
1765408207.944362,-9.851745,-0.355093,-0.188905,-0.004734,-0.005651,0.002902
1765408207.944562,-10.066953,-0.019130,0.320421,0.003665,-0.001680,-0.006720
1765408207.944762,-10.228956,0.411286,1.099952,-0.008858,0.022907,-0.014966
1765408207.944962,-10.273791,0.408895,0.974414,-0.014661,0.020159,0.007025
1765408207.945162,-9.977283,-0.362267,0.138690,-0.009774,-0.010232,0.018021
1765408207.945346,-9.628167,-0.717360,-0.191894,-0.003818,0.001222,0.003665
1765408207.945546,-10.035867,-0.145265,0.543998,-0.005040,0.001222,-0.019700
1765408207.945746,-10.084887,0.456719,0.661167,-0.007483,0.006414,-0.015119
1765408207.945946,-10.023911,0.401722,0.254663,-0.007941,0.006414,0.005498
1765408207.946146,-10.016738,0.008369,0.339550,-0.007941,0.007941,0.005498
1765408207.946368,-10.058583,-0.381396,0.614538,-0.005498,0.010079,0.007025
1765408207.946618,-9.977283,-0.431014,0.514108,-0.011301,0.010232,-0.004429
1765408207.946868,-9.867287,-0.060378,0.190100,-0.006109,0.002291,-0.011606
1765408207.947118,-9.820659,0.370038,0.060976,-0.004887,0.002291,-0.007483
1765408207.947374,-10.005379,0.359876,0.443568,-0.006414,0.007330,0.000916
1765408207.947574,-10.034670,0.088474,0.526064,-0.009774,0.010079,0.009468
1765408207.947774,-9.946198,-0.315041,0.267814,-0.009774,0.006872,0.006261
1765408207.947974,-9.842180,-0.315638,0.168580,-0.008705,0.005040,-0.001680
1765408207.948174,-9.950979,-0.089670,0.365256,-0.007330,0.012523,-0.009163
1765408207.948361,-9.921089,0.199665,0.362865,-0.005040,0.010690,-0.004429
1765408207.948561,-9.955761,0.218795,0.289335,-0.008247,0.007178,0.000000
1765408207.948761,-10.019726,0.074127,0.303085,-0.012370,0.005192,0.003207
1765408207.948961,-10.019726,0.074127,0.349115,-0.012370,0.012523,0.003207
1765408207.949161,-9.905546,-0.343137,0.298900,-0.009621,0.006872,0.002138
1765408207.949399,-9.973696,-0.172166,0.340746,-0.009010,0.005803,-0.007941
1765408207.949599,-9.979075,0.111789,0.338355,-0.008552,0.003054,-0.007789
1765408207.949799,-9.976685,0.199665,0.266619,-0.007178,0.005040,-0.001680
1765408207.949999,-10.029889,0.143472,0.413678,-0.007483,0.009010,0.001680
1765408207.950199,-10.023911,-0.155428,0.378407,-0.010690,0.008705,0.007636
1765408207.950385,-9.917501,-0.368245,0.139885,-0.009010,0.004581,0.002902
1765408207.950585,-10.016738,-0.203850,0.234338,-0.005803,0.004581,-0.009621
1765408207.950785,-10.090864,0.081301,0.502152,-0.009010,0.004581,-0.009774
1765408207.950985,-10.030487,0.150646,0.432807,-0.008247,0.007941,-0.003818
1765408207.951185,-9.923481,0.111191,0.217599,-0.010843,0.002749,0.003818
1765408207.951379,-9.967718,-0.084290,0.240316,-0.008705,0.001527,0.003665
1765408207.951579,-9.971304,-0.184122,0.398135,-0.008858,0.004581,0.001680
1765408207.951779,-10.008965,-0.145863,0.341942,-0.006567,0.005498,-0.003054
1765408207.951979,-9.986250,-0.045433,0.213415,-0.009774,0.003207,-0.006261
1765408207.952179,-9.992825,0.017336,0.263630,-0.008705,0.001985,-0.004429
1765408207.952368,-10.053802,0.120756,0.410689,-0.007636,0.002443,-0.003360
1765408207.952568,-10.053802,0.090866,0.364658,-0.010690,0.003054,0.004276
1765408207.952768,-9.943806,-0.120756,0.266619,-0.008399,-0.000916,0.004581
1765408207.952968,-9.986848,-0.209230,0.237924,-0.006567,-0.004429,0.002138
1765408207.953168,-10.114776,-0.141081,0.460306,-0.007789,-0.001527,-0.003971
1765408207.953351,-10.100429,-0.001196,0.425634,-0.009468,-0.000153,-0.007789
1765408207.953551,-9.971304,0.096844,0.223577,-0.010843,-0.000764,-0.002749
1765408207.953751,-9.893590,0.088474,0.103419,-0.006109,-0.003818,0.002749
1765408207.953951,-9.960544,-0.097441,0.258250,-0.005498,-0.005651,0.002902
1765408207.954151,-10.065758,-0.139885,0.432807,-0.007789,0.000000,0.000764
1765408207.954352,-10.120157,-0.109995,0.377810,-0.004734,-0.002138,-0.002138
1765408207.954552,-10.023911,-0.041846,0.337159,-0.007483,-0.004581,-0.003360
1765408207.954752,-9.987445,0.009565,0.286944,-0.005956,-0.000916,-0.003512
1765408207.954952,-9.928263,0.031683,0.192492,-0.006872,-0.000916,-0.001222
1765408207.955152,-9.977283,0.007771,0.285748,-0.009468,-0.005040,0.000305
1765408207.955349,-10.026302,-0.020325,0.291726,-0.006872,-0.005040,-0.000458
1765408207.955549,-9.997009,-0.062171,0.322812,-0.006720,-0.003971,0.000458
1765408207.955749,-9.976088,-0.113582,0.371832,-0.007330,-0.005651,-0.002902
1765408207.955949,-10.041844,-0.033477,0.393352,-0.008094,-0.007636,-0.004429
1765408207.956149,-10.052606,0.072932,0.306074,-0.009316,-0.008094,-0.001680
1765408207.957395,-9.953370,0.071138,0.202056,-0.009163,-0.004734,0.000458
1765408207.960338,-9.953370,0.071138,0.202056,-0.009163,-0.004887,0.000458
1765408207.963336,-10.049617,-0.077714,0.491392,-0.009163,-0.007178,0.000000
1765408207.965357,-9.960544,-0.129125,0.341942,-0.008399,-0.004734,-0.001222
1765408207.966367,-9.868484,-0.038857,0.209828,-0.010385,-0.003207,-0.001069
1765408207.970387,-9.848756,0.026901,0.202056,-0.007330,-0.005498,-0.003360
1765408207.973420,-9.959946,0.033477,0.407700,-0.008705,-0.010232,-0.003054
1765408207.975345,-10.044236,-0.011956,0.460306,-0.009163,-0.006414,0.000764
1765408207.976375,-9.986848,-0.027499,0.328790,-0.009010,-0.006414,0.000916
1765408207.980379,-9.887015,-0.115973,0.255858,-0.007483,-0.001374,0.000458
1765408207.981407,-9.801530,-0.096844,0.286944,-0.011454,-0.007178,-0.000611
1765408207.983413,-9.897178,0.006576,0.405906,-0.009010,-0.010843,-0.001069
1765408207.988403,-9.911524,0.014347,0.310258,-0.010843,-0.005345,-0.001680
1765408207.990379,-9.880439,-0.026901,0.286944,-0.009468,-0.005345,0.001374
1765408207.993348,-9.887612,-0.035868,0.345528,-0.006872,-0.002902,0.000305
1765408207.993848,-10.008368,-0.052606,0.480631,-0.007636,-0.004276,-0.001680
1765408207.998445,-9.955761,-0.098039,0.386179,-0.007636,-0.004276,-0.002443
1765408208.000394,-9.918698,-0.019130,0.328790,-0.007178,-0.002749,-0.002291
1765408208.003420,-9.890003,0.049020,0.362865,-0.007941,-0.003512,-0.001222
1765408208.005375,-9.890003,0.049020,0.362865,-0.007941,-0.004276,-0.001222
1765408208.006403,-9.918698,-0.008369,0.343735,-0.010232,-0.003971,-0.001527
1765408208.010367,-9.923481,-0.076518,0.303682,-0.010079,-0.003971,0.000305
1765408208.011337,-9.923481,-0.076518,0.303682,-0.010079,-0.005651,0.000305
1765408208.015375,-9.935436,0.014347,0.396939,-0.007941,-0.002443,-0.002291
1765408208.018399,-9.852941,-0.024510,0.315041,-0.010385,-0.002596,-0.001222
1765408208.020382,-9.845766,-0.031683,0.301291,-0.010996,-0.000458,-0.001222
1765408208.021371,-9.889405,0.013152,0.411286,-0.008858,-0.001985,-0.002291
1765408208.025362,-9.955761,-0.029292,0.431612,-0.008247,-0.001222,0.001833
1765408208.027349,-9.874461,-0.034672,0.318030,-0.007941,-0.001222,-0.000153
1765408208.030388,-9.876254,-0.050215,0.303682,-0.009621,0.001222,-0.000611
1765408208.031384,-9.843973,-0.027499,0.309660,-0.010690,-0.001985,-0.001222
1765408208.035363,-9.882831,-0.025108,0.314443,-0.007025,0.000305,-0.001069
1765408208.038365,-9.897178,-0.004782,0.363462,-0.009010,-0.004123,0.001527
1765408208.040378,-9.921089,-0.058584,0.343137,-0.013439,-0.002291,-0.000611
1765408208.043378,-9.893590,-0.057389,0.307269,-0.010537,-0.002291,0.001374
1765408208.045376,-9.934240,-0.028694,0.295911,-0.007330,0.000916,0.000000
1765408208.048407,-9.941415,-0.034672,0.358680,-0.010996,0.000916,0.001069
1765408208.048907,-9.923481,-0.039455,0.289335,-0.008552,0.000916,-0.001833
1765408208.053402,-9.919893,-0.005978,0.339550,-0.008858,-0.002443,-0.000305
1765408208.055380,-9.918698,-0.035270,0.342539,-0.012217,-0.002596,0.000458
1765408208.058386,-9.880439,-0.034672,0.316834,-0.012828,0.002902,-0.001069
1765408208.060320,-9.880439,0.020325,0.262434,-0.009010,0.003054,-0.000153
1765408208.061361,-9.846365,-0.062171,0.252272,-0.006720,0.000305,0.000305
1765408208.065397,-9.900764,-0.039455,0.288140,-0.009316,0.000611,0.000153
1765408208.067343,-10.049019,-0.031683,0.467480,-0.012370,0.000611,0.000000
1765408208.068311,-10.049019,-0.031683,0.467480,-0.012370,0.000611,0.000000
1765408208.073381,-9.994021,-0.034672,0.311454,-0.007789,-0.001833,-0.000458
1765408208.073881,-9.954566,0.028694,0.260641,-0.009163,-0.000305,0.001069
1765408208.078354,-9.898373,-0.013749,0.280966,-0.009621,0.000458,0.000764
1765408208.080317,-9.913916,-0.008967,0.218795,-0.007025,-0.003512,0.001374
1765408208.082348,-9.974294,-0.043639,0.283357,-0.008094,0.000458,0.000305
1765408208.085315,-10.025107,-0.089670,0.337159,-0.009774,0.000153,0.000458
1765408208.088331,-9.991630,-0.083692,0.312052,-0.008858,-0.001374,0.001833
1765408208.090350,-9.980869,-0.007174,0.261836,-0.008705,-0.001833,0.000611
1765408208.093342,-9.940218,-0.050813,0.280966,-0.010690,-0.001985,0.000153
1765408208.095313,-9.969511,-0.032281,0.279173,-0.011148,-0.000916,0.003360
1765408208.098389,-10.015541,-0.053802,0.384385,-0.008247,-0.001527,0.000305
1765408208.100325,-10.048421,-0.045433,0.429220,-0.007789,-0.003512,-0.001222
1765408208.101346,-10.059779,0.016738,0.332975,-0.008094,-0.003360,-0.000611
1765408208.105418,-10.080104,0.007771,0.366451,-0.009163,-0.003360,0.001069
1765408208.108368,-10.028693,-0.004782,0.371234,-0.011148,-0.005192,0.001527
1765408208.110369,-10.072930,-0.046031,0.377810,-0.009621,-0.004581,0.001985
1765408208.112366,-9.992825,-0.096844,0.291129,-0.010079,-0.004429,-0.000305
1765408208.115466,-10.001194,-0.023912,0.239718,-0.007483,-0.002749,-0.000305
1765408208.118360,-9.999401,-0.015543,0.297107,-0.006567,-0.001374,-0.000611
1765408208.120457,-10.063366,-0.014347,0.369440,-0.007789,-0.002443,0.001374
1765408208.123414,-10.071735,0.011358,0.377810,-0.009621,-0.007941,0.002291
1765408208.125415,-10.032877,-0.004782,0.324605,-0.009621,-0.007941,-0.000458
1765408208.126446,-9.913916,-0.011956,0.239120,-0.009774,-0.005498,-0.000305
1765408208.130379,-9.952772,0.015543,0.273195,-0.011606,-0.009163,0.002749
1765408208.133391,-10.028693,-0.007174,0.355691,-0.011454,-0.007483,0.002443
1765408208.135400,-10.077114,-0.046628,0.428025,-0.009163,-0.010232,0.004887
1765408208.138381,-9.997607,-0.010163,0.290531,-0.011301,-0.010232,0.004276
1765408208.139367,-9.931850,-0.056193,0.292922,-0.011301,-0.008552,0.001069
1765408208.141402,-9.879243,-0.084888,0.252272,-0.010079,-0.006261,0.002291
1765408208.145378,-9.915709,-0.021521,0.307269,-0.009927,-0.007941,0.002291
1765408208.147343,-9.909731,-0.068149,0.296509,-0.011148,-0.007941,0.002138
1765408208.148332,-9.937828,-0.075323,0.345528,-0.010843,-0.010996,0.000458
1765408208.153363,-9.945002,-0.018532,0.286944,-0.009774,-0.004581,0.000458
1765408208.155364,-9.893590,0.016738,0.252869,-0.008399,-0.007483,0.001680
1765408208.158350,-9.839788,-0.001196,0.233142,-0.011606,-0.009468,0.001527
1765408208.160342,-9.974891,0.028694,0.408895,-0.009927,-0.007330,0.000305
1765408208.162341,-9.984456,0.001196,0.345528,-0.006261,-0.007330,0.001985
1765408208.165391,-9.854136,0.002989,0.270206,-0.009163,-0.009621,0.000153
1765408208.167411,-9.799736,0.016738,0.198470,-0.010690,-0.008399,0.000611
1765408208.170338,-9.856527,0.035270,0.271999,-0.009468,-0.009774,0.003054
1765408208.173306,-9.968913,-0.016141,0.379005,-0.009316,-0.010843,0.001833
1765408208.173806,-9.937828,-0.060378,0.340746,-0.009621,-0.006872,0.004581
1765408208.178401,-9.921089,-0.092659,0.316834,-0.010079,-0.004429,0.004581
1765408208.180364,-9.862504,-0.056193,0.239120,-0.011454,-0.005803,0.002138
1765408208.181361,-9.888808,0.044237,0.353300,-0.009316,-0.007789,-0.000153
1765408208.185364,-9.888808,0.044237,0.353300,-0.009316,-0.010232,-0.000153
1765408208.188301,-9.946198,-0.010760,0.389766,-0.012523,-0.008705,0.003665
1765408208.190352,-9.942610,-0.078910,0.333572,-0.010996,-0.007178,0.004123
1765408208.192442,-9.899570,-0.084888,0.341344,-0.010996,-0.005345,0.001833
1765408208.195299,-9.881634,-0.029890,0.319225,-0.012065,-0.005345,0.001374
1765408208.197301,-9.881634,-0.029890,0.319225,-0.012065,-0.010232,0.001374
1765408208.198339,-9.895982,-0.049020,0.353300,-0.011454,-0.009010,0.001833
1765408208.203357,-9.904350,-0.066954,0.369440,-0.013286,-0.008247,0.002902
1765408208.205339,-9.884026,-0.062171,0.293520,-0.010385,-0.007025,0.005192
1765408208.208389,-9.832614,-0.085485,0.205045,-0.011454,-0.006567,0.001069
1765408208.210357,-9.864896,-0.059780,0.297107,-0.010843,-0.004276,0.000611
1765408208.213342,-9.940218,0.008369,0.399928,-0.009774,-0.006720,0.002596
1765408208.215344,-9.876852,0.031086,0.367049,-0.010079,-0.010079,0.001833
1765408208.217403,-9.878048,0.061573,0.334768,-0.013134,-0.008399,0.002138
1765408208.218376,-9.858918,-0.008369,0.290531,-0.016035,-0.007941,0.005345
1765408208.223375,-9.886416,-0.056193,0.345528,-0.010385,-0.005192,0.006872
1765408208.225379,-9.968913,-0.038857,0.420851,-0.013286,-0.006414,0.004276
1765408208.230367,-9.998206,-0.061573,0.397537,-0.013592,-0.006414,0.003665
1765408208.230867,-9.998206,-0.061573,0.397537,-0.013592,-0.007789,0.003665
1765408208.231330,-9.882831,-0.096844,0.264228,-0.011148,-0.007330,0.003971
1765408208.235332,-9.916904,-0.025108,0.309660,-0.012828,-0.005345,0.003360
1765408208.236349,-9.886416,-0.007174,0.258847,-0.012217,-0.005803,0.003665
1765408208.240337,-9.854136,0.020325,0.262434,-0.012370,-0.006720,0.002443
1765408208.242393,-9.854136,0.020325,0.262434,-0.012370,-0.004887,0.002443
1765408208.245328,-9.962935,0.075921,0.373027,-0.012217,-0.000764,0.004734
1765408208.248308,-9.887612,0.004782,0.226566,-0.013744,-0.000611,0.008094
1765408208.250418,-9.880439,-0.032281,0.241511,-0.014203,-0.005498,0.005345
1765408208.252328,-9.915112,-0.065758,0.301291,-0.013592,-0.005498,0.003818
1765408208.255331,-9.973696,-0.111191,0.393352,-0.009316,-0.004276,0.003818
1765408208.258335,-9.965924,-0.082496,0.328790,-0.012217,-0.005040,0.006720
1765408208.260329,-9.904350,-0.081301,0.277379,-0.010079,-0.003054,0.005040
1765408208.263302,-9.888808,-0.082496,0.270803,-0.009927,-0.004429,0.005192
1765408208.264309,-9.989837,-0.051411,0.388570,-0.010079,-0.004429,0.005956
1765408208.267333,-10.019128,-0.040053,0.434003,-0.009774,-0.003207,0.004276
1765408208.270339,-9.921686,-0.070540,0.320421,-0.012217,-0.004581,0.005956
1765408208.273358,-9.847560,-0.077116,0.221784,-0.010996,-0.005956,0.003818
1765408208.275344,-9.847560,-0.077116,0.221784,-0.010996,-0.010690,0.003818
1765408208.276334,-9.974891,-0.019727,0.390961,-0.011759,-0.009316,0.002291
1765408208.281304,-9.946198,0.025108,0.298900,-0.008705,-0.009468,0.005345
1765408208.283343,-9.931850,0.004782,0.265423,-0.013897,-0.011912,0.003512
1765408208.283843,-9.919893,0.070540,0.227164,-0.011912,-0.007025,0.000305
1765408208.288346,-9.919893,0.070540,0.227164,-0.011912,-0.012217,0.000305
1765408208.290395,-9.907937,-0.022119,0.234338,-0.013592,-0.009316,0.007178
1765408208.292379,-9.952772,0.017934,0.302487,-0.016341,-0.007941,0.004734
1765408208.295357,-9.938425,-0.045433,0.297704,-0.014508,-0.006720,0.005345
1765408208.298365,-9.873863,-0.005978,0.129125,-0.011759,-0.009163,0.005345
1765408208.300368,-9.891200,-0.032879,0.298900,-0.015577,-0.004429,0.004734
1765408208.303458,-9.898971,-0.063367,0.359876,-0.012981,-0.002596,0.007025
1765408208.305332,-9.954566,-0.063367,0.314443,-0.013744,-0.005498,0.002749
1765408208.307375,-9.980869,0.045433,0.371832,-0.010232,-0.005192,0.002749
1765408208.310384,-9.976088,0.032281,0.402917,-0.013744,-0.005192,0.003512
1765408208.313313,-9.970109,0.014347,0.416667,-0.012370,-0.005345,0.007025
1765408208.315310,-9.983260,-0.001196,0.349713,-0.013592,-0.009774,0.004581
1765408208.318365,-10.042442,0.004782,0.390961,-0.013439,-0.010690,0.004734
1765408208.320297,-10.038258,-0.055595,0.306074,-0.012523,-0.013744,0.007483
1765408208.323312,-10.043041,-0.074127,0.319823,-0.011759,-0.013744,0.004581
1765408208.325430,-10.063366,-0.023912,0.381994,-0.012523,-0.010385,0.002443
1765408208.327394,-10.012553,0.049020,0.361071,-0.014661,-0.014050,0.003054
1765408208.330397,-9.893590,0.064562,0.223577,-0.014661,-0.014050,0.003054
1765408208.332399,-9.900764,-0.008369,0.217001,-0.015730,-0.016493,0.006872
1765408208.337168,-9.915709,-0.030488,0.217599,-0.010996,-0.007636,0.005956
1765408208.337668,-9.940218,-0.052606,0.326399,-0.012981,-0.010232,0.007941
1765408208.340317,-9.922284,-0.046628,0.358680,-0.013439,-0.005498,0.006720
1765408208.343326,-9.893590,-0.034075,0.288140,-0.012675,-0.008705,0.004123
1765408208.345358,-9.847560,-0.020325,0.294118,-0.014050,-0.009468,0.007178
1765408208.347405,-9.838593,-0.040053,0.195481,-0.008858,-0.008094,0.008552
1765408208.350366,-9.856527,0.075921,0.347322,-0.012370,-0.010843,0.005803
1765408208.353314,-10.001194,-0.022716,0.457915,-0.013744,-0.008094,0.005040
1765408208.355289,-9.797942,-0.051411,0.246294,-0.010385,-0.008399,0.010232
1765408208.356292,-9.863700,-0.181731,0.338355,-0.010232,-0.011454,0.006720
1765408208.360324,-9.818267,-0.011956,0.277977,-0.010996,-0.006872,0.003665
1765408208.363333,-9.973696,-0.106408,0.368843,-0.011454,-0.016799,0.004581
1765408208.364309,-9.912720,0.024510,0.212817,-0.010843,-0.012828,0.003207
1765408208.368318,-9.924078,-0.019130,0.210426,-0.012370,-0.012828,0.004276
1765408208.370332,-9.870276,0.011956,0.269010,-0.008858,-0.007178,0.007789
1765408208.373337,-9.964728,-0.079507,0.331181,-0.009468,-0.011301,0.005192
1765408208.375326,-9.925871,0.022716,0.364060,-0.011148,-0.009010,0.006720
1765408208.377381,-9.944403,-0.015543,0.304280,-0.012675,-0.008858,0.005803
1765408208.380328,-9.881634,0.125538,0.315638,-0.009621,-0.008858,0.005803
1765408208.383326,-9.910927,0.051411,0.251076,-0.009621,-0.007025,0.005803
1765408208.385330,-9.904350,0.014347,0.332377,-0.015272,-0.004123,0.013592
1765408208.388302,-9.817072,-0.098637,0.157221,-0.009621,-0.004581,0.013744
1765408208.390336,-9.962935,-0.056193,0.407700,-0.011606,-0.004123,0.012065
1765408208.393358,-9.972500,-0.083692,0.453132,-0.009316,-0.000458,0.007178
1765408208.395372,-10.021520,-0.013749,0.510521,-0.009927,-0.008399,0.006109
1765408208.398322,-9.953370,0.049020,0.332377,-0.010537,-0.008552,0.008705
1765408208.400277,-9.984456,0.002989,0.368245,-0.013897,-0.008552,0.011148
1765408208.403324,-9.984456,0.002989,0.368245,-0.013897,-0.005498,0.011148
1765408208.403824,-9.910329,-0.145863,0.321616,-0.011759,-0.008552,0.007025
1765408208.408327,-10.071137,-0.057389,0.601387,-0.012065,-0.007025,0.007025
1765408208.410337,-10.002987,-0.043042,0.350311,-0.011606,-0.009621,0.006872
1765408208.413356,-9.992227,0.011956,0.353898,-0.009010,-0.009621,0.007941
1765408208.415325,-9.992227,0.011956,0.353898,-0.009010,-0.008552,0.007941
1765408208.418426,-9.983260,0.041248,0.467480,-0.011759,-0.013439,0.008399
1765408208.420281,-9.901959,-0.006576,0.270206,-0.013286,-0.010079,0.007483
1765408208.423296,-10.053802,0.069345,0.407700,-0.011759,-0.013286,0.007941
1765408208.425351,-9.817670,0.029292,0.162602,-0.011606,-0.010385,0.009927
1765408208.427464,-9.955761,0.066954,0.304280,-0.009927,-0.012065,0.011301
1765408208.428350,-9.762074,0.022716,0.174558,-0.010385,-0.014508,0.015424
1765408208.433399,-9.900764,0.019130,0.349115,-0.008552,-0.014508,0.011148
1765408208.435405,-9.946198,0.064562,0.227762,-0.010079,-0.014508,0.011301
1765408208.437351,-10.043041,0.053802,0.394548,-0.010079,-0.014508,0.011759
1765408208.440320,-9.825441,-0.006576,0.179340,-0.010079,-0.009010,0.011759
1765408208.443320,-9.915709,0.025705,0.211621,-0.013744,-0.012675,0.007941
1765408208.444320,-9.863700,-0.044237,0.277379,-0.019090,-0.007178,0.007178
1765408208.448328,-9.957555,0.046628,0.402319,-0.013592,-0.010996,0.009316
1765408208.450311,-9.956957,-0.011956,0.334170,-0.017104,-0.005956,0.006720
1765408208.452355,-10.031085,0.060378,0.429818,-0.016341,-0.008247,0.008705
1765408208.455284,-9.914514,0.016738,0.270803,-0.013744,-0.006261,0.007789
1765408208.457290,-9.891200,-0.064562,0.209828,-0.011301,-0.012523,0.010232
1765408208.460286,-10.006575,-0.064562,0.341942,-0.011301,-0.011759,0.010232
1765408208.461381,-9.950979,0.169775,0.261836,-0.013134,-0.007636,0.007789
1765408208.465326,-9.954566,0.129125,0.301291,-0.014203,-0.009621,0.014050
1765408208.468332,-9.959946,0.070540,0.302487,-0.014508,-0.010843,0.011301
1765408208.470416,-10.002987,-0.006576,0.347920,-0.012523,-0.013439,0.010537
1765408208.472387,-10.120754,0.029890,0.549378,-0.012523,-0.009316,0.010537
1765408208.475349,-10.054996,0.105213,0.422047,-0.016341,-0.006414,0.014203
1765408208.477382,-9.994021,0.007174,0.331181,-0.017562,-0.014050,0.015577
1765408208.480338,-9.952174,-0.059182,0.319225,-0.017257,-0.016952,0.009774
1765408208.483392,-9.985652,-0.023912,0.456719,-0.019548,-0.014508,0.008247
1765408208.485545,-9.865494,-0.028097,0.211023,-0.015882,-0.013744,0.011606
1765408208.486380,-9.853538,-0.153037,0.162602,-0.018937,-0.018479,0.012065
1765408208.491358,-9.949186,-0.066954,0.220588,-0.015882,-0.014203,0.007178
1765408208.491858,-10.057985,-0.007174,0.448350,-0.014203,-0.006872,0.008399
1765408208.495366,-9.806311,0.029890,0.233142,-0.015119,-0.008247,0.010537
1765408208.498334,-9.862504,0.090866,0.221186,-0.019090,-0.014661,0.011301
1765408208.500311,-10.013150,0.043042,0.398733,-0.019548,-0.015882,0.012217
1765408208.503374,-10.052007,-0.113582,0.453132,-0.016799,-0.011759,0.016188
1765408208.505365,-9.964728,-0.175155,0.279173,-0.020617,-0.010079,0.014203
1765408208.508299,-10.047822,-0.074127,0.462697,-0.018326,-0.011759,0.007941
1765408208.510383,-9.985652,0.053802,0.301291,-0.017715,-0.009621,0.008247
1765408208.512425,-10.082495,0.095050,0.460904,-0.014203,-0.016493,0.012065
1765408208.513414,-10.008368,0.001196,0.391559,-0.010996,-0.016493,0.012828
1765408208.517424,-9.945600,-0.010163,0.339550,-0.013286,-0.017410,0.014050
1765408208.520339,-9.848158,-0.063965,0.239120,-0.014355,-0.017868,0.012217
1765408208.523342,-9.978478,0.007174,0.303085,-0.014813,-0.017410,0.011301
1765408208.523842,-10.004781,0.118962,0.416069,-0.012217,-0.014355,0.013592
1765408208.527363,-9.947392,-0.020325,0.358680,-0.014203,-0.015119,0.016952
1765408208.530351,-9.941415,-0.021521,0.276184,-0.014661,-0.018326,0.014966
1765408208.533338,-9.986848,-0.021521,0.332377,-0.019090,-0.016493,0.014966
1765408208.535362,-10.020324,-0.022716,0.494978,-0.020617,-0.015272,0.014050
1765408208.537426,-9.878048,-0.053204,0.216404,-0.018173,-0.020006,0.013744
1765408208.540435,-9.901362,0.037064,0.190100,-0.018173,-0.020006,0.011912
1765408208.542855,-9.989837,0.017336,0.367647,-0.018479,-0.012065,0.013897
1765408208.545392,-9.959349,-0.028694,0.453132,-0.016188,-0.014508,0.019090
1765408208.547361,-9.885221,-0.108800,0.324008,-0.017562,-0.014508,0.012065
1765408208.550383,-9.974891,0.109995,0.352702,-0.016341,-0.015424,0.008094
1765408208.552380,-9.958152,0.050215,0.288140,-0.013592,-0.014050,0.013744
1765408208.555388,-9.958152,0.050215,0.288140,-0.013592,-0.017104,0.013744
1765408208.556396,-9.838593,0.015543,0.363462,-0.013897,-0.016646,0.010385
1765408208.560400,-9.803921,0.069943,0.303682,-0.010690,-0.018479,0.016035
1765408208.563383,-9.829028,-0.101028,0.130320,-0.009316,-0.024435,0.020006
1765408208.563883,-9.921089,0.107604,0.176949,-0.007636,-0.023671,0.014966
1765408208.566352,-9.921089,0.107604,0.176949,-0.007636,-0.015577,0.014966
1765408208.569336,-9.927068,0.093855,0.356887,-0.016646,-0.016646,0.015272
1765408208.573371,-9.921089,-0.114778,0.392157,-0.018937,-0.016646,0.018479
1765408208.575287,-9.838593,-0.004185,0.344333,-0.020159,-0.016799,0.014355
1765408208.577264,-9.875656,-0.016738,0.211023,-0.020922,-0.017562,0.011454
1765408208.580319,-9.812887,0.104615,0.104017,-0.018937,-0.020769,0.015424
1765408208.583288,-9.946198,-0.003587,0.218795,-0.020464,-0.011759,0.015119
1765408208.585291,-9.922284,-0.007771,0.397537,-0.017410,-0.011759,0.018479
1765408208.587389,-9.913916,-0.077714,0.408895,-0.020006,-0.012217,0.018937
1765408208.590306,-9.948587,0.008967,0.428025,-0.018021,-0.014050,0.014355
1765408208.592345,-10.065159,-0.029292,0.419656,-0.017257,-0.018937,0.012065
1765408208.596312,-10.062170,0.096844,0.505739,-0.012675,-0.017104,0.017257
1765408208.598361,-9.935436,0.044237,0.494381,-0.011606,-0.017104,0.015272
1765408208.600326,-9.918698,0.068149,0.377212,-0.020311,-0.020006,0.015730
1765408208.603349,-9.829028,-0.066356,0.157221,-0.017257,-0.023976,0.017562
1765408208.605320,-9.678980,-0.071138,-0.014347,-0.014355,-0.023976,0.017104
1765408208.608394,-9.678980,-0.071138,-0.014347,-0.014355,-0.018479,0.017104
1765408208.610366,-9.946795,0.142874,0.482425,-0.018631,-0.015119,0.013744
1765408208.613403,-9.922883,0.035868,0.371832,-0.018631,-0.014508,0.013744
1765408208.613903,-9.873863,0.045433,0.340746,-0.018631,-0.020159,0.015882
1765408208.616393,-9.949782,0.025705,0.350311,-0.021991,-0.020159,0.014355
1765408208.620355,-9.960544,0.031683,0.271401,-0.018479,-0.019090,0.015577
1765408208.623373,-10.011955,0.082496,0.335964,-0.017257,-0.018326,0.017104
1765408208.625324,-9.898373,0.064562,0.401124,-0.019700,-0.013744,0.019853
1765408208.628345,-9.891200,-0.020325,0.263032,-0.019548,-0.018784,0.019700
1765408208.630376,-9.939023,0.031086,0.279173,-0.017562,-0.023060,0.016799
1765408208.633281,-10.037063,0.009565,0.472860,-0.020464,-0.015577,0.016188
1765408208.636281,-9.945002,-0.016738,0.493783,-0.016493,-0.022297,0.019395
1765408208.638308,-9.836799,-0.129125,0.295313,-0.021991,-0.022297,0.019700
1765408208.640305,-9.894786,-0.011358,0.264825,-0.021838,-0.024893,0.013744
1765408208.643275,-9.907937,0.028694,0.158417,-0.018479,-0.022449,0.016799
1765408208.645429,-9.818267,0.043639,0.138092,-0.021380,-0.023671,0.018173
1765408208.648275,-9.818267,-0.027499,0.230153,-0.021533,-0.024282,0.015424
1765408208.650313,-9.976088,0.126734,0.540411,-0.020617,-0.015119,0.013592
1765408208.651277,-9.907937,0.108800,0.398733,-0.017257,-0.020769,0.020617
1765408208.653329,-9.855330,-0.049020,0.252272,-0.015730,-0.020769,0.022449
1765408208.658209,-9.881036,-0.014347,0.127929,-0.021686,-0.026420,0.014813
1765408208.660285,-9.935436,0.070540,0.239718,-0.021991,-0.017868,0.018631
1765408208.663304,-9.877449,0.059780,0.419656,-0.017257,-0.018784,0.019853
1765408208.665257,-9.877449,0.059780,0.419656,-0.017257,-0.017257,0.019853
1765408208.668257,-9.862504,0.071736,0.370038,-0.022449,-0.021838,0.021380
1765408208.670307,-9.812290,-0.015543,0.164993,-0.019853,-0.028558,0.022144
1765408208.672365,-9.809300,-0.047226,0.248685,-0.020159,-0.023213,0.020769
1765408208.675285,-9.907937,-0.069345,0.270803,-0.025962,-0.023213,0.021075
1765408208.678302,-9.857722,-0.053802,0.243902,-0.023976,-0.022449,0.017562
1765408208.680357,-9.843375,0.022716,0.113582,-0.021533,-0.022907,0.019395
1765408208.682334,-9.848158,0.099235,0.202056,-0.020617,-0.017715,0.021686
1765408208.683310,-9.851147,0.033477,0.240316,-0.022297,-0.015119,0.023060
1765408208.687342,-9.942610,-0.005978,0.489598,-0.016799,-0.012828,0.022907
1765408208.690350,-9.986848,-0.081301,0.497370,-0.018173,-0.015882,0.021686
1765408208.693327,-9.881634,-0.127331,0.497370,-0.021075,-0.019395,0.021228
1765408208.695308,-9.978478,-0.092061,0.517695,-0.017715,-0.022755,0.021533
1765408208.698273,-10.083092,0.005978,0.541009,-0.018173,-0.025045,0.018326
1765408208.700323,-10.077114,0.098039,0.500956,-0.018937,-0.024435,0.020617
1765408208.703287,-9.915112,0.044237,0.359876,-0.020159,-0.027642,0.023976
1765408208.705272,-9.754303,-0.105213,0.119560,-0.020311,-0.030543,0.023824
1765408208.708295,-9.744739,-0.056193,0.033477,-0.021228,-0.033139,0.020922
1765408208.710326,-9.735771,0.078312,0.066954,-0.020006,-0.029169,0.015272
1765408208.713305,-9.811692,0.144070,0.259445,-0.014813,-0.019242,0.022144
1765408208.715338,-9.909731,0.072932,0.521282,-0.020464,-0.021533,0.021533
1765408208.718330,-10.071735,0.058584,0.509326,-0.022297,-0.023518,0.023213
1765408208.720281,-10.037063,-0.030488,0.404711,-0.022144,-0.023213,0.025962
1765408208.723368,-10.021520,-0.074127,0.283357,-0.019090,-0.022755,0.021838
1765408208.725302,-9.923481,-0.022119,0.386179,-0.020464,-0.023213,0.022755
1765408208.728285,-9.989238,-0.004185,0.416069,-0.018631,-0.021075,0.020464
1765408208.730346,-9.925274,0.090866,0.361071,-0.016646,-0.024740,0.021228
1765408208.733333,-10.026302,0.181133,0.430416,-0.016952,-0.024740,0.023518
1765408208.735285,-10.051410,0.144070,0.389766,-0.020769,-0.023518,0.026878
1765408208.736348,-10.013150,-0.008369,0.429220,-0.019090,-0.026114,0.026420
1765408208.740334,-10.017933,0.002989,0.499761,-0.016646,-0.020006,0.020159
1765408208.741281,-10.046627,0.078910,0.489598,-0.016799,-0.022755,0.024587
1765408208.745275,-9.910927,-0.019130,0.249880,-0.018479,-0.025809,0.025351
1765408208.748279,-9.817670,0.120756,0.174558,-0.019700,-0.027947,0.023060
1765408208.750311,-10.005379,0.167384,0.426829,-0.022449,-0.021533,0.025045
1765408208.753334,-10.070539,0.087279,0.492587,-0.020922,-0.029169,0.028558
1765408208.755333,-10.025107,-0.051411,0.500359,-0.027031,-0.025809,0.026725
1765408208.757318,-10.024508,0.141081,0.413678,-0.024282,-0.025809,0.018021
1765408208.760319,-9.794355,0.112386,0.112386,-0.025656,-0.029780,0.023518
1765408208.763279,-9.898373,0.151243,0.259445,-0.024129,-0.032834,0.023518
1765408208.765297,-9.909132,0.237924,0.320421,-0.023518,-0.026420,0.022297
1765408208.768295,-9.897178,0.130320,0.337757,-0.023213,-0.026114,0.029169
1765408208.770322,-9.849951,0.013152,0.375418,-0.021228,-0.025198,0.027489
1765408208.772373,-10.088473,0.022716,0.645624,-0.018784,-0.031001,0.021533
1765408208.775320,-10.021520,-0.007771,0.381396,-0.025504,-0.027184,0.023366
1765408208.778350,-9.991032,-0.033477,0.173362,-0.023366,-0.033292,0.021380
1765408208.780357,-9.881036,0.076518,0.138690,-0.020159,-0.026267,0.024740
1765408208.782310,-10.066953,0.221784,0.542802,-0.022144,-0.021838,0.023060
1765408208.785286,-10.066953,0.221784,0.542802,-0.022144,-0.021686,0.023060
1765408208.788438,-9.751313,0.019130,0.127929,-0.022907,-0.026114,0.028863
1765408208.790284,-9.800931,0.017934,0.160210,-0.022907,-0.026114,0.022602
1765408208.793279,-9.800931,0.017934,0.160210,-0.022907,-0.026114,0.022602
1765408208.795280,-10.181131,0.008369,0.879962,-0.021686,-0.022297,0.029169
1765408208.798264,-10.101624,0.144070,0.605571,-0.021075,-0.025198,0.024587
1765408208.800253,-9.972500,0.104017,0.368245,-0.026267,-0.032529,0.024435
1765408208.803282,-9.887015,0.082496,0.083692,-0.024435,-0.032529,0.028863
1765408208.805277,-9.934240,0.037661,0.257054,-0.023366,-0.036194,0.027489
1765408208.807300,-9.983858,0.081899,0.391559,-0.027947,-0.022449,0.023366
1765408208.810335,-9.965326,0.101626,0.378407,-0.027184,-0.021228,0.025045
1765408208.813332,-10.070539,0.096844,0.620516,-0.020464,-0.024435,0.029322
1765408208.815376,-10.095646,0.078910,0.674916,-0.026267,-0.025504,0.028558
1765408208.818342,-10.098636,0.014347,0.535031,-0.024740,-0.028711,0.029474
1765408208.820347,-9.934240,-0.081899,0.301291,-0.026878,-0.032070,0.029474
1765408208.822435,-9.897178,0.040650,0.248685,-0.025809,-0.032070,0.026114
1765408208.825311,-9.775226,0.077714,0.190100,-0.025809,-0.025198,0.026114
1765408208.830352,-9.878646,0.063367,0.456719,-0.026878,-0.025656,0.028253
1765408208.830852,-9.992825,0.115375,0.514706,-0.024129,-0.026114,0.033445
1765408208.832325,-9.979075,0.007771,0.358680,-0.027031,-0.032529,0.031765
1765408208.835292,-9.882831,0.028694,0.208034,-0.023366,-0.029932,0.027031
1765408208.837317,-9.882831,0.028694,0.208034,-0.023366,-0.026725,0.027031
1765408208.840434,-9.977283,-0.072334,0.529651,-0.022602,-0.021838,0.027642
1765408208.843279,-9.961142,0.115973,0.459708,-0.022602,-0.022755,0.022144
1765408208.845238,-9.964130,0.190698,0.384385,-0.024129,-0.024282,0.025198
1765408208.848262,-9.912720,0.190100,0.359876,-0.024129,-0.024282,0.032987
1765408208.850291,-9.912720,0.190100,0.359876,-0.024129,-0.023213,0.032987
1765408208.853249,-9.892395,0.039455,0.492587,-0.024587,-0.020922,0.034361
1765408208.856294,-9.836202,-0.056193,0.328790,-0.023671,-0.031307,0.034361
1765408208.857363,-9.961740,-0.056193,0.325801,-0.024740,-0.032834,0.028253
1765408208.860301,-9.991630,0.056193,0.164993,-0.025198,-0.032834,0.027184
1765408208.861292,-9.985652,0.147059,0.240316,-0.027642,-0.027031,0.028253
1765408208.865297,-9.857722,0.252272,0.384983,-0.027031,-0.016493,0.032376
1765408208.868272,-9.965326,0.149450,0.700622,-0.023518,-0.019090,0.038790
1765408208.870262,-9.939023,-0.131516,0.565519,-0.029474,-0.029322,0.037568
1765408208.871272,-9.961740,-0.173362,0.248685,-0.027336,-0.031918,0.031307
1765408208.876231,-9.910329,-0.004782,0.119560,-0.024893,-0.030085,0.023976
1765408208.878262,-10.053802,0.153635,0.480631,-0.020769,-0.020006,0.025045
1765408208.878762,-9.929459,0.278575,0.621712,-0.021075,-0.020006,0.027489
1765408208.883240,-9.929459,0.278575,0.621712,-0.021075,-0.027184,0.027489
1765408208.885225,-9.831419,0.153037,0.196676,-0.029780,-0.031612,0.030543
1765408208.888247,-9.992825,0.114778,0.388570,-0.020922,-0.028253,0.036652
1765408208.890290,-10.135101,0.001196,0.758010,-0.022755,-0.029169,0.037110
1765408208.892274,-10.087276,-0.004782,0.576279,-0.024282,-0.026573,0.029932
1765408208.895272,-9.831419,-0.007174,0.056193,-0.025351,-0.030238,0.030391
1765408208.898297,-9.799137,0.172166,0.071736,-0.023671,-0.031307,0.029627
1765408208.900274,-9.988641,0.262434,0.605571,-0.023671,-0.025351,0.032529
1765408208.901236,-9.958152,0.044237,0.491392,-0.025045,-0.025962,0.040775
1765408208.905244,-9.861309,-0.109995,0.163797,-0.025656,-0.034819,0.034361
1765408208.908259,-10.021520,0.050813,0.341942,-0.022144,-0.031154,0.026267
1765408208.911288,-10.090266,0.066954,0.677905,-0.021991,-0.023671,0.031460
1765408208.913276,-10.006575,0.247489,0.555954,-0.020464,-0.029322,0.030238
1765408208.913776,-9.917501,0.308465,0.311454,-0.028558,-0.034819,0.026878
1765408208.918299,-9.854136,0.135103,0.099235,-0.030543,-0.034819,0.036346
1765408208.920268,-9.871471,0.046628,0.028097,-0.023824,-0.030543,0.041081
1765408208.923378,-10.245097,0.026303,0.703013,-0.027031,-0.027489,0.031765
1765408208.925297,-10.260639,0.073529,0.931970,-0.030085,-0.019548,0.030238
1765408208.927320,-10.081897,0.046031,0.656982,-0.025351,-0.023060,0.036499
1765408208.928337,-9.812290,0.038857,0.388570,-0.024587,-0.031765,0.035583
1765408208.933262,-9.892395,0.135701,0.432807,-0.027489,-0.042302,0.034819
1765408208.935240,-10.107603,0.093257,0.472860,-0.027184,-0.039401,0.032223
1765408208.938267,-9.979075,-0.004782,0.219393,-0.025656,-0.037110,0.035125
1765408208.940378,-9.868484,0.055595,0.295313,-0.024893,-0.029932,0.029474
1765408208.943276,-9.840983,0.125538,0.334768,-0.028558,-0.030391,0.029322
1765408208.945277,-9.943208,0.242109,0.379005,-0.026267,-0.035430,0.034361
1765408208.947317,-9.864896,0.217599,0.225968,-0.022755,-0.035736,0.036805
1765408208.950266,-9.946795,0.196078,0.463893,-0.030238,-0.028253,0.032070
1765408208.953225,-9.948587,0.196078,0.493185,-0.028100,-0.030391,0.032681
1765408208.955237,-9.955761,0.076518,0.428623,-0.027794,-0.035583,0.037721
1765408208.958283,-9.814680,0.132114,0.166786,-0.027489,-0.030849,0.032529
1765408208.960246,-9.768052,0.182927,0.261836,-0.024893,-0.028405,0.033139
1765408208.963252,-9.811094,0.129125,0.492587,-0.027184,-0.028405,0.037568
1765408208.964255,-9.971903,0.246294,0.522477,-0.024282,-0.035583,0.038485
1765408208.967286,-10.023911,0.150646,0.448350,-0.031001,-0.038332,0.034819
1765408208.970243,-9.966521,0.111191,0.386179,-0.032987,-0.031612,0.035736
1765408208.972265,-9.835006,0.123147,0.265423,-0.030085,-0.031154,0.036652
1765408208.973308,-9.796746,0.125538,0.449546,-0.032070,-0.031154,0.034972
1765408208.978257,-9.923481,0.280966,0.398135,-0.032223,-0.033903,0.032376
1765408208.980262,-9.880439,0.239718,0.217001,-0.028863,-0.037415,0.036805
1765408208.983284,-9.892395,0.243902,0.347920,-0.031765,-0.034514,0.036194
1765408208.983784,-10.013150,0.206839,0.411286,-0.033903,-0.024282,0.040164
1765408208.987274,-9.955761,-0.011956,0.530846,-0.035888,-0.025045,0.040623
1765408208.989280,-9.741151,0.107604,0.265423,-0.028558,-0.027336,0.034361
1765408208.993243,-9.840983,0.172166,0.405308,-0.032987,-0.033292,0.038179
1765408208.995220,-10.003586,0.199665,0.661167,-0.030849,-0.033292,0.035583
1765408208.998275,-9.909132,0.186514,0.491392,-0.030849,-0.031154,0.035583
1765408209.000258,-9.958152,0.093855,0.385581,-0.038943,-0.035888,0.038485
1765408209.003237,-9.829028,0.138690,0.138690,-0.031460,-0.036652,0.034056
1765408209.005237,-9.840983,0.085485,0.234935,-0.036194,-0.021991,0.035736
1765408209.007338,-10.064561,0.239120,0.784314,-0.035430,-0.021991,0.034056
1765408209.010255,-10.064561,0.239120,0.784314,-0.035430,-0.027336,0.034056
1765408209.012472,-10.127929,0.206241,0.637255,-0.036499,-0.039554,0.038790
1765408209.015362,-10.013748,0.096844,0.179340,-0.039554,-0.041233,0.039706
1765408209.017319,-10.004781,0.001196,0.279770,-0.034667,-0.038332,0.041386
1765408209.018300,-9.992825,-0.018532,0.563128,-0.031765,-0.024129,0.035430
1765408209.022333,-9.992825,-0.018532,0.563128,-0.031765,-0.026725,0.035430
1765408209.025317,-9.868484,0.090866,0.228957,-0.036805,-0.039248,0.037110
1765408209.027325,-9.959349,0.122549,0.163199,-0.031612,-0.039248,0.035277
1765408209.030299,-10.017335,0.053802,0.478240,-0.030085,-0.025962,0.038332
1765408209.034263,-10.161406,0.095648,0.915232,-0.028100,-0.025962,0.038026
1765408209.035244,-10.127929,0.052606,0.747848,-0.031918,-0.026878,0.034819
1765408209.038317,-9.941415,0.107604,0.263032,-0.030085,-0.036805,0.035277
1765408209.040348,-9.836799,0.212817,0.204448,-0.030543,-0.035736,0.037263
1765408209.043310,-9.827832,0.170971,0.184122,-0.032834,-0.036499,0.038179
1765408209.045293,-10.013150,0.266021,0.614538,-0.033598,-0.028253,0.036957
1765408209.046310,-10.092059,0.274988,0.613343,-0.032529,-0.034514,0.040775
1765408209.050285,-10.162600,0.109995,0.750837,-0.035888,-0.034972,0.040470
1765408209.054430,-9.935436,0.159613,0.399330,-0.033598,-0.031154,0.040317
1765408209.055257,-9.715446,-0.092061,0.127929,-0.036194,-0.033598,0.043677
1765408209.058303,-9.940218,0.003587,0.435198,-0.036346,-0.031765,0.036652
1765408209.061229,-10.212815,0.224773,0.631277,-0.034361,-0.031765,0.032681
1765408209.063236,-10.043041,0.145265,0.618125,-0.034667,-0.030238,0.041386
1765408209.065236,-9.977283,0.274988,0.499761,-0.035736,-0.031918,0.036194
1765408209.066290,-10.129124,0.303682,0.578670,-0.035736,-0.033445,0.036194
1765408209.070255,-9.982065,-0.010163,0.445959,-0.038332,-0.033750,0.049022
1765408209.072242,-9.992825,0.012554,0.534433,-0.031001,-0.031001,0.038943
1765408209.075325,-9.854733,0.058584,0.417862,-0.034819,-0.028405,0.039859
1765408209.078297,-9.989837,0.029292,0.438785,-0.031460,-0.035583,0.038026
1765408209.080280,-10.084289,0.239120,0.589431,-0.029474,-0.033750,0.038179
1765408209.083247,-10.075920,0.246294,0.704806,-0.032681,-0.033750,0.042302
1765408209.085272,-9.891200,0.099235,0.423242,-0.033598,-0.033750,0.046273
1765408209.088218,-9.761477,0.049617,-0.012554,-0.033445,-0.038332,0.041386
1765408209.090315,-9.890003,0.132114,0.283357,-0.033292,-0.030085,0.039859
1765408209.093300,-9.968913,0.110593,0.609756,-0.031307,-0.025351,0.040317
1765408209.095264,-10.004781,0.163797,0.644428,-0.030696,-0.029169,0.040012
1765408209.098330,-9.974891,0.263630,0.549976,-0.034819,-0.037568,0.038332
1765408209.100242,-9.945002,0.172166,0.466284,-0.035583,-0.038179,0.041997
1765408209.103252,-9.949186,0.134505,0.377810,-0.032529,-0.035736,0.045968
1765408209.105226,-9.921089,0.054998,0.381396,-0.031154,-0.037263,0.043371
1765408209.107253,-9.906144,0.189503,0.436992,-0.031460,-0.031918,0.040470
1765408209.108270,-9.906144,0.189503,0.436992,-0.031460,-0.037721,0.040470
1765408209.113252,-9.814680,0.269010,0.346126,-0.030696,-0.036041,0.041081
1765408209.115259,-9.904350,0.341942,0.346724,-0.031918,-0.037415,0.041386
1765408209.118267,-9.916306,0.214012,0.570899,-0.031765,-0.036041,0.045968
1765408209.120314,-9.759683,0.119560,0.111789,-0.033903,-0.035125,0.045051
1765408209.123254,-9.813485,0.087877,0.252272,-0.032529,-0.037415,0.045357
1765408209.125307,-9.856527,0.092061,0.444165,-0.033139,-0.029474,0.040470
1765408209.127317,-9.953967,0.252272,0.598996,-0.030238,-0.030849,0.042608
1765408209.130294,-9.988043,0.258847,0.597800,-0.031612,-0.038943,0.044593
1765408209.133281,-9.862504,0.277379,0.299498,-0.037263,-0.040623,0.041539
1765408209.135255,-10.019128,0.274988,0.474653,-0.034056,-0.040470,0.047037
1765408209.136302,-9.943806,0.031683,0.407700,-0.035888,-0.035125,0.049022
1765408209.140237,-10.101624,0.008369,0.516499,-0.036194,-0.033903,0.044593
1765408209.143306,-9.915112,0.138690,0.314443,-0.039095,-0.033903,0.039401
1765408209.145222,-9.998206,0.243902,0.449546,-0.032529,-0.032529,0.039859
1765408209.148232,-9.927068,0.310856,0.636657,-0.032529,-0.028863,0.047342
1765408209.149243,-10.090864,0.278575,0.838116,-0.037263,-0.035736,0.049633
1765408209.153212,-9.962935,-0.016738,0.428025,-0.039095,-0.040470,0.051313
1765408209.155244,-9.807508,-0.103419,0.086681,-0.035125,-0.046120,0.045968
1765408209.158273,-9.912720,0.046628,0.413678,-0.034361,-0.037721,0.040775
1765408209.158773,-10.065758,0.302487,1.027020,-0.033292,-0.026573,0.041386
1765408209.163219,-10.065758,0.302487,1.027020,-0.033292,-0.036805,0.041386
1765408209.164279,-9.765661,0.100430,0.179340,-0.031765,-0.049786,0.049633
1765408209.168219,-9.765661,0.057389,-0.077116,-0.031612,-0.050244,0.045509
1765408209.170243,-9.861309,0.112984,0.435198,-0.025198,-0.036346,0.049022
1765408209.173230,-9.928263,0.062171,0.753228,-0.029474,-0.033139,0.043830
1765408209.175229,-9.882831,0.266619,0.570301,-0.036957,-0.038179,0.040470
1765408209.177296,-9.867885,0.241511,0.159613,-0.034667,-0.043830,0.043219
1765408209.180265,-9.745336,0.217599,0.194285,-0.029016,-0.043830,0.051160
1765408209.183268,-10.034073,0.350909,0.765184,-0.027336,-0.034667,0.044899
1765408209.185238,-9.955761,0.319225,0.700622,-0.037874,-0.032070,0.050396
1765408209.188241,-9.784791,0.051411,0.151841,-0.040470,-0.043066,0.053909
1765408209.188741,-9.955164,0.131516,0.337159,-0.030391,-0.030238,0.045357
1765408209.193262,-10.138091,0.195481,0.901482,-0.033750,-0.030238,0.046731
1765408209.195203,-10.103418,0.332377,0.866810,-0.032223,-0.034514,0.047189
1765408209.198251,-9.911524,0.346126,0.273792,-0.040317,-0.042761,0.048564
1765408209.200223,-9.861907,0.288140,0.269608,-0.038179,-0.047647,0.050549
1765408209.202280,-9.776422,0.228957,0.236729,-0.033445,-0.039706,0.053451
1765408209.205258,-9.922883,0.216404,0.632472,-0.037415,-0.039401,0.052993
1765408209.207268,-9.978478,0.242707,0.572095,-0.040317,-0.036346,0.048411
1765408209.210381,-9.905546,0.134505,0.279173,-0.036652,-0.043219,0.056047
1765408209.213232,-9.863700,-0.016738,0.351506,-0.033903,-0.043219,0.052534
1765408209.215235,-9.903154,0.291129,0.579268,-0.035125,-0.034667,0.044746
1765408209.218270,-10.027497,0.257652,0.798661,-0.037874,-0.032070,0.047953
1765408209.218770,-9.882831,0.227164,0.417264,-0.033903,-0.038332,0.053756
1765408209.223227,-9.892395,0.081301,0.236729,-0.033903,-0.048564,0.052229
1765408209.223727,-10.002390,0.164395,0.461502,-0.035277,-0.038943,0.045204
1765408209.228242,-9.999999,0.389766,0.653395,-0.034514,-0.031460,0.047647
1765408209.230264,-9.902557,0.386777,0.708991,-0.036346,-0.041233,0.054672
1765408209.234271,-9.776422,0.167982,0.283357,-0.040317,-0.041233,0.053756
1765408209.235237,-9.979673,0.147657,0.511717,-0.034208,-0.043982,0.051160
1765408209.238251,-9.873863,0.126734,0.344333,-0.031307,-0.039401,0.052382
1765408209.240242,-10.120754,0.317432,0.838116,-0.034056,-0.043219,0.045815
1765408209.244303,-10.025704,0.375418,0.601387,-0.038943,-0.049327,0.045509
1765408209.245231,-10.008965,0.290531,0.557150,-0.038026,-0.049327,0.049938
1765408209.248205,-10.008965,0.290531,0.557150,-0.038026,-0.040012,0.049938
1765408209.250222,-9.978478,0.435198,0.442970,-0.034667,-0.040317,0.050244
1765408209.253227,-9.852941,0.257054,0.499761,-0.042302,-0.036041,0.056047
1765408209.255203,-9.845168,0.118962,0.466284,-0.039401,-0.038790,0.054062
1765408209.258246,-9.898373,0.187111,0.540411,-0.036805,-0.039554,0.049938
1765408209.260212,-9.927068,0.200861,0.489000,-0.040928,-0.047495,0.052382
1765408209.263216,-9.867287,0.331779,0.478240,-0.039859,-0.038637,0.050091
1765408209.264209,-9.711261,0.341942,0.371832,-0.040775,-0.038637,0.051618
1765408209.268235,-9.785987,0.270206,0.524868,-0.040775,-0.046120,0.054367
1765408209.270258,-9.620994,0.193687,-0.173362,-0.041844,-0.046120,0.056658
1765408209.272257,-9.620994,0.193687,-0.173362,-0.041844,-0.045204,0.056658
1765408209.273243,-9.813485,0.240316,0.481827,-0.033750,-0.028711,0.053145
1765408209.278311,-9.953370,0.101028,0.841105,-0.036805,-0.041386,0.058490
1765408209.280251,-9.942013,0.109995,0.394548,-0.037263,-0.044135,0.050244
1765408209.282281,-9.994618,0.304878,0.291726,-0.034361,-0.046120,0.047647
1765408209.285307,-10.040649,0.387972,0.686872,-0.034361,-0.030391,0.053298
1765408209.288276,-10.054399,0.395744,0.980990,-0.035583,-0.032070,0.055131
1765408209.290296,-10.009563,0.267814,0.692252,-0.041539,-0.045357,0.057727
1765408209.293252,-9.782400,0.102224,0.050215,-0.042455,-0.054214,0.052993
1765408209.295215,-9.740554,0.235533,0.100430,-0.033903,-0.048411,0.055436
1765408209.297220,-9.756694,0.248087,0.466284,-0.037415,-0.042608,0.056658
1765408209.300235,-10.040649,0.440579,0.725729,-0.046884,-0.040775,0.049175
1765408209.303219,-10.090864,0.306074,0.608560,-0.050091,-0.040012,0.052993
1765408209.305209,-9.875656,0.306074,0.299498,-0.050091,-0.045662,0.052993
1765408209.308217,-9.813485,0.074127,0.393352,-0.036499,-0.043830,0.059254
1765408209.310299,-9.839190,0.246294,0.564323,-0.038485,-0.038790,0.051618
1765408209.312220,-9.937230,0.352702,0.570899,-0.039554,-0.042761,0.052382
1765408209.315221,-9.756096,0.294118,0.353300,-0.040775,-0.043371,0.059712
1765408209.318271,-9.843375,0.162004,0.350311,-0.043066,-0.044593,0.060170
1765408209.318771,-9.956957,0.224175,0.627690,-0.039401,-0.043066,0.054520
1765408209.323250,-9.924676,0.340746,0.497370,-0.039554,-0.043524,0.053603
1765408209.325279,-9.840983,0.376614,0.463893,-0.042761,-0.044288,0.057116
1765408209.327328,-9.721423,0.296509,0.120756,-0.042913,-0.044288,0.058032
1765408209.330290,-9.777617,0.273792,0.284553,-0.035888,-0.047647,0.063225
1765408209.332265,-9.886416,0.132712,0.501554,-0.040775,-0.039095,0.056963
1765408209.335284,-9.886416,0.132712,0.501554,-0.040775,-0.038179,0.056963
1765408209.338274,-9.990434,0.162602,0.649809,-0.039706,-0.041386,0.058948
1765408209.341079,-9.974891,0.274988,0.422047,-0.040012,-0.048411,0.054672
1765408209.343274,-9.905546,0.334768,0.292324,-0.043219,-0.044746,0.052993
1765408209.345344,-9.987445,0.407700,0.653993,-0.038637,-0.039706,0.056810
1765408209.348223,-9.921089,0.277379,0.661167,-0.038637,-0.039859,0.061545
1765408209.350249,-10.095646,0.322812,0.840507,-0.039248,-0.041539,0.059407
1765408209.352240,-10.015541,0.260641,0.472860,-0.042302,-0.041539,0.058185
1765408209.353265,-9.985652,0.263032,0.453132,-0.038026,-0.044899,0.064294
1765408209.358263,-9.893590,0.145863,0.522477,-0.042608,-0.041692,0.055131
1765408209.361218,-9.919893,0.404113,0.612745,-0.042455,-0.039554,0.049022
1765408209.362273,-9.879243,0.428025,0.362267,-0.041233,-0.040928,0.055589
1765408209.365204,-10.052606,0.581062,0.564323,-0.042150,-0.041386,0.060018
1765408209.368282,-10.185316,0.387972,0.840507,-0.044593,-0.035430,0.062614
1765408209.370258,-10.049019,0.302487,0.756815,-0.040928,-0.034667,0.062461
1765408209.373227,-9.824244,0.095050,0.454328,-0.044288,-0.042302,0.061850
1765408209.375217,-9.951577,0.334170,0.625299,-0.042608,-0.044440,0.051160
1765408209.378265,-9.947392,0.398733,0.662362,-0.042913,-0.043066,0.059254
1765408209.380213,-9.799137,0.468675,0.441774,-0.045662,-0.051313,0.059254
1765408209.383226,-9.795551,0.379603,0.099235,-0.052840,-0.042302,0.060018
1765408209.385223,-9.950979,0.283357,0.386179,-0.048106,-0.042302,0.066432
1765408209.388184,-9.950979,0.283357,0.386179,-0.048106,-0.032529,0.066432
1765408209.390216,-9.906144,0.025108,0.784314,-0.041539,-0.039554,0.062919
1765408209.393217,-9.799137,0.096844,0.257652,-0.041539,-0.045357,0.062919
1765408209.394241,-9.937828,0.362267,0.399330,-0.037110,-0.038332,0.053145
1765408209.398251,-9.983260,0.572095,0.713773,-0.037263,-0.038332,0.060018
1765408209.400215,-10.129124,0.560736,1.056910,-0.044135,-0.040775,0.063835
1765408209.403362,-9.881634,0.279770,0.388570,-0.047953,-0.046731,0.066737
1765408209.405261,-9.879841,0.211621,0.253467,-0.040317,-0.054367,0.064141
1765408209.408220,-9.931252,0.186514,0.486609,-0.039401,-0.042608,0.062766
1765408209.410262,-9.986848,0.242707,0.636059,-0.040928,-0.041081,0.059865
1765408209.413236,-10.097439,0.493783,0.823171,-0.041844,-0.039248,0.051465
1765408209.415303,-9.788378,0.685079,0.255858,-0.043066,-0.049938,0.059254
1765408209.418304,-9.813485,0.429220,0.291726,-0.049938,-0.049938,0.069486
1765408209.420259,-9.850550,0.306671,0.444763,-0.042302,-0.044746,0.067195
1765408209.422243,-10.125537,0.193687,0.936155,-0.038943,-0.039554,0.069639
1765408209.425265,-9.880439,0.064562,0.528455,-0.046120,-0.043219,0.066432
1765408209.427311,-9.927068,0.293520,0.503348,-0.045051,-0.045662,0.054672
1765408209.430259,-9.805714,0.381396,0.306671,-0.038026,-0.045662,0.062003
1765408209.433305,-9.773433,0.381396,0.360473,-0.038026,-0.044593,0.062003
1765408209.435315,-9.978478,0.525466,0.517695,-0.044288,-0.040775,0.058490
1765408209.437240,-9.951577,0.286346,0.512315,-0.043830,-0.035736,0.069944
1765408209.440218,-9.866689,0.019130,0.413080,-0.040775,-0.042761,0.071929
1765408209.443296,-10.007172,0.203850,0.796270,-0.040164,-0.035277,0.060781
1765408209.446310,-10.007172,0.203850,0.796270,-0.040164,-0.039859,0.060781
1765408209.447328,-9.632950,0.252272,-0.015543,-0.040928,-0.050091,0.067653
1765408209.450291,-9.964130,0.467480,0.515304,-0.041081,-0.050091,0.057269
1765408209.452283,-10.058583,0.546389,1.111908,-0.036805,-0.043677,0.064141
1765408209.455295,-9.958152,0.162602,0.816595,-0.037568,-0.043677,0.075442
1765408209.457258,-9.892395,0.096246,0.215208,-0.039706,-0.053298,0.062614
1765408209.460276,-10.127929,0.242707,0.572692,-0.035736,-0.051771,0.058032
1765408209.462266,-10.041844,0.337159,0.827355,-0.029016,-0.040317,0.066584
1765408209.465277,-9.930654,0.402917,0.674318,-0.039859,-0.044593,0.066584
1765408209.466287,-10.025107,0.468675,0.601387,-0.046120,-0.050091,0.056200
1765408209.470250,-9.988043,0.442372,0.486011,-0.037874,-0.044440,0.067959
1765408209.472220,-9.850550,0.232544,0.481827,-0.034056,-0.043677,0.074067
1765408209.473237,-9.973696,0.188905,0.773553,-0.041233,-0.042913,0.063988
1765408209.476255,-9.998802,0.290531,0.649211,-0.042913,-0.042913,0.060628
1765408209.478235,-10.004781,0.356289,0.671927,-0.037721,-0.047800,0.066890
1765408209.483200,-9.956957,0.347322,0.569106,-0.037874,-0.050702,0.067501
1765408209.484256,-9.846962,0.361071,0.329986,-0.037110,-0.043524,0.067653
1765408209.487197,-9.931850,0.274988,0.576279,-0.040012,-0.043524,0.066279
1765408209.488229,-9.895385,0.292324,0.683285,-0.032834,-0.041233,0.070860
1765408209.493269,-9.829028,0.041248,0.491392,-0.034514,-0.049786,0.074831
1765408209.494306,-9.837397,0.162602,0.357484,-0.036957,-0.055283,0.059865
1765408209.499207,-10.147655,0.581062,0.899091,-0.033903,-0.043219,0.056810
1765408209.500182,-10.013150,0.637255,0.891918,-0.032070,-0.037721,0.069180
1765408209.502261,-9.858918,0.570301,0.627690,-0.036652,-0.051771,0.075289
1765408209.505253,-9.861309,0.409493,0.390961,-0.039554,-0.054672,0.072693
1765408209.508252,-9.837996,0.258250,0.321616,-0.037110,-0.050549,0.078343
1765408209.508752,-9.789574,0.229555,0.408297,-0.034056,-0.043066,0.073915
1765408209.513218,-9.903154,0.450143,0.743663,-0.037263,-0.043066,0.061239
1765408209.515176,-9.797942,0.576877,0.383190,-0.039248,-0.045968,0.070402
1765408209.518230,-9.720228,0.445959,0.255858,-0.043677,-0.056963,0.074678
1765408209.518730,-9.897178,0.529651,0.634864,-0.038332,-0.047189,0.070860
1765408209.522327,-9.941415,0.365854,0.885940,-0.039554,-0.040012,0.079565
1765408209.525231,-9.691534,0.076518,0.425634,-0.045051,-0.050396,0.073304
1765408209.527282,-9.806311,0.333572,0.296509,-0.035430,-0.053298,0.062156
1765408209.530285,-9.966521,0.519488,0.730512,-0.035277,-0.044135,0.071929
1765408209.533269,-9.818267,0.434003,0.606767,-0.036499,-0.041386,0.073304
1765408209.535281,-9.854136,0.453132,0.506934,-0.036652,-0.050855,0.070555
1765408209.536250,-9.914514,0.419058,0.619321,-0.038179,-0.051924,0.069944
1765408209.540207,-9.968913,0.351506,0.673721,-0.033750,-0.045204,0.077733
1765408209.542256,-9.708273,0.282162,0.365854,-0.035125,-0.044135,0.074220
1765408209.545313,-9.766856,0.500956,0.565519,-0.041692,-0.049480,0.060934
1765408209.548204,-9.870873,0.725729,0.718556,-0.038943,-0.043371,0.063530
1765408209.549690,-9.939621,0.610952,0.768173,-0.034972,-0.046426,0.078038
1765408209.551220,-9.762074,0.363462,0.376016,-0.037568,-0.055283,0.077122
1765408209.555232,-9.690936,0.254663,0.132712,-0.039554,-0.045204,0.068722
1765408209.558225,-9.843973,0.370636,0.432807,-0.039554,-0.045204,0.068264
1765408209.560214,-9.845766,0.566714,0.730512,-0.039401,-0.039401,0.065515
1765408209.563209,-9.903154,0.762793,0.803443,-0.045204,-0.046731,0.067195
1765408209.565205,-10.017335,0.753228,0.826160,-0.051160,-0.047953,0.072693
1765408209.568204,-10.041844,0.590029,0.664156,-0.043219,-0.051618,0.080634
1765408209.570234,-9.930654,0.298900,0.612147,-0.044135,-0.051618,0.081398
1765408209.571222,-9.930654,0.298900,0.612147,-0.044135,-0.049633,0.081398
1765408209.575246,-9.891200,0.375418,0.598996,-0.045968,-0.043219,0.067042
1765408209.578274,-9.849353,0.663558,0.542205,-0.050244,-0.047495,0.067042
1765408209.580259,-9.959349,0.777140,0.738881,-0.052076,-0.047342,0.071624
1765408209.583233,-10.020923,0.603180,0.682090,-0.048869,-0.047342,0.080176
1765408209.585227,-10.029889,0.315638,0.787303,-0.047037,-0.050244,0.084605
1765408209.587253,-9.866092,0.144070,0.577475,-0.044899,-0.052534,0.077733
1765408209.590241,-9.990434,0.409493,0.768771,-0.043677,-0.050855,0.068111
1765408209.593269,-10.016738,0.577475,0.783118,-0.045509,-0.050244,0.068417
1765408209.595227,-10.038857,0.664156,0.851267,-0.046884,-0.054367,0.070097
1765408209.597233,-9.787182,0.469871,0.407700,-0.048717,-0.054062,0.074220
1765408209.600242,-9.768052,0.437590,0.400526,-0.049786,-0.049938,0.073762
1765408209.602242,-9.954566,0.334768,0.604974,-0.046273,-0.049938,0.071319
1765408209.605222,-9.954566,0.334768,0.604974,-0.046273,-0.048411,0.071319
1765408209.608177,-10.038857,0.511717,0.682090,-0.047189,-0.050702,0.068417
1765408209.609198,-9.974891,0.468675,0.740076,-0.045357,-0.047495,0.073762
1765408209.612279,-9.967718,0.387374,0.718556,-0.043677,-0.048869,0.079412
1765408209.615186,-9.851745,0.219990,0.543998,-0.042913,-0.055436,0.072540
1765408209.618214,-9.851745,0.219990,0.543998,-0.042913,-0.056352,0.072540
1765408209.620227,-9.986848,0.614538,0.563128,-0.047495,-0.050549,0.063683
1765408209.623285,-10.012553,0.665351,0.655189,-0.047189,-0.051465,0.071777
1765408209.625222,-10.012553,0.665351,0.655189,-0.047189,-0.050091,0.071777
1765408209.628446,-10.111190,0.572692,0.862028,-0.047800,-0.048717,0.075747
1765408209.630275,-9.887612,0.449546,0.438785,-0.047037,-0.056047,0.078496
1765408209.633243,-9.897775,0.512912,0.584648,-0.049938,-0.045051,0.067348
1765408209.635275,-10.133308,0.725729,1.027020,-0.050855,-0.045051,0.069180
1765408209.637273,-9.855330,0.575084,0.816595,-0.051007,-0.047647,0.078496
1765408209.640186,-9.829028,0.631875,0.431612,-0.055894,-0.065363,0.076358
1765408209.642214,-9.999999,0.477044,0.578670,-0.055283,-0.061392,0.075289
1765408209.645258,-9.894786,0.273792,0.532640,-0.048258,-0.055589,0.082009
1765408209.648204,-9.873264,0.461502,0.715567,-0.047647,-0.050244,0.071013
1765408209.650241,-9.908535,0.648015,0.727523,-0.057574,-0.048411,0.065057
1765408209.652190,-9.886416,0.710186,0.646222,-0.059101,-0.051313,0.075900
1765408209.655202,-9.768052,0.362865,0.328192,-0.048717,-0.057269,0.085674
1765408209.656204,-9.713055,0.271401,0.474055,-0.048717,-0.056658,0.082009
1765408209.660214,-9.902557,0.345528,0.752630,-0.054825,-0.049175,0.070860
1765408209.661192,-9.814680,0.508130,0.562530,-0.054825,-0.053451,0.070860
1765408209.665187,-9.877449,0.521282,0.504543,-0.051313,-0.059712,0.077274
1765408209.668166,-10.076518,0.681492,0.839311,-0.054367,-0.051924,0.071471
1765408209.670294,-9.991630,0.512912,0.816595,-0.050396,-0.042761,0.083994
1765408209.673218,-9.687947,0.181731,0.481229,-0.050702,-0.054520,0.085368
1765408209.673718,-9.930056,0.456719,0.685079,-0.050091,-0.057727,0.069944
1765408209.678204,-10.059181,0.646820,1.017456,-0.052687,-0.054367,0.072082
1765408209.680175,-9.797942,0.723338,0.636059,-0.050549,-0.054367,0.082161
1765408209.681215,-9.797942,0.723338,0.636059,-0.050549,-0.070555,0.082161
1765408209.685175,-9.969511,0.278575,0.476447,-0.056047,-0.067501,0.081703
1765408209.687282,-10.062768,0.113582,0.752032,-0.046120,-0.060018,0.079412
1765408209.688214,-9.854136,0.381396,0.649211,-0.043830,-0.051618,0.067348
1765408209.693179,-10.083690,0.720349,0.770564,-0.055589,-0.053909,0.063072
1765408209.694267,-9.924676,0.731109,0.541607,-0.053603,-0.049938,0.074373
1765408209.698216,-9.848756,0.529053,0.434003,-0.047342,-0.059712,0.087812
1765408209.700174,-9.947392,0.311454,0.844691,-0.051313,-0.056200,0.081551
1765408209.702180,-10.065758,0.273195,0.696437,-0.050855,-0.056963,0.072082
1765408209.705246,-10.052606,0.505739,0.686274,-0.050855,-0.056963,0.072082
1765408209.708195,-9.936632,0.741870,0.618125,-0.044440,-0.054978,0.071166
1765408209.711191,-10.011955,0.706600,0.903874,-0.050702,-0.048258,0.080176
1765408209.713199,-9.918698,0.471066,0.698230,-0.049938,-0.052382,0.085674
1765408209.715175,-9.809898,0.328790,0.365256,-0.046426,-0.061697,0.082467
1765408209.718181,-9.814083,0.334170,0.454328,-0.046273,-0.058796,0.071777
1765408209.718681,-9.904350,0.558345,0.766380,-0.043982,-0.050702,0.071929
1765408209.723181,-9.965326,0.632472,0.860234,-0.042761,-0.051618,0.081245
1765408209.723681,-9.801530,0.556552,0.497370,-0.051007,-0.057574,0.079107
1765408209.726234,-9.888210,0.460306,0.552367,-0.046273,-0.055741,0.080176
1765408209.728191,-9.840983,0.216404,0.676112,-0.043524,-0.050091,0.089186
1765408209.732222,-9.860114,0.291129,0.746652,-0.041692,-0.054672,0.078038
1765408209.735231,-10.001792,0.566714,0.753826,-0.049786,-0.051160,0.069333
1765408209.738261,-9.927068,0.561932,0.491989,-0.049175,-0.053451,0.076358
1765408209.740242,-9.802725,0.399928,0.408895,-0.041233,-0.057116,0.085216
1765408209.743172,-9.979075,0.450143,1.044954,-0.038485,-0.047342,0.079565
1765408209.745177,-9.965326,0.572692,1.086800,-0.039706,-0.044135,0.076664
1765408209.747297,-9.866092,0.676112,0.523673,-0.046731,-0.057879,0.077122
1765408209.750269,-10.147655,0.806432,0.701817,-0.045204,-0.062308,0.077580
1765408209.752269,-9.953370,0.627690,0.574486,-0.041386,-0.055589,0.089797
1765408209.755253,-9.904947,0.294118,0.738283,-0.045968,-0.055131,0.090408
1765408209.757220,-9.891200,0.410091,0.697035,-0.051160,-0.050702,0.074067
1765408209.758241,-9.819464,0.587040,0.539216,-0.049633,-0.053756,0.074526
1765408209.762236,-9.969511,0.870397,0.929579,-0.044135,-0.053756,0.080023
1765408209.765243,-9.890003,0.847680,0.760999,-0.044135,-0.053298,0.088270
1765408209.768221,-9.970109,0.399330,0.752032,-0.047953,-0.059559,0.094837
1765408209.770220,-9.891200,0.121951,0.474055,-0.044746,-0.064752,0.084605
1765408209.771242,-9.947989,0.289335,0.449546,-0.045662,-0.049480,0.075595
1765408209.774254,-10.116570,0.795672,0.833333,-0.045662,-0.049480,0.067348
1765408209.777234,-10.121950,0.930177,1.036585,-0.049480,-0.045051,0.080787
1765408209.780224,-9.925871,0.710186,0.920612,-0.044288,-0.057421,0.097280
1765408209.783215,-9.842180,0.313845,0.669536,-0.047800,-0.067195,0.090103
1765408209.785159,-9.886416,0.439981,0.637853,-0.048564,-0.054062,0.079260
1765408209.788204,-9.692131,0.657580,0.331779,-0.045509,-0.054062,0.081245
1765408209.790223,-9.753705,0.852463,0.600191,-0.045509,-0.063835,0.081245
1765408209.793243,-9.964130,0.835724,1.036585,-0.050549,-0.054825,0.083536
1765408209.795225,-9.599473,0.515304,0.377810,-0.045968,-0.056352,0.092699
1765408209.796229,-9.599473,0.515304,0.377810,-0.045968,-0.065515,0.092699
1765408209.800196,-9.910329,0.693448,0.856050,-0.048258,-0.054367,0.074678
1765408209.803189,-9.927068,0.851267,1.103539,-0.048106,-0.047800,0.090866
1765408209.805193,-9.702294,0.532042,0.593018,-0.049480,-0.067042,0.093768
1765408209.808187,-9.677187,0.539813,0.357484,-0.050091,-0.067042,0.081092
1765408209.808687,-10.048421,0.765782,0.942133,-0.047647,-0.062308,0.079412
1765408209.813191,-9.931850,0.818986,0.868603,-0.049175,-0.053603,0.086896
1765408209.815186,-9.727402,0.787303,0.474653,-0.059712,-0.063377,0.088728
1765408209.817215,-9.912122,0.544596,0.653993,-0.059101,-0.055436,0.084910
1765408209.820261,-9.933643,0.490794,0.785509,-0.048717,-0.055436,0.090103
1765408209.821285,-9.832614,0.543400,0.894309,-0.052229,-0.050702,0.085827
1765408209.826216,-9.866092,0.712578,0.781922,-0.057269,-0.055283,0.075595
1765408209.828195,-9.862504,0.808226,0.704208,-0.052076,-0.062766,0.084299
1765408209.828695,-9.819464,0.602582,0.447154,-0.049175,-0.066126,0.094684
1765408209.833210,-10.022716,0.507532,0.802248,-0.053909,-0.062461,0.087506
1765408209.835203,-10.074127,0.595409,1.046150,-0.051771,-0.048258,0.080634
1765408209.836196,-9.999999,0.705404,1.030607,-0.054672,-0.059254,0.087506
1765408209.840247,-9.850550,0.650406,0.921808,-0.053603,-0.059254,0.088575
1765408209.843222,-9.850550,0.650406,0.921808,-0.053603,-0.063072,0.088575
1765408209.845222,-9.629362,0.491392,0.345528,-0.042913,-0.064446,0.090866
1765408209.847181,-9.565996,0.551172,0.460904,-0.047800,-0.065515,0.083230
1765408209.850195,-9.783595,0.752032,0.489000,-0.054214,-0.062003,0.077885
1765408209.852185,-10.135699,0.728120,0.976805,-0.052382,-0.056047,0.089186
1765408209.855273,-10.135699,0.728120,0.976805,-0.052382,-0.046578,0.089186
1765408209.860575,-9.879841,0.632472,0.824964,-0.052382,-0.059254,0.090561
1765408209.861075,-9.750119,0.663558,0.671927,-0.056505,-0.058185,0.083994
1765408209.862254,-9.883428,0.877571,0.589431,-0.049175,-0.059407,0.088423
1765408209.865193,-9.986848,0.720947,0.826757,-0.052993,-0.059407,0.095448
1765408209.867249,-10.185316,0.719751,1.188426,-0.053603,-0.056658,0.090255
1765408209.870204,-9.985652,0.430416,0.847083,-0.059865,-0.055436,0.095906
1765408209.873195,-9.845766,0.491392,0.619321,-0.054825,-0.060323,0.087965
1765408209.875207,-9.953370,0.702415,0.801650,-0.053909,-0.055436,0.083841
1765408209.876179,-9.729793,0.738881,0.529053,-0.052076,-0.058338,0.098807
1765408209.878164,-9.573170,0.485414,0.328192,-0.051924,-0.068722,0.096364
1765408209.882290,-9.738162,0.511717,0.622908,-0.057269,-0.064446,0.085368
1765408209.885223,-9.825441,0.616930,0.796867,-0.054062,-0.052382,0.085979
1765408209.887243,-9.849353,0.786107,0.920612,-0.052229,-0.055589,0.088270
1765408209.890229,-9.992227,0.937948,0.787900,-0.058490,-0.062614,0.087965
1765408209.891220,-10.121950,0.835724,0.878766,-0.056047,-0.057879,0.096059
1765408209.895174,-9.879243,0.386179,0.735294,-0.052229,-0.053298,0.104458
1765408209.898252,-9.788378,0.447154,0.761597,-0.051924,-0.057879,0.092241
1765408209.900171,-9.788378,0.447154,0.761597,-0.051924,-0.059254,0.092241
1765408209.903174,-10.249879,0.802248,0.893711,-0.054825,-0.055436,0.091783
1765408209.905165,-9.875058,0.451937,0.418460,-0.049327,-0.064752,0.102320
1765408209.908156,-9.849353,0.406504,0.658776,-0.050396,-0.055589,0.089034
1765408209.908656,-9.744141,0.474653,0.912841,-0.047342,-0.042302,0.087201
1765408209.913170,-9.830223,0.551172,0.956480,-0.049786,-0.050244,0.088117
1765408209.915232,-10.035867,0.762793,0.888929,-0.045662,-0.061392,0.085063
1765408209.917185,-9.993423,0.692252,0.624103,-0.048717,-0.060934,0.092088
1765408209.920152,-9.955164,0.526064,1.013869,-0.044135,-0.052076,0.098502
1765408209.922351,-9.598277,0.500956,0.393352,-0.043524,-0.055589,0.091477
1765408209.925181,-10.035269,0.745457,1.123864,-0.051465,-0.052840,0.086896
1765408209.928197,-10.023911,0.724534,0.986370,-0.040012,-0.049327,0.091324
1765408209.930218,-9.910329,0.557150,0.883548,-0.043830,-0.057269,0.104458
1765408209.931272,-9.722619,0.456121,0.648015,-0.046273,-0.057879,0.089797
1765408209.935186,-9.939621,0.771760,0.769369,-0.042913,-0.057879,0.082620
1765408209.937203,-9.894786,0.630081,0.828551,-0.039859,-0.058490,0.094990
1765408209.940167,-10.019128,0.763391,0.938546,-0.035430,-0.051771,0.092088
1765408209.941207,-10.019128,0.763391,0.938546,-0.035430,-0.054520,0.092088
1765408209.945190,-9.802725,0.497370,0.784314,-0.046120,-0.055131,0.087812
1765408209.948277,-9.843973,0.873984,0.656982,-0.039401,-0.055131,0.084605
1765408209.950465,-9.967718,0.966045,0.923003,-0.044440,-0.059865,0.095448
1765408209.952621,-10.032280,0.816595,0.857245,-0.042302,-0.053298,0.095295
1765408209.955191,-9.940218,0.659373,0.788498,-0.039859,-0.052534,0.100029
1765408209.956200,-9.779410,0.538020,0.866810,-0.042761,-0.053603,0.093157
1765408209.960216,-9.670013,0.714969,0.487805,-0.042913,-0.055741,0.086896
1765408209.962252,-9.771639,0.845289,0.668340,-0.040623,-0.055131,0.092852
1765408209.965268,-9.757292,0.791487,0.670732,-0.043066,-0.051618,0.101251
1765408209.968191,-9.634145,0.608560,0.588235,-0.045204,-0.050091,0.102778
1765408209.968691,-9.722619,0.582855,0.835724,-0.050244,-0.052382,0.086285
1765408209.973261,-9.803921,0.813606,0.670732,-0.046273,-0.048717,0.089492
1765408209.975155,-9.801530,0.746652,0.469871,-0.045662,-0.059865,0.100335
1765408209.977208,-9.993423,0.538020,0.919416,-0.047037,-0.038943,0.095142
1765408209.978196,-9.857722,0.760999,0.938546,-0.036041,-0.038943,0.096669
1765408209.981196,-9.948587,0.881755,1.099952,-0.036041,-0.046731,0.096669
1765408209.983173,-9.992825,1.100550,0.969632,-0.048564,-0.050855,0.091630
1765408209.988157,-9.774031,0.805237,0.520086,-0.048564,-0.056810,0.091630
1765408209.990247,-9.854136,0.502152,0.756815,-0.041386,-0.049480,0.104763
1765408209.991204,-9.784791,0.700024,0.631277,-0.044593,-0.049480,0.086896
1765408209.995171,-9.784791,0.700024,0.631277,-0.044593,-0.046120,0.086896
1765408209.997229,-9.930654,1.096365,0.807030,-0.039706,-0.044746,0.104458
1765408210.000193,-10.040051,0.895504,1.044357,-0.044593,-0.057116,0.102778
1765408210.002213,-9.906144,0.754424,0.957676,-0.046578,-0.055131,0.096822
1765408210.005240,-9.878048,0.844094,0.777738,-0.046884,-0.055131,0.095142
1765408210.007284,-10.164392,1.050932,1.163319,-0.050091,-0.060934,0.091019
1765408210.010184,-10.159015,1.178862,1.122668,-0.053603,-0.058185,0.092088
1765408210.013164,-9.823050,0.925992,0.622908,-0.055894,-0.058185,0.104153
1765408210.015193,-9.823050,0.925992,0.622908,-0.055894,-0.054367,0.104153
1765408210.018144,-10.034670,1.030009,1.113104,-0.053145,-0.051313,0.093768
1765408210.019183,-9.944403,0.811812,0.982783,-0.052534,-0.058643,0.105374
1765408210.023282,-9.889405,0.704208,0.622908,-0.053756,-0.055589,0.092852
1765408210.026186,-9.977880,0.828551,0.872788,-0.055283,-0.055589,0.086437
1765408210.028149,-9.702294,0.945720,0.790292,-0.050396,-0.047647,0.093462
1765408210.030211,-9.590506,1.003108,0.628288,-0.052993,-0.057421,0.095600
1765408210.033191,-9.697512,0.838713,0.588235,-0.056505,-0.062766,0.094379
1765408210.035192,-9.794952,0.768173,0.652798,-0.049633,-0.054214,0.092088
1765408210.037208,-9.860114,0.701219,0.756815,-0.051160,-0.054214,0.092241
1765408210.040200,-9.860114,0.701219,0.756815,-0.051160,-0.049175,0.092241
1765408210.041152,-9.813485,1.009086,0.884744,-0.054367,-0.065821,0.093004
1765408210.045163,-9.717837,0.749641,0.567910,-0.056352,-0.065821,0.100487
1765408210.048199,-9.615016,0.719751,0.244500,-0.056658,-0.055741,0.091019
1765408210.050201,-10.069344,0.938546,1.021640,-0.056810,-0.055741,0.084758
1765408210.052195,-9.941415,1.041368,1.038976,-0.056810,-0.047037,0.084758
1765408210.056377,-9.940218,1.099354,1.041368,-0.056658,-0.057574,0.092699
1765408210.057244,-9.782400,1.053324,0.801052,-0.060170,-0.056810,0.093768
1765408210.058204,-9.748923,0.851267,0.690459,-0.060170,-0.063530,0.097128
1765408210.062195,-9.787182,0.781922,0.678503,-0.059559,-0.066890,0.090408
1765408210.065314,-10.013150,1.066475,1.021042,-0.064752,-0.054825,0.089950
1765408210.068182,-10.011955,0.986370,1.077236,-0.065363,-0.051313,0.095600
1765408210.070173,-9.904350,0.955284,0.917025,-0.061850,-0.054825,0.094531
1765408210.072175,-9.860114,0.734696,0.877571,-0.061850,-0.065057,0.094531
1765408210.075147,-9.942610,0.658776,0.894907,-0.063377,-0.064599,0.097128
1765408210.077197,-10.001194,0.619919,0.861430,-0.060170,-0.069180,0.095142
1765408210.080202,-10.033475,0.627690,1.031803,-0.062919,-0.063072,0.089492
1765408210.083206,-9.872069,0.906265,1.000717,-0.059101,-0.055436,0.084452
1765408210.085200,-9.738760,1.030009,0.859636,-0.062003,-0.057421,0.094226
1765408210.087201,-9.815877,0.860832,0.905069,-0.061545,-0.068111,0.102625
1765408210.090174,-9.898971,0.710186,0.888331,-0.059254,-0.064904,0.096975
1765408210.093192,-9.854136,0.584051,0.917025,-0.057574,-0.066279,0.098197
1765408210.095172,-10.039454,0.685079,1.090387,-0.055131,-0.064752,0.089644
1765408210.098195,-9.994021,0.793878,0.998326,-0.056810,-0.069028,0.094073
1765408210.098695,-9.783595,0.792683,0.683883,-0.057879,-0.069333,0.098655
