time,acc_x_g,acc_y_g,acc_z_g,gyro_x_rad_s,gyro_y_rad_s,gyro_z_rad_s
0.0,0.0,3.708153,-8.804399,-0.008705,-0.011148,-0.000153
0.0025,-2.0830093663961815,3.744478239045346,-8.710684646109785,-0.010391795226730309,-0.019548,4.793326968973756e-05
0.005,-2.615856066234509,3.333101508369876,-8.487733959199238,-0.009525660133460437,0.010932640076263106,0.005325725185891324
0.0075,-3.211939581696854,3.7012791611058153,-8.604175936396569,-0.011330274585319362,-0.0014712227264060988,-0.0178112227264061
0.01,-3.7570778664244187,3.4915327866279067,-8.813218337994186,0.0764589322383721,-0.08357106279069768,-0.03607258773255814
0.0125,-4.372461387035271,3.453640677407054,-8.901463933269781,0.11058548179218303,-0.21424190600571977,-0.03883796053384173
0.015,-4.812896199580153,3.18605451832061,-8.389331148206107,0.14106761965648854,-0.3453590422519084,-0.03198456507633588
0.0175,-4.296720310200194,3.9656009618303116,-8.84609710791229,0.11896108716873206,-0.489574764461392,-0.059778100171591964
0.02,-4.125541865610686,3.8273301256106866,-9.12428951038168,0.08814677446564885,-0.6382952355725191,-0.1004455864503817
0.0225,-4.819061523393708,3.5391506362249756,-8.5465778935367,0.08893784095328887,-0.8052701873784556,-0.18956031809342228
0.025,-5.198411708771934,3.2757235578947372,-8.603764259649118,0.08404558947368425,-0.9639348666666667,-0.26651072514619895
0.0275,-4.62231655420414,3.737897980442541,-9.115231448251249,0.08859151223411849,-1.0926341367594574,-0.3486859304211278
0.03,-5.169509951065288,3.384944627079036,-8.34841668123712,0.08310533172966776,-1.2352911585796105,-0.4497065175257731
0.0325,-5.742500759656489,3.188660126564884,-8.46369239492366,0.08087638236641222,-1.3688476066412214,-0.5060652679770993
0.035,-6.528507242478559,2.3292334715347964,-7.97086418768351,0.09525550219256433,-1.5410043682745476,-0.5821463137082937
0.0375,-4.947163546324062,3.4612397201998553,-9.038234254675219,0.121104,-1.623352788579586,-0.643454571448965
0.04,-5.81760189494757,2.866398303374644,-8.450745600343183,0.12757576224976175,-1.6850825998856054,-0.7023277132888466
0.0425,-7.287179697387972,2.50191820285986,-7.881806635996211,0.12872346577693028,-1.8202440019447097,-0.7406717828408012
0.045,-6.715321465843917,2.0883862171324896,-7.550779668892927,0.16464158693284928,-1.8563273243557168,-0.7746846061705989
0.0475,-7.234585790687021,3.1236589594656494,-6.929203088396949,0.1790838103816794,-1.8671705131297711,-0.8169614485496183
0.05,-6.96560670851825,3.086022469291338,-7.76258016936293,0.18478672297780954,-1.935347937294202,-0.8677391710808876
0.0525,-6.602136531935178,1.869552897845569,-8.245163235081035,0.19654792091515733,-1.9884074423641565,-0.8579517570257387
0.055,-7.947354636332378,1.2606915722636105,-7.215043262349572,0.20084224922636104,-2.076025,-0.8958334995988538
0.0575,-7.1026419800428275,2.4297851016702343,-6.614665884539613,0.23784201970021407,-1.988366,-0.879822348608137
0.06,-9.105911589806725,1.3739947566213278,-5.537340849792418,0.24428454405153896,-1.9763557535289906,-0.8842269609162491
0.0625,-8.318493112776588,2.1433559164882228,-6.6498959243397575,0.25288475089221985,-2.005949300499643,-0.8650850471092077
0.065,-9.274582602287895,1.0660091261391746,-6.192195386692084,0.2628946244041943,-2.0103052282173497,-0.8150934057197332
0.0675,-8.8923957896282,1.7391572183794184,-5.261016932469035,0.2623608659675884,-2.062151723546235,-0.8275163081792182
0.07,-9.105646608933407,0.7962688874158907,-4.115434953042288,0.2648780304366501,-1.9938475027344311,-0.7551656241374377
0.0725,-8.944919654903643,1.2934151595717387,-3.7065319518629702,0.27985404359743055,-1.9742768490792297,-0.7407289935760173
0.075,-8.882844611248798,1.405003801334606,-4.764649790467123,0.2893870739752145,-1.971972976739752,-0.6643960348903719
0.0775,-8.85820689372736,0.8157912804575779,-3.6921569843660613,0.2863551294184938,-1.9346566235271687,-0.6367795015443279
0.08,-8.441875584122126,1.1822744574045714,-4.351559908854978,0.29968155877862596,-1.940108,-0.5573276888549618
0.0825,-10.286942,0.520086,-0.982783,0.303295,-1.7425923159541983,-0.510683
0.085,-10.25797840200572,0.2781095153868138,-1.159233967478521,0.33054892383954143,-1.65407,-0.42405172389684825
0.08750000000000001,-10.136578868349437,0.3235853680536434,-1.1962074280023707,0.32901053772431493,-1.6457104672451193,-0.39147564231906923
0.09,-8.839884113555756,0.36679691649189916,-0.9969668468255608,0.3219124774833175,-1.4659281860438516,-0.2899751402478552
0.0925,-8.32007855603432,0.35663591809342365,-1.7066776697426116,0.31444709918017166,-1.300227689685415,-0.2343148518207818
0.095,-8.055129925419845,0.16662917580152695,-0.4741630011068733,0.33105296041984733,-1.1816472460305343,-0.17713680393129766
0.0975,-7.501820456259545,0.6157437746564826,-1.3422675483206001,0.34155589526717534,-1.0076459039694656,-0.08593065480916032
0.1,-8.543621569715151,0.545382870764624,0.09535941259370619,0.33096097031484245,-0.8220374452773612,-0.024808594902548615
0.10250000000000001,-7.448862748931272,0.5791624159923598,-0.5474883760305582,0.32452926564885487,-0.6354495827480912,0.0218732032442752
0.105,-8.141575480724487,0.9142481787988522,0.07027896880836648,0.3087170834318402,-0.4590265256816024,0.040223332621544594
0.1075,-7.795706558169691,1.5546142613536684,-0.19839271298378708,0.2595071884842709,-0.30537930623450926,0.03237888945662537
0.11,-8.396699,1.449067,0.047824,0.162643,-0.17433931022646004,0.021686
0.1125,-8.48008526769964,0.952551768772347,-0.5019276212157375,0.03288415899880801,-0.07361097020262201,0.011875878903456514
0.115,-9.467714005496182,-0.08022166167939643,0.3688411429007588,-0.04848397557251902,-0.012937343816793855,2.20552671754626e-05
0.11750000000000001,-9.950065389389314,0.07906712805342817,0.1527733399999988,0.0,0.00020607278625937885,-0.005097604618320509
0.12,-10.020628638569727,-0.4650299975208606,0.2237523636710372,-0.009274928152562744,-0.010181623980929647,0.011074486769964361
0.1225,-10.016169410822409,0.17121980405244397,0.4094158087723505,0.004612287342073903,-0.012309607723480357,0.0059556544934445685
0.125,-9.858342912991658,0.15747586174016687,0.3903213146603099,-0.01207353516090584,-0.0096676758045292,0.00026053992848629323
0.1275,-10.095885829272945,-0.11610903856972545,0.5261036101072707,-0.011979113087008305,-0.006453848343265777,-0.005839335113230061
0.13,-10.066704349094376,-0.07605558821735009,0.4596954698951393,-0.014631943794089537,-0.007178,-0.003947030200190642
0.1325,-9.998070934684149,-0.08654553716328756,0.42593444538736563,-0.004231936114422032,-0.007259395184743747,4.941759237184586e-05
0.135,-9.881180952831684,0.04913325291089074,0.30250319398020353,-0.005812046970297002,-0.008528494455445618,0.00015479992079207362
0.1375,-9.916206251013115,-0.0007780197854605035,0.2697035895113301,-0.010885015017878384,-0.007986264600715401,-0.0005673051251488767
0.14,-9.798659814016688,-0.03374528710369173,0.197752691013115,-0.00799510545887965,-0.007010040047676028,-0.002481809106078716
0.14250000000000002,-9.901509894606209,0.01624129145585186,0.32416596706444034,-0.0072490956563247486,-0.0017637830071590855,0.0013098343675419202
0.145,-10.027431881954712,-0.01776664400476967,0.43811657601907866,-0.010517281048867814,-0.004429,-0.00041586026221693257
0.1475,-9.991624327389742,-0.006571909368295264,0.4189273247675691,-0.0104833471752086,-0.009543355041716203,-0.003282355041716204
0.15,-9.847825968057212,-0.06808297473182483,0.23599783361144194,-0.010409808104886833,-0.003597127294398127,-0.0001784383790226333
0.1525,-9.65447,-0.179938,0.569106,-0.008094,-0.004825275756853443,0.000305
0.155,-10.028359351344138,0.16152889571019735,0.5618549881410871,-0.004387707454718761,0.005507800800762583,-0.014506369723546252
0.1575,-9.813189768867701,-0.07999393268176336,0.32611562908224295,-0.007797447771156141,0.0029220540166865674,-0.006298026030989286
0.16,-10.07063497492248,0.031316227480623265,0.2931189942635653,-0.005499288565891469,0.004884418643410861,-0.006103837286821722
0.1625,-10.137873143265795,-0.10055933182359975,0.5349520774731851,-0.008176865792610212,0.001808942550655483,-0.0020883587604291756
0.165,-10.115182841422584,-0.12640433941803397,0.45915963476948757,-0.00882961004909591,-0.0027858809244401947,-0.00015015728894743086
0.1675,-9.872519767370889,-0.1484896744782991,0.16814283731027221,-0.007697556867372511,-0.0051580044225329425,-0.0007066123462377888
0.17,-9.825786026697772,-0.03772267753178501,0.13484884982153375,-0.009251415257202838,-0.007075211701854666,-0.0037821143683657954
0.17250000000000001,-9.931900038079272,0.07854031628307945,0.3397748999640772,-0.007475194803017591,-0.008094,-0.0023342200646628954
0.17500000000000002,-9.985283985665852,0.01713722335409572,0.42252884219821774,-0.006422053520460462,-0.006432938200741124,0.00045288222029489733
0.1775,-9.928697858307586,-0.02919857474752117,0.332330614267928,-0.007116618621166699,-0.004311936638229175,0.001622421766197841
0.18,-9.837596729368963,-0.07966263569864762,0.20070617619446227,-0.008446898898905344,-0.007025,0.0003028423824855109
0.1825,-9.84031146365807,-0.12125125364851963,0.25235384790830917,-0.008664037402101242,-0.007645223333333328,-0.00012575321872014642
0.185,-9.94089255504886,-0.06943501854929696,0.3538915537205053,-0.009121844360054022,-0.008799934821641379,-0.0024966361833637877
0.1875,-9.954822829792256,0.019632423748819638,0.309013630075543,-0.009531629603399434,-0.00717504792256846,-0.002439819877242682
0.19,-9.868549703763883,0.047557719024625786,0.2275987786117817,-0.007245643877353935,-0.005480781673104779,-0.0009029975325929491
0.1925,-9.851606084301249,0.03380636895046302,0.2215871232799036,-0.006736883875956505,-0.004264693538461539,0.000181190337494966
0.195,-9.968694255279548,-0.04319574805819443,0.3662884091282919,-0.007722891980281369,-0.004941845275940848,0.00031186687988457427
0.1975,-10.010593489221229,-0.14499194270721522,0.4648725429218838,-0.012226217125819908,-0.006710782874180092,-0.00037540106857484814
0.2,-9.954316766528354,-0.09953249220839058,0.3524308583679112,-0.009753472475795286,-0.006895305670816033,-0.0025089768556938704
0.2025,-9.863051283096336,-0.01881631819461263,0.2870396117350153,-0.007553735316670704,-0.004420484794952674,-0.002627738335355489
0.20500000000000002,-9.841637488267397,0.02215996452837306,0.29249494487394984,-0.009468,-0.005326477616844487,-0.000611
0.20750000000000002,-9.88691506133132,0.00854758474931536,0.3259348265546221,-0.009468,-0.004873028643187609,-0.000611
0.21,-9.93195298428187,-0.006853105671641481,0.3588074419965745,-0.009358120587227813,-0.004388304908245663,-0.0006272833667726915
0.2125,-9.945868656470587,-0.08825193411764701,0.3481134258823531,-0.005567908235294116,-0.002902,-0.0012663482352941171
0.215,-9.917501,-0.102224,0.310856,-0.006109,-0.0035378386198083047,-0.001374
0.2175,-9.905606870524931,-0.07413959474829612,0.3250634602798039,-0.006024436718880784,-0.004945131852206146,-0.0018382689943800062
0.22,-9.902952074378081,0.01911060197526875,0.3639806356712196,-0.005803,-0.005114922515153964,-0.003054
0.2225,-9.940876394465132,0.04130919356263798,0.3588823136636162,-0.0054042085515935605,-0.004183497153676237,-0.002471181868097188
0.225,-9.879257431759655,-0.01096326866952791,0.3195917090128751,-0.0042852120171674125,-0.003207,-0.0005163682403433714
0.2275,-9.839067176078997,-0.06357841022286242,0.270931178783515,-0.007665617096619355,-0.0026576914516903225,-0.0013752858588767709
0.23,-9.864544800069842,-0.09010027886349199,0.2866619743492066,-0.009187670869841277,-0.003361128247619057,0.0006443935365079491
0.2325,-9.93023648092838,-0.07048153932715966,0.3542618120407929,-0.009312482048997747,-0.005010534933770949,0.0017840415332317171
0.23500000000000001,-9.975262204691358,-0.04436235876543194,0.40760431262786595,-0.005919602328042322,-0.004251401552028214,-0.0025407536155203003
0.23750000000000002,-9.918216149096098,-0.022721461322549937,0.36679298596574583,-0.005554630447193164,-0.003665,-0.004947463130352047
0.24,-9.865787096555012,-0.019872004229348,0.2133947417809033,-0.007615583540350461,-0.003705832919299078,-0.004987790826081794
0.2425,-9.895489098726676,-0.008861850426843933,0.3065731372339228,-0.0071477269031793075,-0.003734936196043895,-0.00042975714583166696
0.245,-9.99503980593174,-0.007658785691520827,0.47857375567130456,-0.007093225063622307,-0.000305,0.00015157735283625296
0.2475,-10.07293,-0.076518,0.484218,-0.008247,-8.890516354398298e-05,-0.002443
0.25,-10.023958904148783,-0.07328656843109203,0.43276105960896516,-0.008119963280877445,0.0007321888412017167,-0.002824110157367668
0.2525,-9.823369278272615,-0.04245869394245597,0.23195922731053553,-0.006990675051853427,-0.0018257470042014599,-0.0034875302451736418
0.255,-9.843967152541728,-0.01949551841678581,0.27242988295660636,-0.0058914325035765245,-0.0038788943633762257,-0.0027068460467334324
0.2575,-9.95869414678546,-0.01152737132878525,0.40090655393748087,-0.00577164267793504,-0.00168,-0.0023623891884736767
0.26,-9.959333157818959,-0.009612473603502692,0.38303506490785044,-0.006994678833112722,-0.00168,-0.0015472096996232533
0.2625,-9.911630383431762,0.0006540447536603246,0.32164368259849496,-0.006921108745247146,-0.001659658441873641,-0.0013192174904942918
0.265,-9.88964862542218,-0.08388234330015229,0.2568518152898471,-0.006361333224030904,-0.0030904820236561745,-0.00038199696920015953
0.2675,-9.941892395419849,-0.08710770191080744,0.35260974222579394,-0.004855630836480527,-0.003815510794696647,-0.0033669647344315035
0.27,-10.034680037711013,-0.06446271010014136,0.41647970643776505,-0.006809623805436316,-0.000916,-0.004341265636623824
0.2725,-9.961142,-0.021521,0.335964,-0.006261,-0.000847705662505875,-0.006261
0.275,-9.961142,-0.021521,0.335964,-0.006261,-0.0007644636130986571,-0.006261
0.2775,-9.941927048113387,0.0036702231622044914,0.35982602977322964,-0.007178,-0.006567,-0.004492335300787385
0.28,-10.061625617219471,-0.02129606268390037,0.4888872628626645,-0.007122786621572607,-0.006518984949873132,-0.002746595318275152
0.28250000000000003,-10.11425697181322,-0.11574768992722842,0.44762231843541367,-0.0035838681746512995,-0.003512,-0.0031912029108550942
0.28500000000000003,-9.999266528538506,-0.09864156189811986,0.29414328580957966,-0.003219823444511821,-0.003512,-0.005861924075197122
0.28750000000000003,-9.80506507734462,-0.01837778917353494,0.15304858554986311,-0.006112604915719918,-0.0037850508947798764,-0.004957092626420124
0.29,-9.832063164687014,0.009549977937179547,0.19121606675874328,-0.006825826580530179,-0.0071144568322566,-0.003887260129204731
0.2925,-9.985167694473876,-0.006109765365734227,0.3668075836986632,-0.005570357287970841,-0.007185758347509107,-0.002216066566221192
0.295,-9.925874106724262,-0.08824142666666648,0.2777233199904012,-0.006679526969042485,-0.0024461180129589626,-0.0008355716438684768
0.2975,-9.889019189287257,-0.11795107999999985,0.2145432817854575,-0.0054301437580993595,-0.0025423695896328287,-0.0030449542404607515
0.3,-9.907055975467744,-0.11381804985637783,0.20088883130191734,-0.004734,-0.00463300979737596,-0.004441094759723622
0.3025,-9.992268249705742,-0.062260584997614374,0.2673346333100043,-0.004406477913154134,-0.008110413278193099,-0.004979820343566085
0.305,-10.067650217547644,0.005520224063286667,0.39463867208917697,-0.002937072161093126,-0.007354370169003978,-0.006068069715929529
0.3075,-9.95197991698488,-0.015448870097043575,0.25410487164974066,-0.005130737413676368,-0.0004465061430828282,-0.003296260600315961
0.31,-9.894233446244382,-0.009328177062525539,0.21578425897180215,-0.006555267436044135,-0.0013063210069472783,-0.0018643387592970973
0.3125,-9.986568432487676,-0.01855594673560178,0.334930294096429,-0.0056988335938439345,-0.004400275580137069,-0.003381531561861248
0.315,-10.06183399998722,-0.07184937124600646,0.45683803357188485,-0.0021632442555910556,-0.002596,-0.004999188549520767
0.3175,-9.989238,-0.133907,0.349115,-0.00336,-0.0035246616819450054,-0.005498
0.32,-9.98728261635323,-0.12943247044971332,0.34474617403107066,-0.0033689878986099767,-0.007559499721995086,-0.005516005265739986
0.3225,-9.943904218329834,0.01772371572928444,0.23848922520432952,-0.0037188018284606693,-0.005684391180746255,-0.0053302800710708954
0.325,-10.046371819501346,0.01589310195481667,0.4173094815170319,-0.0038906681259510576,-0.008689945990869715,-0.001720165937024471
0.3275,-10.13537009196009,-0.018272208564531933,0.4699619751786284,-0.002073407486321224,-0.007809730878661078,-0.003147829694238822
0.33,-10.008183985337043,-0.06307229872443472,0.37599778157569735,-0.004549814096575087,-0.005870614851748775,-0.0043956027060389966
0.3325,-9.863037981181108,-0.11924431727193872,0.18418391185366223,-0.004207751393203517,-0.008361761655759695,-0.007969851319088549
0.335,-9.851049344388237,-0.10023908564443755,0.17105326638751225,-0.006379985061115809,-0.01076371141232,-0.008710681534551616
0.3375,-9.979680681065503,0.053895150323234255,0.3186516704416228,-0.004926234348469486,-0.011501717968689108,-0.008226141817898566
0.34,-9.943728331433336,0.09200085788156726,0.27786067658763147,-0.0026666028356964544,-0.00672,-0.005625322421065158
0.3425,-9.859817031375213,0.016368800158459824,0.19065972009054905,-0.005900047085455572,-0.006663863633276737,-0.004092732156196927
0.34500000000000003,-9.881195764647522,-0.06103935368146254,0.20449295206266507,-0.005629979477806781,-0.006595857284595358,-0.002735907832898216
0.34750000000000003,-10.035013964601532,-0.09451956993246324,0.3707982368932935,-0.004939838108959914,-0.00937580186402516,-0.006575410076542147
0.35000000000000003,-10.006053194768862,-0.0032590657053889493,0.38251485566466964,-0.0015331632383233584,-0.006883092215568871,-0.007307823635928125
0.3525,-9.936388568044073,0.017160413564550735,0.30323999850538985,-0.001916929496526943,-0.007573771017964067,-0.005926968342994023
0.355,-9.869026646682169,0.03485444205115715,0.22484386510341484,-0.002246419777261058,-0.008187570510341469,-0.004536452199241232
0.3575,-9.922042522246729,-0.0351187481887435,0.2598547723934036,-0.0008265398067083593,-0.006951641096077304,-0.002893449355315528
0.36,-10.034028937493053,-0.06593398412781719,0.433186704760729,0.0026526492682927027,-0.006147523470206846,-0.003990261735103423
0.3625,-10.009355513646188,-0.07270731891015743,0.35577531447977806,-0.0010557292682926668,-0.007630227415869089,-0.004731613707934544
0.365,-9.962341999872713,-0.08807416431307746,0.3019536710776576,-0.0028397682883544413,-0.007863907415702833,-0.006126060417355113
0.3675,-9.941053495759325,-0.08085898277095892,0.30112377588768513,-0.00399677027837946,-0.008414891138387478,-0.007896366100280779
0.37,-10.022987890968622,0.005090197298772157,0.4478568740109141,-0.004875725388813091,-0.010980224092769442,-0.010090274611186908
0.3725,-10.025398199256308,-0.0011503389110225238,0.3940820282071715,-0.0067716916865869885,-0.01069,-0.007364491739707836
0.375,-9.89930014621653,0.0024990551804423746,0.2510687713620489,-0.005365580675203725,-0.011619727939464494,-0.006570437601862631
0.3775,-9.956948633033761,-0.027055163138533202,0.3320691311478464,-0.0059246584493597215,-0.011992649904540164,-0.006663820679860303
0.38,-10.046021396831305,-0.10822847359580054,0.4226020937819135,-0.005160432488666187,-0.012327152049630157,-0.007822811787162971
0.3825,-9.969741933829635,-0.1093499820472441,0.3448270776807442,-0.00382312904795991,-0.010511972168933424,-0.009255190121689337
0.385,-9.91754783287443,-0.06261677951438377,0.27811389943424936,-0.0035991435275262483,-0.008759349114512375,-0.010569879076849111
0.3875,-9.896051104151056,0.029001466431889823,0.24105832174434294,-0.004665667031320248,-0.007539444687546831,-0.01108766291023527
0.39,-9.868339973085568,0.05577370320695354,0.25186149872621016,-0.005026296721114943,-0.007779864480743295,-0.0095272913112543
0.3925,-10.015115750545206,0.00019736598925556778,0.44505487627843276,-0.001222,-0.012784341556749323,-0.006109
0.395,-10.046257610789786,-0.05013942826200077,0.5085459198533925,-0.0012574308441711994,-0.009988697079687853,-0.006429276183494922
0.3975,-9.972145057505319,-0.09127167528020841,0.4110883554930236,-0.0013516514353275014,-0.00771686506266255,-0.007280980737763071
0.4,-9.820659,-0.08429,0.200861,-0.000458,-0.009463127502168989,-0.006261
0.4025,-9.858290619385444,-0.08137022742195765,0.2538481521656231,-9.893001874641756e-05,-0.014296624076941912,-0.006785947650175262
0.405,-10.020451342316601,-0.07116889946911274,0.4756639189092618,0.001543101920849425,-0.016397188667953567,-0.00895409599420844
0.40750000000000003,-9.936139113659051,-0.07500628211833588,0.3320603676344466,0.0010732864299941311,-0.01273799692091388,-0.008390633012302307
0.41000000000000003,-9.88589704058915,-0.07121960374086939,0.25416474263680877,0.0011553555933421183,-0.012515603807927192,-0.008545081197461378
0.41250000000000003,-9.875167876492123,-0.07508331497692197,0.2264323856438033,0.0014657707782906306,-0.013896713862804479,-0.008582341620245116
0.41500000000000004,-10.003847671010805,-0.07773732287154657,0.40599715298919425,0.001840885752701083,-0.01957814603601426,-0.009371459668667486
0.4175,-10.011156116745022,0.042805104187426446,0.3172870729215154,0.002231969015228419,-0.011635515492385791,-0.010570125710269421
0.42,-9.92659680115357,0.08712266558038981,0.2573387333669803,0.003054160403749136,-0.011172666128334528,-0.01124676034607067
0.4225,-9.722361115358105,0.015228472929316918,0.1504661090751367,-0.002485035212753465,-0.013131213860039827,-0.009141982393623268
0.425,-9.8801664881032,-0.053408807644529016,0.30928032709030057,-0.004673544099378884,-0.014694158050645023,-0.007941
0.4275,-9.979932376336375,-0.11610864946544984,0.3965993763363754,-0.004074346460234684,-0.011479831375488926,-0.007854604002607563
0.43,-9.99803577217412,-0.11023189167595758,0.4123035585861705,-0.003139961489740248,-0.009621,-0.007569228205432328
0.4325,-9.906144,-0.167384,0.284553,-0.002138,-0.01114171895953756,-0.008858
0.435,-10.012837315521876,-0.055639385978978294,0.30164469832314833,-0.004532551698851141,-0.015345428002933275,-0.012050594133463701
0.4375,-9.981682484722562,-0.00047914503381406987,0.3368860108367962,0.00029467424427605336,-0.007516778212336022,-0.010615241994622342
0.44,-9.911638421053498,-0.01052558608439764,0.29886528293567177,0.002809958954740747,-0.005707105618268494,-0.00919793542699076
0.4425,-9.849419063309858,0.026851849225352557,0.26999985387323955,0.0020449214084506846,-0.005192,-0.00862353830985916
0.445,-9.848158,0.066954,0.278575,0.000305,-0.00622356292487322,-0.00901
0.4475,-9.88037933172889,0.050731416821022016,0.3072162877327356,0.000705132472360205,-0.007235081573465792,-0.008495517228008325
0.45,-10.020090487596276,-0.02372006991608286,0.42787580154040644,0.0023654620071272454,-0.0074651096217956065,-0.006249086101850786
0.4525,-10.005548229612787,-0.1238363115966387,0.33952491052891753,0.0005650463140550366,-0.007479815435821399,-0.006250333564013849
0.455,-9.962522756485594,-0.13217623349078877,0.35568624167217755,0.0011887562777515518,-0.009621,-0.0077215321965045
0.4575,-9.935436,-0.123147,0.345528,0.003207,-0.010331665515094948,-0.009163
0.46,-9.936016076915662,-0.12256693824578276,0.34563676821204825,0.0031722651277108203,-0.0132952636433735,-0.009167624240963857
0.4625,-9.978886066541472,-0.08748303327073563,0.3565946403442881,0.0012198723004694957,-0.013897,-0.010131092769953078
0.465,-10.002057967114585,-0.0992546763123594,0.3739167942031028,0.0026007128522337044,-0.01389103230714536,-0.01312834498874271
0.4675,-9.888914782927896,-0.05188160285505883,0.2613194613546997,0.005422699024034989,-0.012908781267297992,-0.01092069902403499
0.47000000000000003,-9.927514814645441,0.030614025171249767,0.32962465607332414,0.004636260221900609,-0.014269547834056914,-0.01207472506512302
0.47250000000000003,-9.923154542639821,0.06840756008948617,0.3443589651006702,0.0026199142345796965,-0.013288691633109594,-0.012646671358261424
0.47500000000000003,-9.940405702153845,0.12083981169230607,0.2715246135384616,-0.0005794332307692162,-0.011301,-0.012412481846153794
0.47750000000000004,-9.882010485610223,0.017717671038338288,0.2736423022332267,1.042259424917949e-05,-0.011227355648562296,-0.009266796568690092
0.48,-9.899534770134187,-0.008316661996804926,0.26663309093610227,-0.0015239154504792223,-0.010843771137380194,-0.00901051521405751
0.4825,-10.034492943847562,-0.22258669153048063,0.36332823484369736,0.00020255615650641482,-0.013736134864040135,-0.010053404592120403
0.485,-10.03470387623811,-0.19872312491868724,0.3202919302669532,0.0006483069407793652,-0.01355437805154957,-0.013116547026695301
0.4875,-9.934840412102407,-0.12295740651667936,0.1959564512024855,0.0037916557020946247,-0.009120151073183407,-0.013621258598396692
0.49,-9.788378,-0.135103,0.048422,0.004887,-0.006886286510717776,-0.013439
0.4925,-9.788378,-0.135103,0.048422,0.004887,-0.007883287083518632,-0.013439
0.495,-10.04428936497236,0.0888325850980393,0.4515866080831564,0.005503094697850224,-0.006558086363335697,-0.01402707802882117
0.4975,-9.940926970437987,0.03907662588235298,0.32423453857973084,0.0058058019673990074,-0.006028472498936925,-0.012665143030474842
0.5,-9.837564575903613,-0.010679333333333346,0.19688246907630524,0.006108509236947791,-0.005498858634538153,-0.011303208032128514
0.5025000000000001,-9.813255298328434,-0.04402054487475147,0.22422039918569073,0.003484467632604371,-0.012007183223856919,-0.011187937355069635
0.505,-9.96035553539342,-0.039924902260371646,0.43073165224606585,0.0034561029470672484,-0.01454917413447783,-0.013205619971387673
0.5075000000000001,-9.969967649625454,-0.04861529848601503,0.409188551244797,0.0036007771564030722,-0.013723891654638323,-0.011256885501764749
0.51,-9.952783512281137,-0.0983797828287599,0.36926521370917553,0.0026035935129765336,-0.012244322731901168,-0.011755968558301253
0.5125,-9.828723430131442,-0.18919374924165844,0.17366137957532415,0.0036617844287158523,-0.016216330434782517,-0.012316160566228451
0.515,-9.971131576257394,-0.13179076290513347,0.31973428862550307,0.005596863066004247,-0.017104,-0.015137831577951271
0.5175,-10.012283284949136,-0.09471726321268098,0.38832026305654016,0.0034182213058907376,-0.017104,-0.01589567394369528
0.52,-9.905857814540465,0.027534153196160843,0.2152799710836726,0.00530839884773668,-0.016953734759945126,-0.017246545788751733
0.5225,-9.862580596452615,0.07653980779840458,0.14370631815691864,0.005054074519447322,-0.019182852156552403,-0.01570455049242196
0.525,-9.838593,0.08955629923192622,0.11762713408820996,0.004180862459418783,-0.019540507276902347,-0.014269789912107044
0.5275,-9.883033073826084,0.07303512713043425,0.22793372234782133,0.002338494086956553,-0.01734790617391307,-0.013286
0.53,-10.004956730948678,0.021847968920682442,0.4354837063701397,0.0017816853250389015,-0.01587277255365474,-0.012745123776049753
0.5325,-9.972376237128985,-0.12462031964467563,0.3603602414686753,0.0030838705768092053,-0.016957647115953975,-0.012350779708634341
0.535,-9.823625450260236,-0.11819928629958647,0.1560448081053623,0.0017792975023801809,-0.021075477238971758,-0.015175946556648718
0.5375,-9.875000092492915,-0.05530183328611902,0.103330092067988,0.002889281019829934,-0.023732918696883747,-0.015967632011331508
0.54,-9.993861286297447,-0.08748755054667043,0.23521357532108111,0.00504,-0.024819538591549273,-0.01443170855335402
0.5425,-10.04337110996654,-0.09245659949330885,0.3571703263957934,0.005534570530592716,-0.020740432103250578,-0.01416489555927343
0.545,-9.97620771539331,-0.0608979490698051,0.30904526562394746,0.005897459535665145,-0.01266400144188179,-0.0136407862654651
0.5475,-9.905569794019984,-0.17577905589546497,0.18741153770945396,0.004323109561875452,-0.014471514957724784,-0.014087153881629504
0.55,-10.060286418051145,-0.20735628412289378,0.43130101971611645,0.0092140714379829,-0.019216473570102397,-0.016397737785230914
0.5525,-10.037010128379949,-0.06319513919865896,0.42078888360543815,0.010940450682158466,-0.018353597949332216,-0.01831565783314367
0.555,-9.960544,0.08219211391106739,0.40052549483006533,0.00822684032642462,-0.01469554866416286,-0.020397769154727095
0.5575,-9.960544,0.05894034100616687,0.4467382962396253,0.007707098246394956,-0.015586257261557008,-0.018690253546622158
0.56,-9.960544,0.03568856810126533,0.49295109764918726,0.007187356166365269,-0.016476965858951195,-0.01698273793851714
0.5625,-10.029494973876206,-0.056498000470698986,0.40148670134149217,0.00504,-0.022598838079548128,-0.014661
0.5650000000000001,-10.035868174842134,-0.08478681652391425,0.3825695886214414,0.0046194471147233285,-0.0230779619381056,-0.015607071916223871
0.5675,-9.898543486137923,-0.09965891779034779,0.2575919696569982,0.003279313544349496,-0.021729083273558797,-0.01741
0.5700000000000001,-9.873524525533623,-0.07490465512758693,0.26091854590916896,0.002883436315198276,-0.022885956549510464,-0.017880820471834404
0.5725,-9.890067029916706,-0.038769562202683835,0.3821402692596014,0.005597517482646929,-0.0206910449051365,-0.01797349581675149
0.5750000000000001,-9.79957128662226,-0.03520571527164855,0.27875771482224565,0.0070748005938528445,-0.020507222341706238,-0.015375199406147157
0.5775,-9.799501476981133,-0.07199168150943414,0.29542079547169836,0.007632590943396222,-0.02371554566037735,-0.01458288075471698
0.58,-9.876699749683429,-0.10514760992815926,0.33946313975526893,0.006873497083760965,-0.022451492962816788,-0.014203747725586175
0.5825,-9.971108590191502,-0.16586990218696826,0.38983232805892215,0.00758281975750709,-0.022849638522379596,-0.015766090443059513
0.585,-9.891383531185236,-0.0858510034520736,0.2821135782642484,0.008550591113989627,-0.02077838156735757,-0.017969086560880823
0.5875,-9.82874640434197,-0.024755668504872715,0.29320242012518793,0.008866480865224612,-0.019574951572775612,-0.018092163235876712
0.59,-9.840176442556809,-0.011674194813464975,0.26920888484141087,0.007498432616356765,-0.028253,-0.017701284612954206
0.5925,-9.989201111724139,-0.007024780689656132,0.48795401900383095,0.008428415555555535,-0.02756558988505744,-0.01643580957854406
0.595,-10.02480894056468,-0.0949721552557588,0.44234285390667627,0.006677716068517385,-0.024498434395747226,-0.016193546679267572
0.5975,-9.843824216771406,-0.09645049912209093,0.27439128902854176,0.008597876876948851,-0.021973432952746452,-0.01723626762772852
0.6,-9.78880988565465,-0.06756907216825875,0.25000634125391186,0.0054620066629204565,-0.022904684771614323,-0.01850540460785103
0.6025,-9.851766604121517,-0.06167994564359469,0.3968214245537116,0.005359579655496445,-0.025620395227059205,-0.016945393385530867
0.605,-9.944738880627227,-0.018050011945829506,0.4192105941268715,0.008559921539558087,-0.026669652772630097,-0.018129509194583053
0.6075,-9.882081728036791,-0.10974012206245441,0.25230177584119295,0.008942378165093204,-0.023742111750181493,-0.017042426347131486
0.61,-9.773027164073524,-0.12053350016425476,0.053612224037543066,0.009270577567461868,-0.021263527011341418,-0.01837106971920219
0.6125,-9.872702632497594,-0.1769266617647079,0.27331920588235964,0.01056670597878505,-0.02044370417068464,-0.018620581485053075
0.615,-10.038258,-0.060378,0.466284,0.014203,-0.019552411980521014,-0.023366
0.6175,-10.038258,-0.060378,0.466284,0.014203,-0.01970361791877453,-0.023366
0.62,-10.033995770791096,-0.058828904594978915,0.46256798344860306,0.014138951151113226,-0.01996280872572239,-0.023304227910942693
0.6225,-9.76682186898964,0.0348568588924862,0.22575248786269508,0.010195045861398992,-0.027184,-0.018840018976683894
0.625,-9.83878073668295,-0.004678843451965573,0.2726825801349151,0.01140036496859735,-0.027055233775296582,-0.017032434984880204
0.6275000000000001,-10.103408558764812,-0.055780417769896715,0.5775412120035465,0.010034696009030085,-0.022520487785213143,-0.019107291713295154
0.63,-10.004789209566281,-0.1541921002940456,0.5239765937760347,0.010547216995834354,-0.017883292104876256,-0.018535093310463123
0.6325000000000001,-9.823732830620164,-0.11460952183787258,0.24883775282942433,0.010559915548149001,-0.020638577459826443,-0.020772452660397633
0.635,-9.906965318677686,-0.033539733024793426,0.3430486189752075,0.010433237619834715,-0.025809,-0.02208762856198347
0.6375000000000001,-9.97509024121532,-0.07489547529722965,0.42257574597092556,0.009728092998678817,-0.02489842668427995,-0.022156854425363297
0.64,-9.823219036820264,-0.10342782896260555,0.21814570726899807,0.009405842108564542,-0.023509482851628464,-0.021832108653799757
0.6425,-9.693144526708982,-0.0967817468581408,0.0983856732688043,0.009992933817835637,-0.021926834544589092,-0.021492045106315447
0.645,-9.632793451053013,-0.06677688556488451,0.06064704907172317,0.00827527424802112,-0.017675166461981334,-0.022029903142240362
0.6475,-9.955591217311708,-0.15693691216591318,0.4620218560236995,0.010304248938094443,-0.022449,-0.023420234823015765
0.65,-10.075309317439768,-0.14227221675656182,0.6276636030924087,0.01404969248471768,-0.022448703487953928,-0.02229724156778141
0.6525,-9.876522825506218,-0.08356663271435529,0.2391238183045387,0.010091022082996913,-0.018088233437752312,-0.025391757248506397
0.655,-9.773129224721032,-0.05308318695278909,0.14031788543633947,0.011641476738197442,-0.01773098105865558,-0.02416447673819744
0.6575,-9.946229204820424,-0.02090125980718325,0.3464558675474074,0.012889590816823804,-0.02408983685136137,-0.02408566446021825
0.66,-10.083657650505225,0.0006685268255455781,0.510510952640586,0.014137152202097283,-0.02357532627264006,-0.02365352387035271
0.6625,-9.82207377645051,-0.08476314334470937,0.21921301552900968,0.012440219624573406,-0.01797845682593854,-0.024142889419795217
0.665,-9.85566959682682,-0.1024644700665619,0.28621048874258836,0.012466045506474656,-0.02093255605954258,-0.02293653495340673
0.6675,-9.969389460992906,-0.09559699634042591,0.41483271985815373,0.013208720326241128,-0.023213,-0.023235572652482224
0.67,-10.146390727295817,-0.06996004052702615,0.5368441868687969,0.013578573264544798,-0.021999389015001147,-0.02676783590761171
0.6725,-9.990482399186204,-0.08820729169394054,0.281730229615218,0.015755781088014096,-0.02092295099513487,-0.023362607996461816
0.675,-9.911786840259118,-0.07215164961612232,0.2500352839011538,0.017868,-0.02176140556621881,-0.020617
0.6775,-9.963506027240248,-0.06671976177907371,0.3629061094276337,0.01762144472475392,-0.021521540094786733,-0.02189122780896826
0.68,-10.044137494866048,-0.12221593604897085,0.44069272293187195,0.01662601484696715,-0.021997854369981758,-0.02518818516893234
0.6825,-10.099234,-0.135701,0.496174,0.016035,-0.02341049529533679,-0.024893
0.685,-10.096613624291363,-0.1295276027042079,0.4971732873213877,0.015904540274610104,-0.022314013255759844,-0.024910013255759842
0.6875,-10.007302376086956,-0.0031939681159420252,0.47885740326086956,0.012889897826086957,-0.022265535869565218,-0.02437233876811594
0.6900000000000001,-10.010532638581202,-0.12630573787498178,0.3885618464291412,0.014379984332750145,-0.023657974522029734,-0.022276119039287452
0.6925,-10.10235921867032,-0.15748511275302698,0.4413477111354809,0.015596779862919812,-0.026760990847612506,-0.0234064312360064
0.6950000000000001,-10.042367285687023,-0.10327087253180764,0.4351300008905856,0.01683117217557254,-0.022478828956743073,-0.0242506141348601
0.6975,-10.048349143047982,-0.14457022561068716,0.45193446995637954,0.017704509056706653,-0.025316578255179946,-0.026142605817884412
0.7000000000000001,-9.967185079383517,-0.1393040838061182,0.2692972240339507,0.016114079204824685,-0.031307,-0.02712075733750277
0.7025,-9.943860275555554,-0.07167938666666641,0.21653124740740665,0.016531663703703698,-0.028097797037036965,-0.02639438666666666
0.705,-9.889239435285154,-0.058681837233004026,0.21644409788784333,0.01626146404571973,-0.025253288005714976,-0.026505088020002374
0.7075,-9.894236600969418,-0.08251953788344002,0.27618562688517134,0.015889435023658388,-0.023759120489324843,-0.02638398237968839
0.71,-9.935394316871562,-0.1603688862043495,0.3558114742683633,0.016235157068526837,-0.02319441329503481,-0.025876052356175613
0.7125,-10.021779612583416,-0.14602026501429854,0.40854080123927855,0.018187290181124874,-0.02660058036224975,-0.02735922421353673
0.715,-10.057657459739806,-0.12537464264985154,0.4583328579008739,0.01826349843084044,-0.025340449612898094,-0.028434608620001616
0.7175,-9.92531142504882,-0.15480382499212517,0.23502269171968573,0.019435625918110256,-0.025559894749606356,-0.027246251700787403
0.72,-9.982323627264083,-0.07725913335393475,0.3045575442643195,0.02129085193724747,-0.03036470387449494,-0.027646726950320846
0.7225,-10.000686583886637,-0.05692179318038901,0.41881548740440744,0.019142652919478167,-0.02892897405308155,-0.02898167237966701
0.725,-9.903826588258505,-0.10332297718658441,0.28488569671788255,0.02002209219824235,-0.030926144066479345,-0.026096112142045807
0.7275,-9.880697599532814,-0.1073469118603245,0.21411477887056285,0.01987607156652611,-0.030711622150511722,-0.025554319070439535
0.73,-10.014436199304043,-0.09511668027011976,0.42170669871136734,0.01621602143163582,-0.02971736258044014,-0.02690602143163582
0.7325,-10.089398480009566,-0.12868005064211482,0.5504408928518449,0.01614682493841928,-0.02966184183666151,-0.02653928937462636
0.735,-9.9830594344541,-0.1455493451824934,0.35126858620003304,0.018611321437825873,-0.03172434605782903,-0.02833990831094959
0.7375,-9.85637210968045,-0.12295784807330791,0.11309491010338087,0.019155073402255595,-0.0333580734022556,-0.02959970014097744
0.74,-9.762110317600252,-0.10282975504072689,-0.032225010498119794,0.016646966334586476,-0.030849966334586476,-0.029474048411654137
0.7425,-10.030831497801152,-0.10505006669216152,0.5325892992543118,0.018001872179732446,-0.030764651128107022,-0.028854281434034356
0.745,-10.182350391715522,-0.15423228317155205,0.7591620461701108,0.02230209079609162,-0.030724793599231134,-0.02734209079609162
0.7475,-10.058879719534309,-0.18665845097259184,0.45381013012852967,0.021786879999999887,-0.035492529633761996,-0.028735403647829328
0.75,-9.758576557626984,-0.12586398246306973,-0.013004132790899754,0.019864805750849198,-0.040164,-0.030524475156015484
0.7525000000000001,-9.797974833996493,-0.071639258235502,0.12379334797892423,0.02241583865026368,-0.03999913490333917,-0.030056054228471015
0.755,-10.002520580255126,-0.10166298274180527,0.4870011243855967,0.023766320749233006,-0.03782156815759728,-0.030391
0.7575000000000001,-9.938992903506211,-0.09012724901196748,0.3754752293921478,0.023450089781741387,-0.03257053024172708,-0.031235770373151936
0.76,-9.808920310491597,-0.04224728789068619,0.20105218896497534,0.023518,-0.03264812625726403,-0.032432221495209676
0.7625000000000001,-9.8334552742173,-0.10874631186797555,0.3414298866111234,0.02273556228460477,-0.0353229529973304,-0.030881444494781897
0.765,-9.92490536525072,-0.1876280234174385,0.5525278230341749,0.02193653180453529,-0.03672943463430213,-0.030473744682210174
0.7675000000000001,-9.965389711953502,-0.16197860534693106,0.5440145492254668,0.020917354022061328,-0.036698686291068754,-0.03362316613450372
0.77,-9.909132,-0.104017,0.32879,0.018631,-0.03924797474414572,-0.035583
0.7725,-9.873705338486284,-0.08437089937559258,0.2205758987133467,0.020112027000945977,-0.04314927112582767,-0.03344361905392634
0.775,-9.961225017221368,-0.040053184981641295,0.341266935165228,0.025780236764183395,-0.04080544128864143,-0.03261589089186309
0.7775,-10.05732823606886,-0.03512706863008029,0.531611869483554,0.029399675942778675,-0.0349651812300979,-0.03312357143457532
0.78,-9.961110849820635,-0.14060393899371074,0.43828173780106916,0.02610960747262986,-0.027005990156068076,-0.030884284709993028
0.7825,-9.805424155440932,-0.14817776968386004,0.24660141071547495,0.025689111514143107,-0.032203524193011604,-0.03265483397670546
0.785,-9.814799109417285,-0.12813649570554003,0.30791467532554573,0.025610194556006063,-0.035638842607520496,-0.03415603934811988
0.7875,-9.916288677792378,-0.08088574480946067,0.4965315722733252,0.026737607095926423,-0.03675619868593957,-0.03348332680683313
0.79,-9.923719148990825,-0.1420677119633031,0.42171480807339157,0.025320438788990814,-0.03459018407339458,-0.03232993922935783
0.7925,-9.92116513022537,-0.16510592619256179,0.267253246323166,0.024820312125507685,-0.03891617084016883,-0.034950189392370774
0.795,-9.993456987238394,-0.18541316445852127,0.3190006679254489,0.02520772657814595,-0.03870247671579962,-0.037703982468022874
0.7975,-9.90058647218074,-0.18806769278000326,0.3732400279121937,0.02642754350905302,-0.032879637660631324,-0.03629846390642526
0.8,-9.817950604062355,-0.1713938286254119,0.35628511790269574,0.029142059896079413,-0.03127267888521498,-0.034937678885214984
0.8025,-9.956325254387664,-0.10905088816021617,0.5340449442454098,0.03116994974171502,-0.03412846030994198,-0.03746935446554875
0.805,-10.064156508330582,-0.10734718451612887,0.677300785787607,0.02938163461737701,-0.03619693298328223,-0.03823655336943719
0.8075,-9.90444705833466,-0.11153211978028968,0.36868724173539247,0.030368841260945714,-0.032529,-0.036001011167011626
0.81,-9.957372177622645,-0.158347081808438,0.3711031296908071,0.02809212582107997,-0.03250304268792083,-0.03647307666346019
0.8125,-9.969038284951024,-0.19789149599287623,0.4010959243098842,0.024144778272484416,-0.03235254051647373,-0.03585345681211041
0.8150000000000001,-10.008416206513168,-0.26008803719914086,0.43844310190362584,0.025962,-0.034157266593876155,-0.036194
0.8175,-9.866081171868132,-0.10895823151379234,0.3516150908544524,0.02414559662704641,-0.034850378865216414,-0.0356746230455259
0.8200000000000001,-9.979510670854506,-0.06587336438798941,0.5428961021709041,0.025771219815242587,-0.034056,-0.03440430775981522
0.8225,-10.085610286453461,-0.06510881585680248,0.6626726845346064,0.029123220205250606,-0.03311396632458233,-0.03279719428639617
0.8250000000000001,-10.077829986473045,-0.1897890150264404,0.60795680928103,0.031917007844684805,-0.03405338581011777,-0.030831484697340376
0.8275,-10.012487279436273,-0.2572644434117649,0.4224019194215679,0.034514,-0.03969335742156863,-0.030543
0.8300000000000001,-10.044750909240197,-0.2906800932941186,0.28873803487254524,0.034514,-0.04155792087254907,-0.030543
0.8325,-10.071829229313803,-0.25825369911797436,0.3268532394650539,0.030363514828848925,-0.028863,-0.03950465152682693
0.835,-9.950692717126175,-0.18636205502681058,0.4118345786869968,0.03212806729893964,-0.02884193454068868,-0.03865809999285117
0.8375,-9.977674408717398,-0.076070318042159,0.6071110985351897,0.030254012790282274,-0.029249509610575247,-0.038164664665952086
0.84,-9.889955170518954,-0.18452500174838954,0.43155229472145196,0.032711605261066506,-0.036486170544385146,-0.034507513267106445
0.8425,-9.876852,-0.254663,0.283955,0.033598,-0.04371071373869261,-0.032834
0.845,-9.874684501371137,-0.2534397658413794,0.2825708135060502,0.03362540874495904,-0.03784109873640477,-0.03297380793352061
0.8475,-9.776612953774878,-0.1739239580226072,0.2087042130711671,0.035125,-0.036487754118770914,-0.04086109985989493
0.85,-9.86406175843308,-0.12038570864466247,0.2202902764115575,0.03506292467658084,-0.038021758819973474,-0.04178887711280378
0.8525,-9.936655520711337,-0.0837168896665606,0.3615696216830774,0.03315391773896472,-0.03146,-0.04034047221340106
0.855,-9.970428423824515,-0.06462935917978148,0.5452050267811229,0.031231882975679484,-0.03253890952789683,-0.039074107315212235
0.8575,-9.95325032021116,-0.14013547995990822,0.4457729497494163,0.02999549357300363,-0.03963224550885405,-0.03830369668693618
0.86,-10.018794768099223,-0.19233306821121085,0.47059387721115026,0.03333259913059183,-0.039536967918598356,-0.03970469643687157
0.8625,-9.99426380954904,-0.18063326061773716,0.5238086830634003,0.03632131535914269,-0.038283146535011116,-0.03960873427659702
0.865,-9.963726491190926,-0.17629338192816635,0.5051613988405801,0.03547936342785131,-0.037568,-0.03960793461877757
0.8675,-9.956254708208315,-0.1284300681509748,0.3970616357955072,0.030849,-0.04309319896798903,-0.039706
0.87,-9.89504377155834,-0.1247899524775615,0.27462326644900936,0.03250929138967532,-0.045433278147099576,-0.03986441882296247
0.8725,-9.810180559330714,-0.1533727170840527,0.16013621980832543,0.034739982001571156,-0.043044005187745454,-0.0403093919465829
0.875,-9.781125442060086,-0.12277068001907487,0.12965944349070102,0.03729422556032427,-0.04128117024320458,-0.0412822594182165
0.8775000000000001,-9.988331548911841,-0.19777143022775612,0.497262009742155,0.03539513761575816,-0.038026,-0.04095965799329736
0.88,-10.053802,-0.235533,0.57867,0.035583,-0.03705351091740226,-0.04215
0.8825000000000001,-10.031487577843935,-0.18696697842496446,0.5123840733397284,0.035583,-0.0354446971284514,-0.043239619639856064
0.885,-10.005693348288343,-0.019281824769938317,0.42716753873619706,0.03599927092638037,-0.035888,-0.045079663331288336
0.8875000000000001,-10.068735819335744,0.03851407278855369,0.6089018842157197,0.03708931844787903,-0.03700199444261773,-0.04237863842486014
0.89,-10.062528802730311,-0.065116935608593,0.6469985203198083,0.03852244220047729,-0.04321876873985684,-0.03867138484486874
0.8925000000000001,-10.050221200556066,-0.2417987778174255,0.49733574258572233,0.03421988560240966,-0.04827376329935114,-0.04136358682576477
0.895,-9.96586938212648,-0.2646473392280699,0.3812609888894328,0.035498094446348445,-0.045867049713586294,-0.04510304971358629
0.8975,-9.919559089864318,-0.18413605010235934,0.31941102658414966,0.03719711630564151,-0.04601141533920495,-0.04529111630564151
0.9,-9.864896,-0.073529,0.197274,0.037415,-0.045845926390001596,-0.045509
0.9025,-9.88666721505393,-0.0742375501130604,0.2296730357582829,0.03743148542690058,-0.04441905463287854,-0.04496605839116312
0.905,-9.978446344719082,-0.07722452684080575,0.36625499944379614,0.037500981692007794,-0.04046503510504652,-0.04267722388217455
0.9075,-10.070361937330789,-0.11014727378454774,0.49168161029552143,0.03754073420400382,-0.03842089079122921,-0.04019787666348912
0.91,-10.139453506761495,-0.21260556007939152,0.5809787132318883,0.035888,-0.040612514813099576,-0.04484372342705919
0.9125,-10.071560438619201,-0.23541429795037713,0.5436078824163971,0.036716907443365664,-0.04211204271844655,-0.04368684811218985
0.915,-10.051966022171777,-0.23650615254286309,0.5029421643338957,0.03782667339612006,-0.044716512162923584,-0.04512144057957017
0.9175,-10.035841212083334,-0.1333130412500016,0.4441845962499999,0.036583001666666635,-0.04292012541666668,-0.04492450166666671
0.92,-10.01299720349403,-0.013062236582339307,0.42557287138902045,0.03971430655847256,-0.04193614125059665,-0.04152338688305488
0.9225,-9.91056602852955,-0.05996672346171773,0.3956077929767655,0.039708714548573214,-0.041539,-0.040845318609075316
0.925,-10.00098016042414,-0.18263687132387557,0.48162356304381876,0.03833524840168405,-0.041539,-0.04047088557617339
0.9275,-9.997065742418991,-0.3998075994269731,0.5297416240698543,0.037327640518452825,-0.041995937460945494,-0.04450032782318028
0.93,-10.009906751765186,-0.35438298476984403,0.6160386031199413,0.03934301524650486,-0.04151310732728308,-0.0488113578775244
0.9325,-9.99331540136236,-0.17299827245786564,0.6134099532303371,0.04267367353932584,-0.04425206259831457,-0.050393857668539335
0.935,-9.943909511479006,-0.05655664882156666,0.47217826858778034,0.03914311589217537,-0.055589,-0.04577894042461828
0.9375,-9.889838832834588,-0.0856720992157672,0.2697832467753586,0.035839119698689505,-0.05364618362398101,-0.04459099143535239
0.9400000000000001,-9.828712835550508,-0.08114442790011339,0.11357506985243682,0.03650022787741204,-0.0505067312826333,-0.04384765048808171
0.9425,-9.833953288338003,-0.23933999800819156,0.46140108751886233,0.04282367566285839,-0.04433776294891141,-0.04486214976503558
0.9450000000000001,-9.832668171144714,-0.25494138033400127,0.48612316470759587,0.0427193741908058,-0.05013273810408713,-0.04917218981963938
0.9475,-9.793173070105311,-0.24402068027880883,0.35326023673611484,0.04089975035078415,-0.05364765919539356,-0.05198724346389877
0.9500000000000001,-9.613180102007723,-0.20080336502765245,-0.07131254711721707,0.04077820165164027,-0.04661134005606467,-0.05028873941965296
0.9525,-9.764878588380613,-0.09214303817594294,0.13411856192460034,0.04359017678994611,-0.04764823001795329,-0.049894942391382396
0.9550000000000001,-9.936095530175114,-0.08291262469858651,0.6387512437687929,0.040637615614442915,-0.04297455833875711,-0.04870138438555709
0.9575,-9.939764482016434,-0.05101779696308323,0.6417050253845179,0.04064397593523854,-0.04162160962590458,-0.047595169522875
0.96,-10.036738471270311,-0.2842090056458298,0.3918831738821013,0.039369679487605204,-0.05218239970584749,-0.05009617027636104
0.9625,-10.06870753993595,-0.3593013997153369,0.42571221812359183,0.0438333721266754,-0.050472913628276585,-0.05028583679278852
0.965,-10.062143227282213,-0.3439270992885393,0.47838700537549306,0.045683132041106744,-0.04698593722687754,-0.05220035608537544
0.9675,-10.004190382423452,-0.18404900238436234,0.5522497442345282,0.044176989061889244,-0.04260723465798047,-0.05550578721824104
0.97,-9.951211474196398,0.0346333500155119,0.5990893709628939,0.04374862309032333,-0.044372069566877365,-0.054892152110726705
0.9725,-9.883785847021024,-0.033125196284870526,0.4621621290704171,0.04443057249140753,-0.05317148037726809,-0.050207703924546376
0.975,-9.946455327486479,-0.1337401148836101,0.3955761148836101,0.04221950246884548,-0.05923452574653198,-0.04890609386315541
0.9775,-9.953648961234784,-0.28698034673007333,0.4842308473442388,0.044586641315386415,-0.04991014347384544,-0.04944921798339647
0.98,-9.8291611957818,-0.3798818922078548,0.3294677939525045,0.04067826821067477,-0.051700594902421806,-0.04968826821067478
0.9825,-9.96796206722784,-0.15936640360215926,0.3507386229297007,0.04584550687514697,-0.05155575221255576,-0.05480985541029862
0.985,-9.994718054201353,-0.008233767661255952,0.6040653549883215,0.04988487513445532,-0.04420125786428699,-0.05126146878361383
0.9875,-9.93502640372522,-0.11372627832544957,0.5492539129903565,0.0445141965981912,-0.04592763710846263,-0.0499187991495478
0.99,-9.868749352500583,-0.21253832042232715,0.42772685979660036,0.04087345635587299,-0.049157305376911715,-0.05083831447558418
0.9925,-9.81766170536369,-0.29673429945125634,0.2655844944915351,0.041211429039112804,-0.053145,-0.05424431205604208
0.995,-10.016715422518274,-0.2510578400658373,0.7436448400658372,0.047495501648835745,-0.045507307448322605,-0.057421125617466234
0.9975,-9.98879772737958,-0.2286025675131912,0.7211895675131912,0.04811580463184394,-0.04341441939681459,-0.05757645516967614
1.0,-9.947191445398188,-0.1910934816404387,0.6443628946113495,0.047846578922269914,-0.043103121602288984,-0.057727
1.0025,-9.843300156613385,-0.15223523620157017,0.27774263072338284,0.042975719636954755,-0.05451662758060141,-0.05439252724464923
1.0050000000000001,-9.836686199311108,-0.20793112357718685,0.292606438141893,0.04564113140148553,-0.053968301393584876,-0.05186199457102225
1.0075,-9.990250694648173,-0.2887060368788939,0.6559335568214748,0.048469946692196966,-0.04866025922450914,-0.053449167659167296
1.01,-10.08455697631468,-0.27378763560267433,0.7876999054008791,0.044922623138365154,-0.050342320002409506,-0.055997659728931996
1.0125,-10.015991733254804,-0.2377697523147596,0.5235642340440712,0.04398900263870887,-0.055505234868653386,-0.05742800263870887
1.0150000000000001,-9.875290128801085,-0.22795185072062335,0.10286465202271905,0.04806407635607484,-0.06202109991522048,-0.0590569235671439
1.0175,-9.880506011644314,-0.17891657458430493,0.27616057301310615,0.05280642794762633,-0.06127164944654156,-0.0581494380817735
1.02,-10.031825503290415,-0.24257678796376264,0.7007239831378154,0.05264746487362889,-0.050091,-0.05415086624701964
1.0225,-9.950087663219104,-0.28551279358278775,0.4763327853686732,0.04769813337601684,-0.05399577025242712,-0.060306960688533126
1.025,-9.879051652696901,-0.20740655971360925,0.22415755704058282,0.04480940515513099,-0.05849,-0.06501999751790001
1.0275,-9.861837191864415,-0.09373440007136542,0.11166977327387732,0.05180413056199835,-0.056947420017841,-0.05914827161462972
1.03,-10.095311833153989,-0.1209652880612266,0.5709225524536226,0.05567280910482373,-0.05025678064471237,-0.05667361820964747
1.0325,-10.182526009604095,-0.2826509662257054,0.8872609132208282,0.05260985513876679,-0.04655712913060863,-0.05537918644165397
1.035,-10.194916240263721,-0.3140205506663597,0.7684613581822543,0.04441483096774157,-0.049469001582293004,-0.058408945994819814
1.0375,-9.975218915718582,-0.1703736052472757,0.4866545427907914,0.05372131311817977,-0.058643,-0.05732622944044539
1.04,-9.89658,-0.1901,0.41308,0.054062,-0.06325853639615533,-0.055283
1.0425,-9.906785483273728,-0.19708306164603373,0.3720783612654757,0.05282682323704726,-0.06375024379183872,-0.056929702677670745
1.045,-9.872051040531295,-0.25283880909712897,0.20458176731747552,0.051516834559973815,-0.0542158531747067,-0.05991012783246421
1.0475,-9.776617856558243,-0.3154771769520346,0.14503188887454832,0.05346409374182864,-0.052186213508702735,-0.05877385766086484
1.05,-9.884815824892737,-0.25786021096803763,0.5174819208393437,0.05048752122079188,-0.05007243710062015,-0.060915437100620154
1.0525,-10.193686,-0.147059,0.974414,0.052993,-0.05072384123145638,-0.062919
1.055,-10.17380387256829,-0.15241904631578632,0.9332785207924283,0.05277801637791596,-0.04945363420466518,-0.06283939767436414
1.0575,-9.905784465258533,-0.27096908322470376,0.39620883224703757,0.04931820429306551,-0.05452,-0.06031426247488341
1.06,-9.970065053626037,-0.36380835778000314,0.5433782677276204,0.05082012929433232,-0.05404483737978929,-0.05979684039550351
1.0625,-10.026109441022593,-0.4030568598097503,0.6111107299643281,0.05280068168846611,-0.05460515624256837,-0.061896564565992865
1.065,-9.91933310192408,-0.2496005509620405,0.39057336484571487,0.05421734182621734,-0.05281042915002752,-0.06577762178517879
1.0675000000000001,-9.807530785806955,-0.19369939290347782,0.19467063585509314,0.05434395545418673,-0.05748685798437398,-0.06413412724173302
1.07,-9.90397340731034,-0.1844444154982962,0.36960781213846516,0.054836706969570166,-0.058338,-0.06391345542177318
1.0725,-9.995432668292683,-0.2064817590243906,0.6140152946341471,0.056550314146341485,-0.05774666048780487,-0.0617072770731707
1.075,-9.934743682828529,-0.29565138480121245,0.5568297450075893,0.05621906920789077,-0.05814532080121394,-0.06137911950227615
1.0775000000000001,-9.861251967333184,-0.32697272751456874,0.35746884296262027,0.055666594757072044,-0.05688277922694841,-0.06414318951414409
1.08,-9.867428855246244,-0.2982408419992667,0.327134836094344,0.057463493447390976,-0.055362129962116584,-0.06363050389343756
1.0825,-9.909279873487726,-0.28577651025474726,0.44185587176470764,0.059511341843446065,-0.05602995539601669,-0.0625213498934692
1.085,-9.993643163316293,-0.2322725692332278,0.6653827137635755,0.06089586032587862,-0.05606889128434509,-0.06424251956549518
1.0875000000000001,-9.943552568831134,-0.17055584545454314,0.5446718175324046,0.05996687402597409,-0.06193203831169025,-0.0631014162337656
1.09,-9.761171748539336,-0.20393636119720573,0.22498036298464255,0.059466266405400536,-0.06857,-0.0619506748073362
1.0925,-9.743558355231979,-0.2274651070600357,0.20319679020065406,0.05840259714806882,-0.06649055863906723,-0.0629753055531763
1.095,-9.93413560837758,-0.16180671173057753,0.5477875182792525,0.056665380580137654,-0.05717660965585059,-0.06312890726647007
1.0975,-10.02488553269034,-0.3533338517041393,0.5165312309195276,0.056963,-0.05441591158939357,-0.059254
1.1,-10.020030111036792,-0.37670777190634486,0.35837149364549076,0.057007131103679054,-0.05833554381270902,-0.05947463946488356
1.1025,-10.047973762976518,-0.15256879081998728,0.5429732295195703,0.05826511075255861,-0.05620077208910282,-0.07022820191210095
1.105,-9.974926954869753,-0.1715171965585908,0.6915861100868319,0.055121324142436055,-0.05397990595395517,-0.06222724744363898
1.1075,-10.028891654822829,-0.2985879041338529,0.656980322874019,0.05464134159448842,-0.05926802275590557,-0.06470016291338539
1.11,-9.93116569532502,-0.3610093174706279,0.46484105851566765,0.05377303282989906,-0.057601727918757686,-0.06640310575190408
1.1125,-9.85725958709678,-0.34636684838709325,0.34376770967742254,0.055962332258064656,-0.054853351612903105,-0.06766601612903242
1.115,-10.000235982350237,-0.2830934174270847,0.5637987056250748,0.056868584579450564,-0.05652320537093064,-0.06854390893622173
1.1175,-10.108663713835822,-0.2391393598785089,0.7849846667572488,0.056108042033410625,-0.0586438053808649,-0.06811109730956755
1.12,-10.148647813863615,-0.16857838113636928,0.9361645446874662,0.05524248707386374,-0.05641443710227293,-0.06912715610795436
1.1225,-9.75983081174778,-0.24956679227043704,0.28820441491248694,0.05637997571805316,-0.060891652390314153,-0.06608178779189647
1.125,-9.735959187687925,-0.2163407311283431,0.28423607801867384,0.05607859977844595,-0.06156876736825447,-0.06591686754233265
1.1275,-9.799924711085264,-0.26354687665854376,0.46026745222475424,0.0584600926113949,-0.059704775179567744,-0.0641082198318271
1.1300000000000001,-9.848718931899823,-0.3722236580103955,0.4732525681758096,0.0582998096124763,-0.0616690718809076,-0.0647278534924388
1.1325,-10.044102386795204,-0.33326037784510537,0.5629041693357079,0.05694634409591703,-0.06497769456578088,-0.068722
1.135,-10.010076833247307,-0.2661300829075407,0.49993028283177493,0.05652502054693977,-0.06249015369243518,-0.06866782990884338
1.1375,-9.975245090370548,-0.15818829970020457,0.5840945504496932,0.06211703105888,-0.06157038748051315,-0.06706580753087905
1.1400000000000001,-9.990383389435172,-0.24877018537084888,0.612725432322585,0.06045045361689148,-0.064904,-0.06443293462001663
1.1425,-10.021170238921618,-0.48478620615077817,0.5677389417473734,0.06008744784822774,-0.06531924433349981,-0.0637789132700951
1.145,-10.128749129273103,-0.4424691858342601,0.6950556324924445,0.0635182320152696,-0.06068286401145215,-0.0738325984125974
1.1475,-10.019572637031972,-0.2904206622904427,0.669630958492127,0.06313629483696517,-0.05253209112772399,-0.07115820424049629
1.1500000000000001,-9.926183880976525,-0.2789662772378827,0.5900338755395635,0.06385725511263127,-0.05736438960962417,-0.07165010043637227
1.1525,-9.858528529508627,-0.29088483559785816,0.5016194921689444,0.06427211172873286,-0.06445042976323635,-0.07229496754788813
1.155,-10.010512065409037,-0.39327506482502794,0.4825387128250302,0.06373374715179608,-0.06493376369872533,-0.07165783143453071
1.1575,-10.001070021265352,-0.2984864675040566,0.6016596195040543,0.06568205725144842,-0.060202413821552773,-0.07295670483429893
1.16,-9.936260356657046,-0.26428298836729436,0.6039808196221493,0.06558457920633623,-0.059678653592937676,-0.07326001622968406
1.1625,-9.850930360732118,-0.3297995428809152,0.447565800855715,0.062066246541478354,-0.06745603123365865,-0.072235
1.165,-9.94763670872311,-0.3651491168958518,0.40862219848688974,0.06139961158860303,-0.07296764561084497,-0.072728114200828
1.1675,-9.914620722263452,-0.2247354672727311,0.473601355899812,0.06533233144712428,-0.06441454647495377,-0.07480093161410015
1.17,-9.834415217337886,-0.10681802369678563,0.5963631121250202,0.06372271540147305,-0.059651828518052855,-0.07359200052451956
1.1725,-9.804830738706142,-0.12147607411341518,0.6120295543734267,0.06191037265664166,-0.06117026371867211,-0.07092419788220537
1.175,-9.87294752926,-0.29178357654509507,0.43559920098510385,0.06343379354990036,-0.07203784655799235,-0.06758617483288384
1.1775,-9.92423028690596,-0.4035022082117918,0.3525831262433,0.06493434140652916,-0.07331923025499434,-0.07091161672892642
1.18,-9.86355042948302,-0.3059315876344981,0.4420137220258981,0.06400659761932527,-0.06328906308320717,-0.07363359674641166
1.1825,-9.92198257534899,-0.2597382007856037,0.7580889811205058,0.06965824805007804,-0.0571749777370896,-0.067944182372457
1.185,-10.088686318129678,-0.2883481762244416,0.876969597002486,0.06489185461346618,-0.06645399497256887,-0.06858280317207
1.1875,-10.1447595764526,-0.38637987003058105,0.51487124617737,0.06179628593272171,-0.07434454740061162,-0.07434755810397553
1.19,-9.967264176035181,-0.3962890954635394,0.33977424990839006,0.06845876208134846,-0.06759726252107005,-0.07387326222792232
1.1925000000000001,-9.794992629827767,-0.4116021217930873,0.40064340149017014,0.06963195814339813,-0.06495693099059473,-0.07377528242579698
1.195,-10.035590797050256,-0.4060564253340778,0.8397319435119861,0.06708935928963924,-0.06713261384407126,-0.07606461485705186
1.1975,-10.153066397173603,-0.4386112171261275,0.7794766988795683,0.0669449772274094,-0.07422,-0.076664
1.2,-10.01045100991895,-0.40796410853601583,0.3994874307105537,0.06748817339055752,-0.07396348078207,-0.07677390252741996
1.2025000000000001,-9.815277695241264,-0.17534945433688304,0.5844652876539311,0.072082,-0.0629445099892332,-0.07531418634824293
1.205,-10.06050237828577,-0.3049156054522594,0.9348597466034619,0.06734863009190288,-0.06857472414240115,-0.07254362277062983
1.2075,-10.12265868099642,-0.3234109969662379,0.8860442074257519,0.06765852654928897,-0.07089818677952986,-0.07432540060172198
1.21,-10.16827040412001,-0.3445156699040432,0.8122513712620069,0.06798854875743957,-0.073151,-0.07610028575731809
1.2125000000000001,-9.814002494588053,-0.39406874939476133,0.21785652710661257,0.068722,-0.0726603776805934,-0.077274
1.215,-9.854939488522488,-0.27838976441113544,0.4777519997430559,0.068717436745182,-0.07077674903640266,-0.077269436745182
1.2175,-9.975209252040996,-0.2844159608739172,0.8171542864987671,0.06808882770795263,-0.07407336541511088,-0.077122
1.22,-10.045515168544716,-0.2550515826420509,0.669938726521223,0.06607446320786378,-0.07867095027571332,-0.077122
1.2225,-9.861833307257058,-0.32621841312079725,0.3660812565450382,0.07130901485889692,-0.07175488742000269,-0.07588014375250932
1.225,-9.814083,-0.25825,0.520086,0.075595,-0.06876272748409765,-0.072693
1.2275,-9.916906220403538,-0.3791483407148365,0.5680900299308231,0.0717341166295157,-0.07288706701767876,-0.07708376966179868
1.23,-10.021399619573405,-0.5020104581014596,0.6168737992159874,0.06781052013451194,-0.07696430286702532,-0.08154585950038429
1.2325,-10.095646,-0.417264,0.566714,0.073304,-0.07654612574896227,-0.083841
1.235,-10.089698262378265,-0.4148398120037404,0.5678415358801522,0.07328959458801494,-0.06691159632958807,-0.08380860550561792
1.2375,-9.882536418266294,-0.32869780865631615,0.637721716835801,0.071412425553246,-0.06884654862452631,-0.08310715620491509
1.24,-10.006320247640277,-0.3984914998278245,0.6997413729900077,0.07036549659338968,-0.07276926241045348,-0.08334310785857034
1.2425,-10.008252163051313,-0.4309238780171483,0.646679249680712,0.07580051563672499,-0.074678,-0.08168076021866053
1.245,-9.899014503845033,-0.3815383801065405,0.5276452436803905,0.0742546073607745,-0.07247352160774796,-0.08630187281355936
1.2475,-9.856145236590166,-0.3803968079999951,0.5918933583700243,0.06991151780796266,-0.06832891786416861,-0.08645616502107724
1.25,-9.919191061568373,-0.20918323590408297,0.6327962890473104,0.07442636584575502,-0.07197948444588465,-0.08411501490602721
1.2525,-9.970403994856612,-0.11939889631822588,0.6051332790009302,0.07365214808510658,-0.07589720399629998,-0.08167643089731731
1.2550000000000001,-9.773669862893996,-0.36936055597063167,0.27085732089626013,0.07200436727734896,-0.07364234682922227,-0.076358
1.2575,-9.828552283349653,-0.4696830795782364,0.4242917687667144,0.07328621244398421,-0.07160728806062883,-0.076358
1.26,-9.888385424228572,-0.5614879382857138,0.5875450747428588,0.07466650217142858,-0.06968371474285716,-0.07652410125714287
1.2625,-10.03340198596974,-0.44587945621274616,0.9036898085281998,0.07701882338376898,-0.0728055149014212,-0.08101304364970192
1.2650000000000001,-9.917372535849045,-0.4800431456603803,0.6121254789218049,0.07378563018867909,-0.07925806824797861,-0.0834367460916443
1.2675,-9.7781467612506,-0.49393002631980565,0.2689054074033505,0.0737637669498809,-0.08186639038663483,-0.08448217115990449
1.27,-9.920348137291775,-0.4009034601182564,0.6113488564566782,0.07765514005109861,-0.07944833384042627,-0.08348333869333528
1.2725,-10.079489873900291,-0.3589996158267531,0.8737699705210968,0.0745525151454998,-0.0765284879043536,-0.08400399542521989
1.2750000000000001,-9.946396809577744,-0.40763577418898295,0.5009364638001856,0.07474289832646779,-0.078649,-0.08551310740216274
1.2775,-9.7824,-0.443568,0.211023,0.078038,-0.07959446624719113,-0.085827
1.28,-10.024110162709938,-0.39596731419507114,0.7380265303021198,0.0798543977453533,-0.0804075916473936,-0.08527427321668583
1.2825,-10.199772047378596,-0.40268673290537893,1.1177110705214224,0.081551,-0.07993258475599573,-0.08521511248776993
1.285,-9.958861390813679,-0.46762562301318367,0.622224971809661,0.08099463965590722,-0.07964993886512502,-0.08689670509036378
1.2875,-9.70410748575132,-0.33521853954035974,0.1884291639599249,0.07967355080730695,-0.081398,-0.08630389998821424
1.29,-9.607244,-0.243902,0.117169,0.078802,-0.08279775841426529,-0.082161
1.2925,-9.782440246120991,-0.28027624523368805,0.3848020668232419,0.07782147711032031,-0.08336480820403327,-0.08224640848398576
1.295,-10.082687584000011,-0.4371790192318459,0.8083742727681681,0.0745531875222483,-0.07887415611241212,-0.08288756260421543
1.2975,-9.78406514989484,-0.5313520581465608,0.29523082460072236,0.07511248338481799,-0.08030683405849492,-0.083689
1.3,-9.776318793323812,-0.43034245092991097,0.3610782218407626,0.08454689356223173,-0.08122996251788282,-0.08287683910348079
1.3025,-10.090338882272388,-0.4686562743081828,0.8699228638492299,0.08520920777438817,-0.08283096397261203,-0.08314218395498608
1.305,-10.12088275674419,-0.4134462441860472,0.8806658706976802,0.08533519767441863,-0.07881738232558164,-0.08698487674418597
1.3075,-9.913857637133756,-0.36756045965350165,0.6490954994366434,0.08589944515733675,-0.07350750459870403,-0.08738054425456651
1.31,-9.773499737957252,-0.3911151193627302,0.47380604950547917,0.08885539761810865,-0.08293085138891097,-0.08404961397586569
1.3125,-9.864826983463585,-0.5119343110205006,0.5373099421225507,0.08607589500509684,-0.09069217182013818,-0.08908299818779024
1.315,-9.948124221421228,-0.2823852055200882,0.4436016303604854,0.08622740840370728,-0.07812173441812661,-0.08925852016477888
1.3175000000000001,-9.825503171155088,-0.31234940333510913,0.3678989955189903,0.08697858376385195,-0.08220197841955017,-0.0887236108240987
1.32,-9.729263225090584,-0.34062105412773813,0.33795192556724474,0.08701627521448933,-0.08546371386081882,-0.08861895927550084
1.3225,-10.059140308335508,-0.2647921651839864,0.8541889717647069,0.08396678702437498,-0.07896307698731667,-0.08855459866590114
1.325,-10.27311351829427,-0.19510364769560123,1.1551919647058768,0.08597264904222555,-0.07971561730779267,-0.08537805756041553
1.3275000000000001,-10.207273605184332,-0.49227821543284483,0.9654521662562754,0.0852619331232741,-0.0805880668767259,-0.0833861747117104
1.33,-9.967700013418783,-0.5739207945374039,0.602825081412254,0.08093160942437659,-0.08482625876485657,-0.08653752238639024
1.3325,-9.922481332238293,-0.5797864099926454,0.5058489810835997,0.08271618120617806,-0.08377797308163772,-0.08978258375091934
1.335,-9.916306,-0.593018,0.566714,0.088575,-0.087095930156336,-0.088881
1.3375000000000001,-9.933815365752942,-0.5591040760412873,0.6190835137059584,0.087325857671769,-0.08044964243502956,-0.0898884409398365
1.34,-9.915496214585561,-0.5005954921336303,0.6098738832209144,0.08456237454144348,-0.07738193451938265,-0.09187437914907022
1.3425,-9.862821623096812,-0.5466158710208375,0.4711877530572498,0.08898994902664221,-0.08282658753890773,-0.08983714730677919
1.345,-10.262074049553602,-0.5853700661259802,1.1165505521730468,0.08933131666080343,-0.07969749991157594,-0.0930808669436653
1.3475,-10.127081167914433,-0.6068261194618486,0.9347717896306214,0.08910300774328501,-0.07908834380413599,-0.09536495310102204
1.35,-9.947551271244572,-0.6064873443013556,0.6909372372912822,0.08890211502145925,-0.07990808431092218,-0.09773352913686238
1.3525,-9.655567390522403,-0.44776012241670565,0.2534175211002227,0.08849619688315198,-0.08792217504629316,-0.09820692848280056
1.355,-9.79572737130815,-0.3482567822950312,0.4817523282481072,0.08981410839284291,-0.08236859216540764,-0.09762603300516899
1.3575,-10.065835988064894,-0.2517844938255276,1.0696996595438337,0.09455815644486225,-0.072998,-0.09385634537502982
1.36,-9.949352077935167,-0.39201334947659505,0.8791335151764558,0.09294164926050406,-0.07713266394717906,-0.09070688242256901
1.3625,-9.858518485549135,-0.5577330314065573,0.49207370761078256,0.08847013574181105,-0.08916967032755363,-0.09195477596339126
1.365,-9.983000316823494,-0.587061757039257,0.6501449509931065,0.08997840103086603,-0.08965468959904108,-0.09268102257356908
1.3675,-10.061579125211619,-0.5644736158340242,0.8728536820248952,0.09312743203319496,-0.08479109360995846,-0.09313555588381733
1.37,-9.955882611913442,-0.5196925911093111,0.7797879673857466,0.09140911263038884,-0.08564461636686578,-0.09668875186823847
1.3725,-9.863218081558024,-0.38745319073971096,0.6292729685668097,0.0858865961396209,-0.08640482523809535,-0.09929811068423487
1.375,-10.042178061071773,-0.37626000909237206,0.8354475473125201,0.08906794431927904,-0.08724729369166398,-0.09600134349855165
1.3775,-10.1053020313021,-0.5513367176406807,0.9186452363456622,0.09450952049917595,-0.0854436782528842,-0.09128170013185762
1.3800000000000001,-10.013439648170083,-0.6379715399369974,0.8219615463590633,0.0927333741133858,-0.08838412769133833,-0.1005640993039375
1.3825,-10.011915293488101,-0.47394746638700014,0.8301800157681383,0.09327695244576106,-0.0845390117396526,-0.10674303601312919
1.385,-9.647345615212226,-0.5311740901867571,0.26206807382003533,0.0978170956196944,-0.0869078984719865,-0.09656978390492361
1.3875,-9.813928982346157,-0.417188677667672,0.6035010371514137,0.09388689407697641,-0.10030628471998185,-0.1000878718598754
1.3900000000000001,-9.983463902948653,-0.2403554948783219,0.70046753273669,0.09120902785994685,-0.08889879080546377,-0.1007575279824143
1.3925,-9.871201548231848,-0.33948592853385545,0.6077486416755911,0.096268296639065,-0.08443599173891848,-0.09258654170482224
1.395,-9.975049016516742,-0.5059149169432448,0.88645046328948,0.09442866988553789,-0.08415942255426265,-0.09215940427261934
1.3975,-9.978919609094277,-0.6273828970562795,0.8989541904953691,0.09564532681643313,-0.08446371129137971,-0.0939084419890762
1.4000000000000001,-9.979267381079785,-0.730538260391759,0.8995067691351939,0.09702945150501706,-0.08500311383182076,-0.09568800224558065
1.4025,-9.882831636356922,-0.41392046396084325,0.6244289422339905,0.10005442876905768,-0.09065283310865029,-0.09785853105119566
1.405,-9.82610131666902,-0.4791290820248993,0.6097607418369768,0.09270766389006344,-0.09060692971106418,-0.09852199466760635
1.4075,-10.10665997525773,-0.444169271023734,0.8225072440853497,0.09330118182210499,-0.09266287907456251,-0.10090981174778232
1.41,-10.09431035657189,-0.5751156898439561,0.758124920874466,0.09326646216237633,-0.08814252913108922,-0.10022436889980194
1.4125,-9.862697419789821,-0.6686116338410659,0.5695981824300487,0.0922108121383872,-0.08609721017829741,-0.103137232494982
1.415,-9.87664087437676,-0.5860881476237206,0.7717982639929202,0.09503873228615115,-0.087506,-0.10762820078538664
1.4175,-9.957071680219098,-0.36662503703739324,0.7407443764896438,0.096211,-0.0945103366134792,-0.106749
1.42,-9.984963196901866,-0.2687196332569997,0.6308269739416115,0.09403081514057918,-0.09329846866015247,-0.1058606394460764
1.4225,-9.917003424930282,-0.3257433247528636,0.5871850555259804,0.092088,-0.08710064026615953,-0.105069
1.425,-9.773563846139208,-0.6162358909437556,0.6658950480458051,0.09403842554814183,-0.08525148522402365,-0.10389860533841709
1.4275,-10.037870384162652,-0.637255919803039,1.0093933432773867,0.10163543025573145,-0.091935,-0.1016078566527241
1.43,-10.022678169766357,-0.6551851063042488,0.8290063704912365,0.10268950897472592,-0.09224561754887918,-0.10321640959465912
1.4325,-9.866369928430407,-0.5452149830312607,0.4879965263862891,0.10229145731788607,-0.09080405091255343,-0.1052026815870498
1.435,-9.868757961940757,-0.44984146141357423,0.5470922353953973,0.10242908845812905,-0.08773500606951237,-0.10794851826452055
1.4375,-10.001831903827977,-0.5206123598771266,0.9013828426275992,0.09376215028355388,-0.08566242391304348,-0.10442326228733459
1.44,-9.824231522717112,-0.6378377980395534,0.3329084860819671,0.0938589671252507,-0.09484476609916898,-0.11161844402407568
1.4425000000000001,-9.823633452714246,-0.6084932979994254,0.558982453438436,0.09821926810929608,-0.08788331140919046,-0.11077693849240466
1.445,-9.819870879165304,-0.5807232742270935,0.7845675682443511,0.10265094400559588,-0.08155284390300815,-0.10978716830496602
1.4475,-9.78519908608789,-0.5629576956150999,0.93825104926045,0.10653968509705844,-0.096517,-0.10615488437775399
1.45,-9.982663,-0.431612,0.909852,0.101098,-0.09843634660098514,-0.111483
1.4525000000000001,-9.961558864196164,-0.4636901250366698,0.8283296979200339,0.10131365092170626,-0.10124399104943609,-0.10932649078293735
1.455,-9.860957460667288,-0.5928910527359409,0.5240647095138379,0.10348208080076371,-0.09722377820781618,-0.10142419056244094
1.4575,-9.849933721219884,-0.7370448135903371,0.7978921226061142,0.10495228226813647,-0.08919456351970424,-0.10560440727440756
1.46,-10.036820908126158,-0.6359449044363293,0.967385353781363,0.10735696211714489,-0.08677579243443201,-0.10934439162817168
1.4625000000000001,-9.931876776362339,-0.6216751203509597,0.8359823946502183,0.10697701805074696,-0.09087709965378253,-0.1092683033530946
1.465,-9.826932644598527,-0.6074053362655912,0.7045794355190851,0.10659707398434905,-0.09497840687313269,-0.10919221507801755
1.4675,-9.788984200580996,-0.38911536797636576,0.7162258681930119,0.09832751759724274,-0.09581944720827178,-0.11506598197932044
1.47,-9.834056615129885,-0.41610344359515783,0.8370652396639189,0.09953572287366066,-0.09918617754721334,-0.10794869688429821
1.4725,-9.853987019636353,-0.4872363534545505,0.6521855163636465,0.09989916509090928,-0.106901,-0.10555946109090883
1.475,-9.918514993999404,-0.461502,0.7703168807754323,0.09896,-0.09971099835371279,-0.106901
1.4775,-9.905083038701815,-0.48278879437141314,0.8737471599671909,0.10043105405975404,-0.09699049682952571,-0.10574225305213818
1.48,-9.93524077623478,-0.5277960846214627,0.8214509947657812,0.10296069887607838,-0.106291,-0.10336863817141013
1.4825,-10.063637267265538,-0.5879040275354814,0.8887217714638195,0.10029041967419139,-0.10395785960437542,-0.10460159045380492
1.485,-9.962621849443138,-0.7168296028158045,0.6324028139885138,0.09927562072577395,-0.098349,-0.10649739655701938
1.4875,-9.862840728259338,-0.6131035264113991,0.5264640439902964,0.10151971916059827,-0.09680664547803607,-0.10857501965390341
1.49,-9.82500924788471,-0.5187237602491446,0.8594450291304336,0.10377421125061066,-0.09081580531509523,-0.11091124337078653
1.4925,-9.9298479700594,-0.6527072404467303,1.040103620822183,0.10146540392871285,-0.10003526687683159,-0.10819087212990089
1.495,-10.08837710736383,-0.7466614986492421,0.8466126106317992,0.101709,-0.1037386712854031,-0.112094
1.4975,-9.942339408333329,-0.7629497133333278,0.6252793865530252,0.10375049125000017,-0.1001481328787875,-0.11323334299242434
1.5,-9.853081096512257,-0.5744036653777743,0.6543979163251102,0.10678890139973707,-0.09394551488670637,-0.115759
1.5025,-9.921013732702704,-0.5799053142181385,0.9414080016023169,0.0993283749131279,-0.100568918503861,-0.11649466028957521
1.5050000000000001,-9.917501,-0.384385,0.832138,0.108734,-0.10703307384746458,-0.113926
1.5075,-9.917501,-0.384385,0.832138,0.108734,-0.10118481656582858,-0.113926
1.51,-9.858789114033833,-0.5039840272099128,0.7827760741767925,0.10856740018108173,-0.10205745049320947,-0.11475936284965452
1.5125,-9.873084849814562,-0.6779546198588374,0.7928949871754922,0.10669353726522322,-0.10902850745304464,-0.11789005835626258
1.5150000000000001,-10.07672579295999,-0.6251529782400035,0.8797405347199838,0.10576957024000032,-0.10799753727999997,-0.11930752799999972
1.5175,-9.854355379904076,-0.5557359002603185,0.5122821105914448,0.11252230217857981,-0.10347635929664258,-0.11887864070335742
1.52,-9.883380111078793,-0.43600256383196084,0.7306014885654213,0.11133091651421358,-0.09962687541318588,-0.12013252610132819
1.5225,-10.027113164321793,-0.46906774222637637,1.0832144579794163,0.10772201822263805,-0.0990032207109448,-0.11749228071094486
1.5250000000000001,-10.182506181790153,-0.5709315049906628,1.2211287265276294,0.10745824836484656,-0.10137692391463148,-0.11610964510265367
1.5275,-10.123593597968545,-0.61998486890449,1.0655697247109863,0.10803836935429204,-0.10543403964207979,-0.11805558662152364
1.53,-9.967558290175749,-0.6788210946706903,0.8630726817397465,0.10650329487898694,-0.105374,-0.11979678453636312
1.5325,-9.889904903530532,-0.6445061917581248,0.7301669018545424,0.10793212178074037,-0.10595315268182356,-0.120525138935841
1.5350000000000001,-9.887455456542375,-0.5404457202582647,0.72041223367878,0.10824575139305886,-0.10791886967554487,-0.11956587614527851
1.5375,-9.985699658703739,-0.3800590817539161,0.9051866080508101,0.106991249526776,-0.10725052375703822,-0.119666249526776
1.54,-10.06223414426806,-0.45733579976711025,0.9161588390161612,0.10584803470769967,-0.105374,-0.10942661236692017
1.5425,-10.0871851696673,-0.45770833330323196,1.0174543206891629,0.10917778679895435,-0.105374,-0.11104383153041823
1.545,-10.079613087234655,-0.5444624465537029,1.143243750067131,0.10903058706841445,-0.10309488415601037,-0.11233988258631711
1.5475,-9.985626411547829,-0.7205655507623723,1.1119243366908078,0.10568,-0.10177329728670476,-0.11265635551660952
1.55,-9.770072822493663,-0.817497093155099,0.560431452777139,0.10580142963816551,-0.11192605913805048,-0.11230176851809204
1.5525,-9.84594974333777,-0.5171191514849335,0.7612520849909212,0.107512,-0.11869058457218934,-0.125991
1.555,-9.872279332610635,-0.5277684559533952,0.9207279266273057,0.10779666710460317,-0.109856953667179,-0.12172322903648596
1.5575,-9.759730076857354,-0.7122022492475647,0.678338903508199,0.10674192780441465,-0.11240181303584172,-0.1169126407405653
1.56,-9.899215787358974,-0.6788327736779384,0.8585056118486444,0.10320209053006266,-0.11206253451984816,-0.12158480388764217
1.5625,-9.977202845289336,-0.7129984617407938,0.946915,0.10400011525585844,-0.11025269273075083,-0.12050252773792444
1.565,-10.101710799105375,-0.6111005531444451,1.1815190409307872,0.10315635077164219,-0.11384667593923319,-0.12290423477694712
1.5675000000000001,-10.173838401966295,-0.4979497611447049,1.1198011190952626,0.10428513068082214,-0.11278355605815814,-0.12337229937687474
1.57,-9.987927241434866,-0.5901063514560084,0.7722163995120432,0.10661175854822151,-0.11450284411377507,-0.1232330642478411
1.5725,-9.875829541342675,-0.6576771354489199,0.6664832534407478,0.10676014882428488,-0.11639329764856976,-0.12432314882428488
1.575,-9.906522889254903,-0.7479211390588189,0.9037672749803856,0.10576156619607846,-0.10839362047058854,-0.12441503890196078
1.5775000000000001,-9.982044327241189,-0.6846499799283383,1.0608349347086627,0.1071108807844617,-0.10951585793701689,-0.12780376322836148
1.58,-10.023768075325087,-0.6223911637963833,1.0930594819536916,0.10857173625118938,-0.10842165695528053,-0.12794934844275282
1.5825,-9.953789156240157,-0.6186221791077543,0.9219195297590431,0.10996944448508947,-0.10703472918330029,-0.12432645763499006
1.585,-9.719040326949182,-0.7140855261363127,0.6086315285848675,0.11122721730855023,-0.1182611648574971,-0.12351172561090439
1.5875000000000001,-10.03753236697301,-0.5913281992787354,1.030852683003727,0.11013589127501165,-0.113316,-0.12616064191484389
1.59,-10.03765456576391,-0.61340945930765,1.109275596149225,0.11039321597553502,-0.11329001571620777,-0.12219378402446499
1.5925,-9.887826340521492,-0.7029369637021363,0.8398672615362923,0.10717175337561664,-0.10932591009631198,-0.12630311176885134
1.595,-9.761666835036236,-0.655440337242895,0.8503157673609626,0.108276,-0.11108736891784056,-0.127518
1.5975000000000001,-9.759923778258472,-0.7121009704839381,0.929696202674661,0.10897846654140697,-0.1130103446782983,-0.12702935371279692
1.6,-9.833888217615845,-0.7750829676689124,0.8325482205871902,0.11162303973588003,-0.11925225631411404,-0.12525899094446427
1.6025,-9.808105,-0.893113,0.731707,0.107818,-0.12086726965232182,-0.129503
1.605,-9.794940776295595,-0.8860492876740892,0.723787089161536,0.10825543884414962,-0.11439835421127433,-0.12956679565135007
1.6075,-9.711746522821636,-0.645118660071,0.8197727521029022,0.11549303338065657,-0.11282133620230665,-0.13005473228039047
1.61,-9.902206649127747,-0.4794894321544774,1.1080822997888293,0.1139965284048322,-0.1137766996518596,-0.12716145796252254
1.6125,-9.892369204927233,-0.5313631740892238,1.0174522393607899,0.11597688382003238,-0.1138525027299534,-0.12571421761628457
1.615,-9.869737212875538,-0.5774764715879833,0.9134848290128774,0.11754853201716742,-0.11360080377682408,-0.12410201047210304
1.6175,-9.934165866102017,-0.6382588020596702,1.0499376475457103,0.11460029605389802,-0.11763904188642908,-0.12101718300288745
1.62,-10.096830595060728,-0.7606012196850334,1.2407605932711783,0.11064512600485747,-0.121562,-0.12117562372482973
1.6225,-10.230351721638227,-0.8669686288249626,1.2983009689322271,0.10619559446123854,-0.12173852567528037,-0.12436189905412
1.625,-10.105176476602844,-0.8625225034559466,1.1274676618733614,0.11092535687614205,-0.12098773234289346,-0.12593445308651782
1.6275,-9.858401635108764,-0.8749669921465146,0.9005350316986548,0.11262407388675633,-0.12021220864043496,-0.1269907786916186
1.6300000000000001,-9.89752676589459,-0.8133486814147058,0.9761340499583933,0.10866820435968556,-0.12528174233472048,-0.13129161307905668
1.6325,-9.888565124617807,-0.8946906205305889,0.980976063171408,0.11037898413567565,-0.128434,-0.12941999292549983
1.635,-9.831124406803509,-0.8249640512726387,0.8218934005538108,0.11815024728004508,-0.1253260116751187,-0.13213913698784513
1.6375,-9.677226321038923,-0.6670475848109252,0.6403790520249495,0.1200745504539354,-0.11958606557195867,-0.13040785624062537
1.6400000000000001,-9.5409362375475,-0.7090790336907834,0.5076677549795815,0.12050023081509946,-0.1179585028420294,-0.12471359800913692
1.6425,-9.851219552522682,-0.6546269260823134,0.9347510089281721,0.11659260174843071,-0.11656979138804902,-0.12455783352708652
1.645,-10.062691719833971,-0.9136832076883801,1.2055343310727962,0.1180952310983397,-0.111177,-0.12230247321839084
1.6475,-9.984456,-1.126255,1.123864,0.116828,-0.11162784966302797,-0.125227
1.6500000000000001,-9.974827949852054,-1.1152096378204943,1.1169239864398306,0.11684672199211049,-0.11380511849112483,-0.1255516507889552
1.6525,-9.763922891623121,-0.7777567408392618,0.8787226459857389,0.11747296696753763,-0.121715,-0.13354262793349175
1.655,-9.86231392881036,-0.6283539623776573,0.7836017121211647,0.117897,-0.1214443793925576,-0.13406553864343296
1.6575,-9.953249867325514,-0.718971916620451,0.888869151321248,0.11845193483114111,-0.1183619096148834,-0.13153218221116256
1.6600000000000001,-9.900350007987791,-0.7974886728379774,0.8620635745586054,0.11973,-0.11256829481243476,-0.12706
1.6625,-10.042892864495283,-0.7647525017325,1.2710769563410023,0.12000913772233776,-0.11136806232386211,-0.13078325839685892
1.665,-10.101749019033218,-0.7618230786641268,1.2241482239671346,0.12450547168472444,-0.110414,-0.12829129369210612
1.6675,-10.01816540635679,-0.8031989953263,0.9289511481117441,0.1272914020632897,-0.11287533439666157,-0.12543536862872373
1.67,-10.037749888619592,-0.69823,0.9216099786632032,0.11851895884946362,-0.11223942181775316,-0.13512987042319938
1.6725,-10.067307296744078,-0.69823,1.1189055542850483,0.11899052756807735,-0.11195635697748436,-0.1340915539785453
1.675,-10.10013579211487,-0.6483623098564106,1.2951848562667343,0.11784977410562175,-0.11057738992455579,-0.13378975137503044
1.6775,-10.070892214748264,-0.6289079588861395,1.2977642030734877,0.1149720093066305,-0.10974310145695362,-0.1327177041538339
1.68,-9.831082497022681,-0.9387902039886629,0.8423841400756108,0.11453787044423418,-0.11634806888468778,-0.12598534986767462
1.6825,-10.001552697192336,-0.7334660911183809,1.0390055236967877,0.12243077956013122,-0.12320687152082303,-0.13185879575105272
1.685,-10.121890386927852,-0.6012719692116577,1.240677278241757,0.12581052103201149,-0.115606,-0.12839515594839934
1.6875,-10.031132129712459,-0.6195444766773163,1.1336516204472844,0.12647252460063899,-0.11686735782747604,-0.12642964728434505
1.69,-9.855238127728766,-0.7429962437525743,0.8597147540162801,0.1231445375963057,-0.122631,-0.12825946440150704
1.6925000000000001,-9.836268875053845,-1.0118806869624857,1.0586448078949358,0.12464671574961532,-0.12294350572476637,-0.12519729017157802
1.695,-9.904579498240302,-0.8857269347965896,1.1850484252790905,0.12042140488174062,-0.12212684601702924,-0.13590521396404934
1.6975,-9.906250167334594,-0.7414908620604914,1.0698869935160669,0.11542583746691872,-0.11935440669187146,-0.13983275584120983
1.7,-10.096298856983772,-0.7551479658334298,1.0806780418907689,0.12222881357659053,-0.13108813186826213,-0.13395977404335976
1.7025000000000001,-10.025007862949884,-0.8828777152375374,1.2217743091956,0.1182449452766258,-0.12719929503850236,-0.1350982883236584
1.705,-9.939186090154315,-0.8283924609032794,1.1765853805833313,0.11794931857154413,-0.12299176089844052,-0.1369979937658561
1.7075,-9.863932909955313,-0.6023128516848298,0.9340130340007838,0.12162688015366523,-0.1200115939098393,-0.1378372602399059
1.71,-9.887429238248783,-0.6604939624829235,0.9060046780390256,0.12130174480487801,-0.12263292747804866,-0.1317733520195122
1.7125000000000001,-9.950324985088177,-0.9847167499285705,1.1595326383993094,0.1237810828013341,-0.12737357837065225,-0.1336640458313489
1.715,-9.913108345768585,-1.0787147997671653,1.193704673594671,0.12654163064385848,-0.1219390359919219,-0.13918692574958436
1.7175,-9.776769413395572,-0.9279035243087905,1.0024336165840806,0.12909221096828247,-0.1207991956098146,-0.142484
1.72,-9.802725,-0.6546383122272599,0.9327298869228939,0.12676271623776567,-0.12787467169252803,-0.14176706860825974
1.7225000000000001,-9.879812169328456,-0.7936369266090243,0.9314405800544929,0.12123731743693003,-0.12940070722255131,-0.1397433404666586
1.725,-10.119918630013736,-0.8038706206929989,1.1388205192633964,0.12300542851142893,-0.12837974720943365,-0.13734794703174213
1.7275,-10.23587467281995,-0.7976904250892763,1.4042630801352989,0.12481311271297094,-0.12416740512546207,-0.13806577812947385
1.73,-10.319400813403094,-0.6443879321379303,1.6789348217455449,0.12228764465160519,-0.1206802869155767,-0.14425144966468498
1.7325,-10.02737931611249,-0.7711647144714349,1.1562513732781128,0.12720000146578517,-0.1236179570365647,-0.13631618751852148
1.735,-9.75013072908831,-0.9792636455700986,0.7455557841228173,0.12392169334444171,-0.13256249784813123,-0.13623157625803398
1.7375,-9.888959849904547,-0.827672845608586,0.8249362781145801,0.12388356928400968,-0.12819774396181374,-0.14088825603818628
1.74,-10.20558311454415,-0.6898308164824117,1.429349274687725,0.12725148212491028,-0.1214516806317301,-0.14061105843503233
1.7425,-10.065852837030569,-0.789003277414846,1.2522044133799157,0.12675633393886454,-0.11670933736244525,-0.13451218354585157
1.745,-10.011299604129599,-0.8508907747540365,1.1406160313339706,0.1294938523273412,-0.12334216178807991,-0.134026637086093
1.7475,-9.680113687627465,-1.1638021422584428,1.129968930924319,0.12556867318277087,-0.131183,-0.13664532681722913
1.75,-9.816062206613552,-0.9472393898640148,1.0938824023243277,0.12626471101659378,-0.12928693937578625,-0.14140052794584557
1.7525,-9.964274913339882,-0.7245851608098158,1.207823777123921,0.12460637288834363,-0.12628931564662588,-0.14432178867239293
1.7550000000000001,-9.78030101317944,-0.8713979448917143,1.2153597655999868,0.12433689454229264,-0.12638591330592916,-0.13593110943557302
1.7575,-9.664036,-1.109517,1.000717,0.126907,-0.1310843932092802,-0.133932
1.76,-9.66160908341281,-1.1066430324824683,0.995990941449275,0.12705384466573166,-0.1299916739597943,-0.13442146441327726
1.7625,-9.641638604224324,-1.0158787922796826,0.9087789819373637,0.13178001442097578,-0.12769101369264385,-0.14331635411507646
1.7650000000000001,-9.756676775009579,-1.005076484492671,1.095656847224017,0.13676111326100826,-0.12776020936821958,-0.14335066241225264
1.7675,-9.777124892470496,-1.160735384015887,1.177543439532736,0.13614537034458588,-0.128434,-0.1435444737951175
1.77,-9.690583157939484,-1.0013611631702737,0.725181365422246,0.13432734931775775,-0.13150662691652476,-0.14879016418268845
1.7725,-9.851561762691054,-0.6748591288365816,1.0120311734743503,0.13271545954990055,-0.13330247994910557,-0.1514297778608351
1.7750000000000001,-9.82042526718346,-0.62893118708013,1.2615084268733967,0.13510477286821718,-0.12074838708010391,-0.14264602222222164
1.7775,-9.834176340590217,-1.0165797118578148,1.4882166868008129,0.13491727632461414,-0.12847761782696177,-0.1377425859154934
1.78,-9.920250530797462,-1.0813439075875888,1.36909606065398,0.13228470376710047,-0.1321824024491159,-0.14479515627961292
1.7825,-9.71757163366392,-1.0943982898246456,0.641197501233315,0.1380760421739634,-0.1423833666194401,-0.144152592841714
1.7850000000000001,-9.766580719773321,-0.9176126908312305,0.5529974388161725,0.1441601959571787,-0.1444951373362713,-0.14912151654282121
1.7875,-10.011053122231425,-0.9113056353902715,1.2679715987682105,0.14303151578822706,-0.12874723335307262,-0.14827212452919553
1.79,-9.60006379213072,-0.8943644623550981,1.1820113272748751,0.14900151678408613,-0.12456133192824591,-0.14982604015629625
1.7925,-9.584477623382867,-0.7418388990989295,0.8320566143508402,0.1437868827186076,-0.1310082336865786,-0.15011036187081878
1.795,-10.053174368004768,-0.7269402672019047,1.1876144417250154,0.1428291521169102,-0.1410821509144054,-0.1380143798413362
1.7975,-10.168708491905761,-0.8675257567623079,1.435882087930818,0.144357139691023,-0.12809206744050056,-0.13639007213361162
1.8,-10.11340781918154,-1.0318058665508014,1.4477886034444567,0.14393724964449356,-0.12226559955759211,-0.1366469184705325
1.8025,-9.897073112005057,-1.159607141538948,1.1987991944572605,0.14090120047400853,-0.12625512663611943,-0.1406527441807552
1.805,-9.920261973579553,-1.0440687389204586,1.1465437212500096,0.13807549840909056,-0.130878,-0.14879640109848505
1.8075,-9.705494793602197,-0.9939272381851683,0.8798619023648112,0.14897522245646194,-0.13156099169569216,-0.1427113846196151
1.81,-9.701849180779222,-1.189913959134196,1.1036654308225167,0.14879474528138528,-0.12892532519480493,-0.1471403270995673
1.8125,-9.748225198845876,-1.0513330247655688,1.285883092329887,0.14893789624909834,-0.11948360819908632,-0.152896198605434
1.815,-9.664806687729945,-0.9239933148597549,1.0259092404174903,0.14888904337247227,-0.12602752695368533,-0.14859101003261582
1.8175000000000001,-9.64222602010248,-0.7622181758036334,0.8580393621637308,0.14570677727153525,-0.13614500446562627,-0.1475181068986061
1.82,-9.82535228251546,-0.6248974141223548,1.142194732809441,0.139207574681762,-0.12481752747788041,-0.1487800472038816
1.8225,-9.846822103069165,-0.8950501365350595,1.2772715928151466,0.14080722420702121,-0.1287021768395015,-0.14649504736751973
1.825,-9.864049709570642,-1.1648739720316577,1.40011432636124,0.1425567390741184,-0.132405,-0.14441588990165505
1.8275000000000001,-9.801911264170354,-1.3391451741643692,1.1640710885273078,0.14504110404593828,-0.13534564181839992,-0.14879275618136195
1.83,-9.890501663853827,-1.215691466777404,1.0109248737541625,0.14493974797342207,-0.1403395019933554,-0.15675379534883732
1.8325,-10.074127,-1.092778,1.264945,0.148746,-0.13565957746617072,-0.159894
1.835,-10.0759848042539,-1.076024392883178,1.2888042054019215,0.1489541735286411,-0.1267320898273192,-0.15966919657973094
1.8375000000000001,-10.093062208797376,-0.7098185543986731,1.6243502816565107,0.15133538764623278,-0.131641,-0.1535869657697702
1.84,-9.907952403457616,-0.7780631094501126,1.1187635145348158,0.1466344328286251,-0.13673552009416234,-0.14573164924293766
1.8425,-9.816306714583854,-1.1110222535881509,0.9156681325943682,0.14587827566937414,-0.14237290541423792,-0.14500977079407557
1.845,-10.029689726633066,-1.1450901391058355,1.4223718179547995,0.14855909262233782,-0.13463906471793222,-0.14942108727686554
1.8475000000000001,-9.966257956928565,-1.1305405426492836,1.5292484496811367,0.1493136908666368,-0.1333779841939851,-0.15077858221823104
1.85,-9.801595091777829,-0.9896486646616509,1.1194622310938527,0.1464080663109385,-0.140346,-0.15499318224593756
1.8525,-9.8136900390459,-0.8542368599734934,0.9858659785086192,0.14616393169497666,-0.13920682563546555,-0.15612556546922043
1.855,-9.83619259242788,-0.7812857108511473,1.1218239243805148,0.15368772927918617,-0.13413665465469288,-0.14773585187634114
1.8575,-9.7192373289371,-0.8942593633837285,1.045819961075584,0.1544183281061745,-0.1308080224627812,-0.1426492339480668
1.86,-9.779031454267658,-0.9880479530136198,1.2414647008943658,0.1472185200259233,-0.1296003808425143,-0.14641300559300074
1.8625,-9.740844183598249,-1.234949020985952,1.2704837567841476,0.1423869981110343,-0.12744287198802143,-0.14860724952775856
1.865,-9.827489267138622,-1.313368736240891,1.2153901284567945,0.14289963389124688,-0.1377667655513734,-0.1515416538383919
1.8675,-10.011816964628666,-1.1499561853415052,1.3636433823394531,0.1460333104160779,-0.13961092501805655,-0.15783009791176006
1.87,-10.103973385236037,-0.8684417460944469,1.511953444520753,0.1457360907010019,-0.126144,-0.1591336508154499
1.8725,-10.040051,-0.98099,1.551291,0.147829,-0.13191339524422688,-0.155923
1.875,-9.9398138518924,-0.9874496527994996,1.3280961345010946,0.14845499311854862,-0.13855327768220205,-0.1555816847044104
1.8775,-9.853037981755666,-0.9429864337290905,1.1672426381480439,0.14925047511345407,-0.1374723959844149,-0.1568172386706393
1.8800000000000001,-9.917532576111808,-0.9294084397849863,1.4048246017559618,0.15218358924207148,-0.1306664298727825,-0.15469015759182922
1.8825,-9.864073976344885,-1.0094190218275598,1.4106917820384186,0.15270243172446082,-0.12864238869728212,-0.15213327697750711
1.885,-9.727529702582835,-1.1440736110475278,1.2526140040878009,0.1461081313449527,-0.14263002442924277,-0.15442211072512046
1.8875,-10.100031476973404,-0.9434669443459676,1.579997257890661,0.14439345915174592,-0.14234434968770449,-0.1617573398964962
1.8900000000000001,-10.336038389959375,-0.8252517421588462,1.856142363788746,0.1428099205130247,-0.13761185546403196,-0.16374634295865503
1.8925,-10.320616655069092,-0.7473312681082243,1.911889454804307,0.14147081692718613,-0.13332288318197708,-0.1587555111369178
1.895,-10.10835146180693,-0.6388207774009916,1.5307355659653448,0.13923584017326732,-0.144317,-0.15553604616336633
1.8975,-9.932136095922916,-0.8593670296216376,1.2719541096711493,0.1353430759299859,-0.144317,-0.1530587482850071
1.9000000000000001,-9.92057562282445,-1.0262946557061121,1.3749002640289163,0.15281785121348973,-0.14547853845227257,-0.1498517213249023
1.9025,-9.882825623860283,-1.0168571559650705,1.547795006691966,0.14905674392291465,-0.12985567170129428,-0.15255193871484501
1.905,-9.812329939699794,-1.035754506468637,1.5011076523242184,0.14517211917838516,-0.1278058740843737,-0.15343803610680992
1.9075,-9.786795565766655,-1.0650931346049053,1.2812054009214744,0.14136290957641817,-0.14355315646271968,-0.15389358445380225
1.9100000000000001,-9.894520798939036,-1.101183712461619,1.3073235016100413,0.1404664098836669,-0.15039389580269874,-0.15740261098185196
1.9125,-9.833288483599587,-1.1640940346792872,1.2647564893634247,0.1419791447860641,-0.14585878731636798,-0.15756695490085912
1.915,-9.907984430395326,-0.9124640536869029,1.6478714569614346,0.14311556626687752,-0.13668787039046346,-0.16146283529984165
1.9175,-9.672019627339576,-1.1900963805617693,1.1225840709568458,0.142726554217858,-0.14987788881479752,-0.1508264374423384
1.92,-9.736008030850266,-1.2778108492892353,0.9996725617606725,0.1445068696163559,-0.15474726391822022,-0.15661604635237505
1.9225,-9.875031314522829,-1.2834697319502046,1.2106664654938053,0.14886430174273893,-0.14668810831535198,-0.16049296278838165
1.925,-9.980689725516081,-1.0956874392702813,1.7878524131300952,0.1538429549687949,-0.13086587825252055,-0.1650673288526164
1.9275,-9.902823644671148,-0.9896091014882384,1.4737559525636112,0.148461640787326,-0.1388422040902544,-0.16401019510321652
1.93,-9.857512573048345,-0.9307553483230513,1.2947852506039303,0.14556170232104418,-0.15021952393056953,-0.16344165071295363
1.9325,-9.833233824388657,-0.9841087283182732,1.3112707525902556,0.15084494495098766,-0.14861153692153198,-0.164513642052312
1.935,-9.842636445016709,-1.041542877882693,1.4100067210110134,0.15444027353361864,-0.14552384795421947,-0.16575179532665724
1.9375,-9.870472270890296,-0.9047145021007001,1.5186474538846282,0.14712302127375793,-0.1416332824941647,-0.16473220153384463
1.94,-9.826501631522651,-0.9368544741272515,1.3361133555533558,0.14484336242634321,-0.14604834051993054,-0.16227142549145834
1.9425000000000001,-9.857054124076427,-1.2110668624203833,1.3604850091719844,0.1483599100636954,-0.15143733401273896,-0.16029142369426752
1.945,-9.893276365780585,-1.1553013116849997,1.5045707454186987,0.1484770697180642,-0.1495520398388938,-0.1644467992738204
1.9475,-9.934355023307258,-1.0440923855882345,1.6099946700782228,0.14461791293178974,-0.1473379883729662,-0.16801692455882353
1.95,-9.899133560310265,-0.8231986287112153,1.6227123988066938,0.14328703286396188,-0.1472158247255366,-0.16724236357995245
1.9525000000000001,-9.855314948245725,-0.9365556072183041,1.2169206500251661,0.1415124898048141,-0.163712,-0.15750186957250586
1.955,-9.991054922691522,-1.0806744293476587,1.5475815162659998,0.1440086970336439,-0.1586213540546514,-0.15353714129837315
1.9575,-10.06933207184435,-1.2049293726210033,1.7381182338665175,0.14413267636392638,-0.15017066868989715,-0.15446041231480742
1.96,-9.96549223246378,-1.2329315062608681,1.6826110522898714,0.1502610802318842,-0.1531974324347825,-0.1524332595072462
1.9625000000000001,-9.50974711529303,-1.2828382503949929,0.8945868906968711,0.14487633894587967,-0.15621780648508396,-0.16191311298195987
1.965,-9.751789422837568,-1.2279183554401358,1.191500957807702,0.15203169352664705,-0.152564,-0.1624664086481318
1.9675,-9.743956204572639,-1.1751630409418368,1.3723989815210746,0.15408182507652465,-0.15353291371320937,-0.1592156218883918
1.97,-9.682424562507926,-0.9380904374920732,1.3962776840107807,0.15368687990805335,-0.15447136150602414,-0.15942475360177552
1.9725000000000001,-9.610809079057605,-1.015272537431654,1.2103122097851207,0.14676,-0.1555922521923838,-0.16081
1.975,-9.884807940500298,-1.402590101131627,1.4204929947707028,0.15095954428826688,-0.16578474873138757,-0.1515812189994046
1.9775,-9.916168419261465,-1.4332042735676003,1.5862560606718308,0.1526763610982728,-0.16082477815842758,-0.15701770147706975
1.98,-9.893639054419218,-1.3883213023913221,1.5956034963192576,0.15105052190933752,-0.1554788816861682,-0.1620246932382797
1.9825000000000002,-9.66931770184992,-1.3069803561252813,1.2348716366496117,0.14793907291090114,-0.15302751091041575,-0.16496689052682673
1.985,-9.406547511656338,-1.349377368286393,0.8782319274272278,0.1536914190357997,-0.1616497975369931,-0.1648185766300717
1.9875,-9.679391777901444,-1.2785720195499632,1.2991844279538691,0.15801598335349634,-0.16429620391967076,-0.16693590997661098
1.99,-9.687358129703105,-1.2327415815143858,1.4146103509505166,0.16265647914844653,-0.15379641194936708,-0.1652942369712313
1.9925,-9.84687200863013,-0.9268288843103598,1.627920554534579,0.1565857689916658,-0.15166757786594667,-0.1666254877990377
1.995,-9.897415925548225,-1.0977114586292007,1.6472497129796404,0.15845446410094624,-0.16742328656916147,-0.16066735351496034
1.9975,-9.882735761311539,-1.2505112644450849,1.6844009380785785,0.15577513741324917,-0.16306048469553572,-0.16104975648217187
2.0,-9.862042242402316,-1.3927632568740955,1.6987603408104197,0.15326983719247467,-0.15914624095513746,-0.1615280926193922
2.0025,-9.736884762375857,-1.2491257095937263,1.1741275878545936,0.15486380508434314,-0.1672579900023759,-0.16554734194345438
2.005,-9.930847030257796,-1.1392373529543778,1.4154117779343336,0.15634624587990356,-0.16437997440512434,-0.16593294976461195
2.0075,-10.146682888616711,-0.9593758160280578,1.7610968645092322,0.16221645879220634,-0.15818368519424,-0.16062661320101682
2.0100000000000002,-9.995459202611677,-1.1927777402261444,1.68975492180351,0.1522187758443002,-0.15339801234847159,-0.15979985764411503
2.0125,-10.000978560713623,-1.2915382449304982,1.562527862437433,0.15132860381835025,-0.16193141907321654,-0.16113560158480084
2.015,-10.00649791881557,-1.390298749634852,1.435300803071356,0.15043843179240032,-0.17046482579796152,-0.16247134552548662
2.0175,-9.978667655750078,-1.3209899852109142,1.66504068857279,0.15501162758959744,-0.15784469938788442,-0.16325421919441804
2.02,-9.893876145832934,-1.453677464443914,1.7211576967303077,0.16176407805727913,-0.15402483826252997,-0.1643057424868736
2.0225,-9.533813794935838,-1.4073272868213254,1.142538680868725,0.1523169174136228,-0.167835,-0.17624268343534036
2.025,-9.633435244049862,-0.9106619731890878,1.2952296425329224,0.16281238868767636,-0.15892781634524952,-0.171680284960019
2.0275,-9.579994119383823,-0.9040282256820323,1.3844196379421398,0.16309475452022576,-0.15280824592191944,-0.16687821624882437
2.0300000000000002,-9.542750856077504,-0.9818785989225138,1.461845535189042,0.15929408888468718,-0.1480367895463135,-0.16406016252362948
2.0325,-9.494979933041021,-1.1541778254717834,1.4060726744527063,0.15072286334859017,-0.14734202107122837,-0.16505248339195416
2.035,-9.35153012148218,-1.2653228683001305,0.9650561910050999,0.14455480144511407,-0.1546402509031963,-0.16990267836035167
2.0375,-9.502115105489262,-1.20377104143199,1.1842256141289036,0.152716,-0.15736857813842442,-0.16458442797136028
2.04,-9.690115471054362,-1.1021667588325403,1.6224386370521762,0.15247816750091206,-0.15174347394381607,-0.16599962987230943
2.0425,-9.846401868481825,-1.0658860116702276,1.8903969711665483,0.15052640722261826,-0.14956323673081487,-0.1661499916654788
2.045,-9.824843,-1.297226,1.855571,0.146608,-0.1553443696939175,-0.162337
2.0475,-9.846324020102543,-1.2897947670277214,1.7762654737478139,0.14803174180419773,-0.16081460453773436,-0.16174380662073398
2.05,-9.926570467156935,-1.269168480275157,1.4592667996915933,0.15368979535049265,-0.15974916399003755,-0.15938381568022755
2.0525,-9.836158969503522,-1.470556893992183,1.6980035337504498,0.14977008451712312,-0.15435250441047627,-0.16324518819765446
2.055,-9.949897948286575,-1.4587501956499385,1.6499068291360672,0.15310243710209992,-0.161574,-0.1696509786279855
2.0575,-9.832614,-1.392874,1.504065,0.155923,-0.16193822967640842,-0.172569
2.06,-9.827939198630537,-1.3766462732906264,1.5046972357733996,0.155971971270936,-0.16319556455172396,-0.17242218233497525
2.0625,-9.650968136145138,-0.9871917143743216,1.526104459916266,0.15598957745386882,-0.15783498077221275,-0.16724181532020468
2.065,-9.52016481441591,-1.3785007343864417,1.5376300728755656,0.15051359487532218,-0.1619074395921875,-0.16440720689350194
2.0675,-9.858153292912249,-1.3505283341428629,1.5775566028248547,0.1602556447360446,-0.16618568443305018,-0.16634600245659037
2.07,-9.862334638211642,-1.5366748394274623,1.4893730641235072,0.16234937618526854,-0.1600664242393053,-0.16492928007719504
2.0725000000000002,-9.86759670488857,-1.6182005376582982,1.5296138065652554,0.16096852894234107,-0.158513768560311,-0.171178117453132
2.075,-9.974547577290892,-1.4545056029159915,1.7367159626456399,0.15772282599983722,-0.156687,-0.1814977450843042
2.0775,-10.099277809517787,-1.1406912243681062,2.0789840768736023,0.15907638988969433,-0.158392926013237,-0.1817495577308537
2.08,-9.714833119885842,-1.1502301010511324,1.6890565049797708,0.15935092984542207,-0.164628,-0.174460525726516
2.0825,-9.434090127884682,-1.326786479236039,1.1769606068756726,0.15925161062342347,-0.1649613585009009,-0.17378982864144146
2.085,-9.381727712814367,-1.444495640838327,1.0457159867065835,0.16468355670658674,-0.16363640227544918,-0.17678763874251494
2.0875,-9.683105476511477,-1.2593812474248678,1.4249562386328525,0.1706473701355331,-0.15772024365350656,-0.17733129536829723
2.09,-9.851475527886329,-1.281361854209588,1.9619777932504345,0.173638,-0.15127944575488464,-0.173486
2.0925000000000002,-9.67586671632106,-1.3692815771559799,1.8419768597063255,0.1678344186146766,-0.15285928798165246,-0.1758537663486248
2.095,-9.50630281293948,-1.321318411951547,1.3657724706569974,0.15863220770944386,-0.16402992054883062,-0.1824717979661019
2.0975,-9.628392694345667,-1.068196110504567,1.5469080135127404,0.1661565435143361,-0.17136914663463043,-0.18143796055742356
2.1,-9.60781090747728,-1.108602542417897,1.63208156939202,0.16668400167714878,-0.16551046191474503,-0.1686244072676449
2.1025,-9.418937,-1.263749,1.341463,0.165392,-0.16623869901796948,-0.166614
2.105,-9.50706447479185,-1.3636938360383266,1.4317937286705837,0.1672850024961752,-0.16381687507850873,-0.16773941511232787
2.1075,-9.76083943705262,-1.5389451991578977,1.7175151936841961,0.17139631578947365,-0.164934,-0.1711142833684209
2.11,-9.997907985122088,-1.49290043308834,2.0626244419761446,0.16762873622779326,-0.16382505553662705,-0.17611558323030724
2.1125,-9.964139715651559,-1.522114242028638,1.9667423344819799,0.15881668803688395,-0.1634723353554956,-0.17938781781121094
2.115,-9.82918356561535,-1.384088889517995,1.5988229253252426,0.161268,-0.16740071158633574,-0.178831
2.1175,-9.871874320135138,-1.3363146232239431,1.8008650340347603,0.16795973055984625,-0.16748901492278004,-0.17623287027027
2.12,-9.83708482340945,-1.429397771264077,1.8158742701061348,0.17392030655516239,-0.16810560099710514,-0.1758187801929883
2.1225,-9.616927418594585,-1.6018904193970047,1.4890164675026876,0.17508417462102116,-0.16888313459699714,-0.1803174364252253
2.125,-9.476630266666666,-1.5510971796252928,1.2491859203747073,0.18125289453551913,-0.1710508826697892,-0.18607556330991412
2.1275,-9.679833923125978,-1.1289010554318142,1.6686744813093226,0.18294628466723054,-0.1656279771614932,-0.18997544837782365
2.13,-9.769313168730966,-1.1560599069035538,1.862521671066008,0.17592846375634535,-0.16275925776649713,-0.1819775604060915
2.1325,-9.818422439999985,-1.1890070069608971,1.5674559778562331,0.17212415490542252,-0.17010491419924303,-0.179442
2.1350000000000002,-10.032236316209653,-1.361304292741961,1.7053204242741902,0.1710767301612911,-0.17451241532257789,-0.17932193838709626
2.1375,-9.773956561033845,-1.5469429006363375,1.667129599591481,0.17740405549532565,-0.152716,-0.17661915836279396
2.14,-9.569844771340577,-1.4762427979467512,1.6153515591166183,0.1773896160105046,-0.15319619117583907,-0.18150918651068423
2.1425,-9.691025456210246,-1.354555227072383,1.5796851075457334,0.1730767824681114,-0.16116183427078543,-0.18441111873981858
2.145,-10.079955545599999,-1.3384344191999988,2.0472436559999987,0.17753296800000004,-0.16485482879999994,-0.18221325599999993
2.1475,-9.842489016193644,-1.2182785638728046,1.8261667081347939,0.180071437968676,-0.15728714729947807,-0.17405898173706685
2.15,-9.571865123122022,-1.2445765500671744,1.4778043968730825,0.16844137281055332,-0.14844907426407672,-0.17718795702943685
2.1525,-9.635371125044637,-1.4336144370935602,1.7669320932599164,0.1689589471168194,-0.15970892429602418,-0.17751673778103996
2.1550000000000002,-9.720862719326863,-1.404086026148867,1.5592891005825247,0.17494223673786355,-0.17062925610355964,-0.18244374097087435
2.1575,-9.748894465962932,-1.4007666152162397,1.5644533142453667,0.16985391295322114,-0.16817918532038817,-0.18819101101500488
2.16,-9.647576634396065,-1.4214976459729354,1.8401426559724692,0.16855589619043096,-0.16259122927202327,-0.19143430340997078
2.1625,-9.721883137373933,-1.236331584388885,1.8653107855265054,0.17360806677501095,-0.16159633258448444,-0.19005648426939434
2.165,-9.789498628960743,-1.0709629643479321,1.8770565129698098,0.1776777526739051,-0.1615596021954423,-0.18847460467724608
2.1675,-9.70878427535527,-1.192013,1.5676309613924697,0.16023928552217476,-0.174021431921793,-0.19127783754887917
2.17,-9.618803522935078,-1.1768665257310718,1.5202033135879132,0.15965206417121264,-0.17003854745398972,-0.1903381228151791
2.1725,-9.536581507211373,-1.2686216265008685,1.617979141101231,0.16566180042628728,-0.1643161283126114,-0.18390557847246938
2.1750000000000003,-9.71307199445774,-1.388601295938851,1.7711346775919876,0.1632208232202575,-0.16678434209269039,-0.18610656292403296
2.1775,-9.788362814328869,-1.552374144241909,1.586320539569298,0.16249855507100425,-0.170126,-0.19084383998167706
2.18,-9.81018083086531,-1.3946218654386842,1.5780515251216423,0.16774213096454096,-0.16413720616725114,-0.19476613699624856
2.1825,-9.868113612656487,-1.1366453634788716,1.7884351153993654,0.17124188974559235,-0.15679249084841998,-0.19318571665364973
2.185,-9.734685918311284,-1.1199708907754489,1.861907000592476,0.16666663260831655,-0.15413392366257433,-0.18406946097108914
2.1875,-9.662102459102579,-1.248694947915393,1.7914776674410073,0.15762699193055388,-0.16103428096344297,-0.18433323401393814
2.19,-9.791275887147927,-1.4589051668070916,1.627094057694672,0.16069443062721894,-0.1671119929088759,-0.1794819929088759
2.1925,-9.732763496718285,-1.7975649803095937,1.800294727182648,0.1656380553560363,-0.1624666569659441,-0.1766429048916404
2.195,-9.689660407857057,-1.714682472178685,1.9464180839976106,0.16648478751876136,-0.16229154630375228,-0.18679195455390052
2.1975000000000002,-9.898300842261488,-1.539017309524006,2.136614308287066,0.164475,-0.16234045587823173,-0.19329724375936183
2.2,-9.934017390352015,-1.387319072632444,2.0402272692426084,0.1664984449685909,-0.16376691440085347,-0.18771019566196473
2.2025,-9.808403643188532,-1.371103735159919,1.926494589651557,0.16610516263484443,-0.16704873519809119,-0.18293412593794742
2.205,-9.663056235627502,-1.5577651760923241,1.8808979759833235,0.15752272073088613,-0.17177049349575246,-0.1856699934925471
2.2075,-9.739552820831134,-1.649520150881577,1.8036881708767745,0.1549206275762672,-0.17126321279846266,-0.19135923316838818
2.21,-9.957564883487098,-1.66944080280429,2.039564034083366,0.16171659027550617,-0.17291070591186977,-0.19286260853989673
2.2125,-9.912969534500714,-1.407348875840055,1.9999429876952277,0.1616506912920018,-0.1750308157595832,-0.19592931646947467
2.215,-9.666144437190656,-1.208276002044904,1.7156307400477986,0.16055830953655073,-0.17758815358815128,-0.19508426601051138
2.2175000000000002,-9.400147027417077,-1.2778065689665778,1.4755212076014954,0.15956759108130886,-0.17516331386899825,-0.19078445072925304
2.22,-9.844542413464378,-1.55251362967915,2.207885469267026,0.15899999871083573,-0.17607532095458625,-0.1806476585076322
2.2225,-9.681026795140106,-1.8516994527158621,1.9276583522271944,0.15604866434289477,-0.17592369094844287,-0.18375012735882065
2.225,-9.525796937052938,-2.096442839198792,1.6453923739627914,0.15448339055794172,-0.1752008034334756,-0.18849784949928705
2.2275,-9.514253214669852,-1.4355256022780638,1.8244163529211699,0.16199020723172478,-0.171348,-0.20056368263354038
2.23,-9.614796857237005,-1.2270267690535186,1.8627048948094589,0.16219832334024775,-0.17354819498133112,-0.19171128380963676
2.2325,-9.685714152041296,-1.2295764484748508,1.802329296571224,0.16320278122158036,-0.17726047880545634,-0.18201099696202547
2.235,-9.672296393815477,-1.6383480687441108,1.7270075055481964,0.16666369357467484,-0.17797765090184234,-0.17933973826329633
2.2375000000000003,-9.822135722064624,-1.821874036261795,1.9007850180713224,0.17050301518655397,-0.17154578574323495,-0.1806292192156397
2.24,-9.898291565388682,-1.9404435070097064,2.1087819405729635,0.168863355441559,-0.170279,-0.18604052856443934
2.2425,-9.915451938176924,-1.7871839919529133,2.099438759803964,0.16397320934084766,-0.17009187320264638,-0.19570208850771925
2.245,-10.02401361448413,-1.3477881325203795,2.17255216812417,0.16808957560218596,-0.17450904909335702,-0.19692274932298645
2.2475,-10.045778616140677,-1.2327885569225987,2.294587487768874,0.1749980548217929,-0.182343,-0.1896509176825246
2.25,-9.809597078498294,-1.4706810658215503,1.9886690926377377,0.16672779814724525,-0.182669686494393,-0.18321216040955632
2.2525,-9.70463573333333,-1.7449442849122743,1.7794767038596437,0.16653586385964886,-0.18442769754386,-0.18279071929824559
2.255,-9.813485,-1.904591,1.916547,0.173333,-0.17760323233826888,-0.183718
2.2575,-9.811579478799628,-1.7578413192807458,2.002119152657616,0.16934055529659137,-0.18143586481550655,-0.190242106716486
2.2600000000000002,-9.859106080544684,-1.345517500974657,2.181194174190157,0.1596219850071665,-0.183412,-0.20123993106545568
2.2625,-9.844320947409388,-1.254476020724677,2.048114514528466,0.16248522506786403,-0.181924040292694,-0.18870733718871494
2.265,-9.489172485095793,-1.6355206916700304,1.6200586829279087,0.171726305017237,-0.18414815211416724,-0.17279348699430785
2.2675,-9.331768543052814,-2.010816787740538,1.440451305174832,0.16831804802507835,-0.1937331287195563,-0.17872276961659073
2.27,-9.524345412892798,-2.0645260096886107,1.6849824028333757,0.1693688766627052,-0.19270145821725687,-0.19251560756833846
2.2725,-9.409866578117374,-1.5884566939688678,1.8519770301125815,0.18599556966706596,-0.18266249907544915,-0.1901781669748503
2.275,-9.241475751419255,-1.2875417484411424,1.705648665053505,0.17582216845044257,-0.18298027166123768,-0.19162564001861324
2.2775,-9.590182882138393,-1.2137218880954468,1.9786931943293329,0.16549505566587097,-0.18613048078281608,-0.18909850896420152
2.2800000000000002,-9.843128595234917,-1.5894300677171769,2.0559655134250567,0.17250659882297226,-0.19006722274956553,-0.17321835134946872
2.2825,-9.603460510168562,-2.0150816086345587,1.6760698569935495,0.1794490914557104,-0.1926033293469478,-0.16825627149845815
2.285,-9.269486214408577,-2.0236958288963707,1.6186777899312739,0.17436532028901075,-0.18474965761566212,-0.1917762771238798
2.2875,-9.431941862036973,-1.5881186037282844,2.0119913404272447,0.18014181875350058,-0.18336048743099456,-0.19870144152332167
2.29,-9.766590964745603,-1.2813160780654034,2.265044863549463,0.18316801427249854,-0.18457993958613975,-0.19401101427249853
2.2925,-9.938111731986758,-1.201811732317879,2.231413127152323,0.1712957699337751,-0.184481,-0.1885935862913908
2.295,-9.795284510999881,-1.4254405258832004,2.180485283665818,0.1671024657743924,-0.1920149608294037,-0.18157807856365635
2.2975,-9.686559899761152,-1.7476138976664828,2.181956197473599,0.1700868701699584,-0.198684,-0.1774172210059714
2.3000000000000003,-9.685804395558034,-2.0174529916182493,2.0595952986972237,0.1719499988227905,-0.20116287341076816,-0.18514459560508717
2.3025,-9.902261752083207,-1.8167703297299795,2.036815340520174,0.16954936624721312,-0.19905709005201616,-0.19793616071340142
2.305,-9.68419567881276,-1.5787926631509532,1.9595174443670804,0.1725491857147447,-0.181732,-0.19728661071394146
2.3075,-9.562408,-1.37494,1.9835,0.179442,-0.18278694469952222,-0.192117
2.31,-9.571905174459108,-1.3869245082849673,1.9869483943007935,0.17861158058047447,-0.18726302691292904,-0.19192924189973606
2.3125,-9.91966269466008,-1.6831000644554222,2.2044247165372854,0.16489280381086802,-0.19533047941660786,-0.18832868195718655
2.315,-10.099736522309236,-1.8128442707599075,2.404712366854325,0.17537578460090886,-0.18619817234351352,-0.1882059406331234
2.3175,-9.627413940998707,-1.7368206164627134,1.9846805689570401,0.17803850328343973,-0.17977747223087015,-0.19057323392647527
2.32,-9.375031794409068,-1.5331095779982562,1.6883012090102265,0.16751702124613102,-0.18672533251527873,-0.196968004740059
2.3225000000000002,-9.614202039755503,-1.544594820822964,1.9558149541171406,0.16880205566423917,-0.18861806666823372,-0.1902283602445317
2.325,-9.822130457094511,-1.680808697800345,2.223582238868742,0.18290621416485386,-0.1837220189025861,-0.18139123587140454
2.3275,-9.665377861822224,-1.8425466306872809,2.082039096350998,0.17285814558316312,-0.17689680933960084,-0.19061534314752787
2.33,-9.567304325525713,-1.7865964231892044,2.0645509371142983,0.16660746358424675,-0.17542585644947611,-0.19883478157774306
2.3325,-9.539472308064992,-1.6946647983161012,2.108040650743476,0.17219900901526353,-0.17914478779419013,-0.19781783522895116
2.335,-9.484718524236499,-1.7948789757634982,2.1617507549399106,0.17626463892965885,-0.18690286243550708,-0.19507208520429403
2.3375,-9.643117024725443,-1.7373653330465466,2.223269973689583,0.1706532969319596,-0.1857585642477079,-0.20305704890750592
2.34,-9.899755566667746,-1.570623952615073,2.1257083998061628,0.17502865755451422,-0.178733152162817,-0.19742968489097154
2.3425000000000002,-9.88471186865124,-1.7617102662783533,2.2975583327047313,0.1789182226736686,-0.17986039121986194,-0.18820015330150439
2.345,-9.977861538128439,-1.812961326941995,2.584117582549557,0.17366220105514402,-0.18406508335640998,-0.1927878297493439
2.3475,-9.726357117894546,-1.6468453626958337,2.244110511509535,0.1699857840687231,-0.18033529449746197,-0.20135226827333044
2.35,-9.280601439128434,-1.8513197271330313,1.7206612657110125,0.16907691066513778,-0.18139238461009227,-0.19645952107798156
2.3525,-9.187333651584881,-1.9084444987539786,1.8607498601943375,0.17387223834081825,-0.19249008772434062,-0.1959618404507227
2.355,-9.45106926170561,-1.778907351156448,2.1477044826805853,0.18008080260941758,-0.1899564058403511,-0.20161748137113036
2.3575,-9.415464786390052,-1.5582990608417362,1.8856987056929593,0.18419123756253697,-0.18835786185180808,-0.19719250550800263
2.36,-9.206664629375553,-1.5620434083025376,1.741622401020215,0.18509565857519797,-0.18693025569041322,-0.18996383004397563
2.3625000000000003,-9.17908006060558,-1.8267368546135754,1.951452998772909,0.18231927805577613,-0.189368,-0.18753003381673367
2.365,-9.23244668485262,-2.094303869091348,1.9800970767777981,0.1756625360105494,-0.1895036691632705,-0.1933203301462485
2.3675,-9.766880236738224,-2.049232171390337,2.2602222610535847,0.1814935547436355,-0.1896067479338255,-0.19954799626891967
2.37,-9.599483621268103,-1.6944895644074853,1.8538188647637048,0.18719935385419142,-0.18582320184279286,-0.2017263157729755
2.3725,-9.543625912055763,-1.4045339537766433,1.7811902310142695,0.18654507022592523,-0.18752618207338556,-0.20023135019387908
2.375,-9.678587709568163,-1.6283400033869602,2.206875137171888,0.1821742447078747,-0.1821440067739204,-0.19503837002540222
2.3775,-9.64079045463898,-1.9763686637388487,2.296844466271043,0.1877315496735908,-0.17881294464886244,-0.19133550326409504
2.38,-9.481786030392875,-2.2002558341456515,1.8859213873906542,0.18114038056995452,-0.18343573935029883,-0.1975575609569599
2.3825,-9.538889453437422,-2.071443585735667,1.9511244056183896,0.17850566258412726,-0.18600653459515365,-0.20684826210175633
2.3850000000000002,-9.952632808680022,-1.4853580124789298,2.7365332483530986,0.1838212978635066,-0.17980949158970097,-0.21044120716305575
2.3875,-9.832590179520544,-1.3336020960204928,2.5273042949033275,0.18681433921340496,-0.17667657770537665,-0.19812827921805798
2.39,-9.367282695097973,-1.6194564264199274,1.7799195077325058,0.18597976355832005,-0.185512944709176,-0.1913162878320376
2.3925,-9.323203084859081,-1.9443622557507814,1.8978969181869254,0.1831772191725733,-0.1893129763243777,-0.19488599808142398
2.395,-9.57479359763005,-1.895508760360233,2.3096164323261017,0.1953476207228344,-0.186772,-0.1914339201469369
2.3975,-9.400019023530549,-1.887497784023187,1.9768031761410276,0.18745410930693082,-0.18644245872977544,-0.19860661632455914
2.4,-9.409608448454103,-1.5842196002898756,2.0452142595169134,0.17957368487922662,-0.185092,-0.20780739115942065
2.4025,-9.385309601730953,-1.3798615965894967,1.9627000427249297,0.193890692990573,-0.18854382608397524,-0.1849235160582724
2.4050000000000002,-9.535449196277186,-1.769604227088391,2.145294751453424,0.19258693536455757,-0.19552613614196093,-0.18164299890874067
2.4075,-9.842314375730373,-2.0455920229855744,2.419309016565048,0.18908359146067458,-0.19386161560192416,-0.19107330863563476
2.41,-9.874695133949448,-2.1767901691071696,2.4198260550195796,0.19283173287619657,-0.18095721191275704,-0.19898019041581708
