time,acc_x_g,acc_y_g,acc_z_g,gyro_x_rad_s,gyro_y_rad_s,gyro_z_rad_s
1765408877.345708,-7.447991,-2.668580,-5.756217,-0.006567,-0.008247,-0.002291
1765408877.345908,-7.426469,-2.636298,-5.863223,-0.005498,-0.010537,-0.002138
1765408877.346108,-7.345767,-2.605213,-5.992347,-0.006872,-0.008858,0.001069
1765408877.346308,-7.311692,-2.656623,-5.922405,-0.006109,-0.008094,-0.000458
1765408877.346437,-7.417502,-2.649449,-5.784911,-0.007941,-0.008094,0.000305
1765408877.346687,-7.484457,-2.684720,-5.789693,-0.006261,-0.008399,-0.000764
1765408877.346937,-7.424078,-2.697273,-5.872787,-0.005803,-0.008399,-0.003360
1765408877.347187,-7.352940,-2.914873,-5.766379,-0.010385,-0.007483,0.000611
1765408877.347468,-7.417502,-3.145624,-5.657579,-0.005803,-0.005498,0.006720
1765408877.347718,-7.308105,-3.273553,-5.735293,0.000764,-0.005345,0.006872
1765408877.347968,-7.308105,-3.273553,-5.735293,0.000764,-0.002902,0.006872
1765408877.348218,-7.348158,-3.192252,-5.608560,0.009163,-0.003665,0.014966
1765408877.348523,-7.248923,-3.102582,-5.853060,0.016646,-0.004581,0.019548
1765408877.348723,-7.272237,-2.898134,-5.630679,0.017868,0.002443,0.027489
1765408877.348923,-7.089310,-2.709828,-5.909253,0.017868,0.008094,0.040775
1765408877.349123,-7.042084,-2.456958,-6.000119,0.013897,0.005803,0.045968
1765408877.349323,-7.124580,-2.142515,-5.926589,0.004276,0.006872,0.054062
1765408877.349568,-7.149688,-2.018771,-5.983381,-0.005803,0.011759,0.067501
1765408877.349818,-6.971544,-2.140124,-6.230272,-0.024587,0.019090,0.070708
1765408877.350068,-7.217838,-2.014586,-5.862624,-0.039248,0.017257,0.071166
1765408877.350318,-7.266857,-2.226805,-5.859635,-0.058185,0.020311,0.074678
1765408877.350471,-7.228598,-2.268651,-5.927785,-0.071013,0.013897,0.072693
1765408877.350721,-7.257292,-2.106647,-5.859038,-0.082925,0.016035,0.071471
1765408877.350971,-7.268651,-2.192132,-5.690458,-0.095295,0.010690,0.076205
1765408877.351221,-7.170611,-2.626733,-5.790888,-0.109803,0.010690,0.077885
1765408877.351498,-7.093495,-2.810856,-6.176470,-0.120493,0.002443,0.073304
1765408877.351831,-6.976924,-2.642276,-6.254781,-0.121715,0.000764,0.068111
1765408877.352165,-7.057627,-2.516140,-6.012074,-0.124922,0.008858,0.069791
1765408877.352516,-7.131156,-2.531683,-5.730511,-0.130114,0.015424,0.068570
1765408877.352766,-7.135341,-2.618364,-5.598398,-0.134238,0.015424,0.069791
1765408877.353016,-7.318268,-2.528694,-5.517694,-0.137750,0.007483,0.069944
1765408877.353266,-7.152080,-2.500000,-5.555954,-0.139430,0.000305,0.071166
1765408877.353563,-7.021759,-2.364897,-5.719751,-0.144011,0.000305,0.069791
1765408877.353813,-6.753944,-2.485652,-6.064084,-0.153785,-0.006109,0.070402
1765408877.354063,-6.689382,-2.544237,-6.251792,-0.154396,-0.006720,0.070708
1765408877.354313,-6.689382,-2.544237,-6.251792,-0.154396,-0.003360,0.070708
1765408877.354467,-6.765901,-2.183764,-5.894906,-0.163406,0.002291,0.066737
1765408877.354717,-6.672644,-2.219631,-6.162720,-0.171348,-0.000916,0.065973
1765408877.354967,-6.798779,-1.970349,-5.905068,-0.174707,-0.005345,0.066279
1765408877.355217,-6.831659,-2.085126,-6.045551,-0.176998,-0.005956,0.069486
1765408877.355547,-6.664275,-2.012195,-6.384504,-0.183260,-0.009621,0.067501
1765408877.355797,-6.675035,-2.137733,-6.312768,-0.196851,-0.010232,0.063683
1765408877.356047,-6.751554,-2.107245,-6.156145,-0.199295,-0.010232,0.060628
1765408877.356297,-6.814920,-1.828073,-6.379722,-0.211054,-0.012065,0.054062
1765408877.356482,-6.927307,-1.525586,-6.264945,-0.222202,-0.019700,0.052840
1765408877.356732,-6.952414,-1.721664,-6.137015,-0.230296,-0.007636,0.058032
1765408877.356982,-7.067192,-1.923720,-6.232663,-0.246637,-0.017104,0.053603
1765408877.357232,-7.256694,-1.639168,-6.027020,-0.268170,-0.017104,0.043830
1765408877.357453,-7.207077,-1.646939,-6.112505,-0.267101,-0.023824,0.050244
1765408877.357786,-7.134744,-1.939263,-6.359397,-0.268323,-0.034361,0.052840
1765408877.358120,-7.156264,-1.921329,-6.140004,-0.280540,-0.032834,0.040317
1765408877.358480,-7.062409,-1.822094,-6.368364,-0.284358,-0.045051,0.040623
1765408877.358730,-7.190339,-1.872310,-6.526780,-0.295964,-0.045051,0.035736
1765408877.358980,-7.190339,-1.872310,-6.526780,-0.295964,-0.047037,0.035736
1765408877.359230,-7.645265,-1.469392,-5.802247,-0.308945,-0.056810,0.034514
1765408877.359500,-7.456958,-1.713295,-6.125059,-0.323911,-0.056810,0.035125
1765408877.359750,-7.456958,-1.713295,-6.125059,-0.323911,-0.065668,0.035125
1765408877.360000,-7.557387,-1.452654,-6.229674,-0.350637,-0.064904,0.022602
1765408877.360250,-7.519727,-1.598517,-6.028813,-0.350637,-0.075900,0.022602
1765408877.360540,-7.596842,-1.310378,-6.140004,-0.361785,-0.097128,0.027489
1765408877.360873,-7.276422,-1.872310,-6.372549,-0.382707,-0.097128,0.027336
1765408877.361207,-7.112625,-1.792204,-6.642754,-0.376598,-0.113316,0.023671
1765408877.361523,-7.488043,-1.653515,-6.187231,-0.379500,-0.121868,0.021533
1765408877.361773,-7.507173,-1.636777,-5.998325,-0.389121,-0.116981,0.023671
1765408877.362023,-6.819702,-2.120995,-6.930893,-0.398590,-0.130420,0.018021
1765408877.362273,-6.774867,-1.722860,-6.994260,-0.397521,-0.145386,0.007330
1765408877.362554,-6.964370,-1.376136,-6.382710,-0.391565,-0.152411,0.012065
1765408877.362804,-6.712099,-1.811334,-6.630200,-0.416457,-0.158214,0.011148
1765408877.363054,-6.648732,-1.547704,-6.718674,-0.422413,-0.158214,0.005040
1765408877.363304,-6.660090,-1.732424,-6.811333,-0.414625,-0.176235,0.011759
1765408877.363490,-7.112625,-1.801769,-6.764108,-0.428369,-0.176235,0.002138
1765408877.363823,-7.383428,-1.579388,-5.885939,-0.438296,-0.172264,-0.004429
1765408877.364157,-7.587876,-1.507652,-5.712577,-0.430049,-0.158825,0.000611
1765408877.364496,-7.018172,-1.974533,-6.743184,-0.424093,-0.178525,0.003360
1765408877.364746,-7.018172,-1.974533,-6.743184,-0.424093,-0.198837,0.003360
1765408877.364996,-7.340984,-1.812530,-6.709707,-0.420275,-0.199295,-0.002902
1765408877.365246,-7.698468,-1.751554,-6.281683,-0.418748,-0.198073,-0.004734
1765408877.365584,-7.827593,-1.474175,-6.506456,-0.433103,-0.191659,-0.013286
1765408877.365917,-7.205284,-1.793400,-6.686991,-0.445473,-0.203418,-0.013439
1765408877.366251,-7.205284,-1.793400,-6.686991,-0.445473,-0.221286,-0.013439
1765408877.366474,-6.281683,-1.819703,-7.216642,-0.433714,-0.226631,-0.028405
1765408877.366724,-6.700142,-1.276901,-6.993064,-0.448222,-0.220828,-0.029169
1765408877.366974,-7.162840,-1.657102,-6.698946,-0.449291,-0.245110,-0.027642
1765408877.367224,-7.679339,-1.778455,-6.034193,-0.454178,-0.245110,-0.027489
1765408877.367525,-8.425991,-1.521999,-5.741271,-0.454178,-0.254578,-0.027489
1765408877.367858,-8.311811,-1.397656,-6.043758,-0.465174,-0.250455,-0.033750
1765408877.368192,-8.015303,-1.545911,-6.401242,-0.463341,-0.284205,-0.035430
1765408877.368506,-7.870636,-1.416786,-6.518411,-0.472962,-0.295964,-0.037721
1765408877.368839,-7.810855,-1.293639,-6.455044,-0.477391,-0.313374,-0.033292
1765408877.369173,-7.547823,-1.765901,-6.779052,-0.487776,-0.311999,-0.031307
1765408877.369647,-7.214251,-1.851985,-7.474892,-0.497092,-0.324369,-0.034819
1765408877.369897,-7.968674,-1.394070,-6.443089,-0.494190,-0.329867,-0.036041
1765408877.370147,-7.887373,-1.931492,-6.492108,-0.506255,-0.334754,-0.031918
1765408877.370397,-8.593375,-1.409612,-5.652797,-0.501979,-0.352469,-0.031918
1765408877.370528,-8.796627,-1.654711,-5.906264,-0.505949,-0.358731,-0.032987
1765408877.370861,-7.974055,-1.896222,-6.098756,-0.506407,-0.378889,-0.027489
1765408877.371195,-7.798900,-1.911764,-6.727641,-0.517250,-0.400728,-0.033903
1765408877.371553,-7.939382,-1.611669,-6.268531,-0.517250,-0.419664,-0.033903
1765408877.371803,-7.857483,-1.813127,-6.514824,-0.504269,-0.428675,-0.037568
1765408877.372053,-7.709229,-1.866332,-6.929698,-0.510072,-0.431729,-0.049786
1765408877.372303,-7.934002,-1.201578,-6.171687,-0.518625,-0.424093,-0.048717
1765408877.372550,-7.919654,-1.560856,-6.924317,-0.509767,-0.434325,-0.040928
1765408877.372883,-7.735532,-1.436514,-6.596723,-0.528857,-0.454484,-0.045968
1765408877.373217,-7.758847,-1.486131,-6.563844,-0.525039,-0.465327,-0.045204
1765408877.373452,-7.274031,-1.747967,-7.370874,-0.530995,-0.456469,-0.047189
1765408877.373702,-7.391199,-1.366571,-7.535867,-0.539547,-0.476475,-0.053145
1765408877.373952,-8.605929,-1.329507,-5.983381,-0.559858,-0.476475,-0.053909
1765408877.374202,-9.467957,-1.433524,-5.222381,-0.550542,-0.489914,-0.046120
1765408877.374486,-9.207316,-1.696556,-5.891917,-0.569632,-0.481973,-0.048411
1765408877.374819,-9.085364,-1.135820,-5.636657,-0.564134,-0.516181,-0.050549
1765408877.375153,-8.086441,-2.073170,-6.701936,-0.581391,-0.563218,-0.042608
1765408877.375520,-8.189860,-1.493304,-6.620038,-0.567647,-0.563218,-0.053145
1765408877.375770,-8.455283,-1.367766,-6.095767,-0.573755,-0.566425,-0.054978
1765408877.376020,-8.753586,-0.887135,-5.604973,-0.579100,-0.584903,-0.050702
1765408877.376270,-8.801410,-1.377929,-6.358201,-0.598343,-0.613767,-0.051465
1765408877.376537,-9.548659,-0.917025,-5.682089,-0.598953,-0.651182,-0.052993
1765408877.376870,-9.695719,-1.610473,-5.424438,-0.604146,-0.651182,-0.039859
1765408877.377204,-9.985652,-1.374940,-5.073529,-0.609949,-0.664927,-0.042913
1765408877.377523,-9.214490,-1.475371,-6.602103,-0.611476,-0.689361,-0.043219
1765408877.377856,-7.845528,-1.728838,-7.581300,-0.617432,-0.726013,-0.046426
1765408877.378190,-7.338593,-1.762314,-7.485651,-0.616363,-0.729220,-0.048869
1765408877.380392,-7.387612,-1.495696,-7.164035,-0.613309,-0.723723,-0.048564
1765408877.380642,-7.989597,-1.454447,-6.340267,-0.625526,-0.720516,-0.052993
1765408877.380892,-7.852701,-1.563247,-6.441295,-0.623083,-0.726319,-0.045662
1765408877.381142,-8.127689,-1.695361,-6.363582,-0.636063,-0.732427,-0.054062
1765408877.380462,-7.843136,-1.562649,-6.024629,-0.630871,-0.754113,-0.058185
1765408877.380795,-7.054040,-1.346246,-6.890243,-0.631940,-0.757167,-0.058948
1765408877.381129,-7.516737,-1.108321,-7.054040,-0.650266,-0.779006,-0.061850
1765408877.380506,-7.722380,-1.471186,-6.402438,-0.647823,-0.780380,-0.065057
1765408877.380756,-8.238281,-0.643233,-5.773552,-0.652709,-0.780380,-0.069944
1765408877.381006,-8.177904,-0.606169,-5.841702,-0.646601,-0.790154,-0.055283
1765408877.381256,-7.464729,-1.287661,-7.242945,-0.666301,-0.824057,-0.055894
1765408877.381594,-7.607006,-1.396461,-6.665471,-0.664469,-0.861931,-0.068875
1765408877.381927,-7.489239,-0.964251,-7.379841,-0.665996,-0.853379,-0.073457
1765408877.382261,-7.472500,-0.989359,-6.505858,-0.679740,-0.853379,-0.066126
1765408877.382479,-8.487565,-1.295433,-6.263749,-0.685238,-0.841925,-0.062919
1765408877.382729,-8.727880,-1.749163,-6.084409,-0.695317,-0.853379,-0.070250
1765408877.382979,-8.926350,-1.518412,-5.632472,-0.696997,-0.855975,-0.078649
1765408877.383229,-8.926350,-1.518412,-5.632472,-0.696997,-0.854600,-0.078649
1765408877.383540,-9.477522,-0.939144,-4.548063,-0.710742,-0.864680,-0.075595
1765408877.383873,-9.493064,-1.157939,-5.085485,-0.701426,-0.893390,-0.074373
1765408877.384207,-9.065040,-1.098756,-5.506934,-0.713949,-0.932333,-0.075595
1765408877.384508,-8.589788,-1.141200,-5.246293,-0.701884,-0.932333,-0.068417
1765408877.384758,-8.589788,-1.141200,-5.246293,-0.701884,-0.938136,-0.068417
1765408877.385008,-8.659731,-1.318747,-4.702892,-0.715629,-0.987311,-0.066432
1765408877.385258,-9.775824,-0.932568,-4.594093,-0.717309,-1.008080,-0.065515
1765408877.385577,-8.920372,-1.834050,-6.603897,-0.725555,-1.055881,-0.070708
1765408877.385910,-9.054279,-0.474653,-6.755140,-0.743270,-1.059851,-0.091019
1765408877.386244,-9.054279,-0.474653,-6.755140,-0.743270,-1.040303,-0.091019
1765408877.386577,-7.603418,-1.229077,-6.751554,-0.753808,-1.038471,-0.076053
1765408877.386827,-8.170731,-0.768771,-5.370636,-0.767705,-1.036333,-0.100487
1765408877.387077,-8.223337,-0.280966,-5.098039,-0.763276,-1.022130,-0.088423
1765408877.387327,-7.999760,-1.611669,-6.604494,-0.786947,-1.033279,-0.085674
1765408877.387559,-8.347679,-0.589431,-5.994141,-0.788780,-1.034348,-0.107054
1765408877.387892,-9.173840,-0.226566,-4.603060,-0.796416,-1.021825,-0.099571
1765408877.388226,-9.071017,-1.264945,-4.225849,-0.793361,-1.048703,-0.076969
1765408877.388539,-8.249640,-1.390483,-5.174557,-0.817490,-1.072832,-0.101556
1765408877.388789,-8.197631,-1.090387,-6.006694,-0.816574,-1.072832,-0.103389
1765408877.389039,-7.997368,-1.080822,-6.430534,-0.792445,-1.081690,-0.085368
1765408877.389289,-9.267694,-1.241631,-5.107604,-0.809396,-1.091769,-0.091477
1765408877.389516,-9.151720,-1.954806,-4.441654,-0.815658,-1.081537,-0.099266
1765408877.389849,-8.895264,-1.697752,-4.983261,-0.794583,-1.066723,-0.100335
1765408877.390183,-8.486369,-0.818986,-6.452654,-0.810465,-1.088562,-0.114995
1765408877.390515,-9.606647,-0.573888,-4.093735,-0.831388,-1.102001,-0.114843
1765408877.390765,-10.491391,-0.181731,-3.397895,-0.823294,-1.100321,-0.102014
1765408877.391015,-9.306551,-0.575084,-4.335844,-0.833678,-1.117272,-0.099418
1765408877.391518,-10.044236,-0.633668,-3.355452,-0.859182,-1.187217,-0.094837
1765408877.391851,-8.689621,-1.775466,-5.717360,-0.852157,-1.219134,-0.091019
1765408877.392185,-8.372787,-0.878766,-7.192730,-0.883617,-1.225854,-0.124158
1765408877.392568,-8.012912,-0.575084,-6.284672,-0.867734,-1.197601,-0.102778
1765408877.392818,-8.047584,-1.460425,-5.117168,-0.883922,-1.194089,-0.093921
1765408877.393068,-8.628048,-1.154950,-4.631754,-0.899957,-1.197143,-0.112246
1765408877.393318,-7.964489,-1.315758,-5.448349,-0.906829,-1.184162,-0.103847
1765408877.393524,-7.179578,-2.135342,-6.618244,-0.882395,-1.203252,-0.096975
1765408877.393857,-8.634623,-0.970827,-4.322094,-0.891711,-1.193936,-0.127060
1765408877.394191,-8.981945,-0.182927,-3.679459,-0.901637,-1.165073,-0.123089
1765408877.394479,-7.400167,-0.923003,-5.920611,-0.910037,-1.202335,-0.103542
1765408877.394729,-8.089430,-0.948709,-6.245815,-0.931111,-1.269836,-0.124006
1765408877.394979,-9.675991,0.141679,-3.727283,-0.923781,-1.182635,-0.130420
1765408877.395229,-8.287301,-0.766380,-5.644428,-0.938442,-1.182635,-0.105222
1765408877.395509,-7.881395,-0.801052,-5.202056,-0.969443,-1.211651,-0.115759
1765408877.395759,-9.016020,-0.925394,-4.733381,-0.962265,-1.195463,-0.108123
1765408877.396009,-9.016020,-0.925394,-4.733381,-0.962265,-1.216538,-0.108123
1765408877.396259,-9.675393,-0.765782,-3.016499,-0.973261,-1.215316,-0.122326
1765408877.396484,-9.905546,-0.637853,-2.751076,-0.964862,-1.217607,-0.107665
1765408877.396817,-9.172644,-1.163917,-2.929220,-0.952186,-1.232115,-0.084299
1765408877.397151,-8.050572,-2.398374,-5.737086,-0.950812,-1.282206,-0.085063
1765408877.397445,-8.726685,-1.912960,-5.456718,-0.959975,-1.335657,-0.136681
1765408877.397695,-9.623982,-0.905667,-4.685556,-0.944550,-1.281290,-0.132863
1765408877.397945,-8.375177,-0.376614,-5.926589,-0.934624,-1.231657,-0.119119
1765408877.398195,-8.053562,-0.542205,-5.694643,-0.987158,-1.242958,-0.131183
1765408877.398476,-9.275465,-0.307269,-3.944882,-0.994183,-1.260979,-0.120951
1765408877.398809,-8.703969,-0.969632,-5.239120,-0.977079,-1.264033,-0.112246
1765408877.399143,-9.250358,-0.164993,-3.678264,-0.993725,-1.244638,-0.118661
1765408877.399469,-8.078072,-0.900287,-4.411167,-1.010371,-1.222952,-0.100793
1765408877.399719,-7.829985,-1.665471,-4.831420,-0.996168,-1.290453,-0.099113
1765408877.399969,-8.146818,-1.849593,-4.950980,-1.002430,-1.269989,-0.115148
1765408877.400219,-9.097322,-0.882951,-4.259923,-0.991740,-1.269989,-0.118661
1765408877.400523,-9.085364,-1.339670,-4.357962,-0.989449,-1.257313,-0.106443
1765408877.400856,-9.640123,-0.793281,-4.208512,-1.000903,-1.262048,-0.121257
1765408877.401190,-9.361548,-0.796270,-3.431970,-1.017091,-1.251205,-0.120799
1765408877.401552,-9.072213,-0.309660,-3.632233,-1.012815,-1.252121,-0.114079
1765408877.401802,-9.127211,-0.230751,-2.858680,-1.039235,-1.252121,-0.112399
1765408877.402052,-9.127211,-0.230751,-2.858680,-1.039235,-1.261895,-0.112399
1765408877.402302,-9.156503,-1.499282,-4.510999,-1.058324,-1.294423,-0.085063
1765408877.402476,-8.395504,-1.869918,-5.946914,-1.059546,-1.357953,-0.109956
1765408877.402809,-8.923959,-0.863223,-6.364777,-1.050077,-1.318094,-0.119577
1765408877.403143,-8.023671,-1.651124,-3.691415,-1.044885,-1.270294,-0.096975
1765408877.403515,-8.206598,-1.720468,-4.931850,-1.058019,-1.265102,-0.106291
1765408877.403765,-8.450501,-1.834050,-4.478718,-1.057560,-1.264033,-0.117744
1765408877.404015,-8.634623,-0.972621,-4.850550,-1.033279,-1.264033,-0.114690
1765408877.404265,-9.121233,-0.314443,-3.550932,-1.051910,-1.241889,-0.114079
1765408877.404499,-7.988401,-0.124940,-4.397417,-1.052979,-1.230435,-0.098349
1765408877.404749,-8.328549,-0.538020,-4.988044,-1.071916,-1.299921,-0.108429
1765408877.404999,-8.870156,-0.662362,-4.418938,-1.070847,-1.271821,-0.109956
1765408877.405249,-8.322572,-0.169775,-6.012074,-1.071000,-1.271821,-0.102778
1765408877.405497,-8.322572,-0.169775,-6.012074,-1.071000,-1.247081,-0.102778
1765408877.405830,-8.509085,-1.531564,-4.509803,-1.091158,-1.247998,-0.079107
1765408877.406164,-9.417742,-2.221425,-2.264467,-1.090242,-1.290300,-0.093157
1765408877.406499,-9.952174,-1.340268,-3.028455,-1.081690,-1.275334,-0.107360
1765408877.406749,-10.249879,-1.022238,-1.874103,-1.072221,-1.286940,-0.096059
1765408877.406999,-10.040649,-0.714969,-2.999163,-1.065502,-1.292744,-0.081703
1765408877.407249,-8.255618,-1.565638,-5.363461,-1.101848,-1.360244,-0.100487
1765408877.407450,-7.502390,-0.836920,-7.174796,-1.094212,-1.360244,-0.113926
1765408877.407783,-7.119200,-0.433405,-6.600908,-1.091922,-1.354441,-0.113926
1765408877.408117,-8.586202,-0.014347,-4.194165,-1.105361,-1.291980,-0.096669
1765408877.408486,-8.497129,-0.762793,-4.568388,-1.138195,-1.273349,-0.096669
1765408877.408736,-8.098995,-1.021042,-5.155427,-1.128726,-1.282970,-0.089950
1765408877.408986,-7.936393,-0.701817,-5.258249,-1.128879,-1.279457,-0.082161
1765408877.409236,-9.206120,-1.030607,-2.819225,-1.126283,-1.277625,-0.075900
1765408877.409515,-8.831300,-2.001434,-3.305834,-1.143540,-1.267851,-0.069486
1765408877.409848,-9.507411,-2.393591,-3.527618,-1.116356,-1.290300,-0.080634
1765408877.410182,-9.482305,-1.245815,-3.874940,-1.113302,-1.262200,-0.098502
1765408877.410521,-10.212815,-0.955284,-2.989000,-1.142471,-1.269073,-0.110567
1765408877.410771,-9.742945,0.245098,-3.554519,-1.129032,-1.242805,-0.094990
1765408877.411021,-8.905427,-0.967240,-4.460186,-1.150259,-1.250441,-0.084147
1765408877.411271,-9.402199,-0.674318,-2.884385,-1.150870,-1.250441,-0.084605
1765408877.411509,-9.206120,-0.553563,-2.318269,-1.156979,-1.254412,-0.075595
1765408877.411842,-10.394547,-0.486011,-1.934481,-1.148121,-1.281290,-0.058643
1765408877.412176,-9.217479,-1.811334,-4.277857,-1.179734,-1.289995,-0.061239
1765408877.412522,-9.967119,-2.000239,-4.240793,-1.158353,-1.351234,-0.068417
1765408877.412772,-9.106885,-2.338594,-4.506217,-1.137737,-1.325272,-0.068875
1765408877.413022,-9.582734,-1.538737,-3.132472,-1.107193,-1.257772,-0.074373
1765408877.413272,-8.877928,-0.896700,-3.798421,-1.136973,-1.257772,-0.087354
1765408877.413468,-8.071496,-0.608560,-4.359158,-1.128268,-1.297325,-0.083841
1765408877.413718,-8.810975,-0.154232,-4.678383,-1.132239,-1.284650,-0.069639
1765408877.413968,-9.648493,-0.509326,-2.018173,-1.126741,-1.284650,-0.050855
1765408877.414218,-9.579147,-1.056910,-2.611190,-1.126741,-1.244180,-0.050855
1765408877.414495,-9.025584,-1.843018,-3.221544,-1.146136,-1.278388,-0.048106
1765408877.414828,-8.252031,-1.848398,-4.554040,-1.148579,-1.290300,-0.050244
1765408877.415162,-8.956241,-1.770684,-4.856527,-1.141707,-1.304808,-0.057574
1765408877.415433,-9.541486,-1.006695,-2.624940,-1.138347,-1.254564,-0.051771
1765408877.415683,-9.477522,-2.264467,-2.723577,-1.127046,-1.238682,-0.040928
1765408877.415933,-9.483500,-1.322931,-2.705045,-1.116967,-1.256092,-0.057879
1765408877.416183,-9.689142,-0.985772,-1.692970,-1.143845,-1.247081,-0.067501
1765408877.416522,-11.103539,0.089670,-0.988761,-1.111622,-1.248150,-0.042150
1765408877.416855,-10.906862,-0.581062,-0.797465,-1.137431,-1.266629,-0.028253
1765408877.417189,-10.760401,-1.764706,-2.647058,-1.159728,-1.339780,-0.031765
1765408877.417479,-9.870276,-0.936155,-5.126732,-1.159575,-1.330770,-0.046120
1765408877.417729,-8.736847,-1.057508,-3.984935,-1.131933,-1.302823,-0.032376
1765408877.417979,-9.134384,-1.205165,-3.207795,-1.150565,-1.250136,-0.017715
1765408877.418229,-9.353179,-2.081540,-3.132472,-1.146441,-1.276250,-0.022602
1765408877.418456,-8.744618,-2.233381,-4.136178,-1.155146,-1.243416,-0.034972
1765408877.418789,-8.679459,-1.557867,-4.151721,-1.104750,-1.253648,-0.023518
1765408877.419123,-10.170371,-0.725131,-1.953610,-1.128115,-1.260673,-0.034056
1765408877.419488,-10.362266,-0.798661,-1.483740,-1.137737,-1.256703,-0.032070
1765408877.419738,-9.184600,-0.713773,-3.192252,-1.130101,-1.256703,-0.015577
1765408877.419988,-8.579626,-0.765782,-4.403993,-1.134835,-1.275487,-0.017715
1765408877.420238,-8.668100,-1.003108,-4.042324,-1.137584,-1.259604,-0.005345
1765408877.420484,-8.554519,-1.793400,-2.855093,-1.134529,-1.249678,0.001527
1765408877.420817,-9.124222,-1.703730,-2.809062,-1.117272,-1.248150,0.004276
1765408877.421151,-9.895385,-1.771879,-1.134624,-1.113302,-1.245554,-0.003054
1765408877.421480,-10.057388,-1.387494,-0.352702,-1.102001,-1.236239,0.005803
1765408877.421730,-9.465566,-1.761119,-1.626016,-1.092074,-1.265865,0.012828
1765408877.421980,-7.965685,-1.867527,-4.714251,-1.101543,-1.311680,0.007330
1765408877.422230,-8.870754,-0.829746,-5.183524,-1.100779,-1.353677,-0.010996
1765408877.422447,-8.417024,-1.353419,-3.543758,-1.100626,-1.292744,-0.002902
1765408877.422697,-8.417024,-1.353419,-3.543758,-1.100626,-1.249525,-0.002902
1765408877.422947,-9.906144,-0.954687,-2.625538,-1.123839,-1.216233,0.016952
1765408877.423197,-10.160210,-1.116093,-3.273553,-1.115440,-1.260826,0.018173
1765408877.423461,-11.132232,-1.428742,-1.645146,-1.112691,-1.240057,0.024587
1765408877.423794,-10.608559,-0.936155,-0.997130,-1.093601,-1.208902,0.038485
1765408877.424128,-9.811094,-2.254902,-1.374940,-1.122618,-1.199129,0.034361
1765408877.424482,-8.925155,-1.923720,-2.436633,-1.105666,-1.249678,0.023060
1765408877.424732,-9.681969,-1.790411,-2.926231,-1.089020,-1.249678,0.024129
1765408877.424982,-8.763748,-2.016977,-4.024390,-1.082300,-1.224785,0.027336
1765408877.425232,-10.003586,-0.784314,-2.413319,-1.078177,-1.208292,0.015272
1765408877.425460,-10.381395,-1.018651,-1.240435,-1.085660,-1.177901,0.031918
1765408877.425710,-9.922284,-0.888331,-1.416786,-1.085508,-1.186453,0.032987
1765408877.425960,-10.387374,-0.363462,-1.146580,-1.095587,-1.186453,0.031001
1765408877.426210,-10.437589,-0.806432,-0.442970,-1.095587,-1.187827,0.031001
1765408877.426529,-10.185316,-1.140602,-0.575084,-1.083369,-1.209360,0.070402
1765408877.426862,-8.650166,-2.303921,-3.331540,-1.099710,-1.245249,0.064141
1765408877.427196,-8.650166,-2.303921,-3.331540,-1.099710,-1.290453,0.064141
1765408877.427485,-8.524031,-2.247728,-4.027379,-1.058935,-1.261895,0.046120
1765408877.427735,-8.524031,-2.247728,-4.027379,-1.058935,-1.208597,0.046120
1765408877.427985,-8.049975,-2.274031,-3.030846,-1.060920,-1.211346,0.054062
1765408877.428235,-7.829387,-1.743783,-3.473218,-1.042441,-1.211346,0.043219
1765408877.428525,-7.829387,-1.743783,-3.473218,-1.042441,-1.197296,0.043219
1765408877.428775,-9.925871,-0.321616,-0.827953,-1.032210,-1.156215,0.060781
1765408877.429025,-9.373504,-0.971425,-1.881874,-1.032515,-1.147663,0.075136
1765408877.429275,-9.478120,-1.379722,-2.306313,-1.029919,-1.169654,0.067042
1765408877.429513,-9.188187,-1.056910,-2.719392,-1.023505,-1.162477,0.073762
1765408877.429846,-9.954566,-0.944524,-1.685198,-1.023352,-1.160797,0.074220
1765408877.430180,-9.377091,-1.485533,-2.155667,-1.029919,-1.139416,0.076969
1765408877.430516,-9.149927,-1.822094,-2.165830,-1.020909,-1.136209,0.082925
1765408877.430766,-9.606647,-2.248326,-2.054041,-0.996627,-1.129184,0.084910
1765408877.431016,-10.356884,-2.137733,-0.781325,-1.000292,-1.132391,0.070708
1765408877.431266,-10.763391,-1.786227,0.301889,-0.978912,-1.107193,0.072235
1765408877.431501,-10.566116,-1.811334,-0.502152,-0.962876,-1.171334,0.085216
1765408877.431751,-10.046627,-1.286466,-0.669536,-0.974330,-1.171334,0.066584
1765408877.432001,-10.003586,-0.829746,-2.462936,-0.979370,-1.178512,0.070860
1765408877.432251,-9.046508,-0.529651,-3.706360,-0.958906,-1.166600,0.086132
1765408877.432533,-9.291008,-1.090387,-3.064323,-0.977384,-1.161255,0.089186
1765408877.432866,-10.527258,-0.689861,0.184720,-0.987464,-1.101085,0.086132
1765408877.433200,-9.160687,-1.187231,-1.849593,-0.969443,-1.066571,0.105374
1765408877.433506,-9.160687,-1.187231,-1.849593,-0.969443,-1.111775,0.105374
1765408877.433756,-9.024986,-1.502271,-2.630320,-0.984104,-1.075581,0.092546
1765408877.434006,-10.625298,-1.302606,0.200861,-0.952492,-1.075581,0.110567
1765408877.434256,-8.658535,-2.398374,-1.389287,-0.941191,-1.099252,0.119119
1765408877.434545,-8.849832,-1.869321,-1.539933,-0.959058,-1.099252,0.086743
1765408877.434795,-8.849832,-1.869321,-1.539933,-0.959058,-1.095281,0.086743
1765408877.435045,-9.363939,-1.993663,-1.987087,-0.910189,-1.102001,0.098655
1765408877.435295,-8.702773,-1.420373,-2.415112,-0.913549,-1.065502,0.085063
1765408877.435529,-8.868961,-0.622908,-1.827475,-0.915382,-1.037402,0.078191
1765408877.435862,-9.175035,-0.746054,-1.196198,-0.909426,-1.021825,0.103389
1765408877.436196,-9.560616,-0.681492,-0.962458,-0.893696,-1.039082,0.109498
1765408877.436557,-9.730989,-1.225490,-0.801052,-0.913549,-0.999070,0.105374
1765408877.436807,-8.779291,-0.842898,-1.358202,-0.889267,-0.979675,0.117439
1765408877.437057,-8.582017,-1.335485,0.266021,-0.886671,-1.005790,0.123547
1765408877.437307,-8.905427,-1.215925,-0.646222,-0.894307,-1.027170,0.115912
1765408877.437557,-10.155428,-1.134624,0.644428,-0.887434,-1.040151,0.117133
1765408877.437807,-9.404591,-2.016977,-1.818508,-0.886518,-1.027933,0.125533
1765408877.438057,-9.655666,-1.842420,-2.015782,-0.881631,-1.055575,0.098960
1765408877.438307,-9.507411,-1.396461,-1.063486,-0.866665,-0.999070,0.100640
1765408877.438551,-9.594690,-1.676231,-1.038976,-0.852921,-0.972192,0.108734
1765408877.438884,-9.265901,-1.195600,-0.690459,-0.859335,-0.950201,0.102625
1765408877.439218,-8.733858,-1.700143,-1.110713,-0.852921,-0.945467,0.115454
1765408877.439538,-8.857603,-1.471784,-1.739598,-0.835969,-0.936609,0.117439
1765408877.439788,-9.216881,-0.975610,-0.993544,-0.836733,-0.915687,0.107360
1765408877.440038,-10.141079,-0.854854,0.929579,-0.837038,-0.886518,0.113468
1765408877.440288,-9.378286,-1.199785,-0.534433,-0.835969,-0.891252,0.121715
1765408877.440474,-8.945479,-0.869201,-0.879364,-0.842536,-0.892627,0.104458
1765408877.440724,-7.598636,-0.871592,-1.488522,-0.828791,-0.892627,0.120799
1765408877.440974,-7.358919,-1.169297,-1.646341,-0.828486,-0.888198,0.127671
1765408877.441224,-7.396579,-1.505261,-1.340268,-0.826806,-0.881937,0.122326
1765408877.441464,-8.249640,-1.839431,-1.012673,-0.831846,-0.865749,0.107665
1765408877.441797,-8.499520,-1.103539,-1.300813,-0.798554,-0.819476,0.107970
1765408877.442131,-8.819942,-0.901482,-0.596604,-0.813520,-0.819476,0.107360
1765408877.442445,-8.921568,-0.901482,-0.111191,-0.811687,-0.796568,0.116981
1765408877.442695,-8.242466,-1.539335,-0.393352,-0.805579,-0.775341,0.129503
1765408877.442945,-8.301051,-1.675633,-0.828551,-0.784198,-0.798859,0.124464
1765408877.443195,-8.525227,-1.692970,0.099235,-0.796721,-0.758695,0.116217
1765408877.443502,-8.452893,-1.639168,0.096844,-0.762971,-0.758695,0.123395
1765408877.443752,-8.699784,-2.036107,0.349713,-0.759458,-0.769232,0.120340
1765408877.444002,-8.885700,-1.251793,-0.306074,-0.734260,-0.788780,0.111330
1765408877.444252,-9.178621,-1.394070,0.089670,-0.726166,-0.778548,0.118661
1765408877.444465,-7.583094,-1.263151,-1.623625,-0.722348,-0.767705,0.112399
1765408877.444715,-7.140721,-0.934959,-1.260162,-0.716850,-0.749074,0.106749
1765408877.444965,-6.770682,-1.108919,-2.115016,-0.718683,-0.709367,0.113163
1765408877.445215,-7.141917,-0.594811,-1.676231,-0.709367,-0.713949,0.111788
1765408877.445545,-7.592658,-0.864419,-1.152558,-0.724486,-0.675312,0.106138
1765408877.445878,-9.170252,-0.669536,0.381396,-0.704175,-0.670730,0.119882
1765408877.446212,-9.416546,-0.878168,0.662960,-0.709520,-0.631787,0.126602
1765408877.446476,-9.642514,-1.374342,0.909852,-0.715018,-0.646754,0.121715
1765408877.446726,-9.459588,-0.989957,0.245098,-0.697150,-0.622014,0.112705
1765408877.446976,-8.759563,-1.110713,-0.093257,-0.696997,-0.622014,0.120493
1765408877.447226,-8.759563,-1.110713,-0.093257,-0.696997,-0.605826,0.120493
1765408877.447478,-9.115254,-1.024629,1.184840,-0.688445,-0.582460,0.127976
1765408877.447728,-8.891678,-1.691176,0.598398,-0.681267,-0.599106,0.130267
1765408877.447978,-8.831898,-1.696556,-0.457915,-0.677602,-0.584751,0.123242
1765408877.448228,-9.126015,-1.898613,-0.114778,-0.659276,-0.584751,0.118661
1765408877.448515,-9.271280,-1.772477,0.335964,-0.649044,-0.550542,0.113010
1765408877.448765,-8.691415,-1.461023,0.103419,-0.645990,-0.546419,0.111025
1765408877.449015,-9.005857,-1.441894,-0.034672,-0.653168,-0.519694,0.104000
1765408877.449265,-8.679459,-1.829268,-0.478240,-0.623846,-0.512821,0.114079
1765408877.449511,-8.782878,-1.230870,-0.041846,-0.611171,-0.484722,0.104916
1765408877.449761,-8.957436,-1.392276,0.185318,-0.617279,-0.452193,0.097280
1765408877.450011,-8.981347,-0.685677,0.019727,-0.604146,-0.448681,0.100335
1765408877.450261,-8.495934,-0.503348,0.412482,-0.595288,-0.448681,0.103542
1765408877.450563,-8.495934,-0.503348,0.412482,-0.595288,-0.430049,0.103542
1765408877.450896,-8.646580,-0.728120,0.854854,-0.603688,-0.404545,0.124006
1765408877.451230,-8.722500,-1.414395,0.146461,-0.594219,-0.410043,0.119882
1765408877.451505,-8.813964,-0.939742,0.169775,-0.580475,-0.391106,0.113010
1765408877.451755,-9.655068,-0.940937,0.983979,-0.578948,-0.391106,0.107818
1765408877.452005,-9.655068,-0.940937,0.983979,-0.578948,-0.375377,0.107818
1765408877.452255,-8.969392,-0.783118,0.623505,-0.563065,-0.372628,0.104916
1765408877.452536,-8.929937,-0.796270,0.723338,-0.578642,-0.377362,0.107360
1765408877.452786,-9.266499,-0.625299,0.538020,-0.569326,-0.372017,0.114385
1765408877.453036,-9.369917,-1.114299,0.970827,-0.563065,-0.369115,0.116675
1765408877.453286,-9.369917,-1.114299,0.970827,-0.563065,-0.352622,0.116675
1765408877.453546,-10.129124,-0.794476,0.799259,-0.555429,-0.337198,0.099571
1765408877.453796,-9.368722,-1.251793,0.914036,-0.547183,-0.337198,0.113010
1765408877.454046,-8.877331,-1.071258,-0.370038,-0.539699,-0.318566,0.109650
1765408877.454296,-8.866570,-0.703013,-0.383788,-0.544739,-0.318566,0.108123
1765408877.454526,-9.198947,-1.232664,0.023912,-0.532980,-0.307571,0.120493
1765408877.454776,-9.103298,-1.526781,-0.277977,-0.528704,-0.288176,0.115301
1765408877.455026,-9.049497,-1.127451,-0.130918,-0.523512,-0.282525,0.096211
1765408877.455276,-9.168459,-1.480153,0.145863,-0.525039,-0.245262,0.104153
1765408877.455558,-9.205523,-1.053324,-0.365854,-0.496481,-0.247400,0.105527
1765408877.455891,-9.665230,-1.285868,0.634266,-0.503658,-0.233503,0.098044
1765408877.456225,-9.579147,-1.007891,0.434003,-0.497244,-0.206167,0.098502
1765408877.456600,-9.614418,-1.286466,0.634864,-0.485180,-0.209221,0.109498
1765408877.456850,-9.485890,-1.331898,0.430416,-0.485180,-0.209527,0.109498
1765408877.457100,-9.876852,-0.767575,0.732305,-0.474490,-0.205251,0.090103
1765408877.457350,-9.573768,-0.994141,0.747250,-0.469450,-0.190895,0.097586
1765408877.457524,-9.349592,-0.772955,0.249880,-0.465327,-0.197768,0.100029
1765408877.457774,-9.811094,-0.877571,0.414873,-0.462578,-0.191201,0.098960
1765408877.458024,-9.840983,-1.082018,0.355093,-0.461661,-0.178525,0.096059
1765408877.458274,-9.911524,-0.761597,1.005500,-0.451277,-0.175624,0.098960
1765408877.458472,-10.313247,-0.869799,1.470588,-0.448528,-0.150578,0.098960
1765408877.458722,-9.665230,-0.875777,0.572692,-0.437227,-0.156840,0.099418
1765408877.458972,-9.928263,-0.958871,0.771760,-0.430660,-0.151647,0.097738
1765408877.459222,-10.223577,-0.774749,1.078431,-0.411723,-0.145539,0.104153
1765408877.459572,-10.683283,-0.443568,1.302009,-0.412792,-0.144928,0.099571
1765408877.459822,-10.506335,-0.218197,0.992946,-0.412639,-0.136528,0.106596
1765408877.460072,-10.181729,-0.833333,0.515304,-0.421497,-0.145997,0.117439
1765408877.460322,-9.870873,-1.181851,0.374223,-0.403477,-0.145997,0.107665
1765408877.460508,-9.943806,-0.923003,0.686872,-0.396604,-0.129198,0.096822
1765408877.460758,-9.486489,-0.730512,0.125538,-0.394161,-0.117133,0.100029
1765408877.461008,-9.256335,-0.449546,-0.341942,-0.388663,-0.131641,0.103389
1765408877.461258,-9.633547,-0.968436,0.351506,-0.387289,-0.120340,0.107360
1765408877.461506,-10.042442,-0.854854,0.480631,-0.366825,-0.107207,0.107818
1765408877.461756,-10.144667,-0.860832,0.722740,-0.365450,-0.091172,0.104763
1765408877.462006,-10.372428,-0.868006,0.882353,-0.359342,-0.096669,0.102473
1765408877.462256,-10.634863,-0.787900,1.029412,-0.359342,-0.091783,0.102473
1765408877.462491,-10.163795,-0.864419,0.514108,-0.343001,-0.086437,0.103236
1765408877.462741,-9.932447,-0.830344,0.191894,-0.339794,-0.082009,0.094073
1765408877.462991,-10.284551,-0.526064,0.708991,-0.332616,-0.072998,0.099266
1765408877.463241,-10.815398,-0.759206,1.151363,-0.319483,-0.083536,0.104458
1765408877.463483,-10.590626,-0.738881,0.868603,-0.316734,-0.068875,0.096822
1765408877.463816,-9.855330,-0.729914,-0.102224,-0.314443,-0.065057,0.095142
1765408877.464150,-10.454327,-0.490196,0.860832,-0.301004,-0.065210,0.092241
1765408877.464487,-10.517693,-0.699426,0.871592,-0.288939,-0.056963,0.098960
1765408877.464737,-11.004304,-0.400526,1.125657,-0.279624,-0.045968,0.097128
1765408877.464987,-10.768769,-0.802845,0.735294,-0.280234,-0.045968,0.099418
1765408877.465237,-10.760401,-0.804639,0.890722,-0.259923,-0.048411,0.098960
1765408877.465523,-10.480630,-0.766380,0.632472,-0.242514,-0.038332,0.094684
1765408877.465773,-10.306072,-0.474653,0.795074,-0.239459,-0.033445,0.088270
1765408877.466023,-10.352103,-0.446557,0.568508,-0.231365,-0.050091,0.094073
1765408877.466273,-10.308464,-0.726327,0.432807,-0.226020,-0.050091,0.097128
1765408877.466526,-10.746054,-0.570301,1.153754,-0.211512,-0.032834,0.095906
1765408877.466776,-10.167382,-0.930177,0.486011,-0.198226,-0.024282,0.100793
1765408877.467026,-10.100429,-0.858441,0.540411,-0.191201,-0.041386,0.087659
1765408877.467276,-10.188306,-0.418460,0.566714,-0.180663,-0.040317,0.089492
1765408877.467552,-10.576279,-0.387374,0.763391,-0.174249,-0.043371,0.091019
1765408877.467752,-10.576279,-0.387374,0.763391,-0.174249,-0.038026,0.091019
1765408877.467952,-10.314442,-0.484218,0.582257,-0.155923,-0.026267,0.095906
1765408877.468152,-10.321018,-0.716164,0.747250,-0.146760,-0.026267,0.094837
1765408877.468352,-10.365852,-0.504543,0.679101,-0.134543,-0.032529,0.095753
1765408877.468574,-10.207435,-0.476447,0.463893,-0.130572,-0.028100,0.092546
1765408877.468824,-10.279171,-0.427427,0.468675,-0.131794,-0.021838,0.092241
1765408877.469074,-10.595408,-0.438785,1.067671,-0.116828,-0.016799,0.096822
1765408877.469324,-10.583451,-0.676710,1.081420,-0.112705,-0.016799,0.098960
1765408877.469502,-10.389765,-0.532042,0.567910,-0.112705,-0.025198,0.098960
1765408877.469752,-10.222381,-0.530846,0.235533,-0.094531,-0.027031,0.092393
1765408877.470002,-10.271997,-0.492587,0.406504,-0.079718,-0.025351,0.095142
1765408877.470252,-10.406504,-0.290531,0.730512,-0.071166,-0.005498,0.091172
1765408877.470548,-10.319224,-0.213415,0.837518,-0.068722,-0.005498,0.096364
1765408877.470798,-10.218196,-0.370636,0.485414,-0.060476,-0.017410,0.098197
1765408877.471048,-10.380797,-0.590626,0.609756,-0.049786,-0.026573,0.098044
1765408877.471298,-10.236728,-0.742468,0.529651,-0.041997,-0.013439,0.095906
1765408877.471527,-10.215207,-0.587637,0.563128,-0.031460,-0.006872,0.088575
1765408877.471727,-10.294117,-0.340746,0.928383,-0.028253,-0.012828,0.084299
1765408877.471927,-10.274986,-0.225968,0.698828,-0.024435,-0.017715,0.088270
1765408877.472127,-9.999999,-0.069345,0.099235,-0.019242,-0.014813,0.093768
1765408877.472327,-9.961740,-0.166188,0.100430,-0.016341,-0.014813,0.093004
1765408877.472534,-10.074127,-0.318030,0.499163,-0.004887,-0.007178,0.099113
1765408877.472784,-10.168577,-0.534433,0.685079,0.000764,-0.009010,0.095295
1765408877.473034,-10.198468,-0.447752,0.717360,0.000764,-0.006109,0.088423
1765408877.473284,-9.860114,-0.321616,0.263032,0.008247,-0.008247,0.086285
1765408877.473498,-9.831419,-0.351506,0.088474,0.013134,-0.018631,0.083994
1765408877.473698,-10.121950,-0.356289,0.578670,0.011301,-0.016341,0.072998
1765408877.473898,-10.263031,-0.272597,0.678503,0.013286,-0.009010,0.064446
1765408877.474098,-9.948587,-0.136298,0.153037,0.010537,-0.006872,0.050855
1765408877.474298,-9.936033,0.199665,0.298900,0.007483,-0.009010,0.041081
1765408877.474496,-9.912122,0.402319,0.355093,0.001069,-0.005192,0.033445
1765408877.474696,-10.088473,0.508130,0.526064,-0.004123,-0.010996,0.027336
1765408877.474896,-9.962935,0.639048,0.373625,-0.008552,-0.006414,0.017715
1765408877.475096,-9.831419,0.739479,0.080105,-0.007636,-0.005651,0.018479
1765408877.475296,-9.729793,0.607365,0.091463,-0.012675,-0.006567,0.018937
1765408877.475550,-10.025704,0.448350,0.520086,-0.010843,-0.006720,0.016341
1765408877.475750,-9.923481,0.355093,0.311454,-0.011912,0.000611,0.012675
1765408877.475950,-9.982065,0.276184,0.371234,-0.011912,-0.004887,0.010537
1765408877.476150,-10.035867,-0.043042,0.294118,-0.012828,-0.006567,0.015730
1765408877.476350,-10.005977,-0.214012,0.350311,-0.004276,-0.006872,0.007483
1765408877.476594,-9.941415,-0.117169,0.352702,-0.002291,-0.002749,-0.001069
1765408877.476794,-9.890003,0.080703,0.398135,-0.000764,-0.004276,-0.007330
1765408877.476994,-9.772835,0.303682,0.154232,0.002138,-0.009621,-0.004887
1765408877.477194,-9.997607,0.303682,0.424438,0.002902,-0.009927,-0.002138
1765408877.477394,-10.005977,0.090866,0.432807,0.003665,-0.001222,0.000000
1765408877.477523,-10.092059,0.041846,0.502152,0.001985,-0.003054,-0.006872
1765408877.477723,-9.989238,0.193687,0.309063,0.002443,-0.006414,-0.013592
1765408877.477923,-10.016738,0.283955,0.472262,-0.001222,-0.004887,-0.011912
1765408877.478123,-9.996411,0.328790,0.490196,-0.001680,-0.005651,-0.010843
1765408877.478323,-10.045432,0.319823,0.514108,-0.005956,-0.005956,-0.009316
1765408877.478529,-9.830223,0.239120,0.168580,-0.005498,-0.004276,-0.008705
1765408877.478779,-9.861907,0.172166,0.230153,-0.013286,-0.008247,-0.011301
1765408877.479029,-9.945600,0.135103,0.356887,-0.013592,-0.005651,-0.010996
1765408877.479279,-10.034670,0.170971,0.469871,-0.017257,-0.008552,-0.011454
1765408877.479474,-9.927068,0.152439,0.351506,-0.021075,-0.002443,-0.008247
1765408877.479674,-9.807508,0.090866,0.154232,-0.021228,-0.005956,-0.007789
1765408877.479874,-9.838593,0.031683,0.174558,-0.025656,-0.005651,-0.007025
1765408877.480074,-9.907937,-0.029292,0.319225,-0.024893,-0.007025,-0.007025
1765408877.480274,-9.905546,-0.117169,0.251076,-0.027489,-0.007025,-0.006720
1765408877.480516,-9.885221,-0.122549,0.265423,-0.026725,-0.009010,-0.006567
1765408877.480716,-9.891200,-0.300096,0.251076,-0.025198,-0.006414,-0.000764
1765408877.480916,-9.945002,-0.296509,0.367049,-0.026267,-0.007636,-0.003512
1765408877.481116,-10.074127,-0.395146,0.447154,-0.021991,-0.005803,-0.002443
1765408877.481316,-9.965924,-0.294118,0.245098,-0.018784,-0.003665,-0.003665
1765408877.481505,-9.984456,-0.217599,0.316834,-0.018937,-0.005651,-0.005040
1765408877.481755,-9.950979,-0.251076,0.380201,-0.015424,-0.007025,-0.002443
1765408877.482005,-9.965326,-0.240316,0.376016,-0.016341,-0.007025,-0.003207
1765408877.482255,-10.045432,-0.186514,0.434003,-0.013134,-0.007178,-0.001222
1765408877.482538,-9.950979,-0.298900,0.290531,-0.010537,-0.005498,0.000916
1765408877.482738,-9.950979,-0.298900,0.290531,-0.010537,-0.010996,0.000916
1765408877.482938,-10.059779,-0.433405,0.435198,-0.007636,-0.010843,-0.002138
1765408877.483138,-10.080104,-0.348517,0.502152,-0.004276,-0.010232,-0.003665
1765408877.483338,-10.056191,-0.247489,0.468675,-0.002443,-0.011301,-0.005345
1765408877.484315,-9.862504,-0.125538,0.225968,0.000458,-0.005345,-0.002902
1765408877.484515,-9.862504,-0.125538,0.225968,0.000458,-0.011606,-0.002902
1765408877.484715,-9.872069,-0.138690,0.335964,-0.001680,-0.008705,0.001374
1765408877.484915,-9.907937,-0.167384,0.411884,0.000764,-0.008705,0.000458
1765408877.485115,-9.868484,-0.060976,0.328790,0.000305,-0.009163,-0.001374
1765408877.484570,-9.857125,0.078910,0.320421,0.000611,-0.008552,-0.000611
1765408877.484770,-9.851745,0.120756,0.298900,-0.001069,-0.006261,0.001680
1765408877.484970,-9.913317,0.000598,0.296509,-0.002749,-0.006720,0.003665
1765408877.485170,-9.959349,-0.045433,0.399330,-0.003207,-0.007330,0.005192
1765408877.485370,-9.911524,-0.012554,0.344333,-0.004123,-0.006109,0.003665
1765408877.485628,-9.875058,0.019130,0.292324,-0.005651,-0.004581,0.003054
1765408877.485828,-9.897178,0.062769,0.328790,-0.004581,-0.005956,0.001985
1765408877.486028,-9.986848,0.007174,0.429818,-0.004734,-0.005956,0.004429
1765408877.486228,-9.987445,-0.027499,0.358680,-0.003818,-0.007178,0.005192
1765408877.486428,-9.938425,-0.075323,0.298302,-0.003818,-0.007025,0.005192
1765408877.486560,-9.907339,-0.077714,0.312052,-0.006109,-0.007789,0.004276
1765408877.486760,-10.010758,0.007771,0.396939,-0.008247,-0.007789,0.004887
1765408877.486960,-10.010758,0.007771,0.396939,-0.008247,-0.007025,0.004887
1765408877.487160,-9.885221,0.010760,0.231349,-0.004581,-0.001833,0.002902
1765408877.487360,-9.845168,-0.016738,0.156624,-0.005192,-0.005651,0.003207
1765408877.487574,-9.961740,-0.022716,0.364658,-0.004276,-0.007025,0.001680
1765408877.487774,-10.001194,-0.044237,0.425036,-0.004429,-0.007025,0.001374
1765408877.487974,-9.959946,0.071138,0.322812,-0.000458,-0.003512,0.000305
1765408877.488174,-9.812887,0.121951,0.169775,-0.003054,-0.001985,0.001985
1765408877.488374,-9.868484,0.029890,0.264228,-0.001985,-0.008399,0.000458
1765408877.488573,-10.043041,0.014347,0.510521,-0.005345,-0.008552,0.000153
1765408877.488773,-10.072930,0.014347,0.406504,-0.006261,-0.005498,0.003207
1765408877.488973,-9.947392,0.082496,0.237924,-0.004276,-0.002291,0.003054
1765408877.489173,-9.881634,0.066356,0.225968,-0.002902,-0.007178,-0.001985
1765408877.489373,-10.011955,0.083692,0.426829,-0.009163,-0.007178,-0.002443
1765408877.489540,-10.011955,0.083692,0.426829,-0.009163,-0.006872,-0.002443
1765408877.489740,-9.925871,0.068149,0.315041,-0.008705,-0.005192,-0.002902
1765408877.489940,-9.906144,0.067551,0.228360,-0.007483,-0.004429,-0.003054
1765408877.490140,-9.968913,0.066356,0.360473,-0.008094,-0.008552,-0.004123
1765408877.490340,-10.089668,0.119560,0.469871,-0.010690,-0.007941,-0.003360
1765408877.490554,-9.989238,0.038259,0.356289,-0.009468,-0.006872,-0.002596
1765408877.490754,-9.861907,0.018532,0.250478,-0.009927,-0.006720,-0.003054
1765408877.490954,-9.915709,0.001793,0.311454,-0.010996,-0.008552,-0.001222
1765408877.491154,-9.953967,-0.043042,0.401124,-0.010537,-0.006872,0.000611
1765408877.491354,-10.002390,-0.007174,0.351506,-0.011606,-0.007789,-0.003054
1765408877.491519,-10.002390,-0.007174,0.351506,-0.011606,-0.004276,-0.003054
1765408877.491719,-9.867287,-0.108800,0.262434,-0.008094,-0.007025,-0.001680
1765408877.491919,-9.900764,-0.102224,0.320421,-0.009163,-0.007789,-0.002902
1765408877.492119,-9.915112,-0.086083,0.349115,-0.010232,-0.004123,-0.002902
1765408877.492319,-9.854136,-0.075921,0.261239,-0.009621,-0.004123,-0.003971
1765408877.492558,-9.851745,-0.049020,0.285748,-0.012523,-0.006261,-0.003512
1765408877.492758,-9.825441,-0.102822,0.295313,-0.010537,-0.006261,-0.001985
1765408877.492958,-9.956957,-0.077714,0.378407,-0.009316,-0.007941,-0.003971
1765408877.493158,-9.974891,-0.077714,0.353898,-0.005040,-0.008399,-0.001222
1765408877.493358,-9.913916,-0.084290,0.306074,-0.008247,-0.006567,-0.001680
1765408877.493614,-9.921686,-0.046628,0.399330,-0.008858,-0.003665,-0.003054
1765408877.493814,-9.962935,-0.044237,0.437590,-0.011759,-0.005498,-0.000764
1765408877.494014,-9.912122,-0.039455,0.350311,-0.009163,-0.008399,-0.001374
1765408877.494214,-9.891797,-0.035868,0.271401,-0.011301,-0.005040,-0.001222
1765408877.494414,-9.864299,-0.095648,0.331181,-0.008858,-0.003971,0.001374
1765408877.494485,-9.928263,-0.071138,0.367647,-0.005498,-0.006720,0.000764
1765408877.494685,-9.983260,-0.064562,0.365256,-0.007025,-0.008399,0.000153
1765408877.494885,-9.891200,-0.065758,0.255858,-0.007483,-0.005345,0.000153
1765408877.495085,-9.851745,-0.086083,0.278575,-0.007483,-0.006567,0.000153
1765408877.495285,-9.946795,-0.099235,0.361071,-0.007330,-0.004887,-0.001527
1765408877.495550,-9.962935,-0.067551,0.341942,-0.006261,-0.005498,0.001680
1765408877.495750,-9.891200,-0.005380,0.246294,-0.003665,-0.004581,-0.000305
1765408877.495950,-9.840983,-0.099833,0.300096,-0.005956,-0.002749,0.001374
1765408877.496150,-9.937828,-0.141081,0.359876,-0.004734,-0.007025,0.000305
1765408877.496350,-10.054996,-0.078910,0.404113,-0.004734,-0.007941,-0.000611
1765408877.496523,-9.910329,-0.043042,0.270206,-0.005651,-0.003054,-0.001527
1765408877.496723,-9.821855,-0.017934,0.119560,-0.005803,-0.009468,-0.000305
1765408877.496923,-9.883428,-0.016738,0.319225,-0.007789,-0.009468,-0.000764
1765408877.497123,-9.986848,-0.030488,0.428025,-0.007789,-0.009163,-0.001985
1765408877.497323,-9.973696,0.005978,0.364658,-0.005345,-0.006414,-0.000153
1765408877.497562,-9.860711,-0.002391,0.210426,-0.004123,0.001069,0.001374
1765408877.497762,-9.922284,-0.022716,0.308465,-0.006261,-0.007025,-0.000611
1765408877.497962,-10.056191,-0.026901,0.487805,-0.009927,-0.006872,0.000916
1765408877.498162,-10.049019,0.000000,0.436992,-0.007025,-0.005803,-0.000153
1765408877.498362,-9.839788,0.000598,0.202056,-0.006567,-0.005498,-0.000305
1765408877.498549,-9.874461,0.006576,0.290531,-0.009927,-0.006720,0.002291
1765408877.498749,-9.945600,-0.007174,0.393950,-0.009468,-0.006261,-0.000305
1765408877.498949,-10.012553,-0.003587,0.423242,-0.010690,-0.008247,0.000611
1765408877.499149,-9.934240,-0.005978,0.264228,-0.009010,-0.006261,-0.000153
1765408877.499349,-9.875656,0.044237,0.299498,-0.007483,-0.003512,-0.000916
1765408877.499539,-9.940817,0.007174,0.395146,-0.009774,-0.007178,-0.000611
1765408877.499739,-10.041844,-0.018532,0.456719,-0.009774,-0.006872,-0.002749
1765408877.499939,-9.995216,-0.019130,0.323410,-0.006109,-0.006261,-0.000305
1765408877.500139,-9.900764,0.053204,0.240316,-0.007483,-0.003971,-0.002902
1765408877.500339,-9.891200,-0.009565,0.352702,-0.006720,-0.009621,-0.001985
1765408877.500570,-9.921089,-0.043639,0.368245,-0.009163,-0.009621,-0.001374
1765408877.500770,-9.984456,-0.013152,0.364658,-0.008094,-0.007941,-0.002291
1765408877.500970,-9.881036,0.007174,0.277379,-0.008399,-0.003818,-0.000458
1765408877.501170,-9.909132,-0.015543,0.322812,-0.007178,-0.007025,-0.000764
1765408877.501370,-10.008965,-0.060976,0.440579,-0.006720,-0.005498,-0.001985
1765408877.501496,-10.019128,-0.023912,0.363462,-0.006720,-0.005498,-0.003360
1765408877.501696,-10.019128,-0.023912,0.363462,-0.006720,-0.005803,-0.003360
1765408877.501896,-9.879243,-0.038259,0.248685,-0.007178,-0.005803,-0.002138
1765408877.502096,-9.945600,-0.084290,0.360473,-0.009163,-0.009163,-0.001374
1765408877.502296,-10.035867,0.000000,0.417862,-0.009010,-0.007025,-0.003207
1765408877.502600,-9.961740,-0.010760,0.325203,-0.008247,-0.004123,0.000153
1765408877.502800,-9.892395,-0.075323,0.290531,-0.008247,-0.005345,0.000153
1765408877.503000,-10.022716,-0.064562,0.448350,-0.008247,-0.003054,-0.002138
1765408877.503200,-10.052606,-0.050215,0.467480,-0.009621,-0.003054,-0.000916
1765408877.503400,-10.014346,-0.023912,0.337159,-0.012370,-0.006567,-0.001680
1765408877.503518,-9.929459,-0.018532,0.291129,-0.010996,-0.004123,-0.000611
1765408877.503718,-9.996411,-0.080105,0.367049,-0.005956,-0.011148,-0.001833
1765408877.503918,-10.011955,-0.056791,0.413678,-0.008552,-0.004276,0.000153
1765408877.504118,-10.002390,-0.069943,0.353898,-0.007330,-0.004276,-0.001527
1765408877.504318,-10.002390,-0.069943,0.353898,-0.007330,-0.004734,-0.001527
1765408877.504528,-9.986848,-0.013152,0.382592,-0.010232,-0.006261,-0.001833
1765408877.504728,-9.915709,-0.077116,0.332975,-0.009316,-0.008552,-0.000305
1765408877.504928,-9.909132,-0.034672,0.237924,-0.008552,-0.006872,0.001069
1765408877.505128,-9.928263,-0.037064,0.283357,-0.006567,-0.005498,0.000458
1765408877.505328,-9.928263,-0.037064,0.283357,-0.006567,-0.009774,0.000458
1765408877.505494,-9.928861,-0.015543,0.302487,-0.004734,-0.006567,-0.002596
1765408877.505694,-9.873264,-0.041846,0.297704,-0.008094,-0.006567,0.000153
1765408877.505894,-9.965326,-0.014945,0.400526,-0.010079,-0.010537,0.000611
1765408877.506094,-10.017933,-0.009565,0.412482,-0.004123,-0.009774,-0.000305
1765408877.506294,-9.984456,-0.021521,0.392157,-0.004123,-0.005498,-0.000305
1765408877.506601,-9.919893,0.015543,0.265423,-0.006720,-0.007178,-0.001527
1765408877.506801,-9.867885,-0.020923,0.296509,-0.009010,-0.007636,0.000611
1765408877.507001,-9.968315,-0.022716,0.364060,-0.007789,-0.008399,-0.003971
1765408877.507201,-9.966521,-0.014347,0.419656,-0.006567,-0.007178,0.001069
1765408877.507401,-9.891200,-0.026303,0.254663,-0.007636,-0.009468,-0.000305
1765408877.507495,-9.894188,-0.022716,0.356887,-0.007483,-0.008094,0.000458
1765408877.507695,-9.851147,-0.039455,0.457915,-0.009468,-0.008399,-0.000153
1765408877.507895,-9.559420,-0.179938,0.518890,-0.005192,-0.005345,-0.000458
1765408877.508095,-9.336440,0.059182,0.047824,-0.009163,-0.002291,-0.008858
1765408877.508295,-9.202533,0.277379,-0.338953,-0.006872,-0.002291,-0.002443
1765408877.508461,-9.561213,0.063965,0.472262,-0.004734,0.004429,0.008399
1765408877.508711,-10.070539,-0.024510,1.073649,-0.004887,0.006109,0.004123
1765408877.508961,-10.257052,-0.107604,0.862028,-0.004887,0.010079,0.004123
1765408877.509211,-9.839190,-0.460904,-0.224773,-0.009468,0.000458,0.001069
1765408877.509467,-9.876852,-0.169775,0.054400,-0.004123,0.001069,-0.006872
1765408877.509667,-10.117167,0.358680,0.887733,-0.003207,0.015424,-0.009468
1765408877.509867,-10.399329,0.535031,1.221903,-0.010690,0.018784,0.001222
1765408877.510067,-10.067551,-0.202056,0.447154,-0.015730,0.005651,0.010996
1765408877.510267,-9.763269,-0.558345,-0.180536,-0.009163,-0.004887,0.005956
1765408877.510571,-9.841581,-0.290531,0.231349,-0.005345,0.001833,-0.008399
1765408877.510771,-9.940817,0.259445,0.508728,-0.008552,0.017410,-0.013134
1765408877.510971,-9.915112,0.368245,0.344333,-0.007941,0.009774,0.001222
1765408877.511171,-9.862504,0.056193,0.129125,-0.009163,0.003207,0.004581
1765408877.511371,-9.839788,-0.233142,0.374223,-0.010079,0.012675,0.008705
1765408877.511448,-9.916306,-0.344333,0.548780,-0.011759,0.010996,-0.000305
1765408877.511648,-9.930654,-0.239120,0.366451,-0.010843,0.007178,-0.007330
1765408877.511848,-9.784193,0.089670,0.062171,-0.005803,0.000153,-0.009316
1765408877.512048,-9.770443,0.290531,0.124342,-0.004887,0.004123,-0.002749
1765408877.512248,-9.966521,0.154232,0.524868,-0.008094,0.013897,0.005040
1765408877.512519,-10.034670,-0.245098,0.494978,-0.007941,0.009316,0.005956
1765408877.512719,-10.049019,-0.313845,0.377810,-0.007941,0.005345,-0.003512
1765408877.512919,-9.912720,-0.145863,0.198470,-0.011606,0.009621,-0.005956
1765408877.513119,-9.830821,0.027499,0.231946,-0.007178,0.009621,-0.005040
1765408877.513319,-9.910329,0.148254,0.314443,-0.007789,0.006872,-0.000916
1765408877.513508,-10.001792,0.186514,0.351506,-0.008552,0.011454,-0.000916
1765408877.513708,-9.875656,-0.184122,0.109995,-0.008552,0.012065,0.004887
1765408877.513908,-9.956957,-0.298302,0.352104,-0.007178,0.005498,-0.000916
1765408877.514108,-10.069344,-0.187709,0.521282,-0.005192,0.007483,-0.006872
1765408877.514308,-10.029889,0.075323,0.344333,-0.008094,0.006261,-0.007483
1765408877.514473,-9.845766,0.166188,0.080105,-0.006261,0.005040,-0.001069
1765408877.514673,-9.880439,0.139287,0.194285,-0.007636,0.005651,0.001069
1765408877.514873,-10.127929,-0.086083,0.526064,-0.009927,0.006261,0.005040
1765408877.515073,-10.078907,-0.277379,0.394548,-0.010537,0.006261,0.002138
1765408877.515273,-9.949782,-0.211621,0.157819,-0.007483,0.004887,-0.002138
1765408877.515441,-9.939023,0.084888,0.272597,-0.008247,0.004887,-0.005651
1765408877.515641,-9.976088,0.159613,0.401722,-0.007789,0.008247,-0.003054
1765408877.515841,-10.004781,0.133907,0.384983,-0.009163,0.005803,0.004276
1765408877.516041,-9.927068,-0.078910,0.150646,-0.007025,0.004123,0.005498
1765408877.516241,-9.983858,-0.113582,0.217599,-0.007330,-0.000458,0.002443
1765408877.516456,-10.152438,-0.109995,0.489000,-0.004581,0.004581,-0.001222
1765408877.516656,-10.112983,-0.107604,0.368843,-0.009621,0.004429,-0.002749
1765408877.516856,-10.008368,0.002989,0.185318,-0.007789,0.000764,-0.003360
1765408877.517056,-9.979673,0.150646,0.181731,-0.004123,0.000458,-0.000611
1765408877.517256,-10.060975,0.087279,0.333572,-0.006872,0.002291,0.000153
1765408877.517446,-10.135101,-0.055595,0.517695,-0.007178,-0.000153,0.000611
1765408877.517646,-10.086082,-0.188307,0.331779,-0.007178,0.001222,0.000611
1765408877.517846,-9.957555,-0.105811,0.247489,-0.010385,-0.000916,-0.003971
1765408877.518046,-10.004781,0.072334,0.319225,-0.010996,-0.000916,-0.005803
1765408877.518246,-10.044236,0.075921,0.316236,-0.008552,-0.001222,-0.000764
1765408877.518527,-10.060975,-0.001793,0.255858,-0.010537,-0.001833,-0.000764
1765408877.518727,-9.998802,-0.021521,0.214012,-0.008705,0.001833,0.000764
1765408877.518927,-10.043041,-0.041248,0.376614,-0.006567,-0.004887,0.001222
1765408877.519127,-10.080104,-0.104017,0.502750,-0.009010,-0.004887,-0.001680
1765408877.519327,-10.089071,-0.069345,0.384983,-0.009010,-0.003512,-0.001680
1765408877.519442,-9.860114,0.034672,0.112386,-0.010079,-0.001527,-0.002902
1765408877.519642,-9.819464,0.049020,0.144668,-0.006872,-0.005040,-0.003360
1765408877.519842,-9.819464,0.049020,0.144668,-0.006872,-0.007789,-0.003360
1765408877.520042,-10.071137,-0.011956,0.428025,-0.008705,-0.006720,-0.000611
1765408877.520242,-10.044834,-0.100430,0.391559,-0.012065,-0.000916,0.000305
1765408877.520517,-9.876852,-0.176949,0.193687,-0.009927,-0.010232,-0.002443
1765408877.520767,-9.922284,-0.057389,0.253467,-0.009010,-0.010232,-0.004429
1765408877.521017,-9.985652,0.034672,0.374821,-0.006872,-0.009316,-0.001833
1765408877.521267,-9.955761,-0.029890,0.382592,-0.004123,-0.007330,0.001069
1765408877.521447,-9.924676,0.000000,0.253467,-0.010232,-0.005040,-0.000916
1765408877.524502,-9.913916,-0.014945,0.267217,-0.006872,-0.007025,0.001680
1765408877.526566,-9.932447,-0.102822,0.387972,-0.010385,-0.007025,0.000916
1765408877.529534,-9.988641,-0.131516,0.410091,-0.005498,-0.006720,-0.001833
1765408877.530592,-9.903154,-0.068149,0.295313,-0.006109,-0.004276,-0.004581
1765408877.534457,-9.863700,0.047824,0.237924,-0.006872,-0.007330,-0.002596
1765408877.535481,-9.879243,0.037064,0.346724,-0.008552,-0.005192,0.000611
1765408877.539530,-9.995216,-0.019727,0.430416,-0.007941,-0.005803,0.003207
1765408877.542546,-10.004781,-0.150048,0.408895,-0.007483,-0.007789,0.000458
1765408877.544469,-9.857722,-0.145863,0.306671,-0.010079,-0.007330,0.001985
1765408877.546495,-9.808105,-0.047226,0.218795,-0.009927,-0.007330,-0.001527
1765408877.549510,-9.898373,0.035868,0.327594,-0.007636,-0.010079,-0.000611
1765408877.551477,-9.953370,0.016738,0.387374,-0.005040,-0.007178,-0.000153
1765408877.553510,-9.940218,-0.029890,0.417264,-0.005956,-0.007483,0.000611
1765408877.556517,-9.891200,-0.026303,0.350311,-0.005803,-0.004734,0.002443
1765408877.559532,-9.891797,-0.101626,0.286346,-0.006567,-0.003971,0.001222
1765408877.562533,-9.891797,-0.101626,0.286346,-0.006567,-0.006261,0.001222
1765408877.565472,-10.026302,-0.015543,0.460306,-0.005498,-0.004887,-0.001680
1765408877.566563,-9.876852,-0.025108,0.295313,-0.006261,-0.001527,-0.002596
1765408877.569525,-9.796746,-0.054400,0.179340,-0.006261,-0.007483,0.000611
1765408877.571558,-9.941415,0.022716,0.407700,-0.009468,-0.007483,0.000000
1765408877.572580,-10.004781,-0.017934,0.489000,-0.006567,-0.002443,0.000916
1765408877.577526,-9.934838,0.005978,0.361669,-0.009621,-0.000153,0.000916
1765408877.578500,-9.730989,-0.092061,0.105811,-0.007636,-0.000153,0.001833
1765408877.580551,-9.772835,-0.115973,0.243305,-0.005956,-0.002443,-0.002902
1765408877.586145,-9.982065,-0.064562,0.464491,-0.009163,-0.002443,-0.001833
1765408877.587541,-9.874461,-0.028694,0.331181,-0.007636,0.003207,-0.000764
1765408877.589561,-9.740554,0.038857,0.149450,-0.009163,0.001527,-0.001222
1765408877.591481,-9.821855,0.077714,0.382592,-0.008705,0.000458,0.001069
1765408877.594511,-9.971304,-0.064562,0.500956,-0.008094,-0.002291,0.001374
1765408877.595535,-9.928263,-0.122549,0.339550,-0.006261,0.001374,0.001833
1765408877.597465,-9.817670,-0.126136,0.153037,-0.004887,0.003512,0.001069
1765408877.601518,-9.832017,-0.104017,0.267814,-0.003360,-0.001527,-0.001985
1765408877.604533,-10.009563,0.007174,0.466882,-0.002443,-0.001527,-0.001985
1765408877.606501,-9.986848,-0.038259,0.347920,-0.007025,0.000764,0.000764
1765408877.607550,-9.862504,-0.049020,0.142276,-0.006567,0.001374,0.002749
1765408877.611518,-9.917501,-0.053802,0.288140,-0.008399,0.000764,0.001527
1765408877.614508,-10.014346,-0.124940,0.453132,-0.009468,-0.002291,0.000000
1765408877.617534,-9.961740,-0.090866,0.346126,-0.005956,0.000000,-0.000764
1765408877.619499,-9.854136,0.001196,0.170971,-0.004276,0.004429,0.000153
1765408877.621502,-9.857722,0.038259,0.246891,-0.006567,0.004123,0.000764
1765408877.622510,-9.982065,0.035868,0.375418,-0.006872,-0.000458,-0.001527
1765408877.626534,-9.919893,-0.026901,0.282162,-0.006567,0.006109,0.004734
1765408877.629564,-9.891200,-0.111789,0.194883,-0.005040,0.006109,0.002443
1765408877.630537,-9.964130,-0.108202,0.363462,-0.006872,0.001527,0.002749
1765408877.634626,-10.029889,-0.101626,0.437590,-0.005803,0.003207,0.002138
1765408877.636581,-9.986250,-0.032281,0.289933,-0.006414,0.000764,0.000764
1765408877.639548,-9.925871,0.001196,0.222979,-0.005192,-0.000305,0.001222
1765408877.641514,-9.984456,0.038259,0.322812,-0.006109,0.000764,-0.000764
1765408877.644580,-10.060975,-0.034672,0.395744,-0.006872,-0.001069,0.001527
1765408877.646574,-9.976088,-0.088474,0.260641,-0.005040,0.000458,0.003360
1765408877.649555,-9.976088,-0.088474,0.260641,-0.005040,0.000305,0.003360
1765408877.651524,-9.962337,-0.046628,0.276184,-0.004887,0.000764,-0.000611
1765408877.655633,-10.044236,0.047226,0.404113,-0.004887,0.000764,-0.000916
1765408877.656548,-10.028095,0.041846,0.338355,-0.005192,-0.000916,-0.000611
1765408877.659506,-9.927666,0.027499,0.232544,-0.006109,0.001222,0.003512
1765408877.662571,-9.925274,0.001196,0.277379,-0.006109,-0.000916,0.004734
1765408877.664520,-10.094451,-0.081301,0.406504,-0.006872,-0.005651,0.002596
1765408877.665611,-10.115973,-0.121951,0.376614,-0.003360,-0.002749,0.001527
1765408877.669613,-9.988043,-0.062171,0.217599,-0.004734,-0.001833,0.001222
1765408877.672572,-9.943208,-0.001196,0.234338,-0.007483,-0.002902,0.002291
1765408877.673072,-10.044236,-0.038259,0.393950,-0.007330,-0.006567,0.001680
1765408877.676812,-10.033475,-0.041846,0.364060,-0.003971,-0.004581,0.002291
1765408877.679559,-9.923481,-0.068149,0.183525,-0.003971,-0.001985,0.003360
1765408877.681571,-9.961142,-0.101626,0.239120,-0.004276,-0.004429,0.003665
1765408877.682528,-10.074724,-0.065160,0.482425,-0.002902,-0.001069,0.001833
1765408877.686518,-10.017933,-0.004185,0.345528,-0.005192,-0.001069,-0.000305
1765408877.689589,-9.858320,0.028694,0.205643,-0.006261,-0.004734,-0.000611
1765408877.691605,-9.906742,0.046628,0.308465,-0.009468,-0.007636,-0.002596
1765408877.694552,-9.958152,-0.008967,0.395744,-0.009468,-0.010385,-0.002596
1765408877.697460,-9.882233,-0.016738,0.208034,-0.005651,-0.002902,0.004276
1765408877.699480,-9.892395,-0.036466,0.169775,-0.006261,-0.002902,0.004887
1765408877.702479,-9.892395,-0.036466,0.169775,-0.006261,-0.005040,0.004887
1765408877.702979,-10.051410,-0.101626,0.456121,-0.005040,-0.005956,0.004123
1765408877.707497,-9.956957,-0.079507,0.345528,-0.006261,-0.005956,0.000764
1765408877.709514,-9.863700,-0.031086,0.182927,-0.006872,-0.004581,0.001069
1765408877.712579,-9.886416,-0.071736,0.236729,-0.006567,-0.009774,0.001527
1765408877.714567,-9.987445,-0.081301,0.390961,-0.006261,-0.007636,0.000611
1765408877.717478,-9.966521,-0.058584,0.329388,-0.003818,-0.004581,0.000305
1765408877.717978,-9.915112,-0.062171,0.264228,-0.006414,-0.004581,0.001069
1765408877.721472,-9.915112,-0.062171,0.264228,-0.006414,-0.006872,0.001069
1765408877.724514,-9.973696,0.046031,0.430416,-0.002902,-0.007789,0.000764
1765408877.726512,-9.853538,0.026303,0.297704,-0.003512,-0.004581,0.001833
1765408877.729498,-9.856527,-0.033477,0.266021,-0.003207,-0.007789,0.003971
1765408877.731517,-9.935436,-0.089670,0.380201,-0.005192,-0.010385,0.001527
1765408877.734516,-9.959349,-0.126136,0.411286,-0.009163,-0.007789,0.002291
1765408877.735507,-9.833213,-0.090866,0.231946,-0.005803,-0.005651,0.000458
1765408877.739566,-9.845766,-0.027499,0.245098,-0.005651,-0.007789,0.000611
1765408877.741530,-9.908535,-0.010163,0.398135,-0.004887,-0.010537,0.002138
1765408877.742505,-9.894786,-0.066954,0.353898,-0.007483,-0.005498,0.002902
1765408877.745531,-9.772835,-0.103419,0.172764,-0.008552,-0.002138,0.003512
1765408877.749539,-9.824244,-0.069345,0.235533,-0.005192,-0.010996,-0.000916
1765408877.750504,-9.984456,-0.053802,0.480631,-0.008247,-0.010996,0.000305
1765408877.755526,-9.987445,0.005978,0.426231,-0.006109,-0.004276,0.001222
1765408877.756569,-9.863700,0.023912,0.271401,-0.006872,-0.004276,0.001833
1765408877.759520,-9.849353,-0.022716,0.248685,-0.004887,-0.004734,0.003665
1765408877.762522,-9.954566,-0.096844,0.383788,-0.003971,-0.009010,0.004734
1765408877.763022,-10.007771,-0.113582,0.422047,-0.004429,-0.006414,0.002443
1765408877.766541,-9.921089,-0.083692,0.294118,-0.003665,-0.000458,-0.000153
1765408877.769546,-9.864896,0.002391,0.346724,-0.006567,-0.000458,-0.000153
1765408877.771521,-9.932447,0.050215,0.416069,-0.003665,-0.003054,0.002443
1765408877.774506,-9.984456,-0.015543,0.426829,-0.004734,-0.003665,0.003360
1765408877.776476,-9.938425,-0.070540,0.316834,-0.004581,-0.003207,0.001222
1765408877.777526,-9.938425,-0.070540,0.316834,-0.004581,-0.000458,0.001222
1765408877.782572,-9.937828,-0.069345,0.352702,-0.001069,-0.002596,0.000458
1765408877.783072,-10.115375,0.023314,0.506337,-0.003971,-0.001680,0.001222
1765408877.787628,-10.043041,0.059182,0.426829,-0.003818,0.000305,0.001985
1765408877.790585,-9.858320,-0.033477,0.214012,-0.005192,0.000305,0.004276
1765408877.792575,-9.814680,-0.119560,0.180536,-0.005345,-0.004581,0.003512
1765408877.794484,-9.923481,-0.121951,0.350311,-0.001985,-0.005040,0.004123
1765408877.796512,-10.011955,-0.037661,0.399330,-0.003207,-0.000305,-0.000153
1765408877.799551,-9.902557,0.100430,0.296509,-0.002443,0.001374,-0.001833
1765408877.801532,-9.835006,0.083692,0.272597,-0.005956,0.001374,0.003818
1765408877.802522,-9.882233,0.011956,0.278575,-0.007025,-0.003665,0.003665
1765408877.806542,-10.038258,-0.166188,0.435198,-0.007025,-0.003512,0.004276
1765408877.809502,-9.919893,-0.170373,0.277379,-0.004734,0.000458,-0.000305
1765408877.811511,-9.824244,-0.125538,0.154232,-0.004581,-0.001222,-0.000764
1765408877.814533,-9.896580,0.057389,0.304878,-0.004123,-0.001222,0.000611
1765408877.816507,-10.069344,0.104615,0.431612,-0.005040,-0.002902,0.000764
1765408877.819558,-9.993423,-0.003587,0.350311,-0.003360,-0.001069,0.004734
1765408877.821596,-9.993423,-0.003587,0.350311,-0.003360,0.001222,0.004734
1765408877.824558,-9.917501,-0.198470,0.295911,-0.005803,-0.005345,0.004581
1765408877.826628,-10.081897,-0.082496,0.435198,-0.000611,-0.005345,-0.001833
1765408877.827569,-10.175752,0.005380,0.580464,0.000916,-0.004581,-0.000916
1765408877.832590,-10.009563,0.121951,0.357484,-0.000916,0.000458,0.001680
1765408877.834497,-9.882831,-0.011956,0.268412,-0.003818,-0.002749,0.007178
1765408877.837546,-9.866689,-0.100430,0.212817,-0.005956,-0.010232,0.003818
1765408877.839544,-10.030487,-0.130918,0.309660,-0.005956,-0.010843,0.002138
1765408877.840556,-9.970109,-0.099235,0.206241,-0.005345,-0.006567,-0.001985
1765408877.844506,-9.939621,-0.048422,0.189503,-0.005345,-0.006261,-0.001833
1765408877.846555,-9.939023,0.024510,0.200861,-0.002902,-0.001222,0.000153
1765408877.847579,-9.991630,0.038857,0.260641,-0.003971,-0.002596,0.002902
1765408877.851588,-9.964130,0.014347,0.306074,-0.004734,-0.002291,0.003971
1765408877.854558,-9.917501,-0.082496,0.238522,-0.007636,-0.001833,0.004429
1765408877.856561,-9.848158,-0.132114,0.196078,-0.003818,-0.004429,0.003054
1765408877.859591,-9.845168,-0.025705,0.137494,-0.005803,-0.004429,0.002596
1765408877.861537,-9.907937,0.033477,0.298302,-0.003207,-0.004123,0.003207
1765408877.864595,-9.985652,0.075921,0.334768,-0.003207,-0.004429,0.006109
1765408877.866554,-10.047226,-0.021521,0.468675,-0.005498,-0.005803,0.003971
1765408877.869586,-9.942013,-0.103419,0.292922,-0.002596,-0.005345,0.005192
1765408877.871683,-9.939023,-0.059780,0.338953,-0.002291,-0.005345,0.000153
1765408877.874548,-9.939023,-0.059780,0.338953,-0.002291,-0.002902,0.000153
1765408877.876551,-9.961142,-0.010760,0.406504,-0.003054,-0.010690,0.000611
1765408877.879573,-10.043638,-0.098039,0.389766,-0.005192,-0.003512,0.002443
1765408877.881557,-9.991032,-0.031683,0.336561,-0.003665,-0.004734,0.001222
1765408877.884585,-9.818267,-0.049020,0.206839,-0.005345,-0.003054,-0.000611
1765408877.887598,-9.866092,0.096844,0.264228,0.000305,-0.009927,0.000458
1765408877.889624,-10.037063,0.009565,0.424438,-0.002749,-0.009010,0.002443
1765408877.891588,-10.038258,0.028694,0.415471,0.000153,-0.006414,0.003512
1765408877.894575,-9.915112,-0.094452,0.212817,-0.004887,-0.002291,0.004429
1765408877.895667,-9.763269,0.037064,0.127929,-0.001527,-0.008399,-0.000153
1765408877.900447,-9.973696,0.027499,0.380201,-0.006567,-0.008858,0.002443
1765408877.901579,-10.016139,0.088474,0.509326,-0.003207,-0.002749,0.004429
1765408877.904575,-9.914514,-0.148254,0.255261,-0.008399,-0.002749,0.007330
1765408877.906562,-9.795551,-0.106408,0.167384,-0.004581,-0.003360,0.004734
1765408877.907600,-9.942610,-0.160808,0.347920,-0.002291,-0.007636,0.004123
1765408877.912559,-10.065758,-0.105811,0.589431,-0.000458,-0.006414,0.001833
1765408877.914565,-10.016139,-0.040650,0.413080,-0.000305,-0.005498,-0.001680
1765408877.916556,-9.887015,-0.044237,0.347920,-0.006567,-0.003207,0.001680
1765408877.919504,-9.887015,-0.044237,0.347920,-0.006567,-0.010690,0.001680
1765408877.922574,-10.080104,-0.013152,0.561932,-0.006109,-0.014813,0.000305
1765408877.923074,-9.989837,-0.079507,0.279770,-0.002749,-0.010079,0.002596
1765408877.927584,-9.835604,-0.053204,0.029890,-0.002596,-0.010232,0.001833
1765408877.929519,-9.845766,-0.083094,0.166786,-0.002291,-0.008552,0.001680
1765408877.932533,-9.845766,-0.083094,0.166786,-0.002291,-0.009010,0.001680
1765408877.934528,-10.093256,-0.009565,0.530249,-0.004734,-0.002138,0.003665
1765408877.936538,-9.879243,0.059780,0.153635,-0.003665,-0.002138,0.003971
1765408877.939550,-9.885818,-0.181731,0.294118,-0.004429,-0.004581,0.005803
1765408877.941578,-9.978478,-0.066954,0.475849,-0.001833,-0.005956,0.003360
1765408877.944585,-10.066953,-0.211023,0.514706,0.001374,-0.007025,0.004581
1765408877.945552,-9.880439,-0.106408,0.194883,0.002902,-0.005803,0.002291
1765408877.949562,-9.941415,0.008967,0.365854,0.000153,-0.005192,0.003512
1765408877.952568,-9.977283,-0.031086,0.502152,-0.000916,-0.005345,0.005498
1765408877.953068,-9.960544,-0.076518,0.269010,-0.002902,-0.011148,0.002902
1765408877.956533,-9.855929,-0.112386,0.212817,-0.005956,-0.008858,0.000458
1765408877.959798,-9.764465,-0.014347,0.095648,-0.006872,-0.008399,0.000000
1765408877.961559,-9.789574,-0.056193,0.129723,-0.000916,-0.008705,0.005498
1765408877.964589,-9.882233,-0.106408,0.227164,-0.000611,-0.003512,0.001374
1765408877.965559,-9.909132,-0.084888,0.255261,0.001222,0.002138,0.003207
1765408877.967601,-9.796746,-0.029890,0.176351,0.000764,0.000153,0.002291
1765408877.970627,-9.892993,0.115375,0.387972,-0.002596,-0.004887,0.003207
1765408877.974555,-10.015541,-0.100430,0.447154,-0.001069,-0.001680,0.008399
1765408877.975594,-10.069344,-0.139885,0.453132,-0.000305,-0.003360,0.007330
1765408877.979547,-10.003586,-0.193089,0.343137,0.000000,-0.002291,0.005956
1765408877.981527,-9.934240,-0.060378,0.397537,-0.000611,-0.002291,0.002291
1765408877.984565,-9.972500,-0.019727,0.449546,-0.000153,-0.004276,0.002138
1765408877.986556,-10.024508,0.050215,0.430416,0.002596,-0.007178,0.003207
1765408877.987602,-9.994618,-0.010760,0.362865,0.001680,-0.005040,0.004887
1765408877.991580,-9.916306,-0.105213,0.249283,-0.000611,-0.006720,0.005345
1765408877.994706,-9.856527,-0.200263,0.218795,-0.000305,-0.003360,0.006567
1765408877.996546,-9.909132,-0.155428,0.276184,0.003971,-0.005651,0.001680
1765408877.999557,-10.023911,-0.029292,0.353898,0.004581,-0.003971,-0.001374
1765408878.001585,-10.011955,0.068149,0.451937,0.000153,-0.000764,0.001680
1765408878.002674,-9.893590,0.001793,0.245098,0.001833,-0.003207,0.003360
1765408878.007566,-9.797942,-0.111191,0.167384,-0.000916,-0.003207,0.008247
1765408878.009552,-9.965326,-0.001196,0.284553,0.000764,-0.005498,0.005498
1765408878.012550,-10.137493,-0.106408,0.489000,0.002749,-0.007483,0.007483
1765408878.014526,-10.051410,-0.102822,0.311454,0.003665,-0.009316,0.006720
1765408878.016509,-10.038258,-0.039455,0.324008,0.002596,-0.004123,0.004276
1765408878.019525,-9.937828,-0.050215,0.252272,0.004429,-0.003512,0.004734
1765408878.021521,-9.913317,-0.039455,0.237924,-0.000916,-0.005651,0.008094
1765408878.024564,-9.989238,-0.119560,0.394548,-0.002138,-0.008552,0.005498
1765408878.027571,-10.084887,-0.093257,0.445361,0.002749,-0.008552,0.005956
1765408878.029518,-9.980272,-0.230751,0.291129,0.008552,-0.007178,0.007483
1765408878.031533,-9.929459,-0.130320,0.224773,0.003971,-0.011148,0.004734
1765408878.034513,-9.943806,-0.046628,0.316236,0.001833,-0.004734,0.002749
1765408878.036559,-9.982663,0.075323,0.345528,0.003818,-0.010079,0.003971
1765408878.039531,-10.001194,-0.008369,0.374821,-0.002749,-0.011148,0.005803
1765408878.041542,-9.910927,-0.053802,0.179340,0.001680,-0.007636,0.008094
1765408878.044551,-9.837996,-0.142276,0.148254,0.001680,-0.008858,0.009621
1765408878.046576,-9.900167,-0.160210,0.290531,0.006872,-0.009468,0.007025
1765408878.049577,-10.137493,-0.049020,0.487207,0.003512,-0.009621,0.003665
1765408878.052559,-9.995814,-0.111191,0.388570,0.003818,-0.005651,0.007483
1765408878.053059,-9.885818,0.031086,0.102822,0.005651,-0.009163,0.004429
1765408878.056585,-9.912720,0.121353,0.350311,0.003054,-0.010385,0.007025
1765408878.059592,-9.954566,0.011956,0.270206,0.003971,-0.010537,0.009010
1765408878.061582,-9.979075,-0.186514,0.243902,0.004123,-0.011912,0.012828
1765408878.064547,-9.731586,-0.208034,0.078312,0.007178,-0.006872,0.007941
1765408878.066583,-9.795551,-0.097441,0.178144,0.004276,-0.004581,0.003665
1765408878.069612,-10.005379,0.073529,0.490196,0.007330,-0.007941,0.002902
1765408878.071604,-10.092059,0.082496,0.530249,0.005651,-0.012828,0.007330
1765408878.074563,-9.942013,0.007174,0.291726,0.005803,-0.008399,0.010843
1765408878.076612,-9.833811,-0.083692,0.219990,0.006414,-0.008399,0.012370
1765408878.079556,-9.931850,-0.199665,0.341942,0.004429,-0.013286,0.010690
1765408878.081560,-10.038258,-0.194883,0.377810,0.009621,-0.012981,0.007941
1765408878.084608,-9.900764,-0.123147,0.424438,0.007025,-0.008858,0.004276
1765408878.085609,-9.759085,0.075921,0.115973,0.007789,-0.016188,0.004887
1765408878.089603,-9.846962,0.092061,0.310258,0.006414,-0.016188,0.007941
1765408878.091603,-10.018531,0.234338,0.430416,0.006414,-0.012675,0.007941
1765408878.094590,-9.881036,-0.080105,0.272597,0.003818,-0.009621,0.017104
1765408878.096582,-9.725011,-0.240316,0.130918,0.006109,-0.009621,0.009774
1765408878.097580,-9.725011,-0.240316,0.130918,0.006109,-0.012828,0.009774
1765408878.101579,-9.916306,-0.098039,0.350311,0.004887,-0.013439,0.007025
1765408878.102594,-9.916306,-0.098039,0.350311,0.004887,-0.013897,0.007025
1765408878.106627,-9.803323,0.129723,0.191894,0.005192,-0.011606,0.012217
1765408878.107576,-9.855330,0.093257,0.192492,0.004429,-0.011606,0.012217
1765408878.111624,-9.855330,0.093257,0.192492,0.004429,-0.011301,0.012217
1765408878.114552,-10.021520,-0.178742,0.436394,0.009468,-0.009621,0.007789
1765408878.116558,-9.970109,-0.056193,0.457915,0.004734,-0.000458,0.004429
1765408878.119566,-9.860114,0.002989,0.333572,0.004734,-0.015119,0.004123
1765408878.121560,-9.842180,-0.004782,0.254663,0.003360,-0.015119,0.003665
1765408878.124553,-10.009563,0.193687,0.361669,0.001527,-0.014355,0.005956
1765408878.127585,-9.979673,0.092061,0.313247,0.002749,-0.009774,0.011148
1765408878.129540,-9.860114,-0.074127,0.230751,0.006261,-0.007941,0.013439
1765408878.130531,-9.895982,-0.207437,0.236729,0.009163,-0.004276,0.011148
1765408878.134562,-9.966521,-0.178742,0.390961,0.009163,-0.004276,0.008094
1765408878.136533,-10.125537,0.008369,0.532042,0.005803,-0.000305,0.004734
1765408878.139604,-10.023911,0.106408,0.480631,0.006720,-0.008094,0.007178
1765408878.141578,-9.827832,0.099235,0.281564,0.006414,-0.008094,0.009927
1765408878.144548,-9.851745,0.042444,0.255858,0.004276,-0.009927,0.011148
1765408878.146620,-9.903154,-0.125538,0.251076,0.006414,-0.015119,0.012981
1765408878.147599,-9.866092,-0.173960,0.240913,0.007330,-0.012217,0.007178
1765408878.151622,-9.854733,-0.044237,0.326399,0.007330,-0.007636,0.005956
1765408878.154588,-9.791367,0.020325,0.188307,0.005956,-0.003665,0.006720
1765408878.156641,-9.791367,0.020325,0.188307,0.005956,-0.008552,0.006720
1765408878.159627,-10.106407,0.069345,0.494978,0.004887,-0.009163,0.012828
1765408878.160641,-10.008368,-0.132114,0.344333,0.006261,-0.009774,0.015730
1765408878.164606,-9.848158,-0.340746,0.087279,0.008705,-0.009010,0.012065
1765408878.166653,-9.868484,-0.177547,0.277379,0.009468,-0.009010,0.006720
1765408878.169882,-9.868484,-0.177547,0.277379,0.009468,-0.010537,0.006720
1765408878.171676,-9.977283,-0.022716,0.404711,0.002596,-0.010232,0.005651
1765408878.174575,-9.808105,0.039455,0.173960,0.005345,-0.005803,0.008247
1765408878.176596,-9.748923,0.032281,0.031086,0.006261,-0.005040,0.011148
1765408878.179582,-9.994618,-0.123147,0.349115,0.010996,-0.005040,0.015424
1765408878.180568,-10.210424,-0.104615,0.701817,0.009774,-0.002596,0.010537
1765408878.184644,-10.083690,-0.188905,0.497370,0.006109,-0.003971,0.009316
1765408878.186632,-9.785389,0.015543,0.050215,0.007941,-0.009927,0.004734
1765408878.187631,-9.964728,0.136896,0.413080,0.013134,-0.010232,0.006872
1765408878.191578,-10.012553,0.045433,0.460306,0.010690,-0.010232,0.014355
1765408878.193623,-10.058583,-0.127929,0.479436,0.006720,-0.008094,0.016035
1765408878.196560,-9.815279,-0.331779,0.087279,0.012523,-0.007330,0.014813
1765408878.199522,-9.942610,-0.321616,0.251674,0.011606,-0.014508,0.011759
1765408878.201585,-10.066953,-0.170971,0.509326,0.014661,-0.011301,0.008552
1765408878.204575,-10.188903,0.104017,0.546389,0.014355,-0.008552,0.005803
1765408878.206638,-9.915709,0.142276,0.212219,0.004734,-0.007636,0.005345
1765408878.209583,-9.881634,0.260641,0.138092,0.008399,-0.014355,0.008552
1765408878.210633,-10.043041,0.051411,0.368245,0.011606,-0.007941,0.017257
1765408878.214652,-10.028693,-0.129125,0.412482,0.011606,-0.007330,0.017257
1765408878.217631,-10.156623,-0.223577,0.668340,0.011454,-0.000458,0.014050
1765408878.219571,-9.990434,-0.194285,0.445361,0.014355,-0.003971,0.010385
1765408878.222587,-9.946198,-0.124342,0.243902,0.012981,-0.013897,0.006720
1765408878.223087,-9.879243,0.080105,0.239120,0.016188,-0.017104,0.007178
1765408878.227542,-9.956957,0.192492,0.255858,0.014508,-0.010385,0.010385
1765408878.230544,-9.838593,-0.116571,0.159015,0.013439,-0.009163,0.019242
1765408878.231044,-10.011356,-0.080105,0.425036,0.014508,-0.006872,0.011148
1765408878.234608,-9.891200,-0.040053,0.447154,0.013897,-0.007330,0.011148
1765408878.236566,-9.915112,0.190100,0.344333,0.013134,-0.007330,0.007636
1765408878.239547,-10.013150,0.109995,0.517695,0.009621,-0.013592,0.010690
1765408878.242645,-9.968315,0.032879,0.370636,0.009927,-0.014813,0.013897
1765408878.244591,-9.749520,-0.053204,0.057987,0.009927,-0.008705,0.013897
1765408878.246623,-9.777617,-0.129723,0.133907,0.009774,-0.012370,0.013592
1765408878.247561,-9.986848,-0.261836,0.503348,0.011301,-0.012370,0.013286
1765408878.250581,-10.068149,-0.166188,0.553563,0.011912,-0.011759,0.007025
1765408878.254562,-9.928263,0.109995,0.214012,0.012981,-0.007178,0.001374
1765408878.256553,-9.532519,0.263032,-0.056193,0.009774,-0.007789,0.009010
1765408878.259565,-9.582734,0.262434,-0.041248,0.009621,-0.017104,0.014508
1765408878.261669,-10.063366,0.010760,0.541607,0.007789,-0.012217,0.015577
1765408878.264541,-9.993423,-0.132712,0.589431,0.013134,-0.005040,0.015424
1765408878.267514,-9.641318,-0.190100,0.069345,0.008399,-0.003207,0.012523
1765408878.268014,-9.756096,0.016738,0.164993,0.010385,-0.009774,0.007025
1765408878.272537,-10.017933,0.074127,0.473458,0.007789,-0.005956,0.010537
1765408878.274661,-10.071735,-0.028694,0.529053,0.009010,-0.013897,0.011148
1765408878.276603,-10.004781,0.083692,0.435198,0.010690,-0.005192,0.006414
1765408878.279637,-9.714250,-0.054998,0.051411,0.011301,-0.016035,0.011912
1765408878.282602,-9.899570,-0.028097,0.089670,0.010537,-0.016035,0.008094
1765408878.284578,-10.056790,-0.056791,0.609158,0.009010,-0.007789,0.009621
1765408878.287619,-10.007172,-0.014945,0.396341,0.010232,-0.002749,0.006567
1765408878.289601,-9.924676,0.008967,0.368843,0.009927,-0.009163,0.008399
1765408878.292625,-9.787780,0.101626,0.207437,0.013592,-0.012981,0.008247
1765408878.296678,-9.821855,0.040650,0.013152,0.011301,-0.012981,0.012828
1765408878.297630,-9.825441,-0.054400,0.223577,0.012523,-0.007483,0.012828
1765408878.299661,-9.909132,-0.017336,0.417264,0.014508,-0.004734,0.012217
1765408878.301697,-10.046627,0.049020,0.535629,0.011148,-0.005651,0.007941
1765408878.304627,-10.001194,0.070540,0.419656,0.008705,-0.010537,0.011606
1765408878.306755,-9.861309,-0.046628,0.206839,0.009774,-0.010537,0.012675
1765408878.309646,-9.989238,0.060976,0.268412,0.012370,-0.012981,0.009010
1765408878.310628,-10.090864,-0.212817,0.609158,0.008705,-0.006720,0.012675
1765408878.314734,-9.827832,-0.174558,0.160808,0.013897,-0.006720,0.008094
1765408878.316613,-9.800931,-0.029890,0.049020,0.013897,-0.010232,0.008094
1765408878.317601,-9.903154,0.094452,0.361071,0.009163,-0.005803,0.007178
1765408878.321563,-10.064561,0.185318,0.440579,0.010079,-0.003665,0.010843
1765408878.324557,-10.000596,0.123745,0.474055,0.013134,-0.004429,0.012828
1765408878.326548,-9.961740,0.092061,0.370636,0.007178,-0.004429,0.017715
1765408878.329593,-9.961740,0.092061,0.370636,0.007178,-0.011148,0.017715
1765408878.331597,-9.967119,-0.284553,0.217599,0.009774,-0.019242,0.010690
1765408878.334586,-10.008368,-0.146461,0.294118,0.012523,-0.007636,0.008705
1765408878.336576,-9.803921,0.001196,0.100430,0.014661,-0.001374,0.007789
1765408878.339592,-9.917501,0.034672,0.319225,0.009010,-0.007789,0.011454
1765408878.342616,-10.084887,0.022716,0.514108,0.010537,-0.010996,0.008705
1765408878.344597,-10.052007,-0.100430,0.317432,0.012217,-0.009163,0.011912
1765408878.345609,-9.967718,-0.114778,0.210426,0.015730,-0.009163,0.012523
1765408878.347577,-10.070539,-0.134505,0.368843,0.015272,-0.007636,0.010690
1765408878.350598,-10.115973,-0.112386,0.465088,0.013439,-0.007636,0.010079
1765408878.354600,-10.231946,0.080703,0.564921,0.016188,-0.006109,0.008858
1765408878.357590,-9.937230,0.035868,0.307269,0.011148,-0.002291,0.012065
1765408878.358090,-9.907937,0.121951,0.244500,0.010537,-0.010385,0.010537
1765408878.361587,-10.022716,0.003587,0.451937,0.013286,-0.011759,0.015119
1765408878.364610,-10.067551,-0.166786,0.474653,0.013592,-0.011759,0.013897
1765408878.366557,-10.043638,-0.164993,0.483022,0.013897,-0.008399,0.010079
1765408878.369651,-9.869080,-0.132712,0.344333,0.014203,-0.007483,0.010690
1765408878.371548,-9.827832,-0.107006,0.162602,0.017257,-0.014203,0.010385
1765408878.374598,-9.966521,-0.003587,0.329388,0.017257,-0.013286,0.010385
1765408878.376569,-10.112385,0.075323,0.486609,0.018173,-0.008247,0.011759
1765408878.379544,-10.074724,-0.037064,0.504543,0.020464,-0.010843,0.013897
1765408878.382573,-10.043041,0.040650,0.515901,0.017715,-0.011301,0.010690
1765408878.384607,-9.887612,-0.050215,0.304280,0.013286,-0.009163,0.011148
1765408878.386588,-9.887612,-0.050215,0.104615,0.013286,-0.016188,0.011148
1765408878.389580,-9.964130,-0.001196,0.337159,0.014966,-0.018326,0.011454
1765408878.391656,-10.020324,0.074725,0.288737,0.014355,-0.016035,0.010690
1765408878.394612,-9.754900,-0.002989,0.065758,0.013897,-0.007178,0.011912
1765408878.396589,-9.618005,-0.017934,-0.004782,0.016035,-0.009468,0.010537
1765408878.399596,-9.902557,0.005978,0.307269,0.017257,-0.009927,0.010385
1765408878.402676,-10.053204,0.016738,0.636059,0.017562,-0.006109,0.011912
1765408878.404618,-9.959946,0.082496,0.304280,0.016799,-0.004734,0.012217
1765408878.406655,-9.931252,-0.019130,0.404113,0.015424,-0.009468,0.012981
1765408878.409642,-10.020923,0.008967,0.526662,0.015577,-0.009468,0.012370
1765408878.411622,-10.089668,-0.064562,0.552965,0.014508,-0.010079,0.014355
1765408878.414592,-9.875656,-0.041248,0.343137,0.016952,-0.012828,0.009163
1765408878.417635,-9.723815,0.047824,0.040650,0.013439,-0.009621,0.012370
1765408878.418135,-9.719033,0.070540,-0.008967,0.014813,-0.013744,0.013286
1765408878.422586,-10.032280,-0.050813,0.474653,0.010537,-0.015577,0.010537
1765408878.423748,-10.059779,-0.040053,0.498565,0.017257,-0.005192,0.014355
1765408878.426617,-9.903154,-0.045433,0.238522,0.017562,-0.001222,0.013134
1765408878.429603,-9.903154,-0.045433,0.238522,0.017562,-0.009621,0.013134
1765408878.432638,-10.101027,0.119560,0.547585,0.017257,-0.011912,0.011606
1765408878.434552,-10.027497,-0.010163,0.399330,0.014966,-0.012217,0.017257
1765408878.436549,-9.807508,0.011956,-0.059780,0.016493,-0.010232,0.015882
1765408878.439686,-9.708273,-0.112386,-0.032281,0.014355,-0.007941,0.017257
1765408878.441602,-9.900764,-0.033477,0.436394,0.019395,-0.007941,0.015119
1765408878.443621,-10.098038,-0.086083,0.674318,0.018479,-0.002138,0.015730
1765408878.446639,-9.950381,-0.063367,0.483620,0.016188,-0.004581,0.016341
1765408878.447638,-9.976088,-0.026303,0.368843,0.016493,-0.006109,0.012217
1765408878.451617,-9.964130,-0.139885,0.396939,0.021228,-0.012065,0.015882
1765408878.454614,-10.039454,-0.105213,0.321616,0.022297,-0.013744,0.011454
1765408878.456598,-9.999401,-0.077714,0.485414,0.019395,-0.008858,0.011759
1765408878.457657,-9.992825,-0.010163,0.384385,0.020769,-0.012217,0.009316
1765408878.460598,-9.995216,0.037064,0.420851,0.019700,-0.016035,0.011606
1765408878.466008,-9.870873,0.052009,0.099235,0.017410,-0.016341,0.012828
1765408878.466559,-9.843375,-0.025705,0.114180,0.020311,-0.016341,0.016952
1765408878.469641,-9.843375,-0.025705,0.114180,0.020311,-0.016188,0.016952
1765408878.471598,-10.020324,0.010163,0.394548,0.021380,-0.006720,0.013897
1765408878.474632,-9.790171,0.044237,0.143472,0.017410,-0.000458,0.013134
1765408878.476636,-9.829626,0.081301,0.266619,0.019242,-0.005651,0.016799
1765408878.479548,-10.093256,-0.041846,0.673123,0.020311,-0.009927,0.015730
1765408878.480589,-10.093256,-0.041846,0.673123,0.020311,-0.010996,0.015730
1765408878.484704,-9.796746,-0.136298,0.210426,0.023824,-0.010537,0.017410
1765408878.486656,-9.666426,0.074725,-0.015543,0.021838,-0.012523,0.011759
1765408878.489652,-9.950979,0.041248,0.326997,0.021838,-0.015882,0.015119
1765408878.490604,-10.078907,0.148852,0.450143,0.020769,-0.012065,0.011759
1765408878.494643,-9.864896,0.136298,0.126734,0.016952,-0.004276,0.016035
1765408878.496587,-9.661644,-0.060976,-0.019727,0.018326,-0.009010,0.020159
1765408878.499586,-10.020923,-0.133309,0.430416,0.018937,-0.009010,0.019090
1765408878.500581,-10.273791,-0.105811,0.897896,0.018937,-0.008858,0.019090
1765408878.503611,-10.139286,-0.035868,0.510521,0.021380,-0.006720,0.011148
1765408878.506609,-9.814680,0.130918,0.151841,0.016341,-0.010996,0.013592
1765408878.509567,-9.913916,0.294118,0.208034,0.019090,-0.014661,0.014661
1765408878.511562,-10.098038,-0.117169,0.422047,0.018784,-0.014661,0.024893
1765408878.514601,-10.077712,-0.285151,0.490196,0.025198,-0.009163,0.019090
1765408878.516657,-9.906742,-0.257054,0.387374,0.023976,-0.005956,0.015730
1765408878.519595,-9.898373,0.037064,0.271401,0.021533,-0.013286,0.008399
1765408878.520645,-10.121950,0.259445,0.413080,0.020922,-0.019853,0.012065
1765408878.524628,-10.008965,0.120158,0.373027,0.019548,-0.012981,0.019242
1765408878.526698,-10.008965,0.120158,0.373027,0.019548,-0.007025,0.019242
1765408878.529685,-9.737565,-0.387374,0.072932,0.024282,-0.016035,0.023060
1765408878.530678,-9.989238,-0.285748,0.405906,0.028863,-0.016035,0.014050
1765408878.534643,-10.206838,0.068149,0.789096,0.025045,-0.009621,0.010079
1765408878.536608,-10.023911,0.304878,0.526064,0.023366,-0.003512,0.010537
1765408878.539643,-9.735771,0.092061,0.142276,0.015577,-0.010385,0.020769
1765408878.541623,-9.873863,-0.178144,0.088474,0.022755,-0.026114,0.021228
1765408878.544593,-10.009563,-0.289335,0.157221,0.026725,-0.020159,0.018937
1765408878.547618,-9.924676,-0.093257,0.306074,0.032529,-0.003360,0.015424
1765408878.549627,-9.810495,0.170373,0.292922,0.028253,-0.002291,0.014203
1765408878.551584,-9.928263,0.161406,0.445959,0.022907,-0.008399,0.019090
1765408878.554652,-10.076518,0.045433,0.374821,0.025351,-0.015882,0.019548
1765408878.556655,-10.007172,-0.170971,0.481827,0.026573,-0.011606,0.021838
1765408878.559636,-9.885221,-0.037064,0.396939,0.025045,-0.006261,0.016035
1765408878.561631,-9.913916,-0.011956,0.528455,0.023671,-0.010232,0.015424
1765408878.564641,-9.962935,0.178144,0.368245,0.028100,-0.018631,0.017715
1765408878.566633,-10.049019,0.023912,0.298900,0.026725,-0.022144,0.022907
1765408878.569678,-9.911524,-0.126734,0.218795,0.025198,-0.013439,0.020159
1765408878.571615,-9.959349,-0.084888,0.417862,0.027642,-0.006414,0.016952
1765408878.574627,-9.862504,0.071736,0.322214,0.026114,-0.008552,0.014508
1765408878.576595,-9.994021,0.164993,0.191894,0.023824,-0.013286,0.018021
1765408878.579618,-10.065758,0.037064,0.426231,0.025962,-0.012065,0.023976
1765408878.580624,-10.078907,-0.120756,0.636657,0.027489,-0.004276,0.025504
1765408878.584628,-10.020324,-0.237924,0.703013,0.028711,-0.004734,0.021228
1765408878.586662,-9.797942,0.114778,0.187709,0.027184,-0.017715,0.013897
1765408878.592583,-9.886416,0.265423,0.228957,0.023366,-0.017715,0.019395
1765408878.593083,-9.886416,0.265423,0.228957,0.023366,-0.017104,0.019395
1765408878.594690,-10.019128,-0.185318,0.390961,0.026573,-0.008858,0.028100
1765408878.596672,-9.747727,-0.437590,0.150646,0.026420,-0.009927,0.025045
1765408878.599588,-9.902557,-0.111789,0.329986,0.029474,-0.011912,0.012523
1765408878.601630,-10.020324,0.166188,0.520086,0.029474,-0.012981,0.014813
1765408878.604688,-10.054996,0.301291,0.428025,0.030391,-0.016646,0.020006
1765408878.606653,-9.888808,-0.003587,0.340746,0.027336,-0.008247,0.025198
1765408878.609609,-9.781204,-0.149450,0.086083,0.027794,-0.009468,0.022144
1765408878.610682,-9.818267,-0.221186,0.157819,0.027489,-0.012370,0.017715
1765408878.614667,-10.009563,0.013152,0.429220,0.025504,-0.009468,0.013134
1765408878.616617,-9.970109,0.166188,0.569106,0.028863,-0.005040,0.017562
1765408878.619630,-9.872069,0.121951,0.394548,0.032834,-0.007789,0.021533
1765408878.621600,-9.927068,-0.070540,0.444763,0.029322,-0.012981,0.020311
1765408878.624593,-9.962935,-0.049617,0.469273,0.031918,-0.017410,0.020464
1765408878.626644,-10.040051,0.089072,0.303682,0.031154,-0.017410,0.018326
1765408878.629603,-9.862504,0.050215,0.127929,0.032376,-0.013134,0.022297
1765408878.631616,-9.705881,-0.031086,0.050215,0.031154,-0.007789,0.021686
1765408878.634642,-9.877449,-0.199067,0.352702,0.028405,-0.011606,0.022602
1765408878.635626,-10.104015,0.099235,0.596604,0.033445,-0.005803,0.022602
1765408878.639685,-10.096842,0.172166,0.650406,0.029016,-0.002902,0.018784
1765408878.641667,-9.829626,0.155428,0.398135,0.030543,-0.007636,0.024740
1765408878.644647,-9.931850,-0.100430,0.417264,0.027947,-0.020159,0.029322
1765408878.646617,-9.952174,-0.218795,0.316834,0.032681,-0.020159,0.021686
1765408878.649612,-9.950979,0.016738,0.240913,0.029169,-0.017257,0.017562
1765408878.652677,-9.747727,0.151841,-0.097441,0.026725,-0.010079,0.020311
1765408878.655047,-9.747727,0.151841,-0.097441,0.026725,-0.009927,0.020311
1765408878.657682,-9.826636,-0.046628,0.343735,0.028558,-0.008858,0.024129
1765408878.659725,-10.139884,-0.013152,0.638450,0.029780,-0.005040,0.018937
1765408878.661645,-10.148253,-0.000598,0.630679,0.030238,-0.003971,0.022907
1765408878.664668,-9.891200,0.030488,0.234338,0.031918,-0.006872,0.023518
1765408878.666689,-9.854733,-0.059182,0.334768,0.031918,-0.012523,0.028100
1765408878.669674,-10.108798,-0.136298,0.554758,0.036041,-0.015577,0.020006
1765408878.671660,-10.189501,0.086083,0.514108,0.031918,-0.016646,0.017104
1765408878.673619,-10.050214,0.221186,0.324008,0.029169,-0.008858,0.021380
1765408878.676604,-9.861309,0.234338,0.170971,0.031460,-0.008399,0.026420
1765408878.677670,-9.777020,-0.178144,0.257652,0.032070,-0.012370,0.032223
1765408878.681612,-9.986848,-0.246294,0.384385,0.030391,-0.016799,0.021228
1765408878.684685,-9.976088,-0.002391,0.355691,0.031918,-0.016799,0.016188
1765408878.686626,-9.825441,0.179340,0.089670,0.034208,-0.012065,0.020769
1765408878.689631,-9.771639,0.100430,0.101626,0.030849,-0.011606,0.024282
1765408878.691631,-9.946198,0.011956,0.558345,0.032376,-0.012828,0.025656
1765408878.694584,-10.035867,-0.086681,0.392755,0.037721,-0.010385,0.024893
1765408878.696588,-9.940218,-0.153037,0.231946,0.034972,-0.017410,0.022449
1765408878.699770,-9.978478,0.087279,0.415471,0.034972,-0.012065,0.022449
1765408878.701653,-9.913916,-0.067551,0.361071,0.036652,-0.014355,0.023060
1765408878.704635,-9.935436,0.127929,0.297704,0.032681,-0.021686,0.015272
1765408878.705686,-9.935436,0.127929,0.297704,0.032681,-0.014966,0.015272
1765408878.709710,-9.751313,0.181731,0.194883,0.036346,-0.011301,0.024893
1765408878.711684,-9.751313,0.181731,0.194883,0.036346,-0.017257,0.024893
1765408878.714681,-10.123145,-0.014347,0.589431,0.036652,-0.010232,0.023366
1765408878.716662,-9.905546,-0.053802,0.207437,0.037874,-0.010232,0.021838
1765408878.719621,-9.732184,0.087279,0.100430,0.037568,-0.013592,0.020311
1765408878.721607,-9.820060,0.194883,0.377810,0.036194,-0.009621,0.025045
1765408878.724606,-9.831419,0.005978,0.465088,0.032834,-0.016493,0.025962
1765408878.727620,-10.044834,0.108202,0.419656,0.032070,-0.018784,0.021838
1765408878.729670,-9.870873,0.059182,0.206839,0.035125,-0.012370,0.026725
1765408878.731666,-9.690936,0.127331,0.037064,0.035277,-0.018021,0.021075
1765408878.734671,-10.020324,0.117169,0.558345,0.029474,-0.017410,0.019395
1765408878.736652,-10.038258,0.182927,0.511717,0.029780,-0.017410,0.022144
1765408878.739665,-9.849353,0.082496,-0.036466,0.034361,-0.014813,0.022907
1765408878.741698,-9.678382,0.116571,0.061573,0.038332,-0.014813,0.023213
1765408878.744652,-9.800333,0.084290,0.388570,0.036346,-0.005956,0.021380
1765408878.746662,-10.000596,0.191894,0.540411,0.033903,-0.011454,0.019853
1765408878.749636,-10.114776,0.210426,0.645026,0.031612,-0.011454,0.022755
1765408878.751675,-10.114776,0.210426,0.645026,0.031612,-0.008705,0.022755
1765408878.754693,-9.639525,0.008369,0.011956,0.030238,-0.016952,0.020617
1765408878.756643,-9.679578,0.013152,0.174558,0.029322,-0.019548,0.022755
1765408878.759644,-10.046627,0.153037,0.294118,0.034361,-0.016646,0.020311
1765408878.761643,-9.838593,0.014945,0.241511,0.037415,-0.007483,0.025045
1765408878.762645,-9.838593,0.014945,0.241511,0.037415,-0.005651,0.025045
1765408878.766632,-9.954566,0.239120,0.520086,0.030696,-0.010232,0.018173
1765408878.769698,-10.172164,0.221186,0.669536,0.031154,-0.010232,0.018937
1765408878.771717,-10.153036,0.136298,0.526064,0.031307,-0.013592,0.022907
1765408878.774627,-9.929459,0.035868,0.380799,0.026267,-0.013592,0.019090
1765408878.775714,-9.903154,0.053204,0.328790,0.026267,-0.010690,0.019090
1765408878.777642,-9.791367,-0.044237,0.001196,0.034208,-0.017715,0.024129
1765408878.782710,-10.131515,0.112386,0.450741,0.034972,-0.015424,0.017868
1765408878.783210,-10.092059,0.054998,0.686274,0.031001,-0.003971,0.016493
1765408878.785672,-9.834408,0.181731,0.364060,0.030849,-0.007941,0.018021
1765408878.789653,-9.659851,0.050215,-0.000598,0.024129,-0.015272,0.018021
1765408878.792620,-9.587517,0.069345,-0.186514,0.030391,-0.021075,0.019853
1765408878.794723,-9.757292,-0.046628,0.038259,0.032834,-0.012675,0.020922
1765408878.796710,-9.968913,0.166188,0.610952,0.032834,-0.006567,0.020922
1765408878.799669,-10.114776,0.114778,0.795074,0.031612,-0.002596,0.021228
1765408878.801694,-9.840983,-0.038259,0.304280,0.030238,-0.011912,0.022602
1765408878.802702,-9.856527,0.101626,0.093257,0.035736,-0.019090,0.017868
1765408878.805684,-9.855330,0.190698,0.326399,0.032223,-0.011912,0.018784
1765408878.807693,-10.107603,0.090866,0.506934,0.032223,-0.015119,0.018784
1765408878.811659,-9.992825,-0.153037,0.310856,0.036652,-0.014508,0.026267
1765408878.814667,-9.769846,-0.096844,0.041846,0.037415,-0.010537,0.021533
1765408878.816720,-9.823050,0.038259,0.370636,0.032376,-0.002443,0.018784
1765408878.819692,-10.133308,0.044835,0.839311,0.033292,-0.010843,0.020006
1765408878.821728,-10.121352,-0.074127,0.542802,0.032070,-0.010079,0.023060
1765408878.824658,-9.722619,-0.056193,0.029890,0.031001,-0.016035,0.021991
1765408878.826620,-9.849353,0.168580,0.320421,0.038179,-0.012981,0.021686
1765408878.829730,-10.008368,0.069943,0.425036,0.040470,-0.017562,0.028558
1765408878.831661,-10.170969,-0.020325,0.356289,0.037263,-0.017562,0.023213
1765408878.834663,-9.869678,-0.083692,0.102822,0.037415,-0.007636,0.021533
1765408878.836650,-9.689740,0.081899,0.026303,0.040775,-0.004276,0.023060
1765408878.839714,-9.800333,0.053802,0.514108,0.040164,-0.011759,0.024740
1765408878.841665,-10.196077,0.054998,0.785509,0.034208,-0.005345,0.021228
1765408878.842679,-9.923481,-0.017934,0.368245,0.038179,-0.005345,0.025504
1765408878.846664,-9.716641,-0.015543,0.044237,0.039248,-0.010232,0.024740
1765408878.849658,-9.863700,0.015543,0.343735,0.040317,-0.015577,0.025198
1765408878.851664,-9.913916,-0.133907,0.380201,0.040317,-0.017410,0.025198
1765408878.854658,-10.029889,0.034075,0.422645,0.038943,-0.013286,0.020006
1765408878.856621,-9.741750,0.066954,0.131516,0.041386,-0.002138,0.024129
1765408878.859626,-9.809898,-0.066954,0.160210,0.045509,-0.007330,0.026573
1765408878.861666,-9.927068,-0.036466,0.461502,0.046731,-0.011912,0.025351
1765408878.864674,-10.267216,0.098039,0.907460,0.040775,-0.009621,0.020922
1765408878.866738,-10.075322,0.077714,0.554758,0.040470,-0.006261,0.027794
1765408878.869822,-9.742347,0.003587,0.095050,0.040775,-0.013897,0.027031
1765408878.871667,-9.760879,0.019130,0.068149,0.037415,-0.016035,0.024587
1765408878.873676,-9.847560,0.044237,0.111191,0.039095,-0.017104,0.027184
1765408878.876622,-9.751313,0.005380,0.050215,0.044288,-0.003360,0.029627
1765408878.879692,-9.647297,0.108800,0.112386,0.048106,-0.001985,0.027642
1765408878.880714,-9.954566,0.227164,0.634864,0.045509,0.002138,0.026725
1765408878.884691,-9.985652,0.072932,0.663558,0.044593,-0.005956,0.029016
1765408878.885706,-10.027497,0.068149,0.509923,0.045509,-0.010385,0.028558
1765408878.889702,-9.932447,0.092061,0.455524,0.041844,-0.010385,0.028558
1765408878.890711,-9.814680,0.023912,0.154232,0.038332,-0.016799,0.028863
1765408878.894707,-9.904350,0.023912,0.164993,0.039554,-0.021838,0.026420
1765408878.896752,-10.057985,0.129125,0.410091,0.043982,-0.014661,0.025504
1765408878.899680,-9.979075,0.078312,0.377212,0.047647,-0.006261,0.030238
1765408878.901406,-9.832017,0.031683,0.343137,0.045357,-0.006261,0.026114
1765408878.904726,-9.952174,0.024510,0.381396,0.045051,-0.006567,0.028100
1765408878.906679,-9.950979,-0.079507,0.295313,0.046273,-0.014050,0.028253
1765408878.909764,-10.054996,0.087279,0.331181,0.048564,-0.014050,0.024129
1765408878.910697,-9.903154,0.001196,0.275586,0.048564,-0.003360,0.024129
1765408878.914602,-9.924676,0.071138,0.395744,0.048411,-0.006872,0.023824
1765408878.915676,-10.010161,0.011358,0.442970,0.047037,-0.009774,0.029780
1765408878.919687,-10.135101,0.076518,0.439981,0.050244,-0.005803,0.021686
1765408878.921664,-9.940218,0.216404,0.416069,0.048106,-0.005803,0.024587
1765408878.924653,-9.940218,0.216404,0.416069,0.048106,-0.004581,0.024587
1765408878.925623,-9.974891,0.159015,0.441774,0.045051,-0.015272,0.028863
1765408878.929658,-10.255857,0.148254,0.753228,0.046120,-0.014813,0.027031
1765408878.931633,-10.017933,0.100430,0.454328,0.052534,-0.011454,0.030238
1765408878.933666,-9.702294,0.062769,0.043042,0.048411,-0.010843,0.031765
1765408878.936651,-9.702294,0.062769,0.043042,0.048411,-0.012370,0.031765
1765408878.939709,-10.101027,0.050813,0.460904,0.043219,-0.015272,0.030391
1765408878.941726,-10.056191,0.110593,0.274988,0.045051,-0.019548,0.027031
1765408878.942709,-9.708273,0.151841,-0.053204,0.051924,-0.007025,0.030085
1765408878.945752,-9.750119,0.031086,0.114778,0.048869,-0.012981,0.031001
1765408878.949717,-10.153633,0.126734,0.578670,0.049633,-0.010232,0.031001
1765408878.950672,-10.168577,0.161406,0.661167,0.047647,0.001527,0.030085
1765408878.954640,-9.824843,0.101626,0.245098,0.050702,0.001527,0.035583
1765408878.956646,-9.701099,-0.120756,0.160210,0.046884,-0.015272,0.035430
1765408878.959658,-10.202055,-0.013152,0.644428,0.048106,-0.015272,0.031765
1765408878.961610,-10.107005,-0.035270,0.515901,0.052382,-0.009010,0.031307
1765408878.964633,-9.772835,0.100430,0.244500,0.053298,-0.010232,0.028253
1765408878.967636,-9.579147,0.132712,-0.022716,0.053451,-0.007789,0.031612
1765408878.968136,-9.765661,0.065758,0.171569,0.051313,-0.017104,0.028405
1765408878.971923,-10.080104,0.163797,0.724534,0.050855,-0.014050,0.029780
1765408878.974614,-9.964130,0.102822,0.566714,0.049938,-0.003512,0.032070
1765408878.975665,-9.805116,0.084888,0.112386,0.050244,-0.007789,0.031001
1765408878.979719,-9.858918,0.175753,0.209230,0.052687,-0.016035,0.028863
1765408878.981698,-9.931252,-0.044237,0.303085,0.052687,-0.015424,0.028863
1765408878.984701,-9.875656,0.005978,0.294118,0.052534,-0.007178,0.030849
1765408878.986852,-9.923481,0.180536,0.542802,0.052382,-0.001833,0.027336
1765408878.989795,-9.751313,0.108800,0.387374,0.053145,-0.008705,0.031918
1765408878.990730,-9.843973,0.135103,0.071736,0.052993,-0.019242,0.031765
1765408878.994723,-9.919893,0.075323,0.074127,0.049480,-0.012065,0.034972
1765408878.996785,-9.936632,0.008369,0.277977,0.058796,0.000764,0.032070
1765408878.999678,-10.124342,0.122549,0.958871,0.056352,0.000764,0.031307
1765408879.001732,-10.109993,0.144668,0.847680,0.051924,-0.010843,0.029474
1765408879.004690,-9.976685,0.130320,0.274988,0.053451,-0.020464,0.027336
1765408879.006699,-9.528933,0.154232,-0.446557,0.049327,-0.015119,0.030696
1765408879.009714,-9.750119,0.239120,-0.049020,0.056810,-0.018021,0.032376
1765408879.011675,-10.009563,0.086681,0.639646,0.055741,-0.003207,0.032681
1765408879.014665,-10.066953,0.267217,0.616930,0.060934,-0.002902,0.029932
1765408879.016686,-9.663438,0.200861,0.053204,0.055589,-0.005192,0.031154
1765408879.018697,-9.777617,0.365854,0.034672,0.051618,-0.018021,0.025504
1765408879.021706,-10.035867,0.271401,0.449546,0.053756,-0.015119,0.034972
1765408879.024677,-10.035867,0.271401,0.449546,0.053756,-0.007789,0.034972
1765408879.026705,-9.995814,0.329986,0.561334,0.050855,0.003360,0.026573
1765408879.029625,-9.587517,0.102822,0.078312,0.051160,-0.008552,0.031001
1765408879.031669,-10.052606,0.288140,0.494978,0.049938,-0.022907,0.023366
1765408879.032670,-10.031682,0.221186,0.579866,0.047953,-0.008552,0.029780
1765408879.037659,-9.646101,0.267814,-0.113582,0.048717,-0.011454,0.027794
1765408879.039714,-9.655666,0.243305,-0.047824,0.045204,-0.016035,0.026420
1765408879.042666,-10.069344,0.217001,0.735294,0.044440,-0.013286,0.026573
1765408879.044710,-9.933045,0.119560,0.310856,0.050244,-0.009468,0.028863
1765408879.046661,-9.735771,0.109995,0.148254,0.046731,-0.010690,0.022907
1765408879.047745,-9.853538,0.196078,0.336561,0.048869,-0.005803,0.023671
1765408879.051684,-9.825441,0.020325,0.142276,0.051771,-0.015882,0.024435
1765408879.054733,-10.154830,0.249283,0.404113,0.046731,-0.018021,0.015730
1765408879.056732,-9.904350,0.306074,0.124342,0.043066,0.001222,0.018021
1765408879.059655,-9.586919,0.218795,-0.147657,0.050702,-0.007941,0.024587
1765408879.061624,-9.747727,0.267814,0.393352,0.048106,-0.007941,0.020922
1765408879.064650,-10.175752,0.332377,0.932568,0.052534,-0.007330,0.028405
1765408879.066672,-9.956957,0.167384,0.346724,0.049327,-0.010537,0.029627
1765408879.069654,-10.069942,0.219990,0.350909,0.046731,-0.019853,0.025656
1765408879.072740,-9.866092,0.131516,0.173362,0.042455,-0.012828,0.025045
1765408879.074695,-9.606647,0.059182,-0.071138,0.046731,-0.021533,0.026573
1765408879.075696,-9.851745,0.216404,0.214012,0.046731,-0.013744,0.026573
1765408879.079676,-9.947392,0.020923,0.374223,0.048869,-0.011454,0.027794
1765408879.080741,-10.151840,0.130918,0.434003,0.043830,-0.014508,0.023976
1765408879.084665,-10.354494,-0.010163,0.839311,0.043066,-0.006414,0.026725
1765408879.086802,-10.083690,-0.033477,0.426829,0.050855,-0.005345,0.027489
1765408879.089768,-9.918698,-0.063965,0.154232,0.049480,-0.019242,0.024587
1765408879.091739,-10.114178,0.230751,0.461502,0.047495,-0.012523,0.018479
1765408879.096131,-9.965326,0.172166,0.369440,0.053909,-0.012523,0.029322
1765408879.096631,-9.955761,0.124342,0.444763,0.049022,-0.011912,0.025504
1765408879.099751,-10.066953,0.112386,0.578670,0.047189,-0.013439,0.027489
1765408879.100737,-9.851147,-0.046628,0.414873,0.051313,-0.013439,0.030238
1765408879.104720,-9.827832,-0.004782,0.147059,0.053451,-0.016799,0.025198
1765408879.106683,-9.848158,0.084888,0.255858,0.052382,-0.016799,0.026267
1765408879.109675,-9.924676,0.145863,0.247489,0.054825,-0.025198,0.032376
1765408879.111691,-9.999401,-0.038259,0.315638,0.052076,-0.015882,0.031307
1765408879.114676,-9.803921,-0.068149,0.159015,0.056810,-0.014508,0.032223
1765408879.116675,-9.720228,-0.095050,-0.059182,0.050702,-0.020006,0.027642
1765408879.117684,-10.005977,0.105811,0.595409,0.052229,-0.020006,0.026878
1765408879.121734,-10.121352,0.165591,0.665949,0.056505,-0.011759,0.028863
1765408879.122680,-10.102222,0.104017,0.657580,0.054825,-0.010079,0.033139
1765408879.125694,-9.995216,0.063367,0.477044,0.057574,-0.010079,0.035430
1765408879.129709,-9.756694,-0.224773,0.075323,0.057574,-0.028405,0.035430
1765408879.131717,-10.022118,0.148254,0.267814,0.058490,-0.024893,0.023671
1765408879.132671,-10.114776,0.211621,0.643233,0.058490,-0.009774,0.023671
1765408879.136714,-9.936033,0.313845,0.606767,0.061850,-0.018784,0.033445
1765408879.137644,-9.855929,0.126734,0.419656,0.055741,-0.018784,0.035583
1765408879.142652,-9.934240,0.013152,0.000000,0.053298,-0.025962,0.033292
1765408879.144665,-9.991630,-0.044237,0.046031,0.066126,-0.020922,0.035583
1765408879.147729,-10.004184,0.060976,0.494381,0.064904,-0.007941,0.031307
1765408879.149767,-10.041247,0.206839,0.741272,0.059101,-0.003054,0.031918
1765408879.151732,-9.705881,0.044237,0.112386,0.057574,-0.013134,0.035430
1765408879.154736,-10.118362,0.176949,0.325203,0.062308,-0.023060,0.033139
1765408879.156742,-10.002390,0.038259,0.591224,0.064141,-0.005040,0.038485
1765408879.159793,-9.885221,0.046628,0.723936,0.066126,-0.005040,0.034972
1765408879.160725,-9.729793,0.059780,0.434003,0.061239,-0.010232,0.034667
1765408879.164741,-9.631754,-0.011956,-0.044835,0.065210,-0.031612,0.032834
1765408879.165702,-9.741750,0.139885,-0.130320,0.064904,-0.029932,0.031154
1765408879.169718,-10.071735,0.415471,0.602582,0.071319,-0.013286,0.031918
1765408879.170759,-10.031085,0.102822,1.017456,0.063377,-0.003360,0.037110
1765408879.174761,-9.673002,0.193687,0.132114,0.061392,-0.020159,0.035125
1765408879.176751,-9.888808,0.187709,-0.019130,0.057727,-0.029322,0.036957
1765408879.179743,-9.888808,0.084888,0.063367,0.070250,-0.019242,0.040317
1765408879.182735,-10.255857,0.139287,0.729316,0.069944,0.002902,0.035888
1765408879.185131,-10.162600,0.119560,1.000119,0.059559,0.002902,0.033139
1765408879.186773,-10.162600,0.119560,1.000119,0.059559,-0.012981,0.033139
1765408879.189759,-9.927068,0.163199,0.143472,0.067195,-0.018631,0.034514
1765408879.190908,-10.139286,0.227164,0.896700,0.070097,-0.011454,0.037874
1765408879.194725,-10.193686,0.170971,0.793878,0.066890,-0.007330,0.037721
1765408879.197739,-9.884026,-0.008967,0.167384,0.065668,-0.017715,0.033903
1765408879.198239,-9.945002,0.170971,0.323410,0.069486,-0.016952,0.033292
1765408879.200877,-9.734576,0.271401,0.240913,0.070708,-0.009163,0.033292
1765408879.202730,-9.721423,0.484218,0.218795,0.065973,-0.015730,0.034361
1765408879.205727,-9.769248,0.333572,0.077714,0.059254,-0.011148,0.036652
1765408879.207762,-10.038258,0.166188,0.312052,0.066279,-0.014355,0.039401
1765408879.210750,-10.010758,-0.130320,0.552367,0.071013,-0.003818,0.040012
1765408879.214723,-9.947392,0.225968,0.694046,0.066890,-0.002749,0.025809
1765408879.217684,-9.662840,0.291726,0.425036,0.062308,-0.006109,0.031918
1765408879.219749,-9.565996,0.253467,-0.213415,0.062003,-0.027489,0.032529
1765408879.221721,-9.970109,0.339550,0.102224,0.061087,-0.023824,0.028558
1765408879.223769,-10.162600,0.205643,0.692252,0.061392,-0.006720,0.032223
1765408879.226749,-9.840983,0.381994,0.264228,0.067806,0.000305,0.032223
1765408879.229683,-9.695121,0.163199,0.044835,0.058338,-0.007330,0.034667
1765408879.232704,-9.785389,0.089670,0.123745,0.062156,-0.010537,0.032681
1765408879.234668,-9.962935,0.280966,0.525466,0.070860,-0.008705,0.032070
1765408879.237633,-10.029889,0.335366,0.560736,0.067959,-0.004429,0.029780
1765408879.239666,-9.929459,0.490196,0.394548,0.062308,-0.010690,0.028558
1765408879.242673,-9.979673,0.362267,0.462697,0.061087,-0.012065,0.033292
1765408879.243173,-9.907339,0.124940,0.331181,0.067806,-0.005040,0.037110
1765408879.247677,-9.883428,0.227164,0.316834,0.066890,-0.014355,0.028253
1765408879.249697,-10.136297,0.368245,0.710186,0.058338,-0.014050,0.021838
1765408879.251708,-10.082495,0.487805,0.558345,0.062308,-0.014966,0.029627
1765408879.254706,-9.990434,0.364060,0.282162,0.061087,-0.014966,0.032987
1765408879.256657,-9.725011,0.055595,0.078910,0.056505,-0.012370,0.030849
1765408879.259704,-9.532519,0.129125,-0.290531,0.056963,-0.011912,0.021991
1765408879.262691,-9.532519,0.129125,-0.290531,0.056963,-0.013134,0.021991
1765408879.264666,-9.953370,0.559541,0.620516,0.067348,0.001374,0.022449
1765408879.265685,-10.148253,0.463893,0.924199,0.061087,0.000153,0.029780
1765408879.267688,-9.958152,0.118962,0.377810,0.056352,-0.008705,0.027489
1765408879.271732,-9.862504,0.211621,0.136298,0.059254,-0.020769,0.023366
1765408879.274728,-9.690338,0.197274,0.053802,0.058338,-0.015882,0.023060
1765408879.276760,-9.945002,0.612147,0.472262,0.065210,-0.007636,0.024587
1765408879.279762,-10.026302,0.411286,0.683285,0.057574,-0.007636,0.032529
1765408879.281723,-9.849353,0.145265,0.204448,0.055436,-0.022449,0.031765
1765408879.284658,-9.757292,0.157819,0.039455,0.058185,-0.020006,0.024893
1765408879.286716,-9.609037,0.132712,0.041248,0.058490,-0.014050,0.028253
1765408879.289712,-9.768650,0.297704,0.322214,0.058032,-0.018784,0.021991
1765408879.292765,-10.127929,0.395744,0.297704,0.052993,-0.020922,0.025198
1765408879.294783,-10.073528,0.069345,0.205045,0.056658,-0.015272,0.030391
1765408879.295725,-9.846962,0.090866,0.222382,0.066279,-0.004734,0.028558
1765408879.299692,-10.001194,-0.047824,0.830942,0.060323,-0.003665,0.027031
1765408879.301667,-10.001194,-0.047824,0.830942,0.060323,-0.009927,0.027031
1765408879.304756,-9.942610,0.215208,0.068149,0.054520,-0.025504,0.024435
1765408879.305655,-9.942610,0.215208,0.068149,0.054520,-0.020311,0.024435
1765408879.309729,-9.689142,0.155428,0.118962,0.065973,-0.013744,0.024740
1765408879.312683,-9.783595,-0.078312,0.420851,0.058490,-0.013744,0.028253
1765408879.314699,-9.783595,-0.078312,0.420851,0.058490,-0.011912,0.028253
1765408879.317675,-10.074127,0.333572,0.532042,0.061545,-0.016188,0.027794
1765408879.319682,-9.805116,-0.018532,0.394548,0.058185,-0.010537,0.030085
1765408879.320696,-9.820659,0.229555,0.248685,0.061697,-0.012065,0.028863
1765408879.322739,-9.732184,-0.046628,0.365854,0.060934,-0.012065,0.029932
1765408879.326749,-9.996411,0.244500,0.353300,0.070860,-0.013897,0.031612
1765408879.329708,-10.031085,-0.019130,0.406504,0.064141,-0.014813,0.034667
1765408879.330676,-10.172164,0.064562,0.827355,0.064446,-0.010385,0.027031
1765408879.334720,-9.922284,0.092061,0.390961,0.067042,-0.009316,0.034819
1765408879.336768,-9.717837,-0.098039,0.025108,0.065057,-0.020006,0.030391
1765408879.339728,-9.894188,0.429220,0.255261,0.070860,-0.014508,0.029016
1765408879.342688,-9.983260,0.193687,0.561932,0.065057,-0.012370,0.036499
1765408879.344656,-9.805714,0.000000,0.109995,0.072082,-0.012370,0.036957
1765408879.347689,-9.907937,0.083692,0.292922,0.069639,-0.014508,0.032070
1765408879.349701,-10.068746,-0.044237,0.655189,0.068417,-0.002902,0.031918
1765408879.351720,-10.090864,0.351506,0.701817,0.074678,0.000000,0.030085
1765408879.353720,-10.220587,0.126734,0.704208,0.066584,-0.008399,0.034667
1765408879.357653,-9.808105,0.030488,0.259445,0.073609,-0.009316,0.036652
1765408879.359737,-9.808105,0.030488,0.259445,0.073609,-0.016188,0.036652
1765408879.361731,-10.002390,-0.060976,0.456719,0.077885,-0.008705,0.034056
1765408879.362738,-9.989837,0.340746,0.361669,0.083078,-0.008247,0.029627
1765408879.366660,-10.173361,0.100430,0.640244,0.072846,-0.003971,0.035736
1765408879.369680,-9.868484,0.309660,0.294118,0.082314,-0.003971,0.035736
1765408879.371704,-9.868484,0.309660,0.294118,0.082314,-0.009316,0.035736
1765408879.372730,-9.881634,0.192492,0.447154,0.076358,-0.001985,0.034361
1765408879.377697,-10.002390,0.461502,0.416069,0.079871,-0.000916,0.038790
1765408879.379734,-10.035867,-0.046031,0.594811,0.075747,-0.001833,0.043371
1765408879.382663,-9.763867,0.439981,0.111789,0.080176,-0.001833,0.035277
1765408879.384688,-9.847560,-0.056193,0.496174,0.070402,-0.001985,0.045204
1765408879.387680,-9.775824,0.182927,0.344333,0.084452,-0.002749,0.036194
1765408879.388180,-10.043638,0.228957,0.714371,0.076205,-0.012981,0.037415
1765408879.391753,-9.996411,0.032281,0.509326,0.075900,-0.010996,0.035430
1765408879.394705,-9.875656,0.304280,-0.009565,0.081551,-0.013134,0.035736
1765408879.396662,-9.698708,-0.132114,0.035868,0.078649,-0.009927,0.036041
1765408879.399796,-9.787780,0.593018,-0.005978,0.088423,-0.005192,0.028863
1765408879.401733,-10.051410,0.320421,0.638450,0.071319,0.001374,0.034361
1765408879.404656,-10.034670,0.445959,0.649211,0.071319,0.002749,0.034361
1765408879.406674,-9.956957,0.094452,0.444165,0.075900,-0.001985,0.040775
1765408879.409747,-10.019128,0.148254,0.610354,0.077427,-0.000764,0.034514
1765408879.412700,-9.747727,0.343137,0.183525,0.082009,0.003665,0.040012
1765408879.414746,-9.865494,0.188905,0.366451,0.081856,-0.010537,0.041844
1765408879.416740,-10.217599,0.638450,0.694644,0.083536,-0.006872,0.034361
1765408879.419688,-10.341940,0.162602,0.962458,0.077885,-0.004429,0.044593
1765408879.421707,-9.815279,0.262434,0.096844,0.086743,-0.009774,0.038790
1765408879.422791,-9.814680,0.271401,-0.016738,0.074526,-0.018326,0.034514
1765408879.425713,-9.937828,0.340148,0.197872,0.083536,-0.013744,0.033139
1765408879.427715,-10.015541,0.209230,0.179938,0.082620,-0.010385,0.038637
1765408879.431780,-9.964728,0.254065,0.466284,0.085979,0.001374,0.030238
1765408879.434679,-9.655666,0.478240,0.150646,0.080023,0.009010,0.024587
1765408879.436687,-9.782997,0.518293,0.408895,0.080023,-0.010843,0.032681
1765408879.439765,-9.791965,0.709589,0.254663,0.078802,-0.010843,0.030543
1765408879.441691,-10.187110,0.271401,0.759804,0.069486,-0.017562,0.033750
1765408879.444721,-9.960544,0.401124,0.111191,0.075289,-0.005803,0.030543
1765408879.447679,-9.826636,0.141081,-0.141081,0.070250,-0.012217,0.028711
1765408879.449713,-10.039454,0.652798,0.581659,0.075595,-0.007025,0.021991
1765408879.451691,-10.086679,0.523673,0.587040,0.067959,0.003512,0.028558
1765408879.454730,-9.962935,0.417264,0.438785,0.073915,-0.011301,0.027489
1765408879.456699,-9.940218,0.546389,0.114778,0.066737,-0.015424,0.023213
1765408879.459779,-10.132710,0.466284,0.677905,0.077427,-0.007178,0.031307
1765408879.461740,-9.750119,0.249880,0.137494,0.074526,0.000153,0.035125
1765408879.464703,-9.872069,0.090268,0.557747,0.068264,-0.010996,0.024129
1765408879.465730,-9.998802,0.459110,0.417264,0.070250,-0.009774,0.016952
1765408879.469762,-10.038258,0.355093,0.163797,0.072235,-0.018326,0.025656
1765408879.471738,-9.884026,0.691057,0.173362,0.074220,-0.012675,0.021228
1765408879.474694,-9.808702,0.261836,0.222382,0.062766,-0.006414,0.028863
1765408879.476782,-10.072930,0.298900,0.551172,0.071777,-0.007330,0.027489
1765408879.479752,-10.081299,0.228957,0.184122,0.069791,-0.014508,0.023213
1765408879.481841,-10.100429,0.376614,0.456719,0.070402,0.003665,0.019853
1765408879.484741,-9.838593,0.406504,0.161406,0.068875,0.003665,0.022144
1765408879.486733,-9.838593,0.406504,0.161406,0.068875,-0.006872,0.022144
1765408879.487903,-9.884026,0.309063,0.342539,0.068111,-0.014050,0.018937
1765408879.491796,-10.259443,0.269010,0.663558,0.063530,-0.025656,0.021686
1765408879.494737,-9.979673,0.410091,0.034672,0.069028,-0.020159,0.023060
1765408879.496786,-9.990434,0.130320,0.208034,0.062003,-0.020159,0.027336
1765408879.499738,-9.910329,0.289335,0.398135,0.065515,-0.006567,0.022297
1765408879.501732,-9.979673,0.236729,0.406504,0.066126,-0.008247,0.029474
1765408879.504686,-9.909132,0.179340,0.436992,0.068111,-0.010232,0.029169
1765408879.506672,-10.056191,0.211621,0.370636,0.066737,-0.015730,0.028405
1765408879.509661,-10.034073,0.009565,0.494381,0.070402,-0.012981,0.031765
1765408879.511774,-9.816475,0.175753,0.167384,0.075900,-0.009010,0.031460
1765408879.514662,-9.788378,-0.105213,0.527260,0.071777,-0.008247,0.031307
1765408879.516745,-9.702294,0.297107,0.249880,0.074984,-0.008247,0.027489
1765408879.519715,-9.702294,0.297107,0.249880,0.074984,-0.026114,0.027489
1765408879.520662,-10.035867,0.269010,0.479436,0.077733,-0.019548,0.025962
1765408879.524711,-9.777617,0.033477,0.020325,0.076511,-0.014966,0.035430
1765408879.526727,-9.675393,0.135701,-0.029890,0.076816,-0.012675,0.031460
1765408879.529752,-9.826636,-0.087877,0.181731,0.073457,-0.012675,0.033445
1765408879.531717,-9.826636,-0.087877,0.181731,0.073457,-0.010232,0.033445
1765408879.534748,-9.949186,0.064562,0.399928,0.076511,-0.017257,0.031612
1765408879.537716,-10.170969,0.170373,0.779531,0.077733,-0.017257,0.034056
1765408879.539677,-9.803921,0.099235,-0.097441,0.083078,-0.017104,0.036499
1765408879.541686,-10.118960,0.078910,0.599593,0.083078,-0.024129,0.035583
1765408879.544739,-10.118960,0.078910,0.599593,0.083078,-0.002902,0.035583
1765408879.545742,-9.899570,-0.120158,0.347920,0.086437,-0.023213,0.043371
1765408879.549697,-10.107005,0.206839,0.361071,0.085979,-0.023213,0.028100
1765408879.551701,-10.282758,0.190100,0.566714,0.083994,-0.018021,0.034361
1765408879.554765,-9.936632,0.345528,0.327594,0.089339,-0.011148,0.034361
1765408879.556705,-9.927068,0.230751,0.444763,0.080634,-0.012828,0.040623
1765408879.559719,-10.111190,0.221186,0.957078,0.084910,-0.015730,0.042913
1765408879.561758,-9.709468,-0.052606,-0.084888,0.083841,-0.019853,0.040164
1765408879.564999,-10.020923,0.180536,0.496772,0.091477,-0.027947,0.033903
1765408879.565499,-9.928263,0.248685,0.295313,0.087506,-0.007178,0.036957
1765408879.569714,-10.096244,0.087279,0.921210,0.095295,-0.019242,0.042608
1765408879.570749,-9.734576,0.355093,0.221186,0.092852,-0.010385,0.027336
1765408879.574731,-9.845766,0.329986,0.399330,0.091172,-0.030849,0.036957
1765408879.576742,-9.714849,0.443568,0.040650,0.091630,-0.017715,0.039248
1765408879.579760,-9.922284,0.081301,0.424438,0.096059,-0.025045,0.045051
1765408879.581763,-9.632950,0.270206,0.270206,0.092546,-0.011454,0.033750
1765408879.584780,-9.636537,0.209828,0.122549,0.091477,-0.019242,0.032529
1765408879.586785,-9.855330,0.671927,0.582855,0.094531,-0.022297,0.033750
1765408879.589892,-9.907339,0.359876,0.313247,0.094531,-0.023060,0.033750
1765408879.591736,-9.788378,0.612147,0.311454,0.089186,-0.020922,0.034972
1765408879.594766,-9.634145,0.183525,-0.290531,0.086590,-0.016799,0.033750
1765408879.596755,-9.802128,0.682688,0.283357,0.100182,-0.011759,0.035430
1765408879.599739,-9.939023,0.267814,0.431014,0.095295,-0.006414,0.036805
1765408879.601800,-10.217599,0.724534,1.080225,0.095295,-0.010537,0.033598
1765408879.604719,-10.074127,0.448350,0.536824,0.085216,-0.009621,0.032070
1765408879.606677,-9.727402,0.712578,0.199665,0.094531,-0.020159,0.036346
1765408879.607779,-9.727402,0.712578,0.199665,0.094531,-0.019395,0.036346
1765408879.611685,-9.882831,0.457317,0.410091,0.089034,-0.015119,0.033292
1765408879.614704,-9.960544,0.270803,0.408895,0.082925,-0.014508,0.024740
1765408879.617735,-10.037063,0.839311,0.417264,0.087506,-0.015272,0.021991
1765408879.619742,-9.780008,0.455524,0.087279,0.074526,-0.010690,0.025504
1765408879.621717,-9.721423,0.883548,0.131516,0.087506,-0.010232,0.027794
1765408879.624728,-9.962935,0.517695,0.456719,0.075136,-0.011148,0.029474
1765408879.626700,-10.344332,0.854256,1.132831,0.082925,-0.011912,0.031918
1765408879.630778,-10.023911,0.224175,0.377212,0.071471,-0.007636,0.035736
1765408879.632703,-10.023911,0.224175,0.377212,0.071471,-0.022449,0.035736
1765408879.634710,-9.557627,0.302487,-0.154232,0.071624,-0.016799,0.024587
1765408879.636719,-9.991630,0.810019,0.600191,0.083536,-0.019853,0.027336
1765408879.639733,-10.126732,0.369440,0.561932,0.069944,-0.007178,0.026114
1765408879.641738,-9.907339,0.500956,0.307269,0.076969,-0.015577,0.028100
1765408879.644744,-9.619798,0.166188,-0.288140,0.066279,-0.008094,0.023518
1765408879.646768,-9.771639,0.671927,0.194883,0.087354,-0.013744,0.026114
1765408879.647799,-10.011955,0.337159,0.652798,0.071319,-0.005040,0.021686
1765408879.650692,-10.032280,0.398135,0.943926,0.076664,-0.009774,0.027489
1765408879.654759,-9.731586,0.087279,0.117169,0.067195,-0.012370,0.019700
1765408879.657702,-9.923481,0.624103,0.341344,0.080329,-0.029016,0.021686
1765408879.658202,-9.856527,0.252272,0.223577,0.065210,-0.010690,0.024893
1765408879.661746,-9.839788,0.324605,0.228360,0.078496,-0.015882,0.027489
1765408879.664719,-9.921089,0.139885,0.319225,0.068570,-0.015882,0.022449
1765408879.666717,-10.346125,0.595409,0.918221,0.082009,-0.018784,0.026878
1765408879.669741,-9.948587,0.233740,0.307269,0.066737,-0.009316,0.031460
1765408879.671792,-9.994021,0.337159,0.478240,0.080023,-0.024435,0.027794
1765408879.672795,-9.765063,0.051411,0.052606,0.067806,-0.008247,0.032070
1765408879.676737,-10.163198,0.172166,0.648015,0.084147,-0.029474,0.031001
1765408879.678891,-10.200262,0.092659,0.615734,0.072082,-0.011301,0.027794
1765408879.680810,-10.184718,0.108800,0.609158,0.081703,-0.024435,0.031001
1765408879.684779,-10.184718,0.108800,0.609158,0.081703,-0.013134,0.031001
1765408879.686772,-9.912720,0.159015,0.347920,0.085063,-0.023671,0.028863
1765408879.689804,-9.716641,0.111191,0.086083,0.079412,-0.010079,0.028253
1765408879.691791,-9.931850,0.076518,0.651602,0.084605,-0.023060,0.027947
1765408879.696689,-9.916306,0.143472,0.344333,0.078802,-0.006872,0.029016
1765408879.697189,-9.933643,0.013749,0.371832,0.090103,-0.025504,0.032834
1765408879.699817,-10.025107,0.364060,0.460306,0.082009,-0.017562,0.027794
1765408879.700834,-9.832614,0.090866,0.406504,0.085827,-0.017562,0.037568
1765408879.702841,-9.534313,0.227164,-0.313845,0.082925,-0.017868,0.031765
