time,acc_x_g,acc_y_g,acc_z_g,gyro_x_rad_s,gyro_y_rad_s,gyro_z_rad_s
1765407767.964894,-8.742442071571377,0.33279061120181486,-4.515472283724367,-0.00799190225803026,-0.005491989625355292,0.0027287549239250314
1765407767.965144,-8.68531090784657,0.3221732062933276,-4.498667782205627,-0.007743762025735653,-0.005963589459020558,0.0029089867592448832
1765407767.965394,-8.627056783856276,0.31007524860051017,-4.482071392491083,-0.007453871850259038,-0.00645393969319731,0.003035078592060527
1765407767.965644,-8.567957725909716,0.2962606232530609,-4.4658211665251555,-0.007131323243637709,-0.007005909563132855,0.0030437525368018155
1765407767.96595,-8.508517244282492,0.28059601326186245,-4.450141285159432,-0.0067902745716051805,-0.007660485786181215,0.002866877670886463
1765407767.96615,-8.449490417116552,0.26307346845928653,-4.435349141785779,-0.006450342518391576,-0.008455016620333653,0.0024339679260413044
1765407767.96635,-8.391890361706999,0.2438279317582844,-4.421852608160209,-0.006136763679452252,-0.009421663663823054,0.0016750624164384154
1765407767.96655,-8.336971900429905,0.22314820415788178,-4.41013722621295,-0.005880285160670915,-0.010586147052259952,0.0005238929037561926
1765407767.96675,-8.28619105298329,0.2014800558501922,-4.400744253730128,-0.005716757732498244,-0.011966864141309654,-0.0010787850085226343
1765407767.966886,-8.241141335848841,0.1794205127706695,-4.394241428690327,-0.0056864250190727965,-0.013574449809967344,-0.0031818481377777013
1765407767.967136,-8.203470385086598,0.15770271967513852,-4.391188914014652,-0.005832924701051756,-0.01541182742111066,-0.005820626011508213
1765407767.967386,-8.174782738370018,0.13717122224460332,-4.392103223895239,-0.006202039869802856,-0.017474769317602907,-0.009014079741599621
1765407767.967636,-8.156536324743538,0.11874807067306972,-4.397422162620703,-0.006840258034505554,-0.019752941359818928,-0.012762540142909423
1765407767.967908,-8.149941035093729,0.10339079260585374,-4.407473953170101,-0.007793210660020938,-0.02223135150134658,-0.017046197431813175
1765407767.968158,-8.1558676220455,0.09204390791639422,-4.422453649406081,-0.009104077253596164,-0.024892068605872803,-0.021824510093817553
1765407767.968408,-8.174774250757235,0.08558623996443493,-4.4424094298069985,-0.010812043379873964,-0.027716036653981722,-0.02703665776789915
1765407767.968658,-8.206656551227532,0.084776946031783,-4.467240357831792,-0.012950898260028402,-0.030684792290692545,-0.03260310155762562
1765407767.968938,-8.251025283928264,0.09020398081514155,-4.496705695799747,-0.01554784371998663,-0.03378190835419721,-0.038428235160988505
1765407767.969188,-8.306913882961716,0.10223931931954877,-4.530444150842803,-0.018622566760901845,-0.03699403119890582,-0.044404017101293713
1765407767.969438,-8.372916159112254,0.12100527420573892,-4.568000008627493,-0.02218661023193635,-0.04031144344195623,-0.05041438389000964
1765407767.969688,-8.447252262481573,0.14635551120869844,-4.608852388516138,-0.02624306405819002,-0.04372815169276125,-0.056340174741586944
1765407767.969987,-8.527858737099526,0.1778730605882911,-4.652443880857762,-0.0307865921103182,-0.04724155940409715,-0.06206425906608287
1765407767.970237,-8.612496472622658,0.21488597578614474,-4.698205347226421,-0.035803803056038266,-0.050851829166185754,-0.06747654664423479
1765407767.970487,-8.698868881523538,0.2564995519087675,-4.745574461187448,-0.04127396278237196,-0.054561059848274855,-0.0724785730916195
1765407767.970737,-8.784741818730422,0.3016424633457767,-4.794006653674865,-0.04717002823908932,-0.05837240187306408,-0.07698738626694085
1765407767.970906,-8.868056633442325,0.3491229976580601,-4.842978507669656,-0.05345995872197337,-0.06228921715031661,-0.08093850917469608
1765407767.971156,-8.947028382971927,0.39769078049298484,-4.891985044388378,-0.06010823489205972,-0.06631436868068052,-0.08428781997067915
1765407767.971406,-9.020222687510815,0.44609899284858695,-4.94053337918665,-0.0670774928259409,-0.07044969989857218,-0.08701226944517292
1765407767.971656,-9.0866067596662,0.49316217712942995,-4.98813573215729,-0.07433016343477378,-0.07469573019260524,-0.08910944749192748
1765407767.971976,-9.14557242513059,0.5378054614867992,-5.034304734105147,-0.08182999910371605,-0.07905155164254893,-0.09059610221738408
1765407767.972226,-9.196931177306782,0.5791023160323175,-5.07855333033541,-0.08954337189529873,-0.08351487581855481,-0.0915057919712583
1765407767.972476,-9.240883390426411,0.6162993841356909,-5.120400402163353,-0.09744024300822106,-0.08808216326468121,-0.09188589820770425
1765407767.972726,-9.277965701474429,0.6488281849634486,-5.15938177328885,-0.10549473122782274,-0.09274877529855323,-0.09179424513039232
1765407767.97301,-9.308982086109454,0.6763046383753101,-5.195064959146415,-0.1136852484527359,-0.09750910968242447,-0.09129556965861155
1765407767.97326,-9.334925028870275,0.6985185574561488,-5.2270652624603064,-0.121994223059817,-0.1023567086458906,-0.09045806792036885
1765407767.97351,-9.356893237238488,0.7154162241185246,-5.255060866950584,-0.13040749027732793,-0.10728435376138001,-0.0893502094140678
1765407767.97376,-9.376011620898222,0.7270794412049778,-5.2788053535272,-0.13891347550604388,-0.1122841825817128,-0.08803795632471077
1765407767.97394,-9.393358029117472,0.7337039233655213,-5.298137153679624,-0.14750231504376712,-0.11734787045926122,-0.08658246476745586
1765407767.97419,-9.409899890489232,0.735578950260804,-5.312986326162278,-0.1561650478085607,-0.12246691216258739,-0.08503829532367652
1765407767.97444,-9.42644277069556,0.7330693860568004,-5.323379274201165,-0.16489298331621963,-0.12763301168436175,-0.08345212990712286
1765407767.97469,-9.443592117363401,0.7266005808257386,-5.329441554682571,-0.17367731538530468,-0.13283855285041143,-0.08186197162145935
1765407767.974971,-9.461728991334283,0.7166459735023072,-5.331398161303002,-0.18250900933856418,-0.1380770920368262,-0.08029678382938389
1765407767.975221,-9.481000131196925,0.7037162630446283,-5.329570149268167,-0.19137894271248837,-0.14334380027862437,-0.0787765092985525
1765407767.975471,-9.501322116863742,0.6883483085112433,-5.324366523461661,-0.20027823254122692,-0.1486357891905983,-0.07731241201341278
1765407767.975721,-9.52239874113081,0.6710921192074522,-5.316270918597094,-0.2091986499367598,-0.15395227821001675,-0.07590770163478563
1765407767.976004,-9.543750051636161,0.6524953979606389,-5.305823569234117,-0.218133016679989,-0.15929459058646875,-0.07455841661148521
1765407767.976337,-9.564750957664689,0.6330864338283877,-5.293600058578407,-0.22707550003330887,-0.16466599176931093,-0.07325454205339108
1765407767.976671,-9.584676959914773,0.6133570627735062,-5.280188865532881,-0.23602176148595275,-0.1700713964063282,-0.0719813232551799
1765407767.976916,-9.602754589442565,0.59374770425732,-5.266169468599357,-0.2449689572184738,-0.17551696678001022,-0.07072071485953085
1765407767.977166,-9.618214384551484,0.5746361719619516,-5.2520918910822205,-0.25391561687372943,-0.18100961615110953,-0.06945288770670528
1765407767.977416,-9.630344293374401,0.5563311840000672,-5.238457748691839,-0.2628614352305365,-0.1865564298980246,-0.06815770672542787
1765407767.977666,-9.638541039212827,0.5390705771283494,-5.225702674424358,-0.2718070050087141,-0.19216403291248874,-0.06681609812842852
1765407767.977959,-9.642356488632766,0.5230235571349668,-5.214180358437142,-0.28075351039032237,-0.19783795877467475,-0.06541124143524833
1765407767.978209,-9.641535952833557,0.5082960420143418,-5.204148797579715,-0.28970239433166645,-0.20358210071227345,-0.06392954460573236
1765407767.978459,-9.636045886709333,0.49493812154423167,-5.195759461842257,-0.2986550038122911,-0.20939832885067944,-0.0623613823252324
1765407767.978709,-9.626089301575877,0.48295270239301713,-5.189050229490703,-0.3076122023022713,-0.21528633290326926,-0.06070159399241468
1765407767.978905,-9.612107782036576,0.4723045132143765,-5.183943344765331,-0.3165739242154313,-0.22124370259803613,-0.058949745438668634
1765407767.979238,-9.594769174141316,0.4629288227487485,-5.180250034313998,-0.3255386461011936,-0.22726621283736045,-0.05711015688713765
1765407767.979572,-9.574940432663626,0.45473941852955424,-5.177683164668875,-0.3345027718627408,-0.23334825588792424,-0.05519169523475112
1765407767.979981,-9.553646395477767,0.4476354940654684,-5.175878115852144,-0.34345996544252866,-0.23948336019302646,-0.053207328160422736
1765407767.980231,-9.532017049202185,0.44150702165073336,-5.174420367238884,-0.3524004962465573,-0.24566474231557453,-0.05117344477699353
1765407767.980481,-9.511227169684444,0.4362380385155949,-5.172877068344016,-0.36131067925134147,-0.25188584206380843,-0.04910896467119716
1765407767.980731,-9.492432591010363,0.4317073351353918,-5.170829490404064,-0.3701724935599987,-0.25814078904180104,-0.047034282238068326
1765407767.980899,-9.47670723873039,0.42778652897622604,-5.167903196141776,-0.378963453906562,-0.26442475226411416,-0.04497011744653362
1765407767.981149,-9.464985012336543,0.4243363152076286,-5.163792521010294,-0.38765679058185953,-0.2707341424911402,-0.04293635626988887
1765407767.981399,-9.458010432203338,0.4212024921278823,-5.158276083177327,-0.39622196625528633,-0.27706666457868595,-0.0409509589093147
1765407767.981649,-9.456301199555917,0.4182139005390567,-5.15122131886057,-0.4046255297514813,-0.2834212421324895,-0.03902899561815428
1765407767.981879,-9.460124667834723,0.4151843464583139,-5.142577956522411,-0.41283228375731146,-0.28979785275204045,-0.03718184583588871
1765407767.982212,-9.469489277351412,0.4119195150711628,-5.132361859051399,-0.420806726241606,-0.29619731515671793,-0.03541657507256519
1765407767.982546,-9.484151126376329,0.4082280745534536,-5.12063197236125,-0.4285147114816684,-0.30262105421871116,-0.03373549589506122
1765407767.983,-9.503634527829572,0.40393461403821485,-5.107464654900152,-0.43592526390222375,-0.30907084282174685,-0.03213592648313541
1765407767.98325,-9.527264041534494,0.3988915688619803,-5.092930287247287,-0.44301246176674847,-0.3155485009520125,-0.030610169458768568
1765407767.9835,-9.55420512786711,0.39298781420629186,-5.077075531180635,-0.44975728292849304,-0.322055532984124,-0.029145732708594
1765407767.98375,-9.583511288242578,0.386152636553642,-5.059911929633642,-0.4561492737337417,-0.3285926935511486,-0.027725804520262364
1765407767.98396,-9.614176053766823,0.3783548082685512,-5.041409888325992,-0.46218787362005226,-0.33515948350257224,-0.026329981667153623
1765407767.98421,-9.645187446217957,0.3695971611532376,-5.021497186601614,-0.46788321031095653,-0.3417535994252501,-0.024935228421888347
1765407767.98446,-9.675581095700574,0.35990742403436293,-5.000062128067974,-0.47325618276610426,-0.3483703945604087,-0.023517018327150686
1765407767.98471,-9.704487345982063,0.3493264998335745,-4.976962289704392,-0.4783376825767983,-0.3550024342256657,-0.022050588450186877
1765407767.985003,-9.731167986723845,0.33789591797700164,-4.952040144612951,-0.48316687684241255,-0.3616392254368422,-0.020512223771121295
1765407767.985253,-9.755039412587756,0.32564655688319777,-4.925146369736711,-0.4877885859790084,-0.36826717450226126,-0.018880487010874903
1765407767.985503,-9.775680631080812,0.31259052704456947,-4.896170219093603,-0.49224992656165784,-0.3748697971420916,-0.017137317241774856
1765407767.985753,-9.792826553599813,0.2987173849372985,-4.865074105671143,-0.496596522526221,-0.3814281824355159,-0.015268938658970058
1765407767.986056,-9.806349341568962,0.28399493544363563,-4.831927187834665,-0.5008686768190157,-0.3879216935545046,-0.013266543031280336
1765407767.986389,-9.816232655463724,0.268374089227842,-4.79693146655991,-0.5050979134594406,-0.39432887454094623,-0.011126730180648805
1765407767.986723,-9.822544474404049,0.25179680093569573,-4.760434664895847,-0.5093042502517943,-0.40062852475796434,-0.00885170807456029
1765407767.986939,-9.82541331809943,0.23420604578142382,-4.722926731036189,-0.5134944658220978,-0.4068008988045929,-0.006449261960658098
1765407767.987189,-9.8250109678113,0.21555675512442,-4.68501966272672,-0.5176615026581306,-0.412828981345634,-0.003932495131672106
1765407767.987439,-9.821543128225306,0.19582627286316756,-4.647412334501547,-0.5217850190283523,-0.4186997621149409,-0.0013193310994756807
1765407767.987689,-9.81524805573975,0.17502246012358733,-4.610843363623293,-0.5258329847137185,-0.4244053956966381,0.001368233481201739
1765407767.987946,-9.80640178078254,0.15318777202637127,-4.576036273872242,-0.5297641213969491,-0.4299440970464957,0.004105118079895832
1765407767.988196,-9.79532742001288,0.13039868473052388,-4.54364191992533,-0.5335309231625819,-0.4353206289778049,0.006864361099943708
1765407767.988446,-9.782405538100322,0.10676103504650648,-4.514182930049534,-0.5370829569340704,-0.4405462890035466,0.00961849685394982
1765407767.988696,-9.76808226013731,0.08240221175767386,-4.488004472279395,-0.5403701372785747,-0.44563837663632516,0.012341062845444216
1765407767.988903,-9.752871383289055,0.05746066201638475,-4.465235818147016,-0.5433456903261255,-0.45061919168305203,0.015008177411219707
1765407767.989153,-9.73734654457417,0.032072835570597875,-4.445767551996203,-0.5459685589234067,-0.4555146669640294,0.01760009205115118
1765407767.989403,-9.722120773845651,0.006358441286986276,-4.42924831631135,-0.5482050529702034,-0.4603527686757168,0.020102582838985885
1765407767.989653,-9.7078138160437,-0.019593509039567997,-4.41510205586764,-0.550029621003219,-0.4651617965108776,0.022508029420428094
1765407767.990011,-9.695010959551922,-0.04573417269058974,-4.402563371366395,-0.5514247142893843,-0.46996868793620394,0.024816052890718802
1765407767.990261,-9.684218822552955,-0.07205617257453728,-4.390726937357568,-0.5523798242485216,-0.47479739922028863,0.027033634556320723
1765407767.990511,-9.675823135922586,-0.09858416922294215,-4.378607243684928,-0.5528898825290466,-0.4796674210461964,0.02917469739508711
1765407767.990761,-9.670052054515429,-0.1253540527976086,-4.365205670190596,-0.552953305582679,-0.4845924910005757,0.03125919171295088
1765407767.990985,-9.666947193759013,-0.15238245033800668,-4.3495818478549175,-0.5525700264653094,-0.48957957780832323,0.03331178129081887
1765407767.991235,-9.666344008301483,-0.17963065777991163,-4.33092550491266,-0.5517398673584415,-0.49462822139996293,0.03536026650159239
1765407767.991485,-9.667863372299491,-0.20696908488532825,-4.308624036185231,-0.550461554636718,-0.49973031057222905,0.037433895673603314
1765407767.991735,-9.67091728076497,-0.2341493594512144,-4.282319596956973,-0.5487325699159619,-0.5048703575462956,0.039561701558263745
1765407767.99191,-9.674732789872394,-0.2607909692862961,-4.25194772735237,-0.546549887093481,-0.5100262768049504,0.04177096282958336
1765407767.992243,-9.678397627620381,-0.2863876086980153,-4.217749480562175,-0.5439114930684176,-0.5151705977536964,0.04408584638266576
1765407767.992577,-9.680926714947145,-0.31033551625337674,-4.180252928386742,-0.5408184528059794,-0.5202719679945249,0.046526250056168075
1765407767.992978,-9.681342621144692,-0.33198251541248286,-4.14022648972341,-0.5372771783113488,-0.5252967774775501,0.0491068450959978
1765407767.993228,-9.678758499234098,-0.3506927572168548,-4.098611915122222,-0.5333015112923584,-0.5302107618342204,0.0518363139751086
1765407767.993478,-9.672451490261713,-0.36591903697177064,-4.05644681269386,-0.5289142399326332,-0.5349804900724009,0.054716787255904654
1765407767.993728,-9.661916948556401,-0.3772728093621606,-4.014786323235905,-0.524147741435305,-0.5395746723882177,0.05774349348881254
1765407767.993874,-9.646897223599106,-0.3845821199258334,-3.9746324376053797,-0.5190435607230984,-0.5439652436801956,0.06090464009323753
1765407767.994124,-9.627382552929417,-0.38792935071709445,-3.9368774922476883,-0.5136508762202815,-0.5481282114848101,0.06418153934242808
1765407767.994374,-9.603585941929735,-0.3876631697249851,-3.902265225731913,-0.5080239378610216,-0.5520442999696274,0.06754898776767577
1765407767.994624,-9.575897905540954,-0.3843818759552426,-3.871369266633892,-0.5022186752051433,-0.5556994443485307,0.07097590646368611
1765407767.994906,-9.544829259072783,-0.378888600548591,-3.8445864744214386,-0.49628876839558195,-0.5590851766422836,0.07442625336694245
1765407767.995239,-9.510950479726187,-0.3721225902280747,-3.822141498484592,-0.49028155995602396,-0.5621989105624492,0.07786021450318867
1765407767.995573,-9.474835578611811,-0.36507410712427746,-3.8040982493652264,-0.48423425524875,-0.5650441052431684,0.08123565553752574
1765407767.995935,-9.437017726962775,-0.3586920284270491,-3.790373204621178,-0.47817089042829536,-0.5676302693969969,0.084509772453468
1765407767.996185,-9.397962435839263,-0.35379287743461624,-3.780745875323873,-0.4721005113856226,-0.5699727519106231,0.08764084837056813
1765407767.996435,-9.358060993037004,-0.3509789360911198,-3.7748644483618263,-0.466016894996991,-0.5720922593189944,0.09059002236700055
1765407767.996685,-9.317642727478797,-0.350572298609054,-3.772248369889193,-0.45989997297021656,-0.5740140623343436,0.09332299182187044
1765407767.99693,-9.277001050650735,-0.3525710964402703,-3.7722923989031267,-0.4537189214500923,-0.5757668999216939,0.09581157467906525
1765407767.99718,-9.236425807584448,-0.3566329230821255,-3.7742777983044786,-0.4474366842305728,-0.5773816365620295,0.09803504538646451
1765407767.99743,-9.196233307745453,-0.3620883118761746,-3.7773958051365377,-0.4410155240719384,-0.5788897588703423,0.09998114467780095
1765407767.99768,-9.156786052622849,-0.3679842482306313,-3.780786040220227,-0.43442305792029484,-0.5803218090534394,0.10164667132600214
1765407767.998021,-9.118497035821699,-0.3731549305017136,-3.78358866552824,-0.42763813389302735,-0.5817058466099223,0.10303760314515191
1765407767.998271,-9.081817770022871,-0.3763149994647197,-3.7850052621941583,-0.4206558628040833,-0.5830660131772059,0.1041687482369564
1765407767.998521,-9.047213415792328,-0.37616902309822403,-3.7843603853212398,-0.413491145536655,-0.5844212666616159,0.1050629664292658
1765407767.998771,-9.015131326569518,-0.371529343783479,-3.781154013541318,-0.4061801528495512,-0.5857843659616075,0.1057500136617211
1765407767.998933,-8.985970361700645,-0.3614322563773287,-3.7750955625140046,-0.3987794135796,-0.587161215561977,0.1062650605298492
1765407767.999266,-8.960057534844449,-0.3452408220365987,-3.766113270170067,-0.39136243474467886,-0.5885506823999651,0.1066469366612526
1765407767.9996,-8.937636630859716,-0.32272272884249065,-3.7543375478988543,-0.38401408182270036,-0.5899449527493337,0.10693616238020279
1765407767.999963,-8.91887119290426,-0.2940938795787685,-3.740061289892151,-0.3768232452324868,-0.5913304228405721,0.10717284304386819
1765407768.000213,-8.903862187320405,-0.260021983335094,-3.723682801098857,-0.36987456046762196,-0.592689044819424,0.10739451264741552
1765407768.000463,-8.892678436608795,-0.22158836546160682,-3.705638237436228,-0.36324008912491446,-0.5939999939022922,0.10763403020029094
1765407768.000713,-8.885395257815238,-0.18021036223104292,-3.6863313015580714,-0.3569718793470924,-0.5952414903570852,0.10791766767998004
1765407768.000936,-8.882134094732868,-0.13753118105174805,-3.666068752049216,-0.35109621183311723,-0.5963926063990483,0.10826356904414097
1765407768.001186,-8.883094253990333,-0.09528834871399462,-3.645010494198529,-0.34561013310668237,-0.597434905661653,0.10868077047584479
1765407768.001436,-8.888567906384706,-0.0551747427997733,-3.623141970903439,-0.34048062105035215,-0.5983537926429443,0.10916893157434163
1765407768.001686,-8.898931597076302,-0.018707137035189662,-3.6002741195750665,-0.33564645438471896,-0.599139496568236,0.10971884445092465
1765407768.001924,-8.914611518616717,0.012883880880565387,-3.5760725471033745,-0.3310225956282834,-0.5997876774371173,0.1103136837018732
1765407768.002174,-8.936025098412102,0.03873191306552359,-3.550113066539244,-0.32650666616625734,-0.6002996938834818,0.11093085530394325
1765407768.002424,-8.963506599413563,0.058374922415334346,-3.521955966559748,-0.3219869080836623,-0.600682586000655,0.11154422062886919
1765407768.002674,-8.997227549061046,0.07175736923646267,-3.491227934956464,-0.3173509050648988,-0.6009488135580675,0.1121264355043815
1765407768.002962,-9.037123004924801,0.07919866747140904,-3.4576999725317363,-0.3124942819615837,-0.6011157853044327,0.11265115869703848
1765407768.003295,-9.082833097812602,0.08133504022585712,-3.4213514475232563,-0.30732861404769957,-0.6012052260015325,0.11309493646341562
1765407768.003629,-9.133667995269285,0.07904312777941255,-3.382412497943757,-0.30178784488022653,-0.6012424292747275,0.11343863946960876
1765407768.003942,-9.188603815049385,0.07335439408499468,-3.3413782991653167,-0.2958326453108768,-0.6012554179790303,0.11366839432891385
1765407768.004192,-9.24631510748231,0.0653698138056217,-3.29899095667793,-0.28945236142513114,-0.6012739946669086,0.11377600373812305
1765407768.004442,-9.305244198241692,0.05618395457922619,-3.2561899729362573,-0.28266448459474025,-0.6013286479961221,0.11375889359837181
1765407768.004692,-9.3636998410225,0.046825659683728406,-3.2140391323015916,-0.27551188372998,-0.6014493078610083,0.11361966955122413
1765407768.004952,-9.419971292614397,0.038219120279868984,-3.173642092880015,-0.2680583046103934,-0.6016639967178536,0.11336539921114801
1765407768.005202,-9.472442327414644,0.031165189157021187,-3.136058687044615,-0.26038280929120294,-0.6019974676536993,0.11300674601189481
1765407768.005452,-9.51969216038793,0.026339456074527628,-3.1022310433195783,-0.25257387106528617,-0.6024699298082958,0.11255706593086091
1765407768.005702,-9.560573918559049,0.024301371174866845,-3.0729260549006696,-0.24472376227964837,-0.6030959513237855,0.11203155148800029
1765407768.005935,-9.594264856777851,0.02550751554320791,-3.048698352721249,-0.23692370448717262,-0.6038836189980551,0.11144648062620326
1765407768.006185,-9.620286406288214,0.03032200892217167,-3.029874421525609,-0.2292600387326902,-0.604834025334298,0.11081860269259601
1765407768.006435,-9.638496467733207,0.039018389508557426,-3.0165544330216094,-0.22181146984775257,-0.6059411398541402,0.11016466180814981
1765407768.006685,-9.649060088100715,0.05177020581643567,-3.0086259532815527,-0.21464727871492087,-0.607192098922141,0.10950102337376287
1765407768.00793,-9.652406662495055,0.0686311146813544,-3.005783943299601,-0.20782628732711972,-0.608567919569129,0.1088433534904082
1765407768.00818,-9.649181754671632,0.08950801606087573,-3.007553231432483,-0.20139629827814573,-0.6100446077966761,0.10820631194644909
1765407768.00843,-9.64019997898278,0.11413203644612177,-3.0133113069670947,-0.19539371565182917,-0.6115945889772092,0.10760323699062199
1765407768.00868,-9.626402814646775,0.1420326820105288,-3.022310741276696,-0.18984309270667504,-0.6131883483866353,0.10704580244829841
1765407768.007996,-9.60882249946726,0.17252120735938753,-3.0337021831430975,-0.18475644055024332,-0.6147961523872673,0.10654361782189996
1765407768.008329,-9.58855110620223,0.20469011238669785,-3.046559893269624,-0.1801322587152654,-0.6163897231183693,0.10610374485406385
1765407768.008663,-9.566712831970973,0.23743531286582917,-3.0599112490242697,-0.17595439102275057,-0.6179437405221203,0.10573014115788874
1765407768.008873,-9.544436902447845,0.2695046688299327,-3.072770394440552,-0.17219094093077697,-0.619437044445884,0.10542310211966485
1765407768.009123,-9.522827912368289,0.2995716581730315,-3.084175723166204,-0.16879357082210675,-0.6208534329356533,0.10517881734265759
1765407768.009373,-9.502930403844887,0.3263279367409347,-3.093231065962744,-0.16569753256437603,-0.6221820122388867,0.10498916094952375
1765407768.009623,-9.485685792161854,0.34858492982561595,-3.099150015372114,-0.16282272100994932,-0.6234171246465758,0.10484180394181197
1765407768.009917,-9.471882386703987,0.36537292440054125,-3.1013013398435527,-0.16007592356497913,-0.6245579312858598,0.10472069214909963
1765407768.010167,-9.462102421227138,0.37602627505899583,-3.099251801964644,-0.1573542907329771,-0.6256077539477571,0.10460688479657065
1765407768.010417,-9.45667280188321,0.38024518285486636,-3.092801637059861,-0.15454990608610286,-0.6265732928660842,0.10447969810332768
1765407768.010667,-9.455628036551188,0.3781277089237365,-3.0820073581869982,-0.1515552078196616,-0.6274638302156657,0.10431805321583837
1765407768.010869,-9.458693901990756,0.3701694579423783,-3.067186465860059,-0.14826891407201923,-0.6282904910552255,0.10410190107616288
1765407768.011119,-9.465298461510407,0.3572319880782677,-3.0488997865954675,-0.14460203476849273,-0.6290655820043255,0.10381359117082815
1765407768.011369,-9.47461339621385,0.34048425747140937,-3.027910029882471,-0.14048352163859423,-0.6298019967837278,0.10343905679397909
1765407768.011619,-9.485623986204212,0.32132415160569755,-3.0051192430587523,-0.1358651177188007,-0.6305126734106732,0.10296870270555805
1765407768.011883,-9.49722118611218,0.30128875321333726,-2.981491951796169,-0.13072500995216646,-0.6312100891620505,0.10239791066494103
1765407768.012133,-9.508305155507422,0.2819618274736381,-2.9579734774874025,-0.12506995493031683,-0.631905775936307,0.10172713055335887
1765407768.012383,-9.517887628436124,0.26488497864792165,-2.9354133037388954,-0.1189356370320637,-0.6326098430103609,0.10096159106960557
1765407768.012633,-9.525180906570563,0.2514760553064865,-2.914501872500406,-0.11238513068103884,-0.6333305158543977,0.10011072231667076
1765407768.012884,-9.52966297059139,0.24295611595278258,-2.8957273212772643,-0.10550547014420558,-0.6340737273518533,0.09918740925376275
1765407768.013134,-9.53111037003969,0.24028555993948678,-2.8793571980056623,-0.09840247320667467,-0.6348428158198314,0.09820718096473466
1765407768.013384,-9.529593729640807,0.24411072553089916,-2.865448040912504,-0.09119411432306049,-0.6356383894758061,0.09718739757642028
1765407768.013634,-9.5254358791128,0.25472356299853754,-2.853881410695033,-0.0840028980271347,-0.6364584088769957,0.09614644702629138
1765407768.013884,-9.519139220800573,0.27203805634147016,-2.844419261633626,-0.07694782906232242,-0.6372985120233149,0.0951029315284256
1765407768.014134,-9.511294650774598,0.2955872083627158,-2.8367674978188946,-0.07013666876644635,-0.6381525659114538,0.09407482305692401
1765407768.014384,-9.50248698782944,0.3245434652951507,-2.8306362490589785,-0.06365916678641037,-0.639013391223089,0.09307859009023506
1765407768.014634,-9.49321118736499,0.35776395646403786,-2.8257877305014216,-0.05758186185276607,-0.6398735847385125,0.09212832076785206
1765407768.014918,-9.483810677241255,0.3938603238014671,-2.822065484919749,-0.05194488834192507,-0.6407263537238936,0.09123487878435492
1765407768.015168,-9.474444778831609,0.43129094815895425,-2.8194021100372106,-0.0467610426156715,-0.6415662742801743,0.09040513431900644
1765407768.015418,-9.465086927795356,0.46847053385860793,-2.8178066351599065,-0.04201716891096914,-0.6423898955640435,0.08964132162773138
1765407768.015668,-9.455550500277205,0.5038884999977548,-2.8173362302882756,-0.03767771287580842,-0.6431961341773214,0.08894058692783316
1765407768.015929,-9.445535823663851,0.5362245255653735,-2.8180582114789905,-0.03369006393452648,-0.6439864260473064,0.08829479500580588
1765407768.016179,-9.434690357477832,0.5644481951468159,-2.8200079857673126,-0.029991095403038383,-0.6447646209898354,0.08769064903073856
1765407768.016429,-9.422673084080278,0.587890910994566,-2.8231486169491746,-0.02651415722270889,-0.6455366314537351,0.08711014236833986
1765407768.016679,-9.4092138545404,0.6062822915134692,-2.827338292525145,-0.02319571751254254,-0.6463098871312993,0.08653131441770061
1765407768.016868,-9.394159596118591,0.619749241725871,-2.8323118287970614,-0.0199809071169057,-0.6470926758533477,0.08592924706679016
1765407768.017201,-9.377501675297198,0.6287817195559235,-2.8376810684870444,-0.016827392893517645,-0.6478934452093722,0.08527723305776569
1765407768.017535,-9.359381285109938,0.6341730160029737,-2.84295695409167,-0.013707261880577925,-0.6487201140483767,0.08454806499099922
1765407768.017868,-9.340072325209583,0.6369436537055481,-2.84759294854643,-0.010606893653669052,-0.6495794293010523,0.08371540617714793
1765407768.018068,-9.31994437261101,0.6382576073309656,-2.8510453783048773,-0.007525078094113877,-0.650476404652852,0.08275519641840592
1765407768.018268,-9.299411788909582,0.639338386012413,-2.852842492030415,-0.004469851444812524,-0.6514138728008545,0.08164702501042288
1765407768.018468,-9.278877905290923,0.6413908714166955,-2.8526517357125947,-0.0014546449861951114,-0.6523921626308627,0.08037538604001848
1765407768.018668,-9.258684792407756,0.6455324954435392,-2.8503340539563347,0.0015056397585722443,-0.6534088890761927,0.07893072754055808
1765407768.018902,-9.239078616494298,0.652734554018066,-2.845975003609323,0.004398088034562285,-0.6544588307105551,0.07731021344730775
1765407768.019152,-9.220197385846104,0.6637722051418135,-2.8398856362531943,0.007214364010431673,-0.6555338699677685,0.07551812584567522
1765407768.019402,-9.202082445681716,0.6791811828887758,-2.832571374908551,0.009952228773212154,-0.6566229848740229,0.07356584497603783
1765407768.019652,-9.184709314608424,0.6992207746576213,-2.8246730040640955,0.012615969220380434,-0.6577123152719262,0.0714713668390448
1765407768.02,-9.168029547088032,0.7238452394042939,-2.816888541511613,0.01521588203631766,-0.6587853689530736,0.06925835677639404
1765407768.02025,-9.152013970878933,0.7526881457146819,-2.80988741293477,0.017767051899874858,-0.6598234510968164,0.06695478068712543
1765407768.0205,-9.136688265751761,0.7850651940187275,-2.8042291866495095,0.020287690723083954,-0.6608063728109004,0.06459118966964528
1765407768.02075,-9.122154040664824,0.8200008362744491,-2.8002978990137026,0.022797283415203144,-0.6617134321728538,0.06219875976940924
1765407768.021008,-9.108592415101354,0.8562822239042553,-2.7982592942601485,0.025314742329181524,-0.6625245922261701,0.059807219774325945
1765407768.021258,-9.096251724615943,0.8925402964954038,-2.798043231681933,0.02785672943630401,-0.6632217298201859,0.05744283817909071
1765407768.021508,-9.085424189206803,0.9273526182108677,-2.7993496142837375,0.030436271581958576,-0.663789812624441,0.055126664102432686
1765407768.021758,-9.076416669276288,0.95935754036819,-2.8016749424863163,0.03306176491423787,-0.6642178848912704,0.052873204119235837
1765407768.021959,-9.069518842638457,0.9873662627778362,-2.804356858188623,0.035736424989428396,-0.6644997933800918,0.050689665805779695
1765407768.022209,-9.064970792090765,1.010459336616665,-2.8066335505150146,0.03845817731857959,-0.6646346345701731,0.04857582215650039
1765407768.022459,-9.062932705499366,1.0280568840511703,-2.8077128247624175,0.04121990728416177,-0.664626932057089,0.046524465647805276
1765407768.022709,-9.063461245696063,1.0399562948805843,-2.806843309721441,0.0440099276565757,-0.6644865590513196,0.04452234535388463
1765407768.022893,-9.06649771190568,1.0463362635583129,-2.803379601533152,0.046812503462831084,-0.6642284115253404,0.04255143308866535
1765407768.023143,-9.07187086134212,1.0477308832248327,-2.796834782954334,0.049608297907229044,-0.663871820162326,0.04059035472173668
1765407768.023393,-9.079313022738473,1.0449813072408336,-2.786916823681604,0.0523746469287399,-0.6634396831871958,0.03861584951082772
1765407768.023643,-9.088484301791373,1.0391742035371765,-2.7735484662691716,0.05508561613188525,-0.6629573274095996,0.03660417531835418
1765407768.023884,-9.098998172557396,1.0315750743703866,-2.756872346322698,0.05771184521456605,-0.6624511554164679,0.03453244523784493
1765407768.024134,-9.110442843433994,1.0235608586515839,-2.7372438169730113,0.06022025368133948,-0.6619471831965787,0.03237993468394572
1765407768.024384,-9.122395388269368,1.0165518174611188,-2.715213389204,0.06257376659309928,-0.6614695911613009,0.030129407329654086
1765407768.024634,-9.13442827031889,1.011939747840495,-2.691499757989048,0.06473129714605438,-0.6610394044720177,0.0277684600165355
1765407768.024925,-9.146109777992422,1.0110096267648465,-2.666953970192659,0.06664825993673101,-0.6606734042081261,0.02529079776295252
1765407768.025175,-9.157001335061523,1.0148549928584463,-2.642515226479956,0.06827786020166178,-0.6603833587933474,0.022697261935730167
1765407768.025425,-9.166656091872126,1.0242922860936197,-2.619158329577749,0.06957330769522244,-0.6601756418205872,0.019996392728541663
1765407768.025675,-9.17462406125195,1.0397837513446981,-2.597832334098677,0.07049095649252948,-0.6600512517929586,0.017204333826707132
1765407768.025962,-9.180468099694991,1.061380721070734,-2.57939114194633,0.07099419847227872,-0.6600061852910418,0.014343972530011987
1765407768.026212,-9.18379200864608,1.0886985891550283,-2.564520039691914,0.07105776393971042,-0.6600320755730016,0.011443327449227648
1765407768.026462,-9.184278315186052,1.120931523980348,-2.553665626777801,0.07067193755432831,-0.6601170115611076,0.00853332565224025
1765407768.026712,-9.181730606596718,1.1569091242857092,-2.5469780716803605,0.06984611628353364,-0.660246477764832,0.005645227261354992
1765407768.026972,-9.176114241797034,1.1951898244361214,-2.54427377056754,0.06861114887168608,-0.6604043763300668,0.0028080257879851997
1765407768.027222,-9.16758930109568,1.2341789540524208,-2.545024394310019,0.0670200132685377,-0.6605740965469055,4.615035549123918e-05
1765407768.027472,-9.156530043668734,1.2722552215861775,-2.5483761012905064,0.06514658841430654,-0.6607395823655934,-0.002622282716867659
1765407768.027722,-9.143525810433884,1.307889465891778,-2.5532004104054287,0.06308251324846564,-0.6608863213954096,-0.0051865527630880846
1765407768.027963,-9.129359879779773,1.3397435465552654,-2.5581749665958577,0.060932346972450584,-0.6610021651363299,-0.007643773905477549
1765407768.028213,-9.11496594572076,1.3667432436364892,-2.5618877276772554,0.05880741490176216,-0.6610779147603447,-0.009998810138254568
1765407768.028463,-9.101366217509609,1.388124691022824,-2.5629532852139287,0.0568188329279466,-0.6611076584130798,-0.01226382165640695
1765407768.028713,-9.089598922962645,1.4034579461439531,-2.5601273809527574,0.0550702537008383,-0.6610888838496406,-0.01445757972943203
1765407768.028891,-9.080644615492664,1.4126535145299826,-2.5524061639654914,0.05365087392734755,-0.6610223921497933,-0.016604633838652683
1765407768.029224,-9.075359950588194,1.4159577039965048,-2.5390994900860084,0.052629194566362926,-0.660912025055278,-0.01873433957155483
1765407768.029558,-9.074425575874258,1.4139403012668132,-2.5198713965369413,0.05204795513522185,-0.6607642196004218,-0.020879680347135766
1765407768.029907,-9.078312577240888,1.4074738985595985,-2.4947451732364967,0.0519205951397157,-0.660587417947736,-0.02307577664883882
1765407768.030157,-9.0872698407736,1.3977001347040658,-2.4640747034010477,0.052229540713774836,-0.660391368570518,-0.02535800514213149
1765407768.030407,-9.101332401313783,1.3859764242418617,-2.4284873229143957,0.05292655360544518,-0.6601863542525246,-0.027759751043859533
1765407768.030657,-9.120348205366348,1.3737988440980755,-2.3888060363984955,0.05393527314088598,-0.6599823835065387,-0.030309959208441987
1765407768.030964,-9.144018216102081,1.362702331565849,-2.345960574773224,0.05515590376767512,-0.659788387443402,-0.03303077304031712
1765407768.031214,-9.171943163753085,1.3541459766013149,-2.3008973726721744,0.056471764507013716,-0.659611471361715,-0.035935594420007946
1765407768.031464,-9.203669749943277,1.3493962922136515,-2.25449794668861,0.05775717281132992,-0.6594562812366421,-0.03902784321430306
1765407768.031714,-9.238729541317921,1.34942347146647,-2.20751374670959,0.05888594776315375,-0.6593245554837645,-0.04230057687825999
1765407768.031988,-9.276665081958445,1.3548246967548983,-2.160523826547384,0.059739731946758586,-0.6592149296662451,-0.0457369961847035
1765407768.032238,-9.31704016475969,1.365784879220369,-2.113919368351432,0.06021535914693093,-0.6591230422615417,-0.049311734895539104
1765407768.032488,-9.359434686936703,1.3820791569691246,-2.067915478802821,0.06023062240228306,-0.6590419558107212,-0.052992722416926034
1765407768.032738,-9.403428192479122,1.4031140430599782,-2.0225859762003053,0.059728001044748895,-0.6589628592745994,-0.056743343996866306
1765407768.03297,-9.448578629329175,1.427997256743802,-1.9779128106747583,0.05867616040913317,-0.6588759644561584,-0.060524627700771445
1765407768.03322,-9.494403000420109,1.4556223667130193,-1.9338402228249945,0.05706931158560243,-0.6587714779086535,-0.0642972635059777
1765407768.03347,-9.540364653626892,1.4847548086524864,-1.8903252256454217,0.05492476909064867,-0.6586405325162633,-0.06802337767053715
1765407768.03372,-9.585869175759536,1.5141100060595767,-1.8473792377499385,0.05227922763751187,-0.6584759837854245,-0.07166809299539148
1765407768.033923,-9.63026859765507,1.5424200183211776,-1.8050987970628058,0.049184365176825826,-0.6582729958019877,-0.07520095720768341
1765407768.034173,-9.672872531390718,1.5684900199190313,-1.7636850210938997,0.04570236094612682,-0.658029362004169,-0.07859730656726943
1765407768.034423,-9.712964701809021,1.591248666442098,-1.7234519567955249,0.041901806811945747,-0.6577455341091291,-0.08183957129619188
1765407768.034673,-9.749823378048964,1.6097968108165914,-1.684824109334212,0.03785431477532901,-0.6574243624889189,-0.0849184506550638
1765407768.034945,-9.782744029231305,1.6234573662431548,-1.648323764666592,0.033631920631808664,-0.6570705723110498,-0.08783380887885593
1765407768.035195,-9.811062512464492,1.6318257266077005,-1.6145487701713555,0.02930519442659084,-0.6566900150744938,-0.09059509262458118
1765407768.035445,-9.834177799710936,1.6348157618767964,-1.5841408591145045,0.024941833593064677,-0.6562887550213793,-0.09322107379701233
1765407768.035695,-9.851574289091502,1.6326924795236322,-1.5577442412441822,0.020605469175672575,-0.655872074754592,-0.0957387906487367
1765407768.035958,-9.862844165285498,1.6260808739936514,-1.5359551952152484,0.016354466934335076,-0.6554435047015919,-0.09818168076122893
1765407768.036291,-9.867709760507996,1.6159424962135416,-1.519265677937285,0.012240618833948514,-0.6550039875977237,-0.10058704190803673
1765407768.036625,-9.866044942457691,1.6035164525053112,-1.5080062330727817,0.008307737965099012,-0.6545512809742942,-0.1029930860053479
1765407768.036919,-9.857893838890861,1.5902279434310607,-1.502294659329705,0.004590250131413943,-0.6540796849204104,-0.10543593316384137
1765407768.037169,-9.843485065371604,1.5775730080218444,-1.5019967671877998,0.001111914646782354,-0.6535801636637275,-0.1079469065947487
1765407768.037419,-9.823240175657569,1.5669920266134167,-1.5067043162657863,-0.0021151814421394004,-0.6530408988679653,-0.11055043819481725
1765407768.037669,-9.79777600469951,1.559746858440003,-1.515733192004198,-0.005091224098289287,-0.6524482555647881,-0.11326279459887147
1765407768.037916,-9.767901169474479,1.5568168632671637,-1.5281426462540852,-0.00782877589716466,-0.6517880637463154,-0.11609169645475059
1765407768.038166,-9.73460665055793,1.558826414696772,-1.5427746003261873,-0.010352346494245011,-0.651047052307372,-0.11903674863690973
1765407768.038416,-9.699049335945716,1.5660105940017781,-1.5583105509178534,-0.012697439604235222,-0.6502142453540989,-0.12209046647965648
1765407768.038666,-9.662526428334699,1.578218175791143,-1.5733421684247024,-0.014909095046078378,-0.6492821409644697,-0.12523961896096852
1765407768.039001,-9.626438198249543,1.5949445345554436,-1.5864504839820233,-0.01703991750345417,-0.648247522426133,-0.12846663530275856
1765407768.039251,-9.592236773661256,1.615383964689808,-1.596288403887673,-0.019147557222138335,-0.6471117985276066,-0.13175091896458765
1765407768.039501,-9.561359553385184,1.6384917570837576,-1.6016623576263878,-0.021291630443952856,-0.6458808400018136,-0.1350700350968418
1765407768.039751,-9.535147817180661,1.6630500383276423,-1.6016100138879252,-0.023530164848237695,-0.6445643691146977,-0.13840083153587626
1765407768.039987,-9.514754539300396,1.6877354958998352,-1.5954705950009263,-0.025915805463784046,-0.6431750420793788,-0.14172058545752814
1765407768.040237,-9.501049673000932,1.7111895609830607,-1.5829424316255216,-0.028492154212775518,-0.6417274073729373,-0.14500823467733587
1765407768.040487,-9.494534632479386,1.732091845553037,-1.5641209043286648,-0.031290680630617754,-0.6402369142801915,-0.14824568017279968
1765407768.040737,-9.49527905526696,1.7492365894846233,-1.5395101137554457,-0.03432861836987286,-0.6387190964697075,-0.15141907208266994
1765407768.040982,-9.502891957343117,1.7616106893189905,-1.5100030715996327,-0.03760817111264981,-0.6371889863282361,-0.15451994105021855
1765407768.041315,-9.516536156111572,1.7684707125273837,-1.4768274779431279,-0.041117212782342594,-0.6356607450224584,-0.1575460172772063
1765407768.041649,-9.534989182132888,1.7694144693398728,-1.441457829533636,-0.04483149887036653,-0.6341474356161042,-0.16050158636418893
1765407768.041986,-9.556746407477155,1.7644398342890895,-1.4054997758151304,-0.048718228495313265,-0.6326608414082462,-0.16339725722083012
1765407768.042236,-9.580154841523365,1.7539805259462902,-1.370557716294805,-0.05274062509291099,-0.6312112545322253,-0.16624906623906677
1765407768.042486,-9.603561350322401,1.738907517312544,-1.338099595236308,-0.056863048517243824,-0.6298072161964506,-0.16907692730575463
1765407768.042736,-9.625457690928762,1.7204873741864868,-1.309333231898817,-0.06105603218698102,-0.6284552387735353,-0.17190255786563594
1765407768.042964,-9.644605831245146,1.7002950987738201,-1.2851072980697924,-0.06530058704931664,-0.6271595601859353,-0.17474713200193528
1765407768.043214,-9.660129846911818,1.6800870866372812,-1.2658477067778864,-0.06959116057748979,-0.6259219882096212,-0.1776289841648955
1765407768.043464,-9.671565340818347,1.6616468778522588,-1.2515362814210198,-0.07393678989615755,-0.6247418980454514,-0.18056168462288158
1765407768.043714,-9.678863390026153,1.6466206119373314,-1.2417333492054288,-0.0783602140062988,-0.6236164356982954,-0.18355273778710068
1765407768.044033,-9.682352040709153,1.636360376620375,-1.2356405633105347,-0.08289496714580004,-0.6225409403595005,-0.18660304899515032
1765407768.044366,-9.682663086059621,1.6317929614655597,-1.2321957188766,-0.08758072924382276,-0.6215095480842694,-0.18970719172730335
1765407768.0447,-9.680635038569562,1.6333294074956888,-1.2301878415325316,-0.0924574343952547,-0.6205159063032097,-0.1928543939268929
1765407768.045033,-9.677205177690757,1.6408267952643798,-1.2283786919583635,-0.09755881064431463,-0.6195539229298918,-0.19603005479625973
1765407768.045283,-9.673304479278759,1.653607603509348,-1.2256164281431623,-0.1029061277651142,-0.6186184747088299,-0.19921752179972352
1765407768.045533,-9.669768698079368,1.670534260484526,-1.2209285977728406,-0.1085029535417811,-0.6177059886721424,-0.2023998273899582
1765407768.045783,-9.667276078155089,1.690128658249074,-1.2135848174059667,-0.11433164896144754,-0.6168148004272977,-0.20556112275462018
1765407768.045988,-9.66631693827496,1.7107202368776915,-1.2031242332251253,-0.12035215768782859,-0.6159452100821377,-0.2086876475855873
1765407768.046238,-9.667193944444238,1.730603239288284,-1.189348546541872,-0.1265033727733022,-0.6150992100714825,-0.21176821019631692
1765407768.046488,-9.670046201727224,1.748184448285612,-1.1722868898327372,-0.13270702417812688,-0.6142799335428455,-0.2147942763079063
1765407768.046738,-9.674886796658393,1.7621066413460675,-1.1521428092984582,-0.13887368155030042,-0.6134909343251793,-0.21775983892957593
1765407768.046953,-9.681642410082727,1.7713386237004483,-1.1292353391677905,-0.14491018588751617,-0.6127354293605207,-0.2206612454275944
1765407768.047286,-9.690184631890485,1.7752281025800944,-1.1039459977383776,-0.1507276688346256,-0.6120156162620046,-0.2234970981849535
1765407768.04762,-9.700345331325371,1.7735178181069713,-1.076681704673632,-0.15624929301665727,-0.6113321547603335,-0.22626826158120703
1765407768.047957,-9.711913020386005,1.7663286322778997,-1.0478593572520087,-0.1614169216591554,-0.610683882014141,-0.22897794309948652
1765407768.048207,-9.7246129473586,1.75411620484184,-1.017911399306878,-0.16619607582816756,-0.6100677997177039,-0.23163177838224097
1765407768.048457,-9.738078488027275,1.737609953704403,-0.9873059738496395,-0.17057874825432456,-0.6094793223558221,-0.2342378252598974
1765407768.048707,-9.751823403831008,1.71774342311087,-0.9565727366161252,-0.17458389707977445,-0.6089127331866138,-0.23680636229011096
1765407768.048994,-9.765224065816497,1.6955839506572339,-0.9263255337329701,-0.17825571304627105,-0.6083617706936684,-0.23934940754013886
1765407768.049327,-9.77751916516966,1.6722671399463498,-0.8972739153987396,-0.18166000064094234,-0.6078202540898278,-0.2418799233714041
1765407768.049661,-9.787831917297222,1.6489386119935339,-0.8702167006949704,-0.1848791963934895,-0.6072826437860925,-0.24441073998724122
1765407768.049954,-9.795215716004057,1.6267025725417004,-0.8460137101034348,-0.18800663477413565,-0.6067444318822437,-0.24695330144042046
1765407768.050204,-9.798719213680817,1.606574900146802,-0.825536192745484,-0.19114065557761328,-0.6062022852533067,-0.24951639586634725
1765407768.050454,-9.797462783147918,1.5894383133597338,-0.8096006432437959,-0.1943790468984833,-0.6056539180299195,-0.2521050567847048
1765407768.050704,-9.790716537917369,1.575998591634648,-0.7988933657995839,-0.19781417470990276,-0.6050977278309287,-0.25471980694538277
1765407768.051017,-9.777970218755462,1.5667431819340347,-0.7938944946031488,-0.20152900488278225,-0.6045322701940001,-0.25735636914238447
1765407768.05135,-9.758986418125764,1.5619057593795111,-0.7948107762084826,-0.2055941026419788,-0.6039556685514665,-0.2600059008528908
1765407768.051684,-9.733830727676992,1.5614413197070822,-0.8015260281382565,-0.2100655991780018,-0.6033650688845712,-0.2626557325980862
1765407768.051912,-9.702875821701967,1.5650158404981922,-0.8135761158160615,-0.21498403138252498,-0.6027562376680232,-0.26529052216602184
1765407768.052162,-9.66678070824787,1.5720130873152611,-0.8301515895955289,-0.22037388570239042,-0.6021233558709514,-0.26789369698524285
1765407768.052412,-9.626449989867568,1.581559617989989,-0.8501268936143801,-0.22624362768436732,-0.6014590001418799,-0.2704490479298891
1765407768.052662,-9.582980088479204,1.5925678485371173,-0.8721115342190082,-0.23258599259932078,-0.600754266242321,-0.2729423455808158
1765407768.05296,-9.53760007756029,1.6037960597340866,-0.8945165109877108,-0.23937835394724835,-0.5999989943532611,-0.27536285821107986
1765407768.05321,-9.491614233379527,1.6139232136649342,-0.915628901739366,-0.24658307140373992,-0.5991820760347467,-0.2777046562999751
1765407768.05346,-9.446351695939626,1.6216354182265644,-0.9336884342371793,-0.2541478388200937,-0.5982918287900265,-0.2799675988038971
1765407768.05371,-9.403126007884643,1.625719852440043,-0.9469615356311973,-0.26200618225301386,-0.5973164124850241,-0.2821579129993932
1765407768.053929,-9.363204328638076,1.6251607044045997,-0.9538103564040997,-0.27007835570234906,-0.5962442475030597,-0.28428829545823964
1765407768.054262,-9.327783391521594,1.6192300552445718,-0.9527563379063441,-0.2782729116488903,-0.5950643891291224,-0.2863774797010383
1765407768.054596,-9.297967487419958,1.6075651929474306,-0.9425392504899228,-0.2864891775849522,-0.5937668149602461,-0.28844925013815775
1765407768.054999,-9.27474356094796,1.590223406119716,-0.9221724813761224,-0.29462076418414246,-0.5923425870917266,-0.29053093383806067
1765407768.055499,-9.258949941802209,1.5677063526707222,-0.8909938781338212,-0.30256008279377267,-0.5907838607727208,-0.2926514578284736
1765407768.055749,-9.251237774763963,1.5409486542606043,-0.8487095595975583,-0.310203676535422,-0.5890837331532297,-0.2948391113545345
1765407768.055906,-9.25202729521825,1.511269286735037,-0.7954264349396805,-0.3174580010514051,-0.5872359593573283,-0.29711919677767673
1765407768.056239,-9.261464103060376,1.480288934807594,-0.7316681252319055,-0.32424517127581093,-0.5852345965884711,-0.2995117745030035
1765407768.056573,-9.279382399939086,1.4498202540689362,-0.6583693254935584,-0.33050814941960466,-0.5830736563150134,-0.30202968994435064
1765407768.056971,-9.305281712586241,1.4217396618129818,-0.5768459702424937,-0.33621488046353387,-0.5807468435293408,-0.3046770258415264
1765407768.057221,-9.33832116228973,1.3978491369656239,-0.48874216296613304,-0.3413609538408571,-0.5782474420171884,-0.30744808316490646
1765407768.057471,-9.377332493552602,1.3797360079750973,-0.3959579428969902,-0.3459704573649595,-0.5755683713840462,-0.3103269720680811
1765407768.057721,-9.420851540993894,1.368638945625413,-0.30056324896028175,-0.35009478739027183,-0.5727024037724248,-0.3132878767535379
1765407768.057962,-9.467167866532163,1.3653292788076195,-0.2047029989495266,-0.35380930412495604,-0.5696424940313292,-0.3162960271916038
1765407768.058212,-9.514392451376745,1.37001744056212,-0.110497484351217,-0.3572078954029189,-0.5663821554604145,-0.319309363103194
1765407768.058462,-9.56054172493348,1.3822940084387025,-0.01994288229145388,-0.36039574163318094,-0.562915815277924,-0.32228082020248167
1765407768.058712,-9.603632771502161,1.4011132469772511,0.0651814416261033,-0.3634808308982849,-0.559239112894308,-0.3251611156498399
1765407768.05895,-9.641781378398795,1.4248245547470917,0.14339097956817892,-0.3665649954123512,-0.5553491440688002,-0.3279018601987682
1765407768.059283,-9.673293737579757,1.4512537813931057,0.21355266421375318,-0.36973536057756395,-0.5512446804094656,-0.3304587732930387
1765407768.059617,-9.696744040589591,1.4778317658632687,0.27491573592227114,-0.3730570797466866,-0.546926394875959,-0.33279473047210484
1765407768.059985,-9.711032630845299,1.5017620137824186,0.3271152518694642,-0.37656808279918386,-0.5423971065810911,-0.334882351214894
1765407768.060235,-9.715422167796595,1.5202143800920775,0.3701492413127602,-0.3802763308544544,-0.5376620345105353,-0.3367058549330292
1765407768.060485,-9.70955224486869,1.530528047598064,0.4043337791589816,-0.3841597849973414,-0.532729027516187,-0.33826197242482203
1765407768.060735,-9.693435338176325,1.5304054244688667,0.4302433408847472,-0.3881690095184047,-0.5276087190974699,-0.3395597960145987
1765407768.060906,-9.667438019463807,1.518079028629557,0.4486450190137168,-0.39223207439836666,-0.5223145405156269,-0.3406195762955007
1765407768.061156,-9.632251157743777,1.4924361451891794,0.46043396036872664,-0.39626120939863263,-0.5168625194870315,-0.34147060250309996
1765407768.061406,-9.588852214882095,1.453090813707806,0.46657494936872757,-0.40016050283046917,-0.5112708016286246,-0.34214840678414155
1765407768.061656,-9.538462383975357,1.4003988241194312,0.46805314022737904,-0.40383385596228777,-0.5055588613900158,-0.3426915935282531
1765407768.061943,-9.482501124957004,1.3354178279596576,0.46583599483071414,-0.4071924179699456,-0.4997464198782718,-0.3431386086408357
1765407768.062276,-9.42253990149077,1.2598202556737423,0.46084744552325674,-0.41016082964628,-0.4938521579228183,-0.34352473139355044
1765407768.06261,-9.36025512240746,1.175770623674955,0.4539532113677754,-0.4126817723733761,-0.48789238460969897,-0.3438795051090121
1765407768.062942,-9.297377947140552,1.0857806342384118,0.445953553304465,-0.4147185253465814,-0.48187985827403135,-0.3442247414179901
1765407768.063192,-9.235637186546919,0.992555180337802,0.4375780214803453,-0.4162554554649397,-0.4758229395721945,-0.3445731551907126
1765407768.063442,-9.17669252437978,0.8988403331397734,0.4294771545203724,-0.41729658087011173,-0.46972519839555466,-0.3449276306817763
1765407768.063692,-9.122058996197543,0.8072814138571455,0.4222088216880252,-0.41786253864372924,-0.46358552227241384,-0.3452810906607119
1765407768.064029,-9.07302855637296,0.7202962509654197,0.416220776465198,-0.4179864229758956,-0.4573986993759819,-0.3456169294028552
1765407768.064279,-9.030598146506644,0.6399664719914526,0.4118340623309666,-0.41770902455233133,-0.4511563834947578,-0.34590996377105765
1765407768.064529,-8.995414251181328,0.5679487080416332,0.409232764624728,-0.41707399770953907,-0.44484830098400546,-0.3461278484171518
1765407768.064779,-8.967741679584135,0.5054078427983958,0.408464247441189,-0.41612342320963036,-0.4384635432548935,-0.34623288856037454
1765407768.064938,-8.947460860289649,0.4529750574840252,0.40945164894296737,-0.4148941349420581,-0.43199180877835425,-0.34618416460198015
1765407768.065188,-8.934094621121123,0.41073333912543,0.4120182126442771,-0.41341505361668096,-0.42542450163552425,-0.34593986070014776
1765407768.065438,-8.926862158039015,0.3782319497660629,0.4159211718983591,-0.4117056399469837,-0.4187556318633142,-0.3454596724396019
1765407768.065688,-8.924754176420526,0.35452954989649194,0.420891016939869,-0.4097754631611812,-0.41198248314665,-0.34470716086062797
1765407768.065914,-8.926619818906191,0.33826380869464484,0.4266703981858159,-0.4076247882776997,-0.4051060286218833,-0.34365191943256074
1765407768.066247,-8.931254779428217,0.3277435693642117,0.4330467221153051,-0.4052460193221605,-0.3981311019925341,-0.34227142605249045
1765407768.066581,-8.937481787051876,0.32105791515345355,0.4398741638999152,-0.4026257923230401,-0.3910663616175558,-0.34055246571611963
1765407768.066959,-8.944218307791537,0.3161949391854193,0.44708351247858047,-0.3997474847715141,-0.38392409394357946,-0.3384920305143682
1765407768.067209,-8.950529812241946,0.31116202897455514,0.4546806848649872,-0.3965938914944045,-0.3767198773037487,-0.33609763004274273
1765407768.067459,-8.955669015352658,0.30409945853039333,0.46273634654580603,-0.3931498117171718,-0.36947208764684863,-0.33338697905210257
1765407768.067709,-8.959102115664846,0.2933801908477881,0.47136992233270136,-0.38940430469456433,-0.362201209546379,-0.33038707056996636
1765407768.067963,-8.960522794166161,0.27769063300723124,0.4807312825553684,-0.38535240564169837,-0.3549289374290741,-0.32713268397844364
1765407768.068213,-8.959854054453785,0.25608891040841075,0.4909824431133105,-0.3809961501571693,-0.34767710038783806,-0.3236644107909535
1765407768.068463,-8.957237361764921,0.22803853204614882,0.5022802715846181,-0.37634483315634193,-0.3404664900223458,-0.32002630985937347
1765407768.068713,-8.95300856274948,0.19341627805581818,0.5147603540688183,-0.37141452299973404,-0.3333156970085746,-0.3162633406078506
1765407768.068921,-8.94766116972724,0.1524944663255184,0.5285222223895609,-0.3662269490180397,-0.326240070401634,-0.3124187711200885
1765407768.069171,-8.941799525837036,0.1058999274494234,0.5436167006324929,-0.36080795761813705,-0.3192509073659394,-0.30853179868531166
1765407768.069421,-8.936086162785934,0.05455459463158989,0.5600365907656876,-0.35518576560370185,-0.31235495671893837,-0.3046356206816352
1765407768.069671,-8.931188329059768,-0.0003954925174856042,0.5777118056668973,-0.34938922246913656,-0.3055542820845357,-0.30075613452307737
1765407768.069919,-8.92772802877496,-0.05765554024551139,0.5965092373712632,-0.34344624328004625,-0.2988464939061989,-0.2969113424267231
1765407768.070252,-8.926238692555447,-0.11585544201323593,0.6162364825664431,-0.337382516825149,-0.2922253270983015,-0.2931114280111917
1765407768.070586,-8.927130557333697,-0.17361678023704602,0.6366476787350533,-0.33122054370551995,-0.28568150352709126,-0.28935938821350743
1765407768.070971,-8.930666015338813,-0.22961072520858392,0.6574495540708339,-0.32497901793214296,-0.2792037781094484,-0.2856520574349395
1765407768.071221,-8.936945339840618,-0.2826057646081183,0.6783063965111434,-0.31867253977309007,-0.2727800418904078,-0.28198135144470127
1765407768.071471,-8.945902450382949,-0.3315054243151466,0.6988437701404425,-0.31231164201308503,-0.2663983563143157,-0.2783355807454063
1765407768.071721,-8.957310164054286,-0.37537701989269423,0.7186520419002655,-0.3059031145439518,-0.2600478143837926,-0.2747007254551764
1765407768.071923,-8.970794781727058,-0.4134728963607524,0.7372917475233063,-0.2994506053482444,-0.25371915744444956,-0.27106161301540177
1765407768.072173,-8.98586046085202,-0.4452453771140676,0.7543033382267562,-0.29295545452739225,-0.24740511953579689,-0.2674029838832521
1765407768.072423,-9.001923901835067,-0.47035583778254014,0.7692236326099968,-0.286417687551234,-0.24110052152687522,-0.2637104563764403
1765407768.072673,-9.018358713315607,-0.4886774862385986,0.7816098603670301,-0.27983706400474395,-0.23480217804042391,-0.2599714024737944
1765407768.072897,-9.034546356116987,-0.5002912042314106,0.7910695822651157,-0.2732140628850529,-0.2285086908606813,-0.25617572783637765
1765407768.07323,-9.049927901763654,-0.5054743313823356,0.7972921987413812,-0.26655069372741436,-0.2222201816075395,-0.2523165284393437
1765407768.073564,-9.064049730798352,-0.5046830107582988,0.8000767727578788,-0.25985104949297566,-0.21593798653763327,-0.24839058745575082
1765407768.073883,-9.07659764342723,-0.4985290315977359,0.7993520916928968,-0.2531215537775857,-0.2096643202118475,-0.24439868294868583
1765407768.074133,-9.08741674224122,-0.4877520386657442,0.7951873973089539,-0.2463708978540425,-0.20340191553301148,-0.24034569205523812
1765407768.074383,-9.096516938370405,-0.4731881263484245,0.787794271486055,-0.23960970646942212,-0.19715365867713064,-0.23624049126347696
1765407768.074633,-9.10406503329125,-0.45573636341858437,0.7775207005689966,-0.23285000482287757,-0.1909222567486036,-0.23209566516008698
1765407768.074917,-9.110364762981497,-0.43632508227599737,0.7648380259384815,-0.22610457624422162,-0.1847099975282798,-0.2279270524791507
1765407768.075167,-9.115826921185677,-0.4158793246943854,0.7503215791805107,-0.21938630150031382,-0.17851866428786742,-0.22375317286717816
1765407768.075417,-9.120932419367055,-0.39528999803654885,0.7346261768413671,-0.21270755980595887,-0.17234963855246935,-0.21959457782144065
1765407768.075667,-9.126191180777434,-0.375384731324391,0.7184573853020312,-0.206079750739527,-0.16620417615400504,-0.21547315269327483
1765407768.075967,-9.132099476714188,-0.35690044048328123,0.7025389120181805,-0.1995129667373765,-0.1600838130360565,-0.21141137485150177
1765407768.0763,-9.13909859501922,-0.34045807538281425,0.687576900845128,-0.19301581193164555,-0.15399085437027135,-0.20743151732185672
1765407768.076634,-9.147538375515534,-0.32654061296605613,0.6742232799011433,-0.18659533507529624,-0.14792889246422744,-0.20355478092966334
1765407768.076905,-9.157649020811803,-0.3154758926147378,0.6630412618615785,-0.18025703432369639,-0.14190327185233664,-0.19980034216612033
1765407768.077155,-9.16952341004872,-0.3074262877193739,0.6544759696657166,-0.17400490204811575,-0.1359214071736791,-0.19618432191662163
1765407768.077405,-9.18311090238739,-0.3023871921336421,0.6488325743210286,-0.16784149613713217,-0.12999288851944363,-0.19271871204865457
1765407768.077655,-9.198222988046636,-0.3001954469703462,0.6462636863148589,-0.16176803611262827,-0.12412935624245924,-0.1894103321824715
1765407768.077954,-9.214550592406056,-0.3005471822896021,0.6467666402727281,-0.15578452640800494,-0.11834415669625502,-0.1862599091506051
1765407768.078204,-9.23169183980232,-0.3030228635502872,0.6501897874608284,-0.14988991208170882,-0.11265180352286766,-0.18326136404556567
1765407768.078454,-9.249188101122844,-0.30711648266093944,0.6562458524762393,-0.1440822756795369,-0.10706728475076158,-0.18040136151525843
1765407768.078704,-9.266565771386698,-0.3122660241279632,0.6645303127044249,-0.13835908257297974,-0.10160526984624398,-0.17765914112112846
1765407768.078884,-9.283381286013157,-0.31788309794752884,0.6745432026596663,-0.13271747122142163,-0.09627926792908355,-0.1750066254916059
1765407768.079134,-9.299266957344445,-0.32338044999994797,0.6857133173017292,-0.1271545661721511,-0.09110077574702084,-0.17240878710371493
1765407768.079384,-9.31397520680825,-0.3281967959726178,0.6974243984426483,-0.1216677739918089,-0.08607845389051716,-0.16982425287778108
1765407768.079634,-9.327418724268647,-0.33181904076230273,0.7090432101122357,-0.11625501618841348,-0.08121738788574896,-0.16720613518767552
1765407768.079888,-9.339703923818055,-0.3338021549155983,0.71994905154141,-0.11091486221585249,-0.07651851076045968,-0.16450309816720346
1765407768.080138,-9.35115475873902,-0.33378651014551886,0.7295633789324214,-0.10564654566531968,-0.0719782689510565,-0.1616606853933743
1765407768.080388,-9.362323678059171,-0.3315116192724349,0.7373772937907657,-0.10044987254166393,-0.067588602462391,-0.1586229309883118
1765407768.080638,-9.373986561087138,-0.32682477105051955,0.7429740638267842,-0.09532505677797593,-0.06333728864758396,-0.1553342465510589
1765407768.080919,-9.38711921873116,-0.31968350778121274,0.7460439590029857,-0.09027253480916957,-0.0592086677854689,-0.15174153359881282
1765407768.081169,-9.402854689294362,-0.31015191621047256,0.7463898690467247,-0.08529280953808062,-0.05518472609540846,-0.14779643265254042
1765407768.081419,-9.422422745934234,-0.2983914613987799,0.7439240972339541,-0.08038635949239946,-0.05124646382456403,-0.1434575961230501
1765407768.081669,-9.447074990786154,-0.2846472228495847,0.7386583288759236,-0.07555363518051825,-0.04737543845029138,-0.13869286105538853
1765407768.081958,-9.47800005508014,-0.2692303379747071,0.7306892226236191,-0.07079515648638561,-0.04355536090120124,-0.13348119112674278
1765407768.082208,-9.516233851366845,-0.25249776773072824,0.7201815531525019,-0.06611171607373925,-0.039773635606241795,-0.12781425473102395
1765407768.082458,-9.562570024996703,-0.23483100331875348,0.7073501292187234,-0.0615046803188766,-0.036022755388273354,-0.12169752039881926
1765407768.082708,-9.617476013172114,-0.21661537820890064,0.6924412904035537,-0.05697636516484996,-0.03230147220510232,-0.11515079123786032
1765407768.083005,-9.681020365745816,-0.19822107653654158,0.6757145716493692,-0.05253045360694178,-0.02861566575951874,-0.108208154524781
1765407768.083255,-9.75281706242647,-0.17998634836818483,0.6574250123667355,-0.04817241334232133,-0.024978837948857493,-0.10091736696749064
1765407768.083505,-9.83199239483879,-0.16220339185510022,0.6378067168556769,-0.04390986477930559,-0.02141217659083839,-0.09333871920934432
1765407768.083755,-9.917179419862777,-0.1451076044964734,0.6170586326315965,-0.03975284280207541,-0.017944148765029855,-0.08554343387885523
1765407768.083973,-10.00654381824581,-0.12887085769202453,0.5953337538952235,-0.03571389727835015,-0.01460959870723502,-0.077611661683673
1765407768.084223,-10.097843134680561,-0.11359899987383759,0.572732899794924,-0.03180799161865619,-0.011448343794723526,-0.06963014966097182
1765407768.084473,-10.188518917989388,-0.0993333385738186,0.5493040973423622,-0.02805218098770953,-0.00850328942178698,-0.061689660234865135
1765407768.084723,-10.275818329285096,-0.08605566859915925,0.5250485445980383,-0.024465073873388764,-0.005818118022096948,-0.053882222267573686
1765407768.084983,-10.356938565683667,-0.07369637294445806,0.4999338431229585,-0.021066100450714092,-0.003434649927808773,-0.04629830277523484
1765407768.085183,-10.429184525561906,-0.06214501159547608,0.4739144358280633,-0.017874630289777822,-0.0013900277805327533,-0.03902400109882112
1765407768.085383,-10.490128259832415,-0.05126263596193974,0.4469582168793403,-0.014908999168543692,0.00028606465934102047,-0.03213838072817484
1765407768.085583,-10.537758271810961,-0.0408949464215729,0.4190774000232046,-0.012185517438305666,0.0015738951733700257,-0.025711062534223277
1765407768.085783,-10.570607401833945,-0.030885387471696897,0.390360790341812,-0.009717540696523882,0.002465625218123714,-0.019800203559893138
1765407768.085981,-10.58784943777519,-0.021087291204852112,0.36100341805616387,-0.007514686339089998,0.0029664709829616645,-0.014450974590083765
1765407768.086181,-10.589356555768637,-0.011374182505846712,0.33132854004198103,-0.005582270620949932,0.003094917843207772,-0.009694623944899838
1765407768.086381,-10.575712231414013,-0.0016473903290476913,0.30179712951142695,-0.003921015933652136,0.002881917009729782,-0.005548172775351523
1765407768.086581,-10.54817735196062,0.00815969218359489,0.27300140552887975,-0.002527043859768447,0.0023691099992605197,-0.0020147330565288783
1765407768.086781,-10.508610815543951,0.018080870021673003,0.24564114761333788,-0.0013921387414201662,0.0016062453524590123,0.0009156154948924334
1765407768.086928,-10.459349790502358,0.028119408245314004,0.22048386259543637,-0.0005042442625652285,0.0006480429581891853,0.0032644962307999603
1765407768.087128,-10.403058755626937,0.03825219346028071,0.19831215591323256,0.0001518612087197574,-0.00044919317868081295,0.005063582951706619
1765407768.087328,-10.342559851035695,0.04843454994355027,0.1798638048323572,0.0005937767356481512,-0.001630906549136109,0.006352754627382568
1765407768.087528,-10.280659045557389,0.05860475181197506,0.16577143428695915,0.0008406473918376082,-0.002847275493235047,0.007178177574665559
1765407768.087728,-10.219982536756905,0.06868772225976504,0.1565087049908204,0.0009123513796668092,-0.00405560846707263,0.0075904185641967135
1765407768.087967,-10.162835840161387,0.0785977769705616,0.15234870033507328,0.0008287571608223839,-0.005221966811217963,0.0076426707151348566
1765407768.088167,-10.11109500120332,0.08824044315027184,0.15333853093204286,0.0006090922349948407,-0.006321924088578319,0.007389147536997547
1765407768.088367,-10.066135917724313,0.09751336930241597,0.1592924896365423,0.0002714549902048837,-0.007340468565496843,0.00688367280063578
1765407768.088567,-10.02880406191275,0.10630627874593863,0.1698041922523639,-0.00016751105951554634,-0.008271147371014453,0.006178470263482574
1765407768.088767,-9.999423072422596,0.11450007168939635,0.1842759382395109,-0.0006927743662356487,-0.009114625936713892,0.0053231410528796815
1765407768.088965,-9.97783723722076,0.12196565421144781,0.201961500324675,-0.001290910848579345,-0.009876882072340004,0.004363809955394966
1765407768.089165,-9.963480418402355,0.1285635773993336,0.22201732382378853,-0.0019499592318741837,-0.01056726241359921,0.0033424264493326942
1765407768.089365,-9.95546276084216,0.1341456083333175,0.24355685215847164,-0.002659172123563524,-0.011196604079089692,0.0022962191837450074
1765407768.089565,-9.952666425339643,0.1385587638180933,0.2657031016645409,-0.0034087093284177437,-0.011775578921431952,0.0012573141455928592
1765407768.089765,-9.953842296232455,0.14165154252742115,0.28763536387417316,-0.004189322145111447,-0.012313364463959019,0.0002525269589338347
1765407768.089905,-9.957700936029708,0.14328165870670975,0.30862694319168354,-0.0049920704460166224,-0.012816694711736245,-0.0006966711504733579
1765407768.090105,-9.962992830215349,0.1433245898378071,0.3280721712125114,-0.005808101925314376,-0.013289303002899025,-0.0015740255478684192
1765407768.090305,-9.968574864931426,0.14168231741840726,0.3455023987601397,-0.006628509821557223,-0.013731739237370871,-0.002368224295229208
1765407768.090505,-9.973461598132907,0.13829151274522197,0.3605918669410906,-0.007444274319546805,-0.014141520378501565,-0.003072494104226585
1765407768.090705,-9.976861000315754,0.13313025719669364,0.37315503482500284,-0.008246283826215093,-0.01451355297225915,-0.0036840855821307977
1765407768.09092,-9.978195058197421,0.1262224287492194,0.38313716917462354,-0.009025425345033714,-0.014840753233592354,-0.004203673818761506
1765407768.09112,-9.97710620863678,0.1176391381968813,0.39060003787748354,-0.009772729405167803,-0.015114787821022865,-0.004634705096277623
1765407768.09132,-9.97345112252918,0.10749693023187852,0.3957045075055286,-0.010479554252106957,-0.015326863365453471,-0.004982721773437731
1765407768.09152,-9.967283780747643,0.09595282684398122,0.3986915932502137,-0.01113779332235516,-0.015468499432715985,-0.0052546969485631236
1765407768.09172,-9.958829923022838,0.0831966925031309,0.39986292370513477,-0.011740087719814803,-0.015532228119763177,-0.005458408441825664
1765407768.091946,-9.948454855434655,0.06944176049540138,0.3995608676897143,-0.012280023945994705,-0.015512177279105041,-0.0056018764951318144
1765407768.092196,-9.93662653539979,0.054914336529939704,0.39814819104807164,-0.01275229944555459,-0.015404511682815192,-0.005692882882519945
1765407768.092446,-9.923876036627993,0.03984367221554442,0.39598735388773837,-0.013152843888401041,-0.015207720888902878,-0.005738585011212581
1765407768.092696,-9.910757861427953,0.02445289807783149,0.39342021250877895,-0.013478889401630414,-0.014922751119755643,-0.00574523727374428
1765407768.092927,-9.897812799109268,0.008951792346111135,0.3907494522595584,-0.013728986293150853,-0.014552984456585502,-0.005718027927756054
1765407768.093127,-9.885535877457103,-0.006468030432467538,0.38822323169732026,-0.013902963120703132,-0.014104076427673199,-0.005661029750371687
1765407768.093327,-9.874351430354919,-0.021635261060920414,0.3860243075556613,-0.014001833996686782,-0.01358367277019934,-0.005577250643607593
1765407768.093527,-9.864596560415116,-0.03639851571240644,0.384264502940648,-0.01402766322824017,-0.013001034800795362,-0.005468762416252987
1765407768.093727,-9.856513428422868,-0.05062389919682674,0.3829848700351135,-0.013983405569830845,-0.01236660766210519,-0.005336883473714746
1765407768.093919,-9.850249932197636,-0.06419116800168066,0.38216133699966226,-0.013872745295603537,-0.011691565590390432,-0.005182391172105266
1765407768.094119,-9.845867546862193,-0.07698928863965672,0.3817151014293444,-0.013699956369001015,-0.010987364388775669,-0.005005739890879932
1765407768.094319,-9.843354494246922,-0.08891231198042426,0.3815266139959891,-0.013469799336687877,-0.01026532636401614,-0.00480726250128985
1765407768.094519,-9.842642067063759,-0.09985649791652353,0.38145170348420226,-0.013187459939130989,-0.00953627884380409,-0.004587338336054482
1765407768.094719,-9.843621875304512,-0.10971939153300754,0.3813382281596025,-0.012858522566645957,-0.008810262864690808,-0.004346519953351591
1765407768.094916,-9.84616197860717,-0.1184010887522567,0.38104163567008037,-0.01248896214551932,-0.008096322240282873,-0.004085620142547089
1765407768.095116,-9.85012028870304,-0.12580743359669444,0.38043804184211316,-0.012085133521912686,-0.007402376274975139,-0.0038057655336826155
1765407768.095316,-9.855354256369026,-0.13185456066406595,0.379433919231062,-0.011653738316119003,-0.006735174164185126,-0.003508423017121544
1765407768.095516,-9.86172659926521,-0.13647408256563148,0.3779720985179113,-0.011201754391166496,-0.006100325432056033,-0.003195402729342795
1765407768.095716,-9.86910745077604,-0.1396182415775448,0.37603428498741676,-0.010736320985065597,-0.005502396821153815,-0.0028688402653835104
1765407768.095938,-9.877373629048906,-0.1412644037317991,0.3736405040115605,-0.010264581190342311,-0.004945061619423031,-0.0025311625864257747
1765407768.096138,-9.886405779278476,-0.14141834480325496,0.37084587048819967,-0.009793490640259328,-0.004431283511687611,-0.002185045119892196
1765407768.096338,-9.896084110906568,-0.14011590283187253,0.3677350199359838,-0.009329606072842148,-0.003963513836984458,-0.0018333682767671805
1765407768.096538,-9.906283434728193,-0.1374227943365943,0.36441455218187696,-0.008878870808386601,-0.0035438785543343353,-0.0014791779666365524
1765407768.096738,-9.916868177245028,-0.1334326744243627,0.36100390461738663,-0.008446417164190922,-0.0031743309494565407,-0.0011256488508272903
1765407768.09705,-9.927687996568341,-0.12826375560692208,0.35762518441404684,-0.008036407732150036,-0.0028567506440651653,-0.0007760460014379898
1765407768.0973,-9.93857460344274,-0.12205440564097876,0.3543926875886389,-0.007651936122245739,-0.002592978880411787,-0.0004336829000846997
1765407768.09755,-9.9493404217165,-0.11495811718852098,0.3514030661821897,-0.0072950020179427906,-0.002384790873138568,-0.00010187877486374788
1765407768.0978,-9.959779707769536,-0.10713811930423124,0.3487272021214895,-0.00696656648956295,-0.002233814125921698,0.00021607890784097126
1765407768.098039,-9.969672577276725,-0.09876176473403984,0.34640470473144175,-0.00666668412585912,-0.002141405984104526,0.0005169634034376918
1765407768.098239,-9.97879206281483,-0.08999480471414639,0.3444416446609934,-0.006394700292580452,-0.002108506053296898,0.0007976315282391856
1765407768.098439,-9.986913926960685,-0.08099580002749361,0.3428117810749501,-0.006149494645705055,-0.002135480115830212,0.0010550468551980181
1765407768.098639,-9.993828526921355,-0.07191107622496357,0.34146113317369664,-0.005929745810203006,-0.0022219705767740523,0.0012863089247703845
1765407768.098839,-9.999353590407951,-0.06287063189487015,0.34031527632585185,-0.005734188315517874,-0.002366764546544484,0.0014886904656786467
1765407768.098918,-10.003346428982642,-0.05398524397077322,0.3392883266239002,-0.00556183388705654,-0.002567687398089939,0.0016596821053022081
1765407768.099118,-10.005714066154534,-0.04534483113858119,0.33829241248927977,-0.005412136153078254,-0.002821529129740065,0.0017970442950896756
1765407768.099318,-10.006420063000729,-0.037018053013679976,0.3372465785576116,-0.0052850888582937315,-0.003124011996871282,0.0018988677789446124
1765407768.099518,-10.005487350345806,-0.029053139863108226,0.3360843683934542,-0.005181258539509776,-0.0034698084346440664,0.0019636443586445625
1765407768.099718,-10.002996931447889,-0.021479989471643837,0.33475960705106567,-0.005101759119659276,-0.003852616920149632,0.001990347560219145
1765407768.099981,-9.99908281119886,-0.014313540912471312,0.33325014085668936,-0.005048176571665469,-0.004265298764060459,0.001978518918431316
1765407768.100148,-9.993923894981679,-0.007558300499847308,0.3315595302787689,-0.005022449069515615,-0.004700070045970076,0.0019283519220440579
1765407768.100314,-9.987733788859678,-0.0012137125617257935,0.3297168284881886,-0.005026705768524365,-0.00514873223680636,0.0018407635609548295
1765407768.100481,-9.980749367231693,0.00472007319024559,0.32777450978516326,-0.0050630674128445095,-0.0056029172266806575,0.0017174432461400863
1765407768.100648,-9.973218777872665,0.01023656171999223,0.3258044994554821,-0.0051334139353140795,-0.006054320926650199,0.0015608702473961114
1765407768.100814,-9.965389438465827,0.015317965787046596,0.3238923886905466,-0.005239127970923124,-0.006494904348530355,0.0013742930599879588
1765407768.101009,-9.957496611036534,0.019931538092420573,0.32213030701502715,-0.005380829504676743,-0.006917049974729705,0.0011616671988845936
1765407768.101209,-9.94975320673532,0.02402774373865001,0.3206092591753277,-0.005558124813591541,-0.007313672212540175,0.0009275521856326241
1765407768.101409,-9.942341462090987,0.02754072285787281,0.3194117826564053,-0.0057693986812587346,-0.007678291628981997,0.0006769733931912517
1765407768.101609,-9.935407048700842,0.030391259429745663,0.3186056333936502,-0.006011678680234076,-0.008005089720591864,0.00041525860259882387
1765407768.101809,-9.929056076950273,0.032492139670032595,0.3182390388475301,-0.0062805937560112945,-0.008288960568747079,0.0001478618079990157
1765407768.101955,-9.923355307668741,0.03375545398749048,0.3183378959817824,-0.006570439710679604,-0.008525569149370226,-0.00011981248405694382
1765407768.102155,-9.918335629633768,0.03410115386991426,0.31890509227454145,-0.006874354840330852,-0.008711419639317363,-0.0003825729961515483
1765407768.102355,-9.91399848017128,0.03346599913365696,0.3199219071617313,-0.007184600077391208,-0.008843935488733525,-0.0006355853525893838
1765407768.102555,-9.910324446787367,0.031811889922274204,0.32135123647244407,-0.007492927526545579,-0.008921553918747858,-0.0008744903237602211
1765407768.102755,-9.907282901868642,0.0291325507256525,0.32314215229607596,-0.0077910092645959855,-0.0089438341239027,-0.0010954929848815238
1765407768.102956,-9.904841305557477,0.02545772648084089,0.3252350748685765,-0.00807088831671479,-0.008911567826972567,-0.0012954213663997547
1765407768.103156,-9.902972859176602,0.02085442374678034,0.3275667085446761,-0.0083254100345719,-0.00882686795032292,-0.001471756096718764
1765407768.103356,-9.90166152996508,0.01542512112729168,0.3300740132528589,-0.008548596296790927,-0.008693204446378307,-0.0016226341385215805
1765407768.103556,-9.900903989684352,0.009303175672682358,0.33269681345798735,-0.008735935418906285,-0.0085153602454033,-0.0017468293339577932
1765407768.103756,-9.900708512116013,0.002645878721129881,0.33537898723453485,-0.008884573001311218,-0.008299293718380236,-0.001843712405535852
1765407768.103975,-9.901091231822114,-0.004374191867372616,0.3380683874792459,-0.008993398130939028,-0.008051913000634157,-0.0019131955166956788
1765407768.104175,-9.902070412456377,-0.011578716907449516,0.34071577597037583,-0.009063023814485411,-0.007780786014795994,-0.001955670380039331
1765407768.104375,-9.903659566213683,-0.018793177173408962,0.3432731772461729,-0.009095663384951951,-0.007493820809521039,-0.001971950610001171
1765407768.104575,-9.905860367248772,-0.025855486777588362,0.34569213469692983,-0.009094909848362684,-0.007198949777812858,-0.001963225935299865
1765407768.104775,-9.908656252318108,-0.03262293054603663,0.34792230892464077,-0.009065433155311593,-0.0069038414350011965,-0.0019310289101380853
1765407768.104935,-9.912007445466497,-0.038976865948768036,0.3499107550876986,-0.009012618068323763,-0.006615652002288795,-0.0018772077390520636
1765407768.105135,-9.915847993176019,-0.04482499820467561,0.3516021625643809,-0.00894216995113035,-0.006340821146659026,-0.0018038954038232997
1765407768.105335,-9.920085298917371,-0.050101387247508566,0.35294034969056154,-0.008859718113607513,-0.006084912204218529,-0.0017134661798629926
1765407768.105535,-9.924602517358212,-0.05476458175867503,0.3538712558840666,-0.008770448225275469,-0.005852495033988777,-0.0016084741297318318
1765407768.105735,-9.92926387345308,-0.05879435452392302,0.35434740289746147,-0.0086787957355495,-0.0056470682805982685,-0.0014915725624073655
1765407768.10595,-9.933922488812499,-0.06218750388464015,0.35433329850145295,-0.008588227450082744,-0.005471018492268663,-0.0013654180920310264
1765407768.1062,-9.938429804588619,-0.06495318908106257,0.35381079679417976,-0.00850112683646221,-0.0053256173412163975,-0.001232567248474355
1765407768.10645,-9.942645427463487,-0.06710829667025474,0.3527833527882981,-0.008418784043270932,-0.005211062260588179,-0.001095376720699967
1765407768.1067,-9.946446254819826,-0.06867331416184069,0.3512784423137226,-0.008341479676487596,-0.005126564666855988,-0.0009559195459291861
1765407768.106912,-9.949733903333525,-0.06966905901741258,0.3493478299023774,-0.008268643834463473,-0.005070482322385543,-0.0008159282937949049
1765407768.107112,-9.952439642911111,-0.07011442013826749,0.34706559790496344,-0.00819906703333362,-0.0050404838802637466,-0.0006767726106635066
1765407768.107312,-9.954526293849177,-0.07002512143801953,0.344524006777215,-0.008131137359050808,-0.005033730552879036,-0.0005394738208022833
1765407768.107512,-9.955986988925426,-0.06941347197196751,0.34182754385270364,-0.008063080012640465,-0.005047062552656244,-0.00040475501958514473
1765407768.107712,-9.956841239996283,-0.06828907320974985,0.3390858617836497,-0.00799318036929271,-0.005077182029112627,-0.00027312122515465347
1765407768.107843,-9.95712913829898,-0.06666041624112329,0.3364064571278791,-0.007919976881526415,-0.005120826625446127,-0.00014496019318667848
1765407768.108043,-9.95690464148664,-0.06453719756278378,0.33388783634213387,-0.007842415083583324,-0.00517492900961699,-2.065084258589329e-05
1765407768.108243,-9.956228854875038,-0.06193307796446491,0.3316137480496829,-0.007759959976686754,-0.005236758083811448,9.93355774919577e-05
1765407768.108443,-9.955164118062026,-0.05886857306735768,0.3296489594269118,-0.007672670569843636,-0.005304035512679517,0.00021435477682286907
1765407768.108643,-9.953769537116374,-0.055373797421123146,0.3280369281142452,-0.007581243991699252,-0.005375016966357767,0.00032353715587785103
1765407768.10892,-9.952098279356385,-0.0514908299132655,0.326799444681791,-0.00748703460656787,-0.0054485249042538885,0.00042576522978887395
1765407768.10912,-9.950196527661275,-0.047275471191169476,0.3259379729934198,-0.007392046834540509,-0.005523923034884504,0.0005196764509565947
1765407768.10932,-9.94810366909534,-0.042798123701416634,0.3254362018292754,-0.007298893350983769,-0.005601032086350084,0.0006036847156370371
1765407768.10952,-9.945853213660206,-0.03814350088632428,0.32526332242235134,-0.007210707726824292,-0.005679997806035506,0.0006760150355129109
1765407768.10972,-9.94347405343967,-0.03340893860067112,0.32537765592959733,-0.007131003772547989,-0.005761129455958164,0.0007347494809707965
1765407768.109955,-9.94099181180372,-0.02870126749766266,0.3257303378103287,-0.007063481223109941,-0.005844728021525175,0.0007778860512725213
1765407768.110155,-9.938430112285324,-0.024132455715235746,0.3262688122303182,-0.007011787115159008,-0.005930920206638104,0.000803413458932454
1765407768.110355,-9.93581168592485,-0.019814442480658532,0.3269399858641962,-0.0069792529101286626,-0.006019511570796878,0.0008094038135519718
1765407768.110555,-9.933159398188685,-0.015853681756489286,0.32769305896371526,-0.00696863669061242,-0.006109872447104784,0.0007941233457132053
1765407768.110755,-9.930497420035426,-0.012345902452364693,0.32848216871227975,-0.006981903999719077,-0.006200871524089788,0.0007561597527789464
1765407768.110985,-9.927852741291753,-0.009371515945507815,0.3292689266246698,-0.007020077087780154,-0.006290869312755853,0.0006945627903864946
1765407768.111185,-9.925257021109967,-0.006991999528809248,0.33002476652777973,-0.007083170251849936,-0.006377775226474676,0.0006089906609517022
1765407768.111385,-9.922748528214775,-0.005247464726983451,0.3307328817325195,-0.007170212583152806,-0.006459161786655168,0.0004998484906495913
1765407768.111585,-9.920373756698481,-0.004155495744401667,0.3313894436641064,-0.007279345212642445,-0.006532423152977919,0.0003683995790954557
1765407768.111785,-9.91818824363997,-0.003711247551699196,0.33200373875629774,-0.0074079721643755024,-0.0065949635268697186,0.00021682864007850449
1765407768.111974,-9.916256203445517,-0.0038887366851705473,0.3325969523561534,-0.007552941306049917,-0.006644400290708151,4.8239926769281235e-05
1765407768.112174,-9.914648864407965,-0.0046432106168238785,0.3331996817404819,-0.007710731344419151,-0.006678764388073922,-0.00013341969939237446
1765407768.112374,-9.913441719553191,-0.005914415842638159,0.33384868264088113,-0.007877621261514374,-0.006696677918373202,-0.00032351390597234894
1765407768.112574,-9.91271103572701,-0.0076305155958281,0.33458347093295754,-0.008049822878162782,-0.006697489853241312,-0.000516937898308729
1765407768.112774,-9.912529831930778,-0.009712366933288814,0.33544314466826947,-0.00822356845947993,-0.0066813565247690965,-0.0007083898954455812
1765407768.112972,-9.912963371956515,-0.012077858742856244,0.3364634900014598,-0.008395160578018798,-0.0066492611467871545,-0.0008926685567514052
1765407768.113172,-9.91406424545424,-0.014646019702851813,0.33767434628396886,-0.008561002087561529,-0.006602972475865432,-0.0010649675016329303
1765407768.113372,-9.91586728254062,-0.01734062025217378,0.33909723168326983,-0.008717624022351187,-0.006544946635508144,-0.0012211366630596983
1765407768.113572,-9.91838467776715,-0.020093022845989544,0.34074320147395537,-0.008861721412311,-0.0064781803386879866,-0.001357882698146437
1765407768.113772,-9.92160175897385,-0.02284408783696036,0.34261090112299836,-0.008990199109123303,-0.00640602934378146,-0.001472888784387852
1765407768.11415,-9.925473911724184,-0.02554501783683379,0.34468493349215845,-0.009100226310054874,-0.00633201090625711,-0.0015648477793420387
1765407768.11435,-9.929925236824399,-0.02815711483799178,0.34693488030853153,-0.00918929851776412,-0.006259608873904157,-0.0016334176908210682
1765407768.11455,-9.934849434641613,-0.030650522583656074,0.3493153471092858,-0.009255306544986776,-0.006192093735311149,-0.0016791185287621786
1765407768.11475,-9.940113138109131,-0.03300212702617581,0.3517672085549744,-0.009296613002309993,-0.006132363520935583,-0.0017031920549333429
1765407768.11495,-9.945561598843751,-0.035192888090374644,0.3542200427449931,-0.009312137010388978,-0.006082811821960353,-0.0017074429607848744
1765407768.114981,-9.95102639066476,-0.03720496087280706,0.35659568088207905,-0.009301446104666397,-0.006045234072152346,-0.0016940754906477325
1765407768.115181,-9.956334590545913,-0.039019004551606215,0.3588127271773622,-0.009264849542499377,-0.006020784148785704,-0.001665535723085476
1765407768.115381,-9.961318661008272,-0.040612052386139116,0.3607917007901243,-0.009203480377889598,-0.006009986755799485,-0.0016243669575808238
1765407768.115581,-9.965826075555178,-0.041956235057842774,0.36246023992249016,-0.009119347096186444,-0.00601280064092808,-0.0015730835281297017
1765407768.115781,-9.96972775700889,-0.043018553331927674,0.36375779383712914,-0.009015333008473786,-0.00602871762292279,-0.0015140671555328505
1765407768.115896,-9.972924647852693,-0.04376182457577462,0.36463941034569675,-0.008895126593580148,-0.006056874632462711,-0.0014494907369407368
1765407768.116096,-9.975352032497561,-0.044146858246911926,0.36507840661197394,-0.008763078460346798,-0.006096153047142742,-0.001381276585613836
1765407768.116296,-9.976981419605774,-0.04413577505825638,0.3650677524288714,-0.008623995173569186,-0.006145244529991331,-0.001311095817760558
1765407768.116496,-9.977819872504785,-0.04369616573193317,0.36461996118861584,-0.00848289027770051,-0.006202675500474249,-0.0012404097439364522
1765407768.116696,-9.977906789473174,-0.042805589944612144,0.3637653478974121,-0.00834471673308049,-0.006266799158661556,-0.0011705444766104051
1765407768.116973,-9.977308384871645,-0.04145583855299288,0.36254876989620016,-0.00821410547031453,-0.006335777749453079,-0.0011027814691478876
1765407768.117173,-9.976110436208725,-0.03965641670295869,0.3610253022993641,-0.008095133711198826,-0.006407582316326121,-0.0010384427879389921
1765407768.117373,-9.974410070680868,-0.03743680113592049,0.35925548244919525,-0.007991142670538534,-0.0064800310440345605,-0.0009789507956802573
1765407768.117573,-9.972307393363861,-0.03484715646973523,0.357300690165614,-0.007904615625638874,-0.006550874283591361,-0.0009258465213182764
1765407768.117773,-9.969897702496139,-0.031957353369059006,0.3552190706266108,-0.007837115764959799,-0.0066179203762449295,-0.0008807583867765871
1765407768.1179,-9.967265010981233,-0.028854307585654406,0.3530623524385219,-0.007789273551311671,-0.006679185670678495,-0.0008453217699034514
1765407768.1181,-9.964477563288137,-0.025637844410342097,0.35087394183653553,-0.007760810293393359,-0.006733046304459542,-0.0008210583757637211
1765407768.1183,-9.961585855381623,-0.02241545616411377,0.3486885824072023,-0.007750589237654447,-0.006778368650541962,-0.0008092317014673973
1765407768.1185,-9.958623278944048,-0.019296407919347155,0.34653355997208496,-0.007756694009645733,-0.006814599215606654,-0.0008107002620421216
1765407768.1187,-9.9556090747142,-0.01638564375431518,0.3444310619984771,-0.007776540464343255,-0.006841801416251636,-0.0008257916499123496
1765407768.118896,-9.952553003983803,-0.013777901304204922,0.3424011028504534,-0.007807027781341553,-0.006860633545006975,-0.00085421666526013
1765407768.119096,-9.949461062457974,-0.011552416696942206,0.34046443545596894,-0.007844728418553215,-0.00687226767373698,-0.0008950356937210807
1765407768.119296,-9.946341532193493,-0.009768602772575064,0.3386449455901114,-0.007886107599281574,-0.006878253941919172,-0.0009466823558682071
1765407768.119496,-9.9432106447189,-0.008463058106774531,0.3369711153206305,-0.007927754634925661,-0.00688034121936158,-0.0010070431426491707
1765407768.119696,-9.940097213334202,-0.007648166929635143,0.3354763335941418,-0.007966603482970768,-0.0068802739869372334,-0.001073585640803979
1765407768.120055,-9.937045805432634,-0.007312404028896086,0.3341981016591251,-0.008000120383619377,-0.006879592719413162,-0.0011435223787856711
1765407768.120255,-9.934118204222713,-0.007422322607539246,0.3331763385644877,-0.00802644106651204,-0.006879467110968648,-0.0012139938694234866
1765407768.120455,-9.931392952960074,-0.007926096747467462,0.3324509634325499,-0.008044445946939944,-0.0068805874717752505,-0.0012822537492548165
1765407768.120655,-9.92896282289229,-0.008758389096317962,0.3320588861712808,-0.008053767993316316,-0.006883130346464778,-0.0013458395907912125
1765407768.120855,-9.926930265961692,-0.009846191601179343,0.3320306075923721,-0.00805473564647584,-0.006886800901367318,-0.001402713612268474
1765407768.120987,-9.925401221037811,-0.011115142485038386,0.33238669355112876,-0.008048262178479959,-0.006890940447546282,-0.0014513590307606056
1765407768.121187,-9.92447781046432,-0.012495697237741405,0.3331343171041017,-0.00803570050643276,-0.006894678481902383,-0.0014908217906634644
1765407768.121387,-9.924250462382517,-0.013928492813364769,0.33426400220498975,-0.008018685322677344,-0.006897107880764105,-0.0015206938329261142
1765407768.121587,-9.924790013150993,-0.015368328955370188,0.3357468646816225,-0.007998981266442088,-0.00689746544400499,-0.0015410422526288652
1765407768.121787,-9.926140453900375,-0.016786369100100416,0.3375329258772316,-0.007978349233230611,-0.006895300617093584,-0.0015522977092919518
1765407768.121916,-9.928313022652791,-0.0181703827013611,0.33955114375748685,-0.007958436974175944,-0.00689061180391136,-0.0015551223910742575
1765407768.122116,-9.931282214333185,-0.01952308352792418,0.3417115802662811,-0.007940696846994947,-0.006883929705443655,-0.001550279104437549
1765407768.122316,-9.934984124116534,-0.0208588466095421,0.34390984662397645,-0.007926331697075401,-0.00687633602394392,-0.0015385183198152242
1765407768.122516,-9.939317438532807,-0.022199270830486253,0.3460337706573299,-0.007916267865430586,-0.0068694183493413314,-0.0015204921260800334
1765407768.122716,-9.944147154139062,-0.023568147964729447,0.34797190596309374,-0.007911152624468894,-0.00686516917230782,-0.0014966964191436797
1765407768.12295,-9.949310573874387,-0.02498638536950391,0.34962292561265856,-0.00791137260159676,-0.006865837933450928,-0.0014674384334879584
1765407768.12315,-9.954624542511375,-0.026467339395978538,0.35090443777226044,-0.00791708903765257,-0.006873745649153432,-0.001432827855269914
1765407768.12335,-9.959892671905562,-0.02801290749885578,0.3517597629869975,-0.007928283685484438,-0.006891074456972409,-0.001392794396734446
1765407768.12355,-9.964911594400398,-0.02961063825689486,0.3521617165501763,-0.007944806137992127,-0.006919646808871773,-0.0013471377895371782
1765407768.12375,-9.969475790052602,-0.031232051292290394,0.3521130636247604,-0.00796641153732236,-0.006960709934294041,-0.0012956136150042686
1765407768.123946,-9.973381001983851,-0.03283230287881386,0.3516438281878593,-0.007992779278357079,-0.007014742644596357,-0.0012380502640175369
1765407768.124146,-9.976426678340756,-0.03435128466775474,0.3508061027774722,-0.008023509345076866,-0.007081303055370136,-0.001174482160899408
1765407768.124346,-9.97841825878936,-0.03571619018783955,0.34966742585986976,-0.00805810136041822,-0.00715893270445146,-0.0011052764494268994
1765407768.124546,-9.97917026768227,-0.03684550316550447,0.3483039508742572,-0.008095927566164103,-0.007245122808415001,-0.001031227304111249
1765407768.124746,-9.978510939687885,-0.03765425029378991,0.3467944039585354,-0.008136211301736335,-0.00733633698008458,-0.0009535950099514394
1765407768.124917,-9.976288649713505,-0.03806024479723758,0.3452154154245091,-0.008178019073456423,-0.00742807778051197,-0.0008740760129138555
1765407768.125117,-9.972380051912499,-0.03799094508573043,0.3436384999146003,-0.00822027145609504,-0.007514982604464651,-0.0007947035011510531
1765407768.125317,-9.966699641427315,-0.037390460627166916,0.34212878426414545,-0.008261776953846313,-0.0075909349013661,-0.0007176917401655822
1765407768.125517,-9.959210273519592,-0.03622616076325018,0.3407453438766174,-0.008301291406203786,-0.007649179407259706,-0.0006452469580164715
1765407768.125717,-9.949933879033116,-0.034494315485827404,0.3395426214429972,-0.008337601677113468,-0.007682437006865529,-0.0005793708515764758
1765407768.12598,-9.938961296316762,-0.03222424537629732,0.33857206783207394,-0.008369626374451038,-0.007683025640857987,-0.0005216804886681754
1765407768.12618,-9.926459983781024,-0.029480568483917228,0.337883119546156,-0.008396520693099839,-0.007643003482566117,-0.0004732626696381565
1765407768.12638,-9.912678434716302,-0.026363278751631667,0.3375228997330234,-0.008417770145558152,-0.007554353884279849,-0.0004345735656234388
1765407768.12658,-9.897946281251444,-0.023005563536031427,0.33753436684240123,-0.008433259244485233,-0.007409227321613531,-0.0004053870866285833
1765407768.12678,-9.882669264776343,-0.019569458243457315,0.337952908956104,-0.00844330383377671,-0.007200248119439836,-0.00038479005373336805
1765407768.12694,-9.867318504724397,-0.016239606368630036,0.33880168974741415,-0.008448638175325277,-0.006920887250330003,-0.0003712215649944921
1765407768.12714,-9.852413857330223,-0.01321548514071576,0.3400864439015202,-0.008450351243923964,-0.006565894515170675,-0.00036255793512713513
1765407768.12734,-9.83850153796253,-0.010702442103453879,0.3417906670694133,-0.008449773527685313,-0.006131767889332047,-0.0003562481081809601
1765407768.12754,-9.826126484923853,-0.008901805463980486,0.3438719743228459,-0.008448326387285337,-0.005617216205662255,-0.00034950135886182963
1765407768.12774,-9.815800271406149,-0.008000265960346085,0.3462599206564994,-0.00844735623707308,-0.005023555647841521,-0.0003395190163031086
1765407768.127956,-9.807965996932177,-0.008158743626545307,0.34885523524315265,-0.008447979045502436,-0.004354980874717756,-0.00032375033744433504
1765407768.128156,-9.802962612858972,-0.009501051918264548,0.3515304621765076,-0.008450955398950931,-0.0036186652100781832,-0.0003001444688693866
1765407768.128356,-9.800992286962304,-0.012102846482168467,0.3541322280869833,-0.008456607546132923,-0.0028246608529004006,-0.000267366321693575
1765407768.128556,-9.802095222966896,-0.01598165986163299,0.35648554202465066,-0.008464782890269123,-0.001985584262191999,-0.00022494395444229285
1765407768.128756,-9.806136415174022,-0.021089321031682554,0.35840069230101923,-0.008474865021833016,-0.0011160886198750693,-0.00017332261193174598
1765407768.128987,-9.812807892096144,-0.02730847222954343,0.35968337159610947,-0.008485832322788302,-0.0002321527987180585,-0.00011382125922119012
1765407768.129187,-9.8216480697497,-0.03445465638651319,0.360148254869595,-0.008496362402957475,0.0006497478788679207,-4.8516606850361914e-05
1765407768.129387,-9.832077177428948,-0.0422843347675201,0.35963517833326,-0.008504975100847838,0.0015134982995660695,1.990227332687285e-05
1765407768.129587,-9.843444973705958,-0.050507812730808344,0.35802591166826553,-0.008510198922827105,0.002344138902043633,8.827555947893096e-05
1765407768.129787,-9.855085009679474,-0.058805319411226596,0.355259208681977,-0.008510742337923274,0.003128534017696145,0.00015310821326919982
1765407768.130017,-9.866369067783083,-0.06684476107499182,0.35134235552467763,-0.008505655459243255,0.0038558689326424218,0.00021072377966665563
1765407768.130267,-9.876755847948852,-0.07430049160538338,0.3463577415411367,-0.008494471878295346,0.004517942921475401,0.0002574639716987517
1765407768.130517,-9.885828898860789,-0.08087287598448116,0.3404626397351972,-0.00847731623680584,0.00510924288648024,0.0002899398366625981
1765407768.130767,-9.893320151489874,-0.0863077276084123,0.33388059490295174,-0.008454955123138406,0.005626818967624429,0.0003053083279159235
1765407768.130968,-9.899117521446541,-0.09041323046692995,0.3268846769013485,-0.008428770510102782,0.00607002533434619,0.0003015290085354636
1765407768.131168,-9.903257614205204,-0.09307123052040894,0.3197754525344759,-0.008400650967226047,0.006440206016367384,0.0002775629426612318
1765407768.131368,-9.905906602311777,-0.09424100150285315,0.3128578456117092,-0.008372816457099305,0.006740384341488564,0.0002334978605174041
1765407768.131568,-9.907333192816061,-0.0939560351154436,0.3064203845503228,-0.008347604782493044,0.006974973592169494,0.00017059528722725945
1765407768.131768,-9.907877513224143,-0.09231598470923004,0.300718765221995,-0.008327248183179982,0.007149495558414963,9.124858655364634e-05
1765407768.131939,-9.907919243593104,-0.08947555329343568,0.2959643666501152,-0.008313663211319398,0.007270287266793338,-1.1648457248198543e-06
1765407768.132139,-9.907847586602664,-0.0856309608488334,0.29231752686384294,-0.008308272623564919,0.007344188357931512,-0.0001025377429061667
1765407768.132339,-9.908034712561276,-0.08100430753238022,0.28988478259944894,-0.008311875888750903,0.007378219001555721,-0.0002083614269803537
1765407768.132539,-9.908813375092906,-0.07582694366625757,0.28871893898286605,-0.008324582326109388,0.007379269793450394,-0.00031407368863807836
1765407768.132739,-9.910458797566676,-0.07032382818240764,0.2888208765185105,-0.008345815481111178,0.007353824590768161,-0.00041537498289018595
1765407768.133052,-9.913174782289882,-0.0647008394542911,0.290142318161029,-0.008374388292867617,0.0073077272837647166,-0.0005084849645740859
1765407768.133252,-9.917084119299073,-0.05913606509018889,0.29258917405744583,-0.008408636651909624,0.007245994259605396,-0.0005903335967431875
1765407768.133452,-9.922223536385422,-0.05377493338381144,0.29602543160894107,-0.008446587866780115,0.007172672007465391,-0.0006586885236602585
1765407768.133652,-9.928543514871276,-0.04872839635865762,0.3002778157881451,-0.00848613635774166,0.0070907397190929965,-0.0007122155858038452
1765407768.133852,-9.935913252178457,-0.04407347828727007,0.3051416110743456,-0.008525204222800618,0.007002054470050647,-0.0007504659774510383
1765407768.133925,-9.944130815626133,-0.03985596713959064,0.3103880914728477,-0.008561874763939327,0.006907334321514474,-0.0007737927596720181
1765407768.134125,-9.952938050569962,-0.03609515278237995,0.315773844563694,-0.008594495553042146,0.006806177889532934,-0.0007832189170998408
1765407768.134325,-9.96203919875751,-0.03278999990648362,0.32105185959624427,-0.008621751107635776,0.006697126419744984,-0.0007802937679183296
1765407768.134525,-9.971121749477286,-0.02992547214573346,0.32598379951207196,-0.008642705342362507,0.006577779797702511,-0.0007669692391379222
1765407768.134725,-9.979878000251041,-0.027477707370284737,0.330352703398837,-0.008656813633407413,0.00644497715481212,-0.0007455031797567746
1765407768.135074,-9.988026007323478,-0.025417582618820628,0.3339754429665415,-0.00866390557901815,0.006295045501930076,-0.0007183729268419627
1765407768.135274,-9.99532868384536,-0.023713200069091177,0.3367141867560675,-0.008664142051049631,0.006124106189627191,-0.0006881787586056652
1765407768.135474,-10.001609585282768,-0.02233210838847991,0.3384857110397362,-0.008657951783778334,0.005928410883779928,-0.0006575335788686184
1765407768.135674,-10.006763704724426,-0.02124349592602511,0.3392670644348354,-0.008645952690082412,0.005704664572772261,-0.0006289530456097099
1765407768.135874,-10.010761852616273,-0.020419803847663814,0.3390964212172907,-0.008628863636102126,0.0054502935678871715,-0.0006047619790594008
1765407768.135962,-10.01364801419822,-0.01983700258247275,0.3380688593629262,-0.008607416230558105,0.0051636324174333505,-0.0005870191696690183
1765407768.136162,-10.01553010604741,-0.019473365021388092,0.33632762352818973,-0.008582281414254714,0.004844023680331875,-0.0005774494241344993
1765407768.136362,-10.016565408226413,-0.019307418524162633,0.33405185321070885,-0.008554025900313405,0.004491837362445144,-0.0005773724649026668
1765407768.136562,-10.016942520750884,-0.01931612755066476,0.33144202695405744,-0.008523105499153485,0.004108421301772848,-0.0005876321064210769
1765407768.136762,-10.01686199048147,-0.019474014370169938,0.32870465475950944,-0.008489890573729965,0.0036959942792550056,-0.0006085427798394597
1765407768.136906,-10.01651771058643,-0.01975326390674103,0.32603776287539926,-0.008454709975868484,0.003257493355915751,-0.0006398715335721448
1765407768.137106,-10.01608078426702,-0.020124434680104688,0.3236183008926597,-0.008417896441843209,0.0027963882705528526,-0.0006808613194359187
1765407768.137306,-10.015686958773538,-0.020557439355396487,0.3215921346928343,-0.008379818828780044,0.0023164801858161694,-0.0007302860238794748
1765407768.137506,-10.015428265755117,-0.021022779143778727,0.32006716707446514,-0.00834089424139703,0.001821706832626076,-0.0007865206765625963
1765407768.137706,-10.015349236985358,-0.021493244641027125,0.31911017265586594,-0.008301582109707656,0.0013159755797411779,-0.0008476148505051882
1765407768.137942,-10.015447788354459,-0.021946192995039186,0.31874764161249036,-0.008262366447065414,0.0008030385952943186,-0.0009113675419539372
1765407768.138142,-10.015680351854163,-0.022366150840443712,0.31897016578072135,-0.008223730040961314,0.00028641372110633877,-0.0009754086070875488
1765407768.138342,-10.01597019467243,-0.022747154163573508,0.3197390999847714,-0.008186120575323622,-0.00023065561592469164,-0.0010372907634902352
1765407768.138542,-10.016217475292459,-0.023094149275000225,0.3209939078573512,-0.008149909900857236,-0.0007452159453135689,-0.0010945904120450048
1765407768.138742,-10.016309649709912,-0.02342297953191782,0.3226588692341491,-0.008115353285593145,-0.0012546102054396934,-0.0011450108424725044
1765407768.138918,-10.01613117584757,-0.02375884436947159,0.3246484023472907,-0.00808255941786947,-0.0017564820817384443,-0.0011864806687459707
1765407768.139118,-10.01557180607838,-0.02413345464392454,0.32687080542490365,-0.008051480411759399,-0.00224877432257705,-0.0012172431520550352
1765407768.139318,-10.014533063750843,-0.024581290014058437,0.3292306204061028,-0.008021925724999558,-0.0027297155424947056,-0.0012359359448572132
1765407768.139518,-10.012932846958524,-0.02513538408070286,0.33163010459660286,-0.007993598077300981,-0.0031977981199107666,-0.0012416622523891468
1765407768.139718,-10.010708432845316,-0.02582301270321583,0.33397047995507323,-0.007966144598028559,-0.0036517539228698875,-0.0012340507742670719
1765407768.140011,-10.00781829730624,-0.026661646320369988,0.3361536422513625,-0.007939212532683582,-0.004090525410539396,-0.0012132938099383447
1765407768.140211,-10.004243081867878,-0.027655595753397388,0.33808481819068475,-0.007912496589819412,-0.0045132162650397675,-0.0011801463843872273
1765407768.140411,-9.999985899223363,-0.028793874029672834,0.33967635271792185,-0.007885766442485224,-0.0049190043930201115,-0.0011358721359315056
1765407768.140611,-9.995072118042167,-0.03004976984493301,0.34085251441006,-0.007858869371878777,-0.0053070136674661025,-0.0010821364328457703
1765407768.140811,-9.989548750633613,-0.031382366459431064,0.3415549247940131,-0.007831712569431689,-0.0056761573282110974,-0.0010208660743288684
1765407768.140986,-9.983483456136659,-0.032739775285921036,0.3417478890423513,-0.007804237345317349,-0.0060249760076497745,-0.0009541058058294415
1765407768.141236,-9.976963006401512,-0.034063387619707654,0.34142263453815497,-0.007776399600639866,-0.0063514979584822105,-0.0008838985557657732
1765407768.141486,-9.97009102037263,-0.035292256176720195,0.3405995132741741,-0.007748167317266155,-0.006653151328132583,-0.0008122028707042083
1765407768.141736,-9.962984913435468,-0.03636694634933125,0.3393276898544605,-0.00771953902758058,-0.0069267561915705,-0.0007408468248934038
1765407768.141927,-9.955772166262845,-0.03723268292554827,0.3376824309339125,-0.007690579960230489,-0.007168614577254677,-0.0006715097027707893
1765407768.143932,-9.948586012097271,-0.03784197948673834,0.33576041928505074,-0.007661466593532984,-0.00737470167493401,-0.0006057221930431672
1765407768.144995,-9.941560517101447,-0.03815692660926373,0.33367346915222423,-0.007632526450784821,-0.007540945829503525,-0.0005448791423952831
1765407768.149087,-9.934825027251614,-0.038151054419663544,0.33154097069056576,-0.0076042586685488595,-0.0076635722613201274,-0.0004902610674959566
1765407768.152003,-9.928498216198149,-0.037810514788156356,0.3294816207617409,-0.007577323582193402,-0.007739475726548975,-0.00044305890369663827
1765407768.153991,-9.922682311829826,-0.03713445382746509,0.32760531473973276,-0.007552497168177087,-0.007766580072186191,-0.00040439277376172906
1765407768.155034,-9.917458194384109,-0.03613475952019356,0.3260060900597988,-0.007530595579904867,-0.0077441402761110915,-0.00037531489735610334
1765407768.158934,-9.912881880824377,-0.03483557691722113,0.32475668614476905,-0.007512380807029404,-0.007672947931965102,-0.00035679231080694115
1765407768.161898,-9.908982664105615,-0.03327287737015455,0.32390494634227707,-0.0074984594858764,-0.007555412369074273,-0.00034967438873091363
1765407768.163932,-9.90576304876026,-0.03149401078529223,0.32347215547117464,-0.0074891870716596596,-0.007395501898254619,-0.0003546569297265589
1765407768.166915,-9.903200556530063,-0.029556834297873008,0.32345335886733545,-0.007484591377352874,-0.007198542195929411,-0.00037225396250308886
1765407768.168948,-9.901251320075577,-0.02752795835269869,0.3238195618342949,-0.0074843299722288275,-0.0069708853838652595,-0.00040278084518554074
1765407768.171919,-9.899855130866921,-0.02547992941948563,0.32452149769205924,-0.007487691272675274,-0.006719485209963648,-0.00044634303094280103
1765407768.172419,-9.89894138342327,-0.023487578142071676,0.3254945226042542,-0.007493640407458907,-0.006451434013314651,-0.000502820637208086
1765407768.175971,-9.898435246362395,-0.021624025769287535,0.32666414900077434,-0.0075009031780497015,-0.006173524248892351,-0.000571842298244687
1765407768.178951,-9.8982633600119,-0.019956840005370013,0.3279516444786939,-0.007508077563179262,-0.0058918853418053405,-0.0006527494892998842
1765407768.180001,-9.898358386214804,-0.01854466659032585,0.3292790097813868,-0.007513760495868571,-0.005611722231107672,-0.000744559617546752
1765407768.183934,-9.89866190245071,-0.017434509003014523,0.3305727224920089,-0.007516675975937274,-0.00533715880971512,-0.0008459403702713204
1765407768.186977,-9.89912550332655,-0.016659768923280558,0.3317660129693263,-0.007515790330356444,-0.0050711758646056985,-0.000955208396015362
1765407768.18894,-9.899710422449397,-0.016239168087574894,0.33279992016010634,-0.007510404199476841,-0.0048156281182519765,-0.001070361209075487
1765407768.192,-9.900386284776818,-0.016176674493712698,0.3336236464356527,-0.007500217867176174,-0.0045713247807225394,-0.001189142996401581
1765407768.19393,-9.901129637528209,-0.016462489226304746,0.33419471813712837,-0.0074853725862914335,-0.004338160226293403,-0.0013091372918265032
1765407768.196964,-9.901922777761236,-0.01707500104664662,0.3344793186683362,-0.007466472146939982,-0.00411528350113348,-0.001427876641742306
1765407768.198924,-9.902753244152368,-0.017983433502707088,0.3344530481690211,-0.007444586379943511,-0.0039012948226848356,-0.0015429609597126335
1765407768.201882,-9.90361421203116,-0.019150779738207693,0.33410229256874163,-0.007421234195268923,-0.003694453978093954,-0.0016521779254956978
1765407768.203914,-9.90450583751676,-0.0205366116828038,0.33342623684583594,-0.007398340605685667,-0.0034928832458486435,-0.0017536172134612242
1765407768.207057,-9.905437259053999,-0.022099459382050744,0.33243922322835756,-0.007378161514395011,-0.0032947517541987606,-0.0018457666454383646
1765407768.207557,-9.906428583650891,-0.02379861057215516,0.33117274999016705,-0.00736317281646954,-0.0030984401278359797,-0.0019275770909874205
1765407768.211889,-9.907512012135479,-0.025595305929931953,0.3296762450544223,-0.007355926752887825,-0.0029026955828687037,-0.0019984873875894494
1765407768.213943,-9.908731427937147,-0.027453371614162517,0.3280159871047422,-0.007358886566828415,-0.0027067875331269753,-0.002058408941287401
1765407768.216884,-9.910140146452143,-0.029339342624924606,0.326271981626144,-0.007374256337803367,-0.00251066139049907,-0.002107676656683291
1765407768.218881,-9.911796874141325,-0.031222123385008443,0.32453295461978976,-0.007403823335298783,-0.0023150738518656123,-0.002146975031371465
1765407768.222029,-9.913760220068898,-0.033072267607117234,0.3228898944923481,-0.007448826205390195,-0.0021216868255097224,-0.002177247281637553
1765407768.223047,-9.916082419608527,-0.03486106269602669,0.32142887987887586,-0.007509857211968196,-0.001933100327412689,-0.0021995952139282787
1765407768.226929,-9.918803202122643,-0.03655969888834322,0.3202241901005644,-0.007586802509976274,-0.0017528109341335956,-0.0022151795870162397
1765407768.228888,-9.921944742531394,-0.03813877598877182,0.3193326447068978,-0.007678820294447871,-0.0015850870392155436,-0.0022251325924738203
1765407768.229927,-9.925508319719794,-0.039568241015813965,0.3187897215468268,-0.007784352221075789,-0.001434757617654024,-0.0022304930013819623
1765407768.233946,-9.929472895603269,-0.04081768466601787,0.3186075728951573,-0.00790116055581115,-0.0013069224688052957,-0.0022321699536858477
1765407768.236062,-9.933795595357312,-0.04185688551578531,0.318774894823636,-0.008026383962999603,-0.0012066080426903327,-0.002230934869944227
1765407768.238974,-9.938414019745643,-0.042656587518583096,0.31925863499169976,-0.00815660822633509,-0.001138406391317303,-0.0022274349098024464
1765407768.242015,-9.943250241385396,-0.04318962346538075,0.3200074495297684,-0.008287952701057576,-0.0011061388508880954,-0.002222218144352887
1765407768.243971,-9.94821608273698,-0.0434325349718596,0.3209565320837249,-0.00841617728106669,-0.0011125801281233992,-0.0022157613596697078
1765407768.246956,-9.953218956814203,-0.043367737148211884,0.32203314621463425,-0.008536816059300479,-0.0011592664620069075,-0.0022084948633710045
1765407768.248979,-9.958167424581395,-0.04298607571364946,0.3231621424437422,-0.008645340370519766,-0.001246398020810365,-0.002200821626671963
1765407768.2519,-9.962975789686608,-0.042289434069699074,0.3242709260298429,-0.008737346097617713,-0.0013728334536998474,-0.002193128349695722
1765407768.253931,-9.967567352099676,-0.04129297356566675,0.32529353940310557,-0.008808752695911606,-0.0015361650574492616,-0.0021857849045742034
1765407768.256976,-9.971876167123654,-0.040026654533593005,0.3261735962598517,-0.008855998796145396,-0.0017328583441504532,-0.0021791303252782198
1765407768.257476,-9.975847303864374,-0.03853580312611014,0.32686587430166464,-0.008876220858758133,-0.001958441400465187,-0.002173450570987886
1765407768.261988,-9.979435811997234,-0.036880551709683594,0.32733662023369486,-0.008867403216248484,-0.002207734865099947,-0.002168961902487175
1765407768.262488,-9.982604891579449,-0.035133981852235464,0.3275629714049459,-0.008828488401794577,-0.0024751163927098072,-0.002165816071715408
1765407768.266985,-9.985323925436562,-0.03337884537123842,0.3275320827330951,-0.008759438244081066,-0.0027548100600272587,-0.002164135734115892
1765407768.269005,-9.987566954984157,-0.03170292881848368,0.3272404549627353,-0.008661241094289122,-0.0030411841961843133,-0.0021640747827110516
1765407768.271939,-9.989311969577805,-0.030193430102252956,0.32669375631070385,-0.008535867803463075,-0.003329037108556752,-0.00216588706742443
1765407768.273922,-9.990541188109834,-0.02893098086097402,0.3259072590057759,-0.008386185396000664,-0.003613851369357711,-0.0021699838793324757
1765407768.276011,-9.991242307386997,-0.027984027874846593,0.32490678962129815,-0.00821584006406921,-0.003891999755231192,-0.0021769652051237573
1765407768.276938,-9.991410381231223,-0.027404155917938385,0.32372973727242527,-0.008029120225093512,-0.004160886553040878,-0.0021876174749371736
1765407768.282015,-9.991049689164925,-0.027222684451606867,0.32242538116416425,-0.007830808627000104,-0.00441900990042446,-0.0022028774055901025
1765407768.283937,-9.990174907924189,-0.027448631839409324,0.3210538772961635,-0.007626032251179559,-0.004665937967979044,-0.002223766874176972
1765407768.285027,-9.988811164133276,-0.02806802167993961,0.31968364347849354,-0.007420119105122752,-0.0049022016950462325,-0.0022513080918104907
1765407768.286988,-9.986992888659568,-0.02904452935368511,0.3183872742239727,-0.007218468227374323,-0.0051291142269153725,-0.0022864311204622615
1765407768.290031,-9.984761616913612,-0.03032152953454766,0.317236331962643,-0.007026431767126531,-0.005348531662946768,-0.0023298860007328346
1765407768.293879,-9.982163042727459,-0.03182556670346572,0.31629553967371477,-0.006849199671380803,-0.005562574326917884,-0.0023821696578291557
1765407768.294944,-9.979243844688206,-0.03347110233597109,0.3156171554781286,-0.006691674063693673,-0.005773332328617487,-0.002443474570599144
1765407768.298908,-9.97604896349956,-0.03516619613507786,0.31523646630199337,-0.006558323925794968,-0.005982580068417713,-0.002513662921294243
1765407768.301916,-9.972619906579034,-0.036818671991302426,0.31516914849268074,-0.006453018822203834,-0.006191521369148317,-0.002592266850241906
1765407768.303925,-9.96899427371077,-0.03834233298128996,0.31541074358969085,-0.006378848823274942,-0.006400584732326398,-0.0026785124502575843
1765407768.306932,-9.96520628144601,-0.03966285403557645,0.3159379984123926,-0.006337942887700759,-0.006609288629516692,-0.002771362349642927
1765407768.307432,-9.961287863826222,-0.04072299573359415,0.31671157298827385,-0.006331299264694636,-0.006816194462517738,-0.0028695696957846484
1765407768.311894,-9.95726995870458,-0.041486712555511354,0.3176796025967377,-0.006358641395129084,-0.0070189541428143576,-0.002971735815744459
1765407768.313909,-9.953183705746941,-0.04194164933842163,0.3187816551401937,-0.0064183132751798825,-0.007214443059638093,-0.003076364836825413
1765407768.316922,-9.949061400914129,-0.042099572268518064,0.3199527259313385,-0.006507228582668473,-0.007398958140419757,-0.0031819102906418153
1765407768.317422,-9.944937205299258,-0.04199454834919587,0.3211271340574143,-0.006620886194761614,-0.00756846157686978,-0.003286811096654369
1765407768.322025,-9.940847768065801,-0.0416790912029375,0.32224243523378254,-0.006753460487821298,-0.0077188578993410886,-0.0033895185835223296
1765407768.323969,-9.936832928597385,-0.04121883757015949,0.32324346836158446,-0.006897969074195873,-0.007846293631921256,-0.0034885227181570945
1765407768.326919,-9.932936438780736,-0.04068645889646492,0.3240863347635451,-0.0070465144227711005,-0.007947461058103919,-0.003582391618771522
1765407768.327951,-9.929206416749516,-0.04015544063210951,0.3247418137032113,-0.007190589371960029,-0.008019878464356206,-0.0036698388012692067
1765407768.331911,-9.925695280405185,-0.03969418815544493,0.32519778747197914,-0.0073214306557335814,-0.008062117346054047,-0.003749824612547791
1765407768.333914,-9.922459141691983,-0.03936078009817216,0.3254605496142341,-0.007430400811634142,-0.008073953441848825,-0.0038216847905114637
1765407768.336976,-9.919556766381891,-0.0391986536225712,0.325555020085797,-0.007509377658481331,-0.008056429817347636,-0.003885267163610765
1765407768.338927,-9.917048133959634,-0.039233511154099614,0.32552383348070846,-0.007551130708660931,-0.008011834863132597,-0.003941052184738869
1765407768.34196,-9.914992563335584,-0.03947166853744007,0.325425252584734,-0.007549664764592084,-0.007943613244360007,-0.003990233457085685
1765407768.343939,-9.913446408296162,-0.03989988773185269,0.3253299649646292,-0.007500513484570405,-0.007856236325714337,-0.004034737320006226
1765407768.346956,-9.912460365344902,-0.040486539269692264,0.32531687278173044,-0.0074009703503818795,-0.007755054456642938,-0.004077164725946839
1765407768.34897,-9.912076430959049,-0.04118383970928329,0.32546796078048335,-0.007250249413262397,-0.007646139475075917,-0.00412064516917798
1765407768.351933,-9.912324612997928,-0.04193095419949184,0.3258624162592378,-0.007049570943666723,-0.007536111419220052,-0.004168602541484845
1765407768.353943,-9.913219661755386,-0.042657879135654934,0.32657039278631467,-0.0068021675491699895,-0.007431936352265206,-0.004224446420615832
1765407768.355963,-9.91475815115572,-0.04329010303563537,0.32764689005823777,-0.006513207045033041,-0.007340683567313063,-0.004291217504344736
1765407768.358022,-9.916916108416013,-0.043754001120442636,0.32912605026351893,-0.006189631400852698,-0.007269238099175606,-0.004371228962757687
1765407768.361974,-9.919647252738804,-0.0439827513482779,0.3310160163083903,-0.005839915472002788,-0.007223975546348711,-0.004465752236666903
1765407768.363982,-9.922881969669533,-0.04392234476401188,0.33329461546610645,-0.00547375306283108,-0.007210416083450031,-0.004574793723338306
1765407768.365017,-9.926527325228387,-0.04353711032545147,0.3359063837379782,-0.005101681262132563,-0.007232879826688918,-0.00469699792836203
1765407768.36898,-9.930468481165297,-0.04281415279743439,0.3387615413368145,-0.004734657875454793,-0.007294168982870915,-0.0048296952633133695
1765407768.371955,-9.934571792099092,-0.04176620941665715,0.3417374471612628,-0.004383610414888716,-0.00739530729392973,-0.004969092599598412
1765407768.373953,-9.938689790754145,-0.04043262395288444,0.3446829525991642,-0.004058976662080019,-0.0075353709840592885,-0.005110586438410596
1765407768.37698,-9.942668163308372,-0.03887834776893162,0.34742589709135024,-0.003770255569768836,-0.0077114410800077715,-0.005249165195401213
1765407768.378895,-9.946354473717703,-0.03719101393903249,0.34978354998751926,-0.0035255841828418974,-0.00791869404056477,-0.005379859090284595
1765407768.381945,-9.949607840830659,-0.035476146376698915,0.3515751802104955,-0.0033313530966124585,-0.00815063133465458,-0.005498192013976441
1765407768.385031,-9.95230840423071,-0.03385054961486216,0.3526355069521398,-0.0031918715824423736,-0.008399433048568905,-0.005600588039365935
1765407768.386958,-9.954365565313477,-0.032434044658939946,0.3528277899445689,-0.0031090953743182635,-0.008656406639243325,-0.005684686786591632
1765407768.38893,-9.95572449859152,-0.03134004744764093,0.3520555815130696,-0.0030824349693952297,-0.008912490273611852,-0.00574952976006246
1765407768.389994,-9.956370817851917,-0.030665912089098978,0.35027234576130284,-0.003108667147018092,-0.009158764347810596,-0.00579559569527101
1765407768.392904,-9.956333290582714,-0.030484238451557025,0.3474881416499037,-0.003181973478111491,-0.009386930100929145,-0.005824684224494218
1765407768.394957,-9.955684287657293,-0.030836272766021414,0.3437725422212642,-0.003294125851213194,-0.00958973098727466,-0.0058396684268334186
1765407768.396914,-9.954537534489003,-0.03172811681063626,0.33925312213175995,-0.003434832006991057,-0.009761310666536132,-0.005844153086543127
1765407768.401946,-9.95304280026313,-0.03312994530207094,0.3341092079174961,-0.0035922438627572625,-0.009897508822715303,-0.005842083432917099
1765407768.403929,-9.95137737109232,-0.03497809456478729,0.32856105691795495,-0.0037536157375922447,-0.009996092143925639,-0.0058373483532764645
1765407768.407004,-9.949734517756841,-0.03717979608442419,0.32285517497654476,-0.003906078159573023,-0.010056913195174995,-0.00583341651363223
1765407768.408993,-9.948309766087648,-0.03962029916805194,0.3172471075779719,-0.004037470705399138,-0.010081989946775642,-0.005833039032165599
1765407768.411959,-9.947286485068659,-0.04217194007398184,0.31198362110117545,-0.00413716154749499,-0.01007549783965861,-0.005838048864519068
1765407768.413967,-9.946822727418999,-0.044704356924538294,0.30728642544588863,-0.0041967765702142215,-0.010043660526284014,-0.0058492791453843675
1765407768.414977,-9.947041060817199,-0.0470947273129217,0.30333923483788194,-0.004210767588185846,-0.009994521832423834,-0.005866606037704493
1765407768.418926,-9.948022428450859,-0.049236854626440514,0.3002791554042026,-0.00417676505251157,-0.009937590051764937,-0.005889100028947375
1765407768.421903,-9.949804329858168,-0.05104820836062573,0.29819259423056294,-0.004095681415063733,-0.009883366250464884,-0.0059152524569566454
1765407768.423987,-9.952383120825154,-0.05247447811858038,0.2971154493879416,-0.003971553440939534,-0.00984278973216086,-0.005943238395366574
1765407768.427022,-9.955719873896083,-0.05349159583390079,0.297037137603566,-0.0038111347109692976,-0.009826645368057219,-0.005971182856206089
1765407768.429031,-9.959748754512885,-0.05410537119409443,0.29790768944855245,-0.003623273341165329,-0.009844977386031566,-0.005997408026817014
1765407768.432043,-9.964386292659578,-0.05434890248929192,0.2996466361578553,-0.0034181314804857003,-0.009906548350730118,-0.006020646964756373
1765407768.433949,-9.969539644172611,-0.054277928256264665,0.3021520784624547,-0.003206318031555775,-0.010018376346236656,-0.006040210703589903
