time,acc_x_g,acc_y_g,acc_z_g,gyro_x_rad_s,gyro_y_rad_s,gyro_z_rad_s
1765408889.017954,-9.968913,0.465088,0.017934,-0.007025,-0.003360,-0.000611
1765408889.018154,-9.787182,0.400526,-0.169775,-0.005803,-0.002443,-0.000305
1765408889.018354,-9.875656,0.423840,0.030488,-0.007025,-0.009468,-0.001680
1765408889.018554,-10.066953,0.450143,0.261239,-0.008247,-0.008705,-0.001680
1765408889.018715,-10.039454,0.417264,0.106408,-0.009316,-0.004887,-0.001527
1765408889.018915,-9.861309,0.453730,-0.075323,-0.007789,-0.004887,0.000305
1765408889.019115,-9.721423,0.410689,-0.169775,-0.006872,-0.005803,-0.000916
1765408889.019315,-9.766856,0.428025,0.006576,-0.008094,-0.010690,-0.004276
1765408889.019515,-9.855330,0.787303,0.319225,-0.008552,-0.006414,-0.010537
1765408889.019878,-9.714849,1.159732,0.114778,-0.010079,0.001985,-0.013286
1765408889.020078,-9.433882,1.528575,-0.162602,-0.016646,0.001985,-0.009010
1765408889.020278,-9.385460,1.660688,0.009565,-0.021838,0.000305,0.000153
1765408889.020478,-9.442849,1.636777,0.446557,-0.030238,0.005192,0.000000
1765408889.020678,-9.298182,1.970349,0.124342,-0.041844,0.006872,0.000458
1765408889.020699,-8.998086,2.333811,-0.263630,-0.047189,0.014813,0.007483
1765408889.020949,-8.805594,2.203491,-0.428025,-0.049633,0.011454,0.020922
1765408889.021199,-9.032759,2.082735,-0.119560,-0.053145,0.019395,0.031154
1765408889.021449,-8.993303,1.874701,-0.192492,-0.047647,0.031001,0.040928
1765408889.021736,-8.754782,1.627212,-0.716164,-0.047495,0.034819,0.053451
1765408889.021986,-8.605929,1.122668,-1.075442,-0.042455,0.040775,0.059101
1765408889.022236,-8.686034,1.201578,-0.980392,-0.021533,0.054214,0.062308
1765408889.022486,-8.937110,1.446676,-0.852463,-0.015882,0.063225,0.069944
1765408889.022666,-9.166666,1.635581,-0.555954,-0.019395,0.075136,0.078802
1765408889.022866,-9.086560,1.609278,-0.728120,-0.001833,0.090103,0.101404
1765408889.023066,-8.974771,1.378527,-0.859039,0.003818,0.089644,0.114995
1765408889.023266,-9.023193,1.349235,-1.148972,0.001527,0.089034,0.115912
1765408889.023466,-9.329865,1.452654,-1.177068,0.005040,0.096211,0.127213
1765408889.024714,-9.353777,1.404830,-1.152558,0.010385,0.117897,0.139735
1765408889.024964,-9.500237,1.397656,-1.021042,0.014966,0.131947,0.148135
1765408889.025214,-9.860114,1.327116,-0.425634,0.014661,0.136681,0.151495
1765408889.025464,-10.483022,1.457436,0.135103,0.020159,0.138208,0.158520
1765408889.024870,-10.408297,1.461621,-0.668340,0.029780,0.133627,0.173944
1765408889.025120,-10.530846,1.455045,-0.703013,0.027336,0.128893,0.176540
1765408889.025370,-10.798061,1.300813,-0.215208,0.035430,0.142332,0.192728
1765408889.025620,-10.787899,1.010282,-0.243902,0.045357,0.140957,0.206167
1765408889.025658,-10.966043,1.241631,-0.438785,0.045968,0.126602,0.199600
1765408889.025908,-10.678503,1.158536,-1.184840,0.040775,0.134238,0.206778
1765408889.026158,-10.949305,1.453850,-0.401722,0.050244,0.143859,0.213956
1765408889.026408,-10.728120,1.419177,-0.373027,0.048258,0.143859,0.222050
1765408889.026761,-11.096962,1.530368,-0.214012,0.042455,0.117744,0.227547
1765408889.027011,-11.394069,1.555476,0.038857,0.045509,0.120951,0.236099
1765408889.027261,-10.975011,1.328312,-0.551172,0.050702,0.117592,0.248011
1765408889.027511,-11.272715,1.517217,-0.231946,0.044288,0.108276,0.247553
1765408889.027667,-11.011477,1.420373,-0.229555,0.029932,0.118661,0.253204
1765408889.027867,-10.653395,1.306791,-1.083214,0.034514,0.092393,0.260381
1765408889.028067,-11.034790,1.700143,-0.260641,0.036957,0.087048,0.255800
1765408889.028267,-11.282878,1.349832,0.274988,0.023976,0.091324,0.270613
1765408889.028467,-11.732423,1.354615,0.329986,0.032376,0.075289,0.275195
1765408889.028776,-11.782640,1.346843,0.265423,0.023366,0.075289,0.272446
1765408889.029026,-11.468195,0.885940,0.121951,0.019395,0.059559,0.276722
1765408889.029276,-11.300213,1.467001,-0.112386,0.018937,0.051313,0.266032
1765408889.029526,-11.373744,1.651124,-0.016141,0.014966,0.032681,0.280234
1765408889.029704,-11.444284,1.365375,-0.023912,0.017715,0.022907,0.285579
1765408889.029954,-11.264346,1.411406,0.072932,0.022297,0.025351,0.287412
1765408889.030204,-10.680892,1.309182,-0.554758,0.017868,0.029780,0.287718
1765408889.030454,-10.613341,1.653515,-0.903874,0.010843,0.001680,0.289550
1765408889.030781,-11.279889,1.309182,0.194883,0.003971,-0.012675,0.296117
1765408889.030981,-11.194404,0.865614,-0.040650,0.004429,-0.002749,0.289092
1765408889.031181,-10.891916,1.272118,-0.680296,0.003207,-0.005956,0.277180
1765408889.031381,-11.277498,1.617647,0.325203,0.003207,-0.009163,0.277180
1765408889.031581,-10.620514,1.402439,-0.316236,-0.004734,-0.021228,0.289550
1765408889.031821,-10.807029,1.309182,-0.489000,-0.021075,-0.021228,0.278096
1765408889.032071,-10.807029,1.309182,-0.489000,-0.021075,-0.024587,0.278096
1765408889.032321,-11.058105,1.737207,0.062171,-0.026878,-0.039095,0.270461
1765408889.032571,-11.267335,2.005021,0.551769,-0.026878,-0.035277,0.270461
1765408889.032777,-10.217000,1.462219,-0.557747,-0.036805,-0.063072,0.290619
1765408889.033027,-10.468077,0.970827,-0.157819,-0.034056,-0.063072,0.278402
1765408889.033277,-10.554159,1.495098,0.068747,-0.041997,-0.049480,0.271530
1765408889.033527,-10.475249,1.325920,-0.313845,-0.046273,-0.058490,0.273668
1765408889.033879,-10.420851,1.762314,0.194883,-0.049327,-0.043982,0.266185
1765408889.034129,-9.897178,1.193807,-0.503348,-0.058185,-0.067501,0.272904
1765408889.034379,-10.033475,1.349832,-0.143472,-0.053909,-0.067501,0.264046
1765408889.034629,-10.151243,1.371353,0.245098,-0.059865,-0.049480,0.251676
1765408889.034758,-9.349592,1.642754,-0.753228,-0.070708,-0.069333,0.259160
1765408889.035008,-9.847560,1.745576,0.182927,-0.075595,-0.069333,0.251066
1765408889.035258,-9.847560,1.745576,0.182927,-0.075595,-0.041539,0.251066
1765408889.035508,-10.164991,1.172884,0.636657,-0.075442,-0.053145,0.265879
1765408889.035726,-10.194881,1.784433,0.748446,-0.078038,-0.042608,0.244957
1765408889.035976,-9.751313,1.764706,-0.334768,-0.089950,-0.075595,0.256563
1765408889.036226,-10.193686,1.810139,0.723338,-0.088575,-0.075595,0.249386
1765408889.036476,-10.013150,1.519608,0.836920,-0.088575,-0.050702,0.249386
1765408889.036741,-9.335843,1.706121,-0.911047,-0.106749,-0.040012,0.246179
1765408889.036991,-10.282160,2.045074,0.634266,-0.110414,-0.060323,0.238696
1765408889.037241,-10.775943,1.657102,1.363582,-0.117439,-0.029780,0.247095
1765408889.037491,-9.976088,1.483740,-0.318030,-0.121562,-0.029780,0.238085
1765408889.038526,-9.976088,1.483740,-0.318030,-0.121562,-0.020769,0.238085
1765408889.038776,-10.579865,1.655906,1.223099,-0.129045,-0.055894,0.236099
1765408889.039026,-10.950500,1.948230,1.542324,-0.144164,-0.041386,0.219911
1765408889.039276,-9.760879,2.056432,-0.405906,-0.147219,-0.001222,0.222508
1765408889.038680,-9.282639,1.932090,-0.630081,-0.142179,-0.022297,0.235336
1765408889.038930,-10.674318,2.312290,1.339072,-0.151342,-0.053909,0.208305
1765408889.039180,-10.853658,2.232185,1.459828,-0.162948,-0.030085,0.222966
1765408889.039430,-9.590506,1.956599,-0.423242,-0.164628,-0.022602,0.228616
1765408889.039736,-10.000596,2.116212,-0.245696,-0.179442,-0.044440,0.210290
1765408889.039986,-10.871592,1.678622,1.248206,-0.191354,-0.044899,0.207694
1765408889.040236,-11.093972,2.124581,0.938546,-0.188910,-0.035736,0.195171
1765408889.040486,-10.173959,2.276423,-0.136298,-0.202196,-0.028711,0.198837
1765408889.040730,-10.096244,1.917742,0.070540,-0.213345,-0.045204,0.191201
1765408889.040980,-10.047822,2.122190,0.377810,-0.210290,-0.036041,0.193033
1765408889.041230,-9.678980,2.242946,-0.564921,-0.221439,-0.049633,0.186925
1765408889.041480,-9.905546,2.549019,-0.302487,-0.231060,-0.039401,0.182954
1765408889.041688,-9.687947,2.003826,-0.402319,-0.225104,-0.052993,0.203113
1765408889.041938,-10.001194,1.472979,-0.218795,-0.229227,-0.052993,0.195019
1765408889.042188,-10.001194,1.472979,-0.218795,-0.229227,-0.039248,0.195019
1765408889.042438,-10.367048,2.098278,0.251076,-0.235947,-0.022907,0.178067
1765408889.042825,-9.919893,1.676231,-0.288140,-0.246331,-0.046426,0.178067
1765408889.043075,-10.291725,1.840028,0.167384,-0.258396,-0.037110,0.160505
1765408889.043325,-10.158416,1.223697,0.398135,-0.251524,-0.036652,0.164017
1765408889.043575,-9.890003,1.765303,-0.430416,-0.245110,-0.044593,0.144011
1765408889.043763,-10.150645,1.996652,-0.069345,-0.258549,-0.048411,0.142637
1765408889.044013,-10.399329,1.813725,0.132712,-0.255800,-0.027031,0.149662
1765408889.044263,-10.156623,1.609875,-0.182927,-0.255189,-0.034361,0.149509
1765408889.044513,-9.822452,1.744978,-0.074127,-0.268628,-0.034361,0.138972
1765408889.044760,-9.973696,1.947633,-0.240316,-0.261298,-0.030391,0.132863
1765408889.045010,-9.734576,2.006217,-0.539216,-0.264352,-0.023976,0.138361
1765408889.045260,-9.487086,2.129364,-0.813008,-0.266337,-0.035277,0.129962
1765408889.045510,-9.894786,2.101865,-0.188307,-0.280234,-0.021075,0.126296
1765408889.045742,-9.947392,2.113223,-0.102224,-0.281609,-0.013439,0.125227
1765408889.045992,-10.076518,2.162840,0.340746,-0.288023,-0.027031,0.116981
1765408889.046242,-10.515302,2.373864,0.567910,-0.306349,-0.015730,0.100029
1765408889.046492,-10.193686,2.413917,-0.209230,-0.309861,-0.026573,0.101556
1765408889.046734,-10.283356,2.628527,0.694644,-0.322079,-0.041844,0.093921
1765408889.046984,-10.328789,3.002152,0.130918,-0.328798,-0.017868,0.096669
1765408889.047234,-10.348516,2.611190,0.362865,-0.339641,-0.030391,0.111025
1765408889.047484,-10.998922,2.282400,0.898493,-0.352164,-0.041692,0.100945
1765408889.047742,-10.508725,1.960784,0.619321,-0.364534,-0.041692,0.098044
1765408889.047992,-9.972500,2.184959,-0.147059,-0.361480,-0.019242,0.093462
1765408889.048242,-9.619798,2.201100,-0.529651,-0.363923,-0.032681,0.099266
1765408889.048492,-10.881156,1.597919,1.070062,-0.381027,-0.062003,0.088881
1765408889.048744,-10.682686,1.586561,0.921808,-0.382402,-0.041539,0.077885
1765408889.048994,-9.460783,1.718077,-1.227283,-0.383013,-0.036652,0.080634
1765408889.049244,-9.501433,1.912960,-1.168101,-0.391565,-0.061392,0.060628
1765408889.049494,-10.620514,1.797585,1.144787,-0.401644,-0.065973,0.060934
1765408889.049743,-10.803441,1.217719,1.139407,-0.401644,-0.055436,0.060934
1765408889.049993,-10.164991,1.678025,-0.691057,-0.384998,-0.060018,0.050091
1765408889.050243,-10.335365,1.946437,-0.226566,-0.397673,-0.060018,0.051007
1765408889.050493,-10.335365,1.946437,-0.226566,-0.397673,-0.066126,0.051007
1765408889.050722,-10.606167,1.767097,-0.023912,-0.402102,-0.055436,0.047037
1765408889.050972,-9.719630,1.661884,-1.308584,-0.406989,-0.054367,0.035277
1765408889.051222,-10.048421,2.550813,-0.017934,-0.409891,-0.059712,0.017562
1765408889.051472,-10.478239,2.771401,0.707795,-0.406989,-0.060934,0.033903
1765408889.051676,-10.679100,2.404352,0.306074,-0.430202,-0.072082,0.027794
1765408889.051926,-11.136416,2.165830,0.774749,-0.447306,-0.064294,0.018479
1765408889.052176,-10.399329,1.895026,0.205643,-0.439976,-0.059865,0.023671
1765408889.052426,-10.151840,2.144907,0.332377,-0.442572,-0.076358,0.010385
1765408889.052800,-10.604374,2.145504,0.628886,-0.457843,-0.071777,0.007483
1765408889.053050,-10.679100,1.574605,0.759206,-0.453109,-0.078954,0.016341
1765408889.053300,-10.099234,2.051650,-0.038259,-0.450513,-0.068264,0.003971
1765408889.053550,-9.643710,1.988283,-0.407700,-0.468534,-0.068264,0.003512
1765408889.053715,-9.643710,1.988283,-0.407700,-0.468534,-0.074526,0.003512
1765408889.053965,-9.282041,1.334290,-0.522477,-0.460898,-0.092241,0.012981
1765408889.054215,-9.256335,1.199187,-0.778336,-0.461967,-0.090408,0.000764
1765408889.054465,-9.117646,1.437709,-0.973218,-0.449291,-0.070708,-0.008705
1765408889.054769,-9.355571,1.944046,-0.747848,-0.446542,-0.070708,-0.007941
1765408889.055019,-9.355571,1.944046,-0.747848,-0.446542,-0.075595,-0.007941
1765408889.055269,-9.954566,1.811334,-0.010760,-0.472657,-0.058338,-0.030238
1765408889.055519,-9.427904,2.217838,-0.769966,-0.469603,-0.034667,-0.040470
1765408889.055712,-9.504422,2.526303,-0.271401,-0.487165,-0.052534,-0.045204
1765408889.055962,-10.687468,2.850310,1.066475,-0.497550,-0.052534,-0.047800
1765408889.056212,-10.687468,2.850310,1.066475,-0.497550,-0.047800,-0.047800
1765408889.056462,-9.880439,2.159254,0.333572,-0.516181,-0.057421,-0.028863
1765408889.056767,-9.579745,2.415112,-0.339550,-0.525344,-0.057421,-0.039859
1765408889.057017,-10.075322,1.950621,0.314443,-0.525191,-0.074526,-0.027031
1765408889.057267,-10.081299,1.591344,0.121951,-0.524581,-0.068570,-0.028100
1765408889.057517,-10.096244,1.623027,-0.135103,-0.532216,-0.055741,-0.040623
1765408889.057743,-10.197272,1.613462,0.431612,-0.533591,-0.056352,-0.046120
1765408889.057993,-9.698708,1.643950,-0.407102,-0.533591,-0.054978,-0.040775
1765408889.058243,-9.457196,1.337876,-1.039574,-0.536798,-0.071929,-0.051160
1765408889.058493,-10.003586,1.338474,-0.239120,-0.536492,-0.040623,-0.073609
1765408889.058734,-9.777020,1.523195,-0.651602,-0.538936,-0.036652,-0.071777
1765408889.058984,-10.011955,1.929699,-0.269010,-0.542296,-0.060934,-0.100029
1765408889.059234,-10.427425,2.822811,0.447752,-0.558636,-0.036194,-0.112857
1765408889.059484,-10.427425,2.822811,0.447752,-0.558636,-0.030085,-0.112857
1765408889.059754,-10.087276,2.453969,0.329986,-0.575740,-0.047037,-0.091783
1765408889.060004,-10.548779,2.339192,0.859039,-0.594219,-0.043982,-0.093157
1765408889.060254,-10.328789,2.046867,0.296509,-0.587347,-0.049480,-0.079565
1765408889.060504,-10.155428,1.751554,0.073529,-0.586278,-0.070555,-0.085063
1765408889.060757,-9.876254,1.390483,-0.037064,-0.600175,-0.060934,-0.092241
1765408889.061090,-9.286823,1.367766,-0.682090,-0.603535,-0.070860,-0.098044
1765408889.061424,-9.403395,1.964371,-0.604974,-0.604604,-0.074831,-0.102625
1765408889.061731,-9.690338,1.427546,-0.059780,-0.610713,-0.075747,-0.089644
1765408889.061981,-10.052606,1.139407,-0.002391,-0.609033,-0.059101,-0.099571
1765408889.062231,-9.722619,0.786705,-0.442372,-0.601550,-0.060781,-0.111636
1765408889.062481,-9.363939,1.095170,-1.065877,-0.608116,-0.067653,-0.142484
1765408889.062735,-9.677187,2.695480,-0.520684,-0.603382,-0.062308,-0.166919
1765408889.062985,-9.898971,2.728957,0.199067,-0.619265,-0.038485,-0.142942
1765408889.063235,-10.069344,2.244141,0.333572,-0.629497,-0.059407,-0.134849
1765408889.063485,-10.462696,2.113821,0.943926,-0.638812,-0.056352,-0.145691
1765408889.063737,-10.105211,1.679818,-0.008369,-0.635453,-0.053145,-0.131031
1765408889.063987,-9.568985,1.407221,-0.640842,-0.626442,-0.071319,-0.133474
1765408889.064237,-9.934240,1.416786,0.288737,-0.640034,-0.073609,-0.149662
1765408889.064487,-9.829028,1.074247,0.129125,-0.648128,-0.066279,-0.148593
1765408889.064734,-9.777020,1.741989,-0.284553,-0.633925,-0.072693,-0.155312
1765408889.064984,-9.799137,1.788020,-0.817193,-0.646601,-0.072846,-0.148898
1765408889.065234,-10.004781,1.399450,0.020325,-0.640034,-0.073762,-0.150426
1765408889.065484,-9.390243,1.194404,-0.502152,-0.645379,-0.037874,-0.155465
1765408889.065748,-9.083571,1.553084,-1.358202,-0.649655,-0.048869,-0.179594
1765408889.065998,-10.249879,2.496413,0.025705,-0.666912,-0.051771,-0.195935
1765408889.066248,-10.170969,2.329029,0.436394,-0.671494,-0.041692,-0.173180
1765408889.066498,-9.457196,1.838833,-0.519488,-0.683558,-0.028863,-0.181274
1765408889.066755,-9.353777,1.517217,-0.866212,-0.688292,-0.023060,-0.178525
1765408889.067088,-9.778215,1.067671,0.223577,-0.674853,-0.043219,-0.175776
1765408889.067422,-10.081299,1.099952,0.360473,-0.667676,-0.050855,-0.182801
1765408889.067671,-9.586321,1.171688,-0.282759,-0.687987,-0.039859,-0.182801
1765408889.067921,-9.208511,1.188426,-0.767575,-0.684016,-0.039095,-0.190895
1765408889.068171,-9.044117,1.333094,-1.015662,-0.677144,-0.054367,-0.190895
1765408889.068421,-9.871471,1.531564,0.129125,-0.681267,-0.060476,-0.197004
1765408889.068697,-9.599473,1.174079,-0.300096,-0.693790,-0.043524,-0.205098
1765408889.068947,-10.044236,1.960784,-0.355093,-0.679893,-0.044135,-0.216094
1765408889.069197,-9.874461,1.490913,-0.312649,-0.697914,-0.049022,-0.210749
1765408889.069447,-10.510519,2.287183,0.524868,-0.702037,-0.060323,-0.226936
1765408889.069721,-10.373026,1.915949,0.312052,-0.714407,-0.058948,-0.203724
1765408889.069971,-9.531323,0.606169,-0.378407,-0.705702,-0.058948,-0.183260
1765408889.070221,-9.750119,0.309063,-0.443568,-0.702648,-0.062156,-0.214566
1765408889.070471,-10.005977,0.202056,0.109995,-0.699441,-0.063835,-0.222508
1765408889.070679,-9.990434,0.705404,-0.137494,-0.692110,-0.049327,-0.239917
1765408889.071012,-9.742347,1.239239,-0.292922,-0.693179,-0.051465,-0.231060
1765408889.071346,-10.053204,0.793878,0.359876,-0.701121,-0.070250,-0.230143
1765408889.071764,-10.488999,1.591942,0.572692,-0.698372,-0.064752,-0.251829
1765408889.072014,-10.375418,1.733022,0.295313,-0.711353,-0.062614,-0.246179
1765408889.072264,-9.652080,1.769488,-0.494381,-0.712116,-0.068417,-0.241444
1765408889.072514,-9.949782,2.006217,0.199665,-0.712269,-0.072998,-0.240834
1765408889.072738,-9.961142,0.693448,0.313247,-0.726624,-0.072998,-0.227089
1765408889.072988,-9.961142,0.693448,0.313247,-0.726624,-0.083841,-0.227089
1765408889.073238,-10.619917,0.871592,0.264825,-0.713643,-0.072388,-0.234420
1765408889.073488,-9.704685,0.163797,-0.566714,-0.720516,-0.072388,-0.234572
1765408889.073713,-9.906742,0.640244,-0.402917,-0.699441,-0.070250,-0.257632
1765408889.073963,-9.136178,0.285748,-0.548780,-0.702801,-0.057116,-0.251371
1765408889.074213,-9.679578,1.119679,-0.611549,-0.705244,-0.073457,-0.267406
1765408889.074463,-10.349113,1.626016,0.848876,-0.720668,-0.052687,-0.279013
1765408889.074760,-10.232543,1.562052,0.235533,-0.730748,-0.052687,-0.268933
1765408889.075010,-9.818267,1.636179,-0.200861,-0.724333,-0.058032,-0.267254
1765408889.075260,-9.624580,1.719273,0.193089,-0.729679,-0.059559,-0.258243
1765408889.075510,-9.795551,1.031205,0.123147,-0.726166,-0.075747,-0.232129
1765408889.075718,-9.458392,0.123147,-0.357484,-0.722959,-0.076358,-0.231518
1765408889.076051,-9.276661,-0.075323,-1.174677,-0.726013,-0.076358,-0.245873
1765408889.076385,-9.497847,-0.376614,-0.818986,-0.717767,-0.071471,-0.261756
1765408889.076743,-9.594690,0.515304,-0.315638,-0.703411,-0.062919,-0.272751
1765408889.076993,-9.586321,0.463893,-0.642037,-0.706924,-0.068570,-0.270766
1765408889.077243,-9.227044,0.718556,-0.279770,-0.710589,-0.064752,-0.297950
1765408889.077493,-9.209109,1.495696,-0.572692,-0.715934,-0.033903,-0.296117
1765408889.077746,-9.330462,1.285270,-0.457915,-0.727846,-0.058643,-0.287565
1765408889.077996,-10.151840,1.945241,0.346724,-0.733344,-0.046426,-0.286496
1765408889.078246,-10.219989,1.210545,0.152439,-0.735940,-0.046426,-0.244957
1765408889.078496,-10.114776,0.092061,0.277379,-0.725402,-0.063225,-0.246790
1765408889.078710,-9.470946,-0.107604,-0.521879,-0.716850,-0.064446,-0.259007
1765408889.078960,-9.277856,-0.127929,-0.973218,-0.716850,-0.065515,-0.259007
1765408889.079210,-9.258727,0.251674,-0.548780,-0.707229,-0.052534,-0.272904
1765408889.079460,-9.202533,-0.143472,-0.896700,-0.708451,-0.064599,-0.268170
1765408889.079723,-9.202533,-0.143472,-0.896700,-0.708451,-0.063988,-0.268170
1765408889.080056,-10.154231,0.783118,0.554758,-0.699746,-0.046884,-0.310320
1765408889.080389,-9.618603,1.206360,-0.555356,-0.710131,-0.047342,-0.303295
1765408889.080736,-9.198947,1.333692,-0.727523,-0.717156,-0.053145,-0.301615
1765408889.080986,-9.318506,1.270923,-0.167384,-0.714254,-0.041233,-0.284205
1765408889.081236,-9.250358,0.129125,0.125538,-0.712574,-0.060476,-0.262825
1765408889.081486,-9.843375,0.168580,-0.105213,-0.705091,-0.046731,-0.283441
1765408889.081835,-9.812290,-0.081301,-0.070540,-0.703869,-0.046731,-0.278555
1765408889.082085,-9.613820,-0.414873,-0.059182,-0.686918,-0.054520,-0.277944
1765408889.082335,-10.221185,0.014945,0.430416,-0.686307,-0.052687,-0.294742
1765408889.082585,-10.261834,0.143472,0.742468,-0.694859,-0.045662,-0.298713
1765408889.082767,-9.408176,0.510521,-0.080105,-0.695012,-0.044440,-0.305738
1765408889.083017,-9.214490,1.155547,-0.302487,-0.701121,-0.047342,-0.310014
1765408889.083267,-9.342419,0.480033,-0.093257,-0.717767,-0.044593,-0.306196
1765408889.083517,-9.749520,1.052128,0.115973,-0.699288,-0.047037,-0.303600
1765408889.083718,-9.981467,0.787900,0.346724,-0.708298,-0.051771,-0.291994
1765408889.083968,-9.735771,0.081301,0.173362,-0.706160,-0.047189,-0.276111
1765408889.084218,-9.359158,-0.202056,-0.657580,-0.689514,-0.060170,-0.277944
1765408889.084468,-9.305355,-0.842898,-0.375418,-0.698219,-0.070555,-0.291077
1765408889.084725,-8.986130,-0.308465,-0.809421,-0.688292,-0.041844,-0.311083
1765408889.084975,-9.075800,0.172764,-0.862625,-0.670119,-0.035277,-0.292299
1765408889.085225,-10.081299,0.107604,0.328790,-0.690736,-0.053756,-0.310472
1765408889.085475,-11.493303,0.574486,1.828670,-0.699899,-0.042608,-0.329409
1765408889.085734,-10.728120,0.768771,0.699426,-0.699899,-0.014050,-0.329409
1765408889.086067,-9.551050,0.901482,-0.686872,-0.700204,-0.035125,-0.312458
1765408889.086401,-9.673599,0.744859,0.395146,-0.715323,-0.041386,-0.302531
1765408889.086743,-10.226564,-0.481827,0.738283,-0.698677,-0.055741,-0.285121
1765408889.086993,-9.960544,-0.687470,-0.269010,-0.681420,-0.055741,-0.299477
1765408889.087243,-9.785987,-0.470469,-1.092778,-0.697761,-0.041692,-0.309556
1765408889.087493,-10.375418,-0.284553,0.389168,-0.680809,-0.039554,-0.305127
1765408889.087733,-10.043041,-0.490196,0.078910,-0.676075,-0.031612,-0.298560
1765408889.087983,-9.829028,-0.105811,-0.142276,-0.669508,-0.049938,-0.307265
1765408889.088233,-8.876733,0.039455,-1.242826,-0.676991,-0.027031,-0.319330
1765408889.088483,-8.792442,0.905667,-1.435916,-0.656986,-0.041692,-0.307265
1765408889.088744,-9.405188,0.414873,-0.182329,-0.678977,-0.039095,-0.306043
1765408889.088994,-9.405188,0.414873,-0.182329,-0.678977,-0.025351,-0.306043
1765408889.089244,-8.993303,-0.204448,-0.766380,-0.685391,-0.011606,-0.287412
1765408889.089494,-9.381873,-0.408895,-0.230751,-0.672410,-0.045051,-0.291535
1765408889.089735,-9.820659,-0.810019,-0.190100,-0.667828,-0.042455,-0.290314
1765408889.090068,-9.819464,-1.025227,0.162602,-0.659582,-0.037415,-0.293215
1765408889.090402,-9.670013,-1.151961,0.093257,-0.649044,-0.015882,-0.297644
1765408889.090709,-9.867287,-0.695839,-0.056193,-0.643852,-0.034972,-0.302684
1765408889.090959,-10.105808,-0.026303,0.888929,-0.642630,-0.034361,-0.315970
1765408889.091209,-8.301051,-0.228360,-0.891918,-0.642783,-0.024587,-0.298408
1765408889.091459,-7.816833,-0.041248,-1.868723,-0.646601,-0.024282,-0.308029
1765408889.091748,-8.705164,-0.020325,-0.109995,-0.646754,-0.041233,-0.310930
1765408889.091998,-9.802128,0.263630,0.856647,-0.641256,-0.046731,-0.296270
1765408889.092248,-9.484097,-0.020325,-0.081301,-0.642783,-0.038026,-0.287565
1765408889.092498,-8.833093,-0.581062,-0.895504,-0.643547,-0.023060,-0.274431
1765408889.092707,-9.350788,-1.401243,-0.180536,-0.631787,-0.044746,-0.273820
1765408889.092957,-10.261237,-1.052128,1.097561,-0.619723,-0.044746,-0.291230
1765408889.093207,-10.435197,-0.563128,0.993544,-0.613614,-0.035888,-0.283900
1765408889.093457,-9.873264,-0.632472,0.424438,-0.612087,-0.031460,-0.277486
1765408889.093745,-9.815877,-0.566714,0.209230,-0.612087,-0.041997,-0.277486
1765408889.093995,-9.959349,-1.013869,-0.423242,-0.609949,-0.037263,-0.277791
1765408889.094245,-10.456717,-0.366451,0.885342,-0.599106,-0.037263,-0.292910
1765408889.094495,-10.328789,-0.122549,0.878168,-0.596510,-0.019548,-0.279013
1765408889.094730,-10.191295,-0.280966,0.815997,-0.601702,-0.044288,-0.285427
1765408889.095063,-9.695719,-0.046628,-0.082496,-0.601702,-0.034056,-0.285427
1765408889.095397,-9.034552,-0.692252,-0.872190,-0.591165,-0.054825,-0.260687
1765408889.095727,-9.036345,-1.117886,-0.677905,-0.585667,-0.054825,-0.266337
1765408889.095977,-9.715446,-1.208154,0.343137,-0.589790,-0.035277,-0.272599
1765408889.096227,-10.009563,-1.188426,0.154232,-0.572839,-0.032376,-0.270766
1765408889.096477,-9.801530,-0.742468,-0.010760,-0.565967,-0.036805,-0.272904
1765408889.096740,-9.801530,-0.742468,-0.010760,-0.565967,-0.040928,-0.272904
1765408889.096990,-9.188187,-0.790292,-0.284553,-0.550237,-0.045051,-0.249844
1765408889.097240,-9.029171,-1.181253,-0.888331,-0.557567,-0.042913,-0.257022
1765408889.097490,-9.933643,-0.654591,-0.211621,-0.551306,-0.051924,-0.275500
1765408889.097726,-9.978478,-0.185318,0.618723,-0.559858,-0.051924,-0.282525
1765408889.098059,-9.393829,0.306671,-0.237924,-0.539089,-0.035125,-0.259770
1765408889.098393,-9.023193,-0.537422,-1.575203,-0.552222,-0.034819,-0.241597
1765408889.098700,-10.019128,-1.119082,0.127929,-0.549168,-0.054825,-0.246331
1765408889.098950,-10.490793,-1.609875,0.667145,-0.537561,-0.033750,-0.242819
1765408889.099200,-9.752509,-1.224294,-0.060976,-0.532827,-0.033750,-0.251676
1765408889.099450,-9.690338,-0.422047,-0.235533,-0.532827,-0.017562,-0.251676
1765408889.099662,-9.731586,-0.969034,0.206839,-0.523359,-0.035430,-0.225104
1765408889.099912,-9.843375,-1.299617,0.276184,-0.509767,-0.039248,-0.223424
1765408889.100162,-9.326876,-1.521401,-0.512912,-0.502437,-0.027947,-0.226631
1765408889.100412,-8.927546,-1.286466,-0.143472,-0.504422,-0.027947,-0.237321
1765408889.100728,-8.927546,-1.286466,-0.143472,-0.504422,-0.040470,-0.237321
1765408889.100978,-9.705284,-0.999522,-0.228360,-0.501215,-0.041997,-0.247553
1765408889.101228,-10.129124,-0.502152,0.755619,-0.487318,-0.041997,-0.254884
1765408889.101478,-10.182925,-0.107006,0.962458,-0.485791,-0.019242,-0.241444
1765408889.101777,-9.659253,-0.817790,0.161406,-0.488234,-0.037721,-0.230602
1765408889.102110,-9.460783,-0.436394,-0.075323,-0.484416,-0.029780,-0.231212
1765408889.102444,-8.883308,-1.273912,-0.700622,-0.475864,-0.034361,-0.204945
1765408889.102788,-9.466163,-0.966045,0.064562,-0.468075,-0.039859,-0.219911
1765408889.103038,-9.466163,-0.966045,0.064562,-0.468075,-0.012523,-0.219911
1765408889.103288,-9.038138,-1.256576,-0.295313,-0.454178,-0.016952,-0.191354
1765408889.103538,-9.233619,-1.159732,-0.407700,-0.447153,-0.030238,-0.190743
1765408889.103789,-9.367526,-1.472979,0.079507,-0.444557,-0.028558,-0.183718
1765408889.104039,-9.604255,-1.729435,0.095050,-0.430507,-0.018631,-0.189521
1765408889.104289,-9.145145,-1.777857,-0.243902,-0.427148,-0.014966,-0.202502
1765408889.104539,-9.340028,-1.294835,0.515304,-0.433867,-0.018326,-0.227089
1765408889.104795,-9.895982,-0.324605,0.627092,-0.429286,-0.008247,-0.229838
1765408889.105045,-10.125537,0.083692,0.371832,-0.419817,-0.034972,-0.211512
1765408889.105295,-9.925274,-0.102822,0.306671,-0.427300,-0.034972,-0.197462
1765408889.105545,-9.787780,-0.911047,0.548780,-0.432493,-0.019395,-0.193186
1765408889.105778,-9.308942,-1.003706,-0.071736,-0.417526,-0.002902,-0.179747
1765408889.106111,-9.267694,-0.847680,-0.293520,-0.417526,-0.030696,-0.181732
1765408889.106445,-9.848158,-0.612147,0.517695,-0.403629,-0.017410,-0.167377
1765408889.106763,-9.306551,-1.630798,-0.614538,-0.389732,-0.017410,-0.138056
1765408889.107013,-9.415350,-1.580583,-0.260641,-0.381333,-0.015882,-0.152258
1765408889.107263,-9.622189,-1.818508,-0.077116,-0.382707,-0.013286,-0.147677
1765408889.107513,-10.217599,-1.719273,0.496772,-0.368657,-0.031460,-0.156076
1765408889.107727,-9.913317,-1.785031,0.104615,-0.357967,-0.013897,-0.156687
1765408889.107977,-9.330462,-2.085126,-0.280966,-0.351095,-0.013897,-0.161268
1765408889.108227,-9.442849,-2.085724,0.084290,-0.350178,-0.007330,-0.182038
1765408889.108477,-10.043041,-0.587040,0.672525,-0.337350,-0.020617,-0.194561
1765408889.108741,-10.328789,0.007174,0.989957,-0.349415,-0.023060,-0.189216
1765408889.108991,-9.544475,0.045433,0.308465,-0.360716,-0.014355,-0.166155
1765408889.109241,-8.980151,-0.508130,-1.138809,-0.348499,-0.019090,-0.140346
1765408889.109491,-9.217479,-1.245815,-0.318627,-0.354149,-0.037721,-0.136070
1765408889.109815,-10.366450,-0.762195,0.943926,-0.337656,-0.011912,-0.141263
1765408889.110065,-10.178144,-0.948111,0.896700,-0.334143,-0.000764,-0.119730
1765408889.110315,-10.054996,-1.152558,0.333572,-0.339794,-0.013592,-0.117286
1765408889.110565,-9.907937,-1.474175,-0.025108,-0.329562,-0.011454,-0.110872
1765408889.110746,-9.929459,-1.831061,0.260641,-0.314596,-0.008858,-0.112705
1765408889.110996,-9.659253,-1.384505,0.475849,-0.302989,0.013897,-0.110414
1765408889.111246,-9.424317,-2.099474,0.334170,-0.298102,0.010537,-0.101862
1765408889.111496,-10.358081,-1.738402,0.820182,-0.286496,-0.011606,-0.118202
1765408889.111777,-10.585843,-1.435318,0.873984,-0.284969,-0.007025,-0.114079
1765408889.112027,-10.024508,-1.449067,0.436394,-0.278860,-0.007483,-0.110108
1765408889.112277,-9.640123,-1.415590,0.126734,-0.274126,-0.000153,-0.108887
1765408889.112527,-9.545671,-1.330703,0.076518,-0.267254,-0.000153,-0.102167
1765408889.112786,-9.903154,-1.027618,0.728120,-0.265268,-0.014966,-0.107054
1765408889.113036,-10.333572,-0.512315,0.833333,-0.266032,-0.010537,-0.107207
1765408889.113286,-9.811692,-0.404113,0.445959,-0.265726,0.000611,-0.088423
1765408889.113536,-9.479315,-0.833333,0.055595,-0.278555,0.002596,-0.080787
1765408889.113716,-9.317311,-0.955284,-0.053802,-0.266032,-0.003971,-0.072846
1765408889.113966,-9.567192,-1.353419,0.245098,-0.268017,-0.004276,-0.070097
1765408889.114216,-9.583930,-1.172884,0.422047,-0.260381,0.000916,-0.078038
1765408889.114466,-9.418937,-1.216523,-0.321616,-0.251066,0.002443,-0.069028
1765408889.114715,-9.664036,-1.153754,0.506934,-0.246026,-0.020006,-0.071319
1765408889.114965,-9.801530,-1.135820,0.370636,-0.245262,-0.002443,-0.062614
1765408889.115215,-9.369320,-1.334290,0.325203,-0.239001,-0.018021,-0.051771
1765408889.115465,-9.550453,-1.087996,0.099833,-0.229227,-0.022297,-0.051924
1765408889.115756,-9.555834,-1.688785,-0.203252,-0.222508,-0.022297,-0.034056
1765408889.116006,-9.992825,-1.403634,0.147059,-0.213956,-0.018937,-0.046884
1765408889.116256,-9.991032,-1.603300,0.665949,-0.207389,-0.004887,-0.036957
1765408889.116506,-9.825441,-1.611669,0.102822,-0.200975,-0.005345,-0.035583
1765408889.116735,-9.741750,-1.567432,0.408297,-0.198837,-0.012981,-0.029932
1765408889.116985,-10.172164,-1.673242,0.748446,-0.195477,-0.012981,-0.033139
1765408889.117235,-10.172164,-1.673242,0.748446,-0.195477,-0.012523,-0.033139
1765408889.117485,-10.023911,-1.472381,0.303682,-0.174249,-0.004887,-0.039401
1765408889.117742,-9.989837,-1.258967,0.451339,-0.166155,-0.005192,-0.028558
1765408889.117992,-10.330583,-1.203969,0.964849,-0.169821,-0.012981,-0.028863
1765408889.118242,-10.503346,-1.226088,1.157939,-0.177304,-0.002749,-0.032529
1765408889.118492,-10.503346,-1.226088,1.157939,-0.177304,-0.008247,-0.032529
1765408889.118724,-9.885221,-0.952893,0.657580,-0.156840,-0.015730,-0.018937
1765408889.118974,-10.002390,-0.841105,1.074247,-0.152258,-0.015730,-0.010537
1765408889.119224,-9.447632,-0.932568,0.229555,-0.147371,-0.012981,-0.006567
1765408889.119474,-9.014825,-0.844094,-0.506934,-0.157909,-0.016341,-0.004123
1765408889.119722,-9.478717,-0.817193,-0.243902,-0.150426,-0.029322,0.007178
1765408889.119972,-10.247488,-1.138809,0.813606,-0.146302,0.001222,0.013286
1765408889.120222,-10.395742,-1.254184,1.272118,-0.139888,0.001222,0.012370
1765408889.120472,-9.675393,-1.264945,-0.043042,-0.133779,-0.004276,0.009621
1765408889.120782,-10.083690,-0.589431,0.589431,-0.127213,-0.017715,0.002596
1765408889.120982,-10.280366,-0.553563,0.523075,-0.120340,-0.014050,0.026114
1765408889.121182,-9.950979,-1.181851,0.325203,-0.120646,-0.013744,0.039859
1765408889.121382,-9.799736,-1.439502,0.524868,-0.119119,0.004429,0.032070
1765408889.121582,-9.640123,-1.590148,0.133907,-0.105985,0.005345,0.037263
1765408889.121781,-10.173361,-0.951100,0.671927,-0.098960,-0.002138,0.027336
1765408889.122031,-10.065159,-0.952893,0.511717,-0.100182,-0.002138,0.043524
1765408889.122281,-9.453609,-1.576996,-0.420851,-0.097891,-0.000764,0.047342
1765408889.122531,-9.341821,-1.565638,-0.163797,-0.095600,-0.007178,0.034514
1765408889.122739,-9.655068,-1.299020,0.392157,-0.095600,-0.008247,0.034514
1765408889.122989,-10.264226,-1.077236,0.729316,-0.079718,-0.009621,0.036499
1765408889.123239,-9.768052,-1.325920,0.037661,-0.085521,0.009621,0.044593
1765408889.123489,-9.486489,-1.328312,-0.115973,-0.073915,0.013286,0.047800
1765408889.123747,-9.555235,-1.004902,0.133907,-0.069486,0.010232,0.051160
1765408889.123997,-9.877449,-1.140602,0.163797,-0.075900,-0.012217,0.058032
1765408889.124247,-10.157818,-0.883548,0.815399,-0.067959,0.003512,0.062003
1765408889.124497,-9.116450,-1.268532,-0.292922,-0.057574,0.013592,0.076664
1765408889.124720,-9.256335,-1.139407,-0.196078,-0.059101,-0.004734,0.071777
1765408889.124920,-10.242108,-0.582855,0.828551,-0.053603,0.002902,0.074526
1765408889.125120,-10.490194,-1.070062,1.053324,-0.040164,-0.005956,0.109192
1765408889.125320,-9.940817,-1.695361,-0.065758,-0.048411,-0.014355,0.096059
1765408889.125520,-9.983260,-1.339072,0.272597,-0.051771,0.003054,0.087048
1765408889.125763,-9.849353,-1.695959,0.175155,-0.033598,0.005040,0.104611
1765408889.126013,-10.001792,-1.321138,0.523075,-0.031154,-0.024282,0.089492
1765408889.126263,-10.035867,-0.958871,0.744859,-0.029932,0.001222,0.089339
1765408889.126513,-9.372907,-1.076040,0.130320,-0.014661,-0.015272,0.106749
1765408889.126705,-9.689142,-1.037781,0.602582,-0.016341,-0.015272,0.106138
1765408889.126955,-9.863102,-0.932568,0.749641,-0.021380,-0.014050,0.104305
1765408889.127205,-9.561213,-0.911645,0.214012,-0.007789,-0.001680,0.110261
1765408889.127455,-9.048899,-1.134624,-0.167384,-0.000305,0.002749,0.119424
1765408889.127751,-9.588712,-1.023434,0.954687,0.000000,0.003360,0.112246
1765408889.127951,-10.214011,-0.630081,1.733620,0.009010,0.018021,0.115759
1765408889.128151,-9.761477,-0.584648,0.865614,0.010079,0.010843,0.128587
1765408889.128351,-9.496651,-0.615734,0.746054,0.008858,0.023213,0.131031
1765408889.128551,-9.633547,-0.891918,1.370158,0.005192,0.023213,0.128282
1765408889.128715,-9.554040,-0.787900,0.996533,0.017257,0.023366,0.128282
1765408889.128965,-9.475131,-0.420851,0.869201,0.010537,0.017104,0.119424
1765408889.129215,-9.257531,0.033477,0.929579,0.025198,0.034514,0.133779
1765408889.129465,-8.839071,-0.413080,0.291129,0.025656,0.035277,0.156534
1765408889.129824,-9.305953,-0.740674,0.987566,0.017410,0.021228,0.144775
1765408889.130024,-9.040529,-0.689263,0.864419,0.019242,0.055131,0.143553
1765408889.130224,-8.726685,-0.517695,0.328192,0.034056,0.053603,0.150731
1765408889.130424,-8.318387,-0.490794,0.051411,0.034056,0.061392,0.149509
1765408889.130624,-8.466641,-0.914634,0.263630,0.034819,0.060934,0.149509
1765408889.130747,-8.961022,-0.671329,1.144189,0.038637,0.084452,0.142179
1765408889.130997,-8.585604,-0.843496,0.653993,0.033903,0.098349,0.142484
1765408889.131247,-8.718315,-0.763988,1.065280,0.034819,0.090103,0.138514
1765408889.131497,-9.429697,-0.751435,1.779651,0.043830,0.098502,0.134390
1765408889.131816,-9.225250,-1.219512,1.052128,0.044440,0.103084,0.137292
1765408889.132066,-9.127211,-0.842898,0.936155,0.049480,0.103084,0.117133
1765408889.132316,-9.102103,-0.264228,1.414395,0.054825,0.117897,0.121104
1765408889.132566,-9.003467,-0.646820,1.080225,0.044440,0.111177,0.132405
1765408889.132693,-9.380678,-0.682688,1.368962,0.039248,0.113468,0.125533
1765408889.132943,-9.122428,-1.176470,1.003706,0.039401,0.127671,0.124922
1765408889.133193,-8.955045,-0.976207,0.917025,0.048564,0.127671,0.115606
1765408889.133443,-9.145145,-0.648015,1.239239,0.048564,0.123853,0.115606
1765408889.133670,-9.152318,-0.647417,1.519608,0.049327,0.133474,0.114079
1765408889.133870,-9.108081,-0.777140,1.165710,0.045204,0.130420,0.114995
1765408889.134070,-9.229435,-1.093974,1.451458,0.039706,0.131183,0.112705
1765408889.134270,-9.522954,-1.453252,1.501076,0.036957,0.120340,0.098960
1765408889.134470,-9.522954,-1.453252,1.501076,0.036957,0.130420,0.098960
1765408889.134692,-9.411763,-0.936753,1.526781,0.045051,0.134696,0.084910
1765408889.134942,-9.255140,-0.850072,1.394070,0.041539,0.135307,0.084910
1765408889.135192,-9.255140,-0.850072,1.394070,0.041539,0.125227,0.084910
1765408889.135442,-9.497847,-1.047346,1.288857,0.022755,0.131183,0.075442
1765408889.135706,-9.597081,-0.966643,1.269727,0.023213,0.127976,0.076053
1765408889.135956,-9.826636,-0.849474,1.507652,0.022755,0.129809,0.071013
1765408889.136206,-10.057388,-1.048541,1.523792,0.015730,0.129809,0.068722
1765408889.136456,-10.072930,-0.849474,1.238642,0.015424,0.125533,0.061239
1765408889.136700,-10.310257,-0.914634,1.547106,0.007330,0.123395,0.055283
1765408889.136950,-10.288138,-0.776542,1.138211,0.011148,0.124006,0.055894
1765408889.137200,-10.603777,-0.758010,1.590148,0.007941,0.121104,0.049480
1765408889.137450,-10.770562,-0.715567,1.741392,-0.000305,0.121104,0.049327
1765408889.137665,-10.532041,-0.920612,1.116690,-0.000611,0.108581,0.049175
1765408889.137865,-10.619319,-0.875179,1.293639,-0.013134,0.099418,0.038637
1765408889.138065,-11.042562,-0.650406,1.796987,-0.011301,0.096669,0.036041
1765408889.138265,-11.262552,-0.700024,1.880679,-0.014813,0.089950,0.035430
1765408889.138465,-10.804638,-0.735892,0.878766,-0.027489,0.081856,0.026114
1765408889.138680,-10.802844,-0.703013,0.783118,-0.027489,0.065057,0.026114
1765408889.138930,-10.992347,-0.598996,1.343257,-0.021991,0.056963,0.022144
1765408889.139180,-11.025824,-0.485414,1.398852,-0.030391,0.056963,0.021533
1765408889.139430,-11.025824,-0.485414,1.398852,-0.030391,0.049327,0.021533
1765408889.139676,-10.589430,-0.841702,0.481827,-0.038179,0.039554,0.018937
1765408889.139926,-10.729315,-0.917025,0.728120,-0.029780,0.029932,0.018937
1765408889.140176,-10.934958,-0.974414,1.010282,-0.028253,0.023518,0.017562
1765408889.140426,-10.851864,-1.193209,0.705404,-0.022144,0.023518,0.015119
1765408889.140715,-10.851864,-1.193209,0.705404,-0.022144,0.015730,0.015119
1765408889.140915,-10.524269,-1.449665,0.231946,-0.001680,0.009468,0.007330
1765408889.141115,-10.597797,-1.171090,0.658776,0.004123,0.011606,-0.001374
1765408889.141315,-10.376015,-0.769966,0.494978,0.010385,0.015730,-0.004887
1765408889.141515,-10.126135,-0.439383,0.210426,0.012217,0.003971,-0.005651
1765408889.141724,-10.064561,-0.169775,0.299498,0.014966,0.000611,-0.003818
1765408889.141924,-9.854136,-0.141081,0.095050,0.018326,-0.001527,-0.001527
1765408889.142124,-9.741750,0.317432,0.016738,0.015272,-0.001222,-0.006414
1765408889.142324,-9.986848,0.567910,0.349115,0.010232,-0.001527,0.001680
1765408889.142524,-10.071735,0.590029,0.291726,0.003665,-0.006414,0.006720
1765408889.142742,-10.234934,0.379005,0.367049,-0.001833,-0.006261,0.012675
1765408889.142942,-9.903154,-0.009565,0.034672,0.001985,-0.001222,0.012523
1765408889.143142,-9.947392,-0.016738,0.204448,-0.002291,-0.007941,0.003665
1765408889.143342,-10.214011,0.139885,0.523673,-0.003665,-0.007025,0.001833
1765408889.143542,-10.124342,0.184122,0.338355,-0.005040,-0.005345,0.003665
1765408889.143690,-9.990434,0.209230,0.228360,-0.006720,-0.005803,0.001374
1765408889.143890,-9.968913,0.223577,0.322214,-0.008399,-0.008705,0.002291
1765408889.144090,-10.006575,0.213415,0.296509,-0.010690,-0.008858,0.004123
1765408889.144290,-10.006575,0.213415,0.296509,-0.010690,-0.013439,0.004123
1765408889.144490,-10.011955,-0.001196,0.266619,-0.010996,-0.005651,0.007178
1765408889.144751,-9.998206,0.004782,0.353898,-0.013134,-0.012370,0.003207
1765408889.144951,-10.169774,0.070540,0.546389,-0.010232,-0.013592,-0.000764
1765408889.145151,-10.164991,0.031086,0.479436,-0.010996,-0.013592,0.000458
1765408889.145351,-9.997607,0.016738,0.216404,-0.011454,-0.014355,0.002749
1765408889.145551,-9.945600,-0.038259,0.315638,-0.009927,-0.013897,-0.000916
1765408889.145669,-9.986848,-0.022716,0.402319,-0.007330,-0.016188,-0.002443
1765408889.145869,-10.045432,0.094452,0.483620,-0.010079,-0.011912,-0.003512
1765408889.146069,-9.903752,0.112386,0.257652,-0.006567,-0.011912,-0.001222
1765408889.146269,-9.710664,-0.025108,0.133309,-0.005956,-0.012370,-0.003360
1765408889.146469,-9.809898,-0.001196,0.322214,-0.008858,-0.013744,-0.007636
1765408889.146731,-9.943806,0.075323,0.462099,-0.007178,-0.016188,-0.006720
1765408889.146931,-9.856527,0.167384,0.308465,-0.007941,-0.012828,-0.007330
1765408889.147131,-9.725011,0.153635,0.261836,-0.010537,-0.010690,-0.004581
1765408889.147331,-9.733380,0.043042,0.350311,-0.009468,-0.014050,-0.003818
1765408889.147531,-9.832614,-0.001793,0.456121,-0.009163,-0.017410,-0.005803
1765408889.147703,-9.877449,0.056193,0.338953,-0.010690,-0.010537,-0.003665
1765408889.147903,-9.824244,0.099235,0.304280,-0.010232,-0.007789,-0.004276
1765408889.148103,-9.845766,0.025108,0.345528,-0.015119,-0.008094,-0.004276
1765408889.148303,-9.965326,-0.038259,0.439383,-0.013897,-0.007483,-0.005803
1765408889.148503,-9.963533,-0.047824,0.426829,-0.013744,-0.006414,-0.005192
1765408889.148766,-9.821855,-0.069345,0.296509,-0.012675,-0.009774,-0.004734
1765408889.149016,-9.789574,-0.101626,0.308465,-0.011606,-0.009468,-0.006720
1765408889.149266,-9.911524,-0.074725,0.449546,-0.013439,-0.009468,-0.006720
1765408889.149516,-9.978478,-0.058584,0.510521,-0.012370,-0.007789,-0.002902
1765408889.149671,-9.870276,-0.081899,0.351506,-0.014661,-0.007789,-0.003818
1765408889.149871,-9.789574,-0.129125,0.292324,-0.014661,-0.005498,-0.002138
1765408889.150071,-9.876852,-0.141679,0.442372,-0.015424,-0.009468,-0.003360
1765408889.150271,-10.026302,-0.068747,0.516499,-0.010232,-0.007483,-0.004429
1765408889.150471,-9.918698,-0.047824,0.401722,-0.011912,-0.002902,-0.002443
1765408889.150766,-9.805116,-0.081899,0.269010,-0.010232,-0.006414,0.000764
1765408889.150966,-9.877449,-0.144668,0.404113,-0.013744,-0.006414,-0.001374
1765408889.151166,-9.960544,-0.191296,0.438785,-0.013744,-0.005651,-0.001374
1765408889.151366,-9.881634,-0.163797,0.275586,-0.010537,-0.002138,-0.002291
1765408889.151566,-9.766856,-0.186514,0.199665,-0.010537,-0.001833,-0.002291
1765408889.151748,-9.904350,-0.141679,0.304878,-0.009927,-0.005651,0.001527
1765408889.151948,-10.016738,-0.135103,0.451339,-0.008552,-0.005651,0.000153
1765408889.152148,-9.971903,-0.160210,0.331181,-0.003054,0.000153,0.000305
1765408889.152348,-9.829028,-0.185318,0.207437,-0.005498,-0.000916,-0.002749
1765408889.152548,-9.908535,-0.160210,0.303085,-0.009010,-0.002138,-0.001833
1765408889.152737,-10.102820,-0.071736,0.442970,-0.006261,-0.007636,-0.000764
1765408889.152937,-10.056191,0.023912,0.389168,-0.003818,-0.002902,-0.001833
1765408889.153137,-9.929459,0.017934,0.210426,-0.006109,0.000611,0.000458
1765408889.153337,-9.998802,-0.081899,0.320421,-0.005040,-0.007330,0.003971
1765408889.153537,-10.145862,-0.050813,0.426231,-0.003665,-0.007330,0.001833
1765408889.153740,-10.145862,-0.050813,0.426231,-0.003665,-0.004734,0.001833
1765408889.153940,-9.948587,0.002391,0.304878,-0.009010,-0.001527,0.001527
1765408889.154140,-9.912720,-0.078910,0.290531,-0.005040,-0.005498,0.003665
1765408889.154340,-9.999999,-0.009565,0.321616,-0.005498,-0.006109,0.002138
1765408889.154540,-9.937828,0.011358,0.247489,-0.005956,-0.006109,0.000916
1765408889.154755,-9.952772,0.012554,0.345528,-0.008247,-0.008705,-0.000764
1765408889.154955,-10.032280,-0.037661,0.432807,-0.004276,-0.009163,0.000458
1765408889.155155,-10.038258,-0.011956,0.351506,-0.002291,-0.009316,0.000611
1765408889.155355,-9.903752,0.029292,0.202056,-0.009010,-0.008858,-0.000305
1765408889.155555,-9.768052,0.009565,0.192492,-0.007025,-0.008858,-0.002443
1765408889.155727,-9.896580,0.009565,0.325203,-0.007025,-0.009774,-0.002443
1765408889.155927,-9.974891,0.015543,0.303682,-0.007483,-0.003971,0.002749
1765408889.156127,-9.924676,0.050215,0.291129,-0.007178,-0.003971,0.002596
1765408889.156327,-9.882831,-0.008967,0.284553,-0.006414,-0.007636,0.000305
1765408889.156527,-9.957555,-0.029890,0.402917,-0.008247,-0.007636,-0.000458
1765408889.156766,-10.070539,0.007174,0.486609,-0.007025,-0.009927,-0.000611
1765408889.156966,-9.934240,0.030488,0.376016,-0.008552,-0.006414,-0.001527
1765408889.157166,-9.901959,0.020325,0.269608,-0.007483,-0.006567,-0.000611
1765408889.157366,-9.945002,-0.007174,0.374223,-0.007483,-0.009010,-0.000611
1765408889.157566,-10.015541,0.012554,0.457317,-0.006567,-0.010232,-0.002596
1765408889.157751,-9.946198,0.043042,0.343137,-0.008094,-0.006872,-0.003054
1765408889.157951,-9.878048,0.037064,0.308465,-0.007483,-0.009468,-0.001374
1765408889.158151,-9.949782,0.011956,0.414873,-0.009010,-0.009774,-0.001374
1765408889.158351,-9.949782,0.011956,0.414873,-0.009010,-0.007483,-0.001374
1765408889.158551,-9.878646,0.001196,0.304878,-0.007789,-0.006567,0.000153
1765408889.158698,-9.831419,-0.037661,0.338355,-0.010996,-0.009316,-0.000153
1765408889.158898,-9.918698,-0.095648,0.377212,-0.009927,-0.007789,-0.000611
1765408889.159098,-9.946198,-0.021521,0.402319,-0.007178,-0.003971,-0.004276
1765408889.159298,-9.872069,0.001196,0.247489,-0.010385,-0.003818,-0.002749
1765408889.159498,-9.765661,-0.081301,0.257652,-0.009316,-0.006261,-0.000611
1765408889.159730,-9.949782,-0.095648,0.353898,-0.010537,-0.009468,-0.002749
1765408889.159930,-10.051410,-0.054998,0.497370,-0.007178,-0.000764,-0.004123
1765408889.160130,-9.953370,-0.062171,0.370636,-0.007025,-0.000764,-0.001680
1765408889.160330,-9.911524,-0.106408,0.296509,-0.010079,-0.004581,-0.000153
1765408889.160530,-10.019726,-0.069345,0.414873,-0.009010,-0.007789,-0.003971
1765408889.160722,-10.075322,-0.039455,0.451339,-0.009774,-0.005803,-0.001374
1765408889.160922,-9.936632,-0.064562,0.313247,-0.008399,-0.004123,-0.001222
1765408889.161122,-9.801530,-0.092659,0.169177,-0.006414,-0.004429,0.000153
1765408889.161322,-9.854136,-0.043042,0.233142,-0.008705,-0.006414,0.001069
1765408889.161522,-10.023911,-0.010760,0.474653,-0.006720,-0.007636,0.000000
1765408889.161751,-10.001194,-0.059780,0.321019,-0.006872,-0.007330,-0.001222
1765408889.161951,-9.872069,-0.085485,0.208034,-0.006872,-0.004429,-0.001222
1765408889.162151,-9.943806,-0.034672,0.347920,-0.009468,-0.007636,0.000153
1765408889.162351,-10.007771,-0.049020,0.471664,-0.008094,-0.009774,-0.000458
1765408889.162551,-10.037063,-0.047824,0.377810,-0.007636,-0.007483,-0.002902
1765408889.162783,-9.884026,-0.001196,0.243305,-0.006567,-0.007636,-0.000916
1765408889.162983,-9.827832,-0.047824,0.208034,-0.007636,-0.006720,0.000611
1765408889.163183,-9.958152,-0.053802,0.425634,-0.008094,-0.007483,0.001069
1765408889.163383,-10.034670,-0.040053,0.432209,-0.008094,-0.009010,0.000153
1765408889.163583,-9.964130,-0.040650,0.265423,-0.005040,-0.005803,0.003512
1765408889.163729,-9.917501,-0.014347,0.235533,-0.009621,-0.005345,-0.000458
1765408889.163929,-9.952174,-0.033477,0.336561,-0.009468,-0.009163,-0.001833
1765408889.164129,-10.002390,-0.013749,0.423840,-0.007330,-0.010690,-0.000764
1765408889.164329,-9.925871,-0.022119,0.253467,-0.008705,-0.004734,0.000153
1765408889.164529,-9.879243,-0.021521,0.254663,-0.009163,-0.007941,-0.001069
1765408889.164886,-9.985652,-0.028694,0.430416,-0.011148,-0.007025,-0.003360
1765408889.165086,-10.051410,-0.007771,0.494978,-0.004581,-0.008552,0.001222
1765408889.165286,-9.971304,0.005380,0.271401,-0.007636,-0.009621,0.000611
1765408889.165486,-9.887612,0.008369,0.283955,-0.007636,-0.005956,0.000611
1765408889.165686,-9.966521,0.019727,0.338355,-0.008552,-0.009774,0.000458
1765408889.165764,-9.991630,-0.022716,0.416069,-0.007941,-0.013897,0.000764
1765408889.165964,-9.991630,-0.022716,0.416069,-0.007941,-0.005956,0.000764
1765408889.166164,-9.850550,0.003587,0.254663,-0.006414,-0.005803,0.001527
1765408889.166364,-9.924078,0.019130,0.424438,-0.007636,-0.006567,-0.001833
1765408889.166564,-9.994021,-0.023314,0.492587,-0.008552,-0.008705,-0.001985
1765408889.166731,-9.959946,-0.002989,0.290531,-0.008705,-0.008247,-0.003360
1765408889.166931,-9.851745,-0.003587,0.250478,-0.008399,-0.008705,-0.000153
1765408889.167131,-9.919893,0.025108,0.386179,-0.009163,-0.006872,0.002291
1765408889.167331,-9.925871,-0.001793,0.423242,-0.007178,-0.004581,0.000000
1765408889.167531,-9.867287,-0.014347,0.225968,-0.009621,-0.003360,-0.001527
1765408889.167770,-9.813485,-0.004782,0.159015,-0.008399,-0.007330,-0.001222
1765408889.167970,-9.916306,-0.016738,0.379005,-0.011301,-0.009621,0.000611
1765408889.168170,-10.029889,-0.039455,0.493783,-0.009621,-0.006109,-0.001222
1765408889.168370,-9.932447,-0.027499,0.300693,-0.006872,-0.006109,-0.001069
1765408889.168570,-9.879243,-0.058584,0.260641,-0.007178,-0.005192,-0.000305
1765408889.168741,-9.985652,-0.040650,0.388570,-0.010385,-0.005651,-0.001527
1765408889.168941,-10.131515,-0.046628,0.565519,-0.010537,-0.008552,-0.001527
1765408889.169141,-10.008368,-0.044835,0.334768,-0.005498,-0.003054,-0.002138
1765408889.169341,-9.838593,-0.046628,0.151841,-0.007789,-0.003054,-0.001527
1765408889.169541,-9.838593,-0.046628,0.151841,-0.007789,-0.005956,-0.001527
1765408889.169750,-10.020923,-0.063367,0.496174,-0.006872,-0.006414,-0.004734
1765408889.169950,-10.099831,-0.026901,0.395744,-0.007330,-0.006414,-0.002749
1765408889.170150,-9.966521,-0.028694,0.329986,-0.009163,-0.005192,-0.001527
1765408889.170350,-9.945600,-0.069345,0.364658,-0.010079,-0.007330,-0.001069
1765408889.170550,-9.945600,-0.069345,0.364658,-0.010079,-0.005803,-0.001069
1765408889.170745,-10.019128,-0.008967,0.399928,-0.009316,-0.003971,-0.000458
1765408889.170995,-9.873264,0.015543,0.237327,-0.008705,-0.003971,-0.001527
1765408889.171245,-9.525346,-0.354495,0.479436,-0.008858,-0.007178,-0.000764
1765408889.171495,-9.200740,0.017336,-0.104615,-0.012217,-0.007636,-0.010385
1765408889.171826,-9.615016,0.598996,0.009565,-0.009621,-0.006261,-0.008705
1765408889.172026,-9.839788,0.115973,0.562530,-0.002749,0.005803,0.012523
1765408889.172226,-9.753705,-0.357484,0.783118,-0.007789,0.007178,0.010843
1765408889.172426,-9.926469,-0.087279,0.878766,-0.015272,0.007330,-0.007636
1765408889.172626,-9.622189,-0.231349,-0.078312,-0.013439,-0.007789,-0.002291
1765408889.172750,-9.597081,-0.384983,-0.366451,-0.002902,-0.007789,0.000611
1765408889.172950,-10.150645,0.185916,0.631875,0.000764,0.019548,-0.006872
1765408889.173150,-10.269009,0.455524,1.150167,-0.007941,0.019548,-0.003818
1765408889.173350,-9.931850,0.175753,0.415471,-0.012828,0.011454,0.004581
1765408889.173550,-9.806311,-0.461502,0.049020,-0.007483,-0.011454,0.011759
1765408889.173812,-9.591701,-0.634864,-0.075323,-0.002749,-0.001680,-0.004581
1765408889.174012,-9.978478,0.204448,0.658776,-0.004887,0.007483,-0.016493
1765408889.174212,-9.937230,0.572095,0.338355,-0.005803,0.010996,-0.005651
1765408889.174412,-9.904947,0.197872,0.174558,-0.010232,0.003971,0.009621
1765408889.174612,-9.956957,-0.310856,0.395744,-0.008094,0.005040,0.009927
1765408889.175768,-10.053204,-0.400526,0.599593,-0.008247,0.014355,-0.000458
1765408889.175968,-9.913916,-0.143472,0.374223,-0.009316,0.005956,-0.008247
1765408889.176168,-9.872667,0.114778,0.214012,-0.007941,0.000611,-0.004734
1765408889.176368,-9.752509,0.206241,0.074127,-0.005345,0.007483,-0.001374
1765408889.176568,-9.909132,0.136298,0.453132,-0.007941,0.010843,0.001680
1765408889.175915,-9.984456,-0.007771,0.423242,-0.008858,0.006567,0.003207
1765408889.176115,-9.947392,-0.176949,0.219990,-0.014355,0.002291,0.003512
1765408889.176315,-9.867287,-0.194883,0.152439,-0.010232,0.006414,-0.001222
1765408889.176515,-9.895385,0.009565,0.343735,-0.005956,0.009621,-0.005956
1765408889.176715,-10.042442,0.243902,0.581659,-0.007941,0.007941,-0.004734
1765408889.176810,-10.020324,0.178144,0.302487,-0.011454,0.005956,0.001985
1765408889.177010,-9.909731,-0.149450,0.093257,-0.007789,0.007636,0.008552
1765408889.177210,-9.992825,-0.341942,0.404113,-0.007025,0.009468,0.002138
1765408889.177410,-10.124342,-0.163797,0.562530,-0.006872,0.008094,-0.006414
1765408889.177610,-10.005977,0.113582,0.316834,-0.007330,0.007178,-0.007483
1765408889.177821,-9.849353,0.222979,0.097441,-0.004887,0.007178,-0.000153
1765408889.178021,-9.946198,0.032281,0.333572,-0.009316,0.006872,0.004581
1765408889.178221,-10.138689,-0.123745,0.536824,-0.010537,0.007636,0.003665
1765408889.178421,-10.109396,-0.234338,0.358680,-0.009774,0.007636,0.000611
1765408889.178621,-10.109396,-0.234338,0.358680,-0.009774,0.009316,0.000611
1765408889.178714,-10.072930,0.082496,0.440579,-0.006109,0.006109,-0.005956
1765408889.178914,-10.197870,0.112386,0.559541,-0.008399,0.003054,-0.001833
1765408889.179114,-10.018531,-0.039455,0.175753,-0.006720,0.002749,0.001833
1765408889.179314,-9.846962,-0.010163,0.035868,-0.006109,0.002749,0.001222
1765408889.179514,-9.922284,0.010760,0.344333,-0.004276,0.004887,-0.001222
1765408889.179850,-10.092059,-0.071138,0.535031,-0.009163,0.004276,0.000153
1765408889.180050,-10.135101,-0.130918,0.345528,-0.008858,0.000153,-0.000916
1765408889.180250,-10.011955,-0.063367,0.159015,-0.005651,0.003665,-0.000611
1765408889.180450,-9.916306,-0.007174,0.215806,-0.008094,0.000305,-0.002443
1765408889.180650,-9.946198,0.001196,0.252272,-0.005803,0.001680,0.001069
1765408889.180769,-10.031682,-0.043639,0.350311,-0.007636,-0.003971,-0.000458
1765408889.180969,-10.097439,-0.060378,0.304878,-0.008705,-0.000764,-0.001527
1765408889.181169,-10.032280,-0.051411,0.324605,-0.009774,0.001069,-0.000153
1765408889.181369,-10.056191,-0.111789,0.398733,-0.008858,-0.001527,-0.001680
1765408889.181569,-10.047822,-0.107006,0.355093,-0.007789,-0.004429,-0.003054
1765408889.181815,-9.954566,0.059780,0.139287,-0.007636,-0.003665,-0.004734
1765408889.182015,-9.895982,0.054998,0.132712,-0.007330,-0.003207,-0.000611
1765408889.182215,-9.940218,-0.028097,0.362865,-0.007636,-0.006109,0.001680
1765408889.182415,-10.102820,-0.130320,0.484218,-0.009163,-0.006109,0.000764
1765408889.182615,-10.066953,-0.162004,0.322214,-0.010537,-0.004429,-0.000764
1765408889.182805,-9.980869,-0.034075,0.261836,-0.005498,-0.004734,-0.003360
1765408889.183005,-9.933045,0.050215,0.288140,-0.004276,-0.004123,-0.004123
1765408889.183205,-10.022716,0.050215,0.406504,-0.006109,-0.009774,-0.001833
1765408889.183405,-10.059181,0.094452,0.364658,-0.007636,-0.005651,-0.000916
1765408889.183605,-10.059181,0.094452,0.364658,-0.007636,-0.004123,-0.000916
1765408889.183741,-9.875656,-0.204448,0.243902,-0.005498,-0.009927,0.001222
1765408889.185701,-9.999401,-0.159015,0.354495,-0.010996,-0.009927,-0.004123
1765408889.187765,-10.065758,0.039455,0.404113,-0.006414,-0.008399,-0.003512
1765408889.190718,-9.912720,0.117169,0.286944,-0.005498,-0.006109,-0.002596
1765408889.192705,-9.912720,0.117169,0.286944,-0.005498,-0.003971,-0.002596
1765408889.195753,-9.968315,-0.002391,0.356289,-0.009774,-0.009010,0.002902
1765408889.197795,-10.054996,-0.157819,0.444763,-0.009774,-0.009010,-0.001222
1765408889.200714,-9.988043,-0.161406,0.378407,-0.005498,-0.010996,-0.003971
1765408889.202733,-9.872667,-0.040650,0.245098,-0.007330,-0.004887,-0.005192
1765408889.205720,-9.857125,0.103419,0.347920,-0.005651,-0.007330,-0.001374
1765408889.210714,-9.940218,0.051411,0.395744,-0.008094,-0.007330,-0.001374
1765408889.211214,-10.016738,-0.023314,0.420851,-0.007789,-0.007330,0.001527
1765408889.211802,-9.953370,-0.133907,0.316834,-0.008552,-0.006872,0.001069
1765408889.213781,-9.830223,-0.148852,0.193687,-0.008247,-0.005498,-0.002138
1765408889.217713,-9.827832,-0.047824,0.265423,-0.008247,-0.007178,-0.005040
1765408889.220696,-10.031085,0.089670,0.510521,-0.007636,-0.007025,-0.003818
1765408889.223712,-10.025107,0.052009,0.374821,-0.010079,-0.002749,0.000153
1765408889.224212,-9.857722,-0.068747,0.211621,-0.007483,-0.005040,0.002291
1765408889.228740,-9.827832,-0.125538,0.316834,-0.010385,-0.005956,0.000000
1765408889.230738,-9.954566,-0.094452,0.460306,-0.008552,-0.005956,0.000305
1765408889.231801,-9.954566,-0.094452,0.460306,-0.008552,-0.005192,0.000305
1765408889.235776,-9.838593,0.047226,0.185318,-0.005345,-0.005040,-0.001833
1765408889.237809,-9.848158,0.039455,0.348517,-0.007330,-0.005651,0.002596
1765408889.240801,-9.960544,-0.093257,0.483620,-0.008399,-0.006872,0.000764
1765408889.242737,-10.016139,-0.095648,0.363462,-0.007789,-0.005803,0.000000
1765408889.243713,-10.016139,-0.095648,0.363462,-0.007789,-0.001985,0.000000
1765408889.246779,-9.856527,-0.074127,0.297704,-0.008552,-0.006567,0.000458
1765408889.248753,-9.955164,-0.109995,0.335366,-0.008399,-0.008247,-0.001833
1765408889.252698,-9.988043,-0.021521,0.359876,-0.004887,-0.004429,0.000305
1765408889.255712,-9.896580,0.014347,0.314443,-0.005651,-0.004429,-0.002291
1765408889.257724,-9.800333,-0.038259,0.248685,-0.010079,-0.002443,-0.000153
1765408889.260790,-9.951577,-0.053802,0.361669,-0.008094,-0.003818,0.000458
1765408889.262755,-10.108798,0.004782,0.554161,-0.007483,-0.003818,-0.002443
1765408889.265752,-9.917501,-0.037661,0.304280,-0.007941,-0.001985,0.000000
1765408889.267760,-9.728000,-0.127929,0.087877,-0.007941,-0.003665,0.002138
1765408889.270687,-9.901959,-0.101626,0.288737,-0.006109,-0.006109,-0.002291
1765408889.271729,-10.080104,-0.021521,0.503348,-0.004123,-0.002291,-0.002138
1765408889.275675,-9.973696,0.010760,0.362267,-0.006109,-0.002291,0.000305
1765408889.276719,-9.819464,-0.009565,0.204448,-0.009163,-0.000305,0.000000
1765408889.280678,-9.967119,-0.024510,0.399330,-0.008399,-0.005040,0.003512
1765408889.283470,-10.109993,-0.120158,0.557150,-0.007636,-0.006872,-0.000305
1765408889.285260,-9.949782,-0.115973,0.285748,-0.004887,-0.003512,-0.001680
1765408889.287729,-9.805116,-0.041248,0.087279,-0.006109,-0.001833,-0.000611
1765408889.290746,-9.805116,-0.041248,0.087279,-0.006109,-0.004276,-0.000611
1765408889.293707,-10.084289,0.003587,0.579268,-0.008094,-0.009010,0.001527
1765408889.294207,-10.068149,-0.022716,0.445959,-0.009163,-0.002443,0.000153
1765408889.297738,-9.818865,-0.043042,0.166786,-0.007789,0.001985,0.002749
1765408889.298734,-9.809898,-0.100430,0.151841,-0.007330,-0.004429,0.004123
1765408889.302729,-10.023911,-0.089670,0.407700,-0.005956,-0.011759,-0.000153
1765408889.305748,-10.107005,-0.050813,0.454328,-0.008094,-0.004734,-0.000916
1765408889.307775,-9.915709,0.050215,0.151243,-0.005651,-0.000764,-0.002902
1765408889.310792,-9.866092,0.120158,0.208034,-0.007025,-0.008094,0.000153
1765408889.312820,-10.045432,0.045433,0.453132,-0.006872,-0.008094,0.003665
1765408889.315716,-10.089071,-0.142276,0.455524,-0.006872,-0.003971,0.003512
1765408889.317701,-9.917501,-0.191296,0.123745,-0.006720,-0.003360,0.000000
1765408889.320758,-9.836202,-0.071736,0.104017,-0.002596,-0.005803,-0.001527
1765408889.321805,-10.002390,-0.007174,0.409493,-0.005040,-0.006567,-0.002443
1765408889.325704,-10.164392,0.059182,0.574486,-0.005040,-0.006567,-0.000916
1765408889.326712,-10.080104,0.066954,0.370038,-0.005956,-0.003054,0.001222
1765408889.330730,-9.892395,-0.051411,0.231349,-0.007178,-0.004581,0.006109
1765408889.333713,-9.923481,-0.176351,0.253467,-0.007178,-0.010385,0.006109
1765408889.335779,-10.053802,-0.096844,0.404113,-0.004123,-0.012675,0.003054
1765408889.338757,-10.040649,-0.001793,0.365854,-0.005803,-0.006414,-0.001680
1765408889.340795,-9.903154,0.051411,0.274988,-0.005345,-0.002749,0.000305
1765408889.342740,-9.925871,0.089670,0.360473,-0.006720,-0.009010,0.001680
1765408889.345708,-10.057985,0.002989,0.512912,-0.004581,-0.008858,0.003054
1765408889.347749,-10.029889,-0.111191,0.358082,-0.006720,-0.007789,0.005345
1765408889.350813,-9.839788,-0.160210,0.064562,-0.007178,-0.008705,0.001222
1765408889.352698,-9.835604,-0.078910,0.132114,-0.003665,-0.013439,0.000458
1765408889.355700,-10.031085,0.060976,0.469871,-0.000305,-0.010232,-0.000305
1765408889.357752,-10.045432,0.021521,0.437590,-0.003665,-0.007330,0.003360
1765408889.360744,-9.930654,-0.064562,0.333572,-0.005956,-0.006109,0.003207
1765408889.361713,-9.952174,-0.052606,0.383788,-0.007789,-0.010385,0.001833
1765408889.365745,-9.991630,-0.096844,0.420253,-0.006109,-0.010385,-0.000916
1765408889.368710,-9.930654,-0.059780,0.219990,-0.002291,-0.008399,-0.002138
1765408889.370750,-9.901362,0.048422,0.264228,-0.004123,-0.008399,0.001069
1765408889.372755,-9.912122,-0.019130,0.354495,-0.003971,-0.004429,0.002291
1765408889.375768,-9.984456,-0.090866,0.432807,-0.003665,-0.010537,0.001527
1765408889.377734,-10.080104,0.004185,0.441176,-0.005192,-0.010079,-0.000305
1765408889.380743,-9.971903,0.082496,0.418460,-0.004581,-0.009621,0.000000
1765408889.382733,-9.854136,-0.107604,0.280368,-0.005192,-0.009621,0.004887
1765408889.385724,-9.858918,-0.222382,0.249880,-0.005956,-0.019395,0.002443
1765408889.388788,-10.011955,-0.077714,0.441176,-0.002749,-0.017257,-0.001527
1765408889.391786,-9.931850,0.010760,0.333572,-0.003665,-0.010079,0.000305
1765408889.393816,-9.812887,0.022716,0.144070,-0.003207,-0.012981,0.001833
1765408889.395756,-9.907937,0.089072,0.242707,-0.003818,-0.016646,0.000305
1765408889.396848,-10.008368,0.005978,0.370636,-0.005040,-0.010690,0.004123
1765408889.400704,-9.923481,-0.141081,0.236729,-0.006872,-0.011301,0.005498
1765408889.402880,-9.795551,-0.172166,0.016738,-0.003054,-0.007789,0.002749
1765408889.405652,-9.795551,-0.172166,0.016738,-0.003054,-0.006872,0.002749
1765408889.407792,-9.963533,-0.061573,0.497370,-0.002749,-0.005956,0.001527
1765408889.410771,-9.995216,-0.025108,0.395744,-0.006109,-0.007483,0.000305
1765408889.412812,-9.973696,0.099235,0.224773,-0.003818,-0.005651,-0.000764
1765408889.415749,-9.972500,0.004782,0.242707,-0.003054,-0.005651,0.007636
1765408889.418697,-9.972500,0.004782,0.242707,-0.003054,-0.012523,0.007636
1765408889.420702,-10.072930,-0.160210,0.457317,-0.007789,-0.012065,-0.002291
1765408889.422722,-9.991630,0.017934,0.263032,-0.004581,-0.008094,-0.002138
1765408889.425732,-9.897178,0.098039,0.266021,-0.002749,-0.012370,0.003818
1765408889.427739,-10.029889,0.033477,0.442372,-0.002902,-0.012370,0.003818
1765408889.430792,-10.094451,-0.147059,0.439981,-0.003054,-0.010537,0.008399
1765408889.432764,-10.029889,-0.255858,0.269608,-0.002291,-0.015272,0.005651
1765408889.435735,-9.973696,-0.199067,0.233740,-0.000305,-0.013744,0.000153
1765408889.437729,-9.995216,-0.045433,0.384983,-0.001374,-0.014966,-0.001222
1765408889.440761,-10.022716,0.032879,0.453132,0.000305,-0.014966,0.000305
1765408889.442763,-10.014346,0.095050,0.367049,-0.002138,-0.015882,0.001069
1765408889.445755,-9.897775,0.163199,0.212817,-0.006109,-0.015730,0.001680
1765408889.447762,-9.950381,0.012554,0.225968,-0.003207,-0.015730,0.007025
1765408889.450703,-10.053802,-0.259445,0.430416,-0.003207,-0.017868,0.007025
1765408889.452794,-10.093853,-0.279770,0.408895,-0.001374,-0.017715,0.002749
1765408889.455750,-9.934240,-0.088474,0.248685,-0.001527,-0.016188,-0.000611
1765408889.458777,-9.837397,0.022716,0.156026,-0.001222,-0.016952,0.000916
1765408889.460774,-9.961740,0.005380,0.386179,-0.000916,-0.014966,0.004581
1765408889.461762,-9.961740,0.005380,0.386179,-0.000916,-0.012675,0.004581
1765408889.465731,-10.005977,-0.008369,0.326399,-0.007483,-0.020617,0.003971
1765408889.467693,-9.873863,-0.087279,0.074127,-0.007025,-0.020617,0.002749
1765408889.468703,-10.033475,-0.053204,0.329388,-0.003665,-0.025351,-0.000458
1765408889.471772,-10.114178,-0.001793,0.460306,-0.007941,-0.022297,0.001985
1765408889.475747,-10.114178,-0.001793,0.460306,-0.007941,-0.021075,0.001985
1765408889.476711,-9.887612,0.053802,0.129125,-0.010537,-0.022449,0.001374
1765408889.480767,-9.989238,-0.063367,0.247489,-0.007330,-0.025504,0.004429
1765408889.481792,-10.043638,-0.237924,0.370636,-0.004887,-0.019090,0.004429
1765408889.485816,-9.945600,-0.319823,0.202056,-0.000305,-0.019700,0.001833
1765408889.488737,-9.970109,-0.104615,0.209828,0.000458,-0.017868,-0.002596
1765408889.490718,-10.051410,0.095648,0.362865,0.002749,-0.018021,-0.000764
1765408889.492798,-10.125537,0.193687,0.449546,0.001069,-0.020464,0.001069
1765408889.495733,-10.057388,0.164395,0.471066,-0.001222,-0.020006,0.002443
1765408889.497738,-10.026302,0.067551,0.473458,-0.000153,-0.022297,0.004276
1765408889.500707,-9.884026,-0.192492,0.297704,-0.005956,-0.026878,0.003818
1765408889.503773,-9.913916,-0.144668,0.200263,-0.001985,-0.030849,-0.000153
1765408889.505808,-9.995814,0.021521,0.271401,0.001069,-0.024129,0.001833
1765408889.508818,-10.001194,-0.058584,0.441176,-0.000153,-0.021228,0.004123
1765408889.510791,-10.031085,-0.043042,0.439981,-0.002749,-0.025045,0.002443
1765408889.512776,-10.112385,-0.057389,0.499163,-0.005651,-0.026114,0.000305
1765408889.515777,-10.047822,-0.059780,0.371832,-0.001985,-0.026573,0.001222
1765408889.517746,-9.951577,-0.135103,0.246294,-0.006414,-0.030696,0.002596
1765408889.518763,-9.970109,-0.066356,0.319225,-0.004429,-0.026114,-0.003818
1765408889.522777,-9.936632,0.038259,0.330583,-0.000305,-0.027184,-0.002138
1765408889.525779,-9.959349,0.057987,0.365854,-0.002138,-0.027947,-0.000153
1765408889.528726,-9.886416,0.104017,0.248685,-0.003360,-0.023518,-0.000458
1765408889.530789,-9.952174,-0.003587,0.462099,-0.004581,-0.029780,0.002138
1765408889.532755,-9.951577,-0.172764,0.417862,-0.000611,-0.027794,0.006414
1765408889.535730,-9.927068,-0.303682,0.157819,-0.005040,-0.029627,0.001527
1765408889.537833,-9.928263,-0.065758,0.165591,-0.002749,-0.029627,-0.004276
1765408889.538801,-9.950979,0.060976,0.340746,0.001069,-0.030085,-0.003054
1765408889.542832,-10.033475,0.126734,0.453132,-0.001680,-0.026573,0.003054
1765408889.545793,-10.008368,0.049020,0.479436,-0.003665,-0.021533,0.005345
1765408889.547796,-9.747129,-0.118962,0.159613,-0.006414,-0.018631,0.006414
1765408889.550782,-9.776422,-0.222382,0.078312,-0.000916,-0.026878,0.003818
1765408889.552747,-10.026302,-0.097441,0.521879,0.000764,-0.028100,-0.002443
1765408889.555724,-9.976685,0.011358,0.453132,0.002596,-0.018631,-0.002138
1765408889.557717,-9.812290,0.031086,0.259445,0.001069,-0.020617,0.002291
1765408889.558787,-9.875656,-0.029890,0.304878,-0.001069,-0.023671,0.003360
1765408889.562730,-10.083690,-0.054998,0.645026,0.002596,-0.024587,0.003665
1765408889.565793,-10.088473,-0.205643,0.575681,-0.002902,-0.024129,0.002596
1765408889.567730,-9.861309,-0.247489,0.159015,-0.000305,-0.026114,0.001985
1765408889.568706,-9.833811,-0.059182,0.177547,0.003971,-0.026420,-0.003665
1765408889.572713,-9.990434,0.100430,0.428025,0.003054,-0.026114,-0.001985
1765408889.575167,-10.090864,0.157819,0.519488,0.000000,-0.024587,0.000611
1765408889.577715,-10.011955,0.086083,0.411884,-0.005956,-0.019700,0.004581
1765408889.580740,-9.915709,-0.061573,0.355093,-0.008399,-0.017715,0.003971
1765408889.582767,-9.925274,-0.246294,0.329986,-0.004887,-0.028863,0.000611
1765408889.585734,-9.987445,-0.169775,0.343735,-0.001833,-0.027489,-0.001985
1765408889.587811,-9.950979,0.127929,0.442970,-0.000611,-0.027489,-0.002749
1765408889.590824,-9.807508,0.118364,0.331181,-0.001069,-0.022602,0.007025
1765408889.592846,-9.832017,-0.075323,0.159613,0.000305,-0.032834,0.008552
1765408889.595776,-10.040649,-0.178742,0.463893,0.001680,-0.033139,0.004429
1765408889.597798,-10.050214,-0.083692,0.486609,0.003512,-0.027642,0.003512
1765408889.600787,-9.881634,-0.118962,0.285748,0.004123,-0.027642,0.000916
1765408889.601814,-9.782400,0.096844,0.163797,0.004734,-0.031918,-0.000153
1765408889.605810,-9.989238,0.054400,0.261836,-0.001069,-0.031154,0.002902
1765408889.607751,-10.093256,0.087877,0.530846,-0.000764,-0.031154,0.002138
1765408889.613217,-10.041844,-0.052009,0.416667,-0.002902,-0.023824,0.005651
1765408889.613717,-9.942013,-0.096844,0.384983,-0.000916,-0.027031,0.003818
1765408889.615778,-9.942013,-0.096844,0.384983,-0.000916,-0.031612,0.003818
1765408889.617758,-10.077712,-0.211621,0.428025,-0.001374,-0.031765,0.001680
1765408889.620729,-9.973098,-0.118364,0.196078,0.005192,-0.031765,-0.001374
1765408889.623799,-9.895982,-0.010163,0.305476,0.005040,-0.027336,-0.000611
1765408889.625792,-9.989238,0.127331,0.386179,0.006109,-0.033139,-0.000764
1765408889.628721,-10.117167,0.043042,0.359876,0.000916,-0.033750,0.003207
1765408889.630821,-10.065159,-0.096844,0.319823,0.003665,-0.027336,0.003512
1765408889.633822,-10.026302,-0.141081,0.405308,-0.000916,-0.027336,0.001527
1765408889.635735,-9.818267,-0.108800,0.188307,-0.001985,-0.031001,-0.000458
1765408889.638781,-9.962935,0.076518,0.301889,-0.005192,-0.034972,-0.005040
1765408889.640763,-10.064561,0.090268,0.380201,-0.002291,-0.030696,0.003971
1765408889.641758,-9.946198,-0.034672,0.351506,0.000916,-0.028558,0.006109
1765408889.645890,-9.919296,-0.088474,0.464491,-0.001374,-0.029932,0.004429
1765408889.647854,-9.972500,-0.159015,0.493185,-0.005498,-0.035583,0.002596
1765408889.650854,-9.959349,-0.283357,0.278575,-0.001527,-0.041692,0.001527
1765408889.652834,-9.812290,-0.089670,0.000000,0.001374,-0.041692,-0.001069
1765408889.655752,-9.996411,0.120756,0.359876,0.001680,-0.032987,-0.002902
1765408889.658803,-9.888808,0.197274,0.318030,0.003512,-0.032987,0.004429
1765408889.660748,-10.104613,0.010163,0.429220,0.003512,-0.037415,0.004429
1765408889.661790,-10.093256,-0.153635,0.498565,0.001069,-0.027947,0.006109
1765408889.665773,-9.917501,-0.357484,0.296509,0.002596,-0.027947,0.004581
1765408889.668820,-9.917501,-0.357484,0.296509,0.002596,-0.033750,0.004581
1765408889.670762,-10.043638,0.100430,0.517097,0.003360,-0.038485,-0.005803
1765408889.672742,-9.968913,0.153037,0.404711,0.006109,-0.039554,0.004123
1765408889.675777,-9.910927,0.093855,0.224175,0.000000,-0.044746,0.004734
1765408889.678727,-10.065159,-0.093257,0.520086,-0.002443,-0.035277,0.007483
1765408889.680757,-9.782400,-0.211023,0.181731,0.000305,-0.039095,0.004887
1765408889.682721,-10.028693,-0.144668,0.534433,0.000764,-0.043066,-0.001833
1765408889.685735,-9.990434,0.040650,0.374223,0.001374,-0.040470,-0.002596
1765408889.688847,-9.922883,0.099833,0.173362,0.003360,-0.047953,0.001222
1765408889.690850,-9.979075,0.109995,0.284553,0.001985,-0.045968,0.003512
1765408889.692816,-10.170371,0.084888,0.606169,0.000916,-0.036041,0.007025
1765408889.695726,-10.001194,-0.228360,0.407102,-0.002138,-0.034361,0.010843
1765408889.698756,-10.063366,-0.162004,0.405308,0.005956,-0.043830,-0.000916
1765408889.700852,-10.008368,-0.167384,0.475849,0.001222,-0.040775,-0.001680
1765408889.702726,-9.973696,0.078312,0.373027,0.006109,-0.046426,-0.003054
1765408889.705825,-9.995216,0.090866,0.432807,0.007025,-0.040164,0.000764
1765408889.707768,-9.913916,0.045433,0.423242,0.006109,-0.044440,0.005498
1765408889.710771,-10.123145,0.009565,0.379603,0.000611,-0.042761,0.001527
1765408889.712894,-10.057388,-0.179340,0.422047,-0.001374,-0.044135,0.002291
1765408889.715745,-9.960544,-0.131516,0.383788,0.000000,-0.040317,0.003207
1765408889.717829,-9.965924,-0.026303,0.426829,-0.000153,-0.040623,0.001374
1765408889.718771,-10.007172,0.090866,0.579866,-0.002749,-0.041997,-0.000458
1765408889.722794,-9.925871,0.004782,0.389766,0.002749,-0.041997,0.005956
1765408889.725787,-9.800333,-0.186514,0.212817,0.004734,-0.044746,0.005192
1765408889.728752,-9.843375,-0.176949,0.213415,0.002138,-0.046578,0.001833
1765408889.730753,-9.985053,-0.178742,0.471066,-0.001833,-0.043524,-0.000153
1765408889.732779,-9.936632,-0.178144,0.373027,0.004123,-0.044593,0.003207
1765408889.735780,-9.890003,-0.142276,0.331779,0.003971,-0.046884,0.001374
1765408889.737760,-10.029889,0.144668,0.470469,0.005956,-0.044288,-0.005956
1765408889.740777,-9.898373,0.020923,0.371832,0.005956,-0.043830,0.004123
1765408889.742771,-9.912720,0.091463,0.280966,0.003360,-0.045051,0.001680
1765408889.745740,-10.001194,-0.017934,0.492587,-0.000305,-0.041539,0.004276
1765408889.746758,-10.115973,-0.209230,0.528455,0.002596,-0.045051,0.003054
1765408889.750757,-10.092658,-0.172764,0.487207,0.003818,-0.047037,0.000611
1765408889.753756,-9.995216,0.078910,0.523673,0.003360,-0.044440,-0.000305
1765408889.755823,-9.872069,-0.011956,0.301889,0.002902,-0.043982,0.005651
1765408889.757736,-9.851745,-0.074127,0.298900,0.002291,-0.048411,0.004123
1765408889.760757,-10.246293,0.035868,0.663558,0.005192,-0.048411,0.004734
1765408889.762920,-10.025107,-0.107604,0.402319,0.005345,-0.041386,0.006872
1765408889.765750,-9.937828,-0.117169,0.389766,0.005956,-0.045815,0.003971
1765408889.766798,-10.043041,-0.155428,0.518890,0.005192,-0.045357,0.003207
1765408889.770834,-10.164991,-0.096844,0.691057,0.005040,-0.054062,0.002749
1765408889.772765,-9.899570,0.007174,0.380201,0.004734,-0.051160,0.000916
1765408889.775764,-9.757890,0.068149,0.193089,0.004734,-0.050702,0.000916
1765408889.778743,-9.790769,-0.010760,0.145863,0.001374,-0.050549,0.008094
1765408889.780830,-10.065758,-0.237327,0.357484,0.004887,-0.060323,0.005040
1765408889.782870,-10.133308,-0.174558,0.561334,0.008247,-0.051465,0.004276
1765408889.785839,-9.790171,-0.063367,0.245098,0.008552,-0.038026,0.000611
1765408889.787814,-9.790171,-0.063367,0.245098,0.008552,-0.049480,0.000611
1765408889.788855,-10.111190,0.021521,0.597800,0.004734,-0.059865,0.003512
1765408889.792822,-10.199663,-0.020923,0.518890,0.008552,-0.059865,0.003512
1765408889.795788,-9.873264,-0.107604,0.160808,0.005040,-0.048564,0.004123
1765408889.797788,-9.898373,0.048422,0.362267,0.008705,-0.043524,0.004123
1765408889.798765,-9.927068,-0.032281,0.561932,0.006261,-0.049022,0.006872
1765408889.801835,-10.170969,-0.044237,0.668340,0.007483,-0.052382,0.003818
1765408889.803886,-10.014943,-0.088474,0.359278,0.004734,-0.052382,0.001680
1765408889.807837,-9.652080,-0.033477,0.155428,0.007330,-0.055131,0.004429
1765408889.808778,-9.927068,0.108800,0.407700,0.006414,-0.056658,0.007483
1765408889.813784,-10.149448,-0.077714,0.850669,0.002291,-0.057269,0.009621
1765408889.815773,-10.118362,-0.175155,0.583453,0.009163,-0.061239,0.008858
1765408889.816835,-9.816475,-0.176949,0.074127,0.010232,-0.061239,0.002291
1765408889.820729,-9.874461,-0.049617,0.136896,0.007330,-0.060170,0.001985
1765408889.823753,-9.949782,-0.113582,0.224773,0.009468,-0.054672,0.008858
1765408889.825762,-10.154231,0.001196,0.631277,0.012370,-0.054672,0.002902
1765408889.828760,-10.143471,0.044237,0.655189,0.012370,-0.052534,0.002902
1765408889.830843,-10.060975,-0.063367,0.377810,0.005956,-0.058032,0.006872
1765408889.833805,-10.005977,-0.130320,0.444763,0.011759,-0.057269,0.008552
1765408889.835841,-10.088473,-0.175753,0.568508,0.009316,-0.060170,0.006567
1765408889.838825,-10.327594,-0.081301,0.883548,0.009316,-0.060170,-0.000611
1765408889.839325,-10.327594,-0.081301,0.883548,0.009316,-0.059865,-0.000611
1765408889.842746,-10.023911,0.088474,0.314443,0.007636,-0.065515,0.004581
1765408889.845786,-9.940218,0.100430,0.367049,0.005345,-0.058338,0.006109
1765408889.847756,-10.157818,-0.052606,0.625299,0.010996,-0.062919,0.008247
1765408889.850789,-10.060975,-0.108202,0.548780,0.010232,-0.062919,0.007025
1765408889.853837,-10.060975,-0.108202,0.548780,0.010232,-0.062766,0.007025
1765408889.855772,-9.799137,-0.093257,0.185318,0.006720,-0.067042,0.009010
1765408889.857868,-9.873264,-0.032281,0.266619,0.008399,-0.067042,0.003665
1765408889.860747,-10.240315,0.153037,0.725729,0.005498,-0.067042,0.003971
1765408889.863765,-10.184121,0.071138,0.747848,0.008858,-0.060170,0.009621
1765408889.865839,-10.000596,-0.162602,0.390961,0.006720,-0.058490,0.014355
1765408889.868821,-9.940218,-0.257054,0.279770,0.007330,-0.063988,0.005803
1765408889.870807,-10.150645,-0.078910,0.687470,0.007941,-0.066432,0.003818
1765408889.872857,-10.170969,0.010760,0.738881,0.015424,-0.060476,0.004276
1765408889.875858,-9.959946,0.059182,0.461502,0.008858,-0.060934,0.004123
1765408889.878835,-9.917501,0.023912,0.292922,0.008094,-0.068111,0.008247
1765408889.880849,-10.029889,0.013152,0.428623,0.013897,-0.061545,0.009316
1765408889.883854,-9.929459,-0.153037,0.492587,0.012370,-0.061545,0.009621
1765408889.885853,-9.929459,-0.153037,0.492587,0.012370,-0.064752,0.009621
1765408889.888840,-9.966521,-0.041846,0.606767,0.006872,-0.063530,0.006261
1765408889.890878,-9.998206,-0.094452,0.564921,0.012828,-0.072846,0.003971
1765408889.893861,-10.004781,0.053204,0.495576,0.011301,-0.075136,0.002291
1765408889.895852,-9.909132,0.142874,0.332377,0.008552,-0.064904,0.007941
1765408889.897787,-9.756096,-0.087877,0.107006,0.008552,-0.072082,0.007941
1765408889.900767,-9.860711,-0.214012,0.190100,0.008094,-0.074373,0.007789
1765408889.902805,-9.992227,-0.148254,0.447752,0.011148,-0.069639,0.001527
1765408889.905808,-9.775226,-0.129125,0.273792,0.013286,-0.060323,0.001222
1765408889.907796,-9.750716,0.163797,0.438785,0.010996,-0.060323,0.000611
1765408889.910851,-9.984456,0.121951,0.695839,0.010843,-0.062766,0.008094
1765408889.911869,-10.179338,-0.029890,0.789096,0.010690,-0.071624,0.009468
1765408889.913864,-10.044834,-0.208034,0.636657,0.008247,-0.067042,0.008094
1765408889.918847,-9.716641,-0.301889,0.313247,0.011301,-0.079260,0.007941
1765408889.920833,-9.922284,-0.130320,0.413678,0.014813,-0.079260,0.000153
1765408889.922914,-10.163795,-0.013749,0.737685,0.013897,-0.080940,0.001680
1765408889.923855,-10.054996,0.088474,0.425036,0.014203,-0.078038,0.002902
1765408889.927779,-9.864896,0.242707,0.176949,0.010843,-0.073915,0.005192
1765408889.930741,-9.860711,0.010760,0.333572,0.006414,-0.072235,0.012981
1765408889.933832,-9.933643,-0.319823,0.449546,0.009774,-0.071929,0.016188
1765408889.935771,-10.005379,-0.343137,0.459110,0.014203,-0.071777,0.008399
1765408889.938785,-10.002390,-0.115973,0.574486,0.011454,-0.065821,0.001069
1765408889.940797,-9.886416,-0.043042,0.536824,0.012675,-0.066432,0.005956
1765408889.942814,-9.923481,0.039455,0.419656,0.013897,-0.072846,0.007025
1765408889.943834,-10.070539,0.121353,0.548780,0.014203,-0.076511,0.009316
1765408889.947787,-9.985652,-0.028694,0.490196,0.017104,-0.072540,0.014203
1765408889.950782,-9.832614,-0.436394,0.270803,0.016188,-0.076816,0.012523
1765408889.952784,-9.820659,-0.170971,0.379005,0.018173,-0.076053,0.003512
1765408889.955875,-9.811692,-0.055595,0.396341,0.015119,-0.075747,0.004581
1765408889.958850,-9.930654,0.083692,0.527857,0.018021,-0.082009,0.002902
1765408889.960859,-9.979673,0.204448,0.547585,0.012828,-0.075900,0.006109
1765408889.961847,-9.952772,-0.005978,0.479436,0.012370,-0.069944,0.010843
1765408889.965818,-10.181131,-0.104017,0.698230,0.014050,-0.082314,0.011606
1765408889.968804,-10.127929,-0.341344,0.729316,0.018021,-0.075900,0.010232
1765408889.970813,-9.858918,-0.205643,0.338953,0.017562,-0.077427,0.002902
1765408889.972759,-9.722619,-0.020923,0.269010,0.016799,-0.077274,0.005345
1765408889.973839,-9.985053,0.166188,0.625299,0.020006,-0.080940,0.006720
1765408889.978762,-10.283356,0.167384,0.876375,0.017562,-0.080940,0.009010
1765408889.980808,-10.175154,-0.085485,0.725131,0.015730,-0.080023,0.014203
1765408889.983788,-9.895385,-0.332377,0.209828,0.019242,-0.084758,0.014050
1765408889.985750,-9.679578,-0.325203,0.070540,0.021380,-0.087354,0.005803
1765408889.987743,-10.100429,0.063367,0.708393,0.020006,-0.083078,-0.000916
1765408889.988769,-10.203251,0.181731,0.867408,0.018326,-0.074831,0.005192
1765408889.992778,-9.909731,0.159015,0.474653,0.014813,-0.077274,0.009010
1765408889.995755,-9.857722,0.111191,0.355093,0.014050,-0.083230,0.010079
1765408889.998789,-10.024508,-0.057987,0.669536,0.016952,-0.082620,0.017257
1765408890.000845,-10.093256,-0.368245,0.740076,0.017562,-0.085521,0.015119
1765408890.002872,-10.043638,-0.218795,0.401722,0.017715,-0.086285,0.005192
1765408890.005857,-9.831419,-0.005978,0.188307,0.017715,-0.087048,0.005040
1765408890.007881,-9.818267,0.082496,0.245098,0.019548,-0.089950,0.007483
1765408890.010864,-10.283954,0.205045,0.916427,0.020617,-0.089950,0.006109
1765408890.013833,-10.283954,0.205045,0.916427,0.020617,-0.077733,0.006109
1765408890.017149,-9.924676,-0.101028,0.426231,0.017410,-0.081092,0.012217
1765408890.017880,-9.863700,-0.203850,0.316236,0.017257,-0.089034,0.008858
1765408890.020761,-10.186513,-0.076518,0.812410,0.018784,-0.087354,0.003665
1765408890.022799,-10.138091,0.025108,0.915830,0.021686,-0.087354,0.003818
1765408890.025801,-10.138091,0.025108,0.915830,0.021686,-0.083841,0.003818
1765408890.027783,-9.874461,0.109995,0.370636,0.012981,-0.091172,0.010690
1765408890.030813,-10.099234,-0.037064,0.584051,0.016646,-0.103084,0.010537
1765408890.033766,-10.225968,-0.141081,0.621712,0.020617,-0.095448,0.009468
1765408890.035745,-9.800333,-0.234935,0.029890,0.021228,-0.095448,0.009927
1765408890.036832,-9.875058,0.002391,0.302487,0.020159,-0.086437,0.002138
1765408890.040781,-10.181131,0.184122,1.009684,0.020769,-0.085521,0.003971
1765408890.041865,-10.442968,0.246294,1.376136,0.019700,-0.085521,0.006720
1765408890.045789,-10.176947,0.182927,0.834529,0.017715,-0.086285,0.010537
1765408890.047763,-9.742945,-0.146461,0.139885,0.014966,-0.096059,0.014203
1765408890.050775,-9.665829,-0.370038,0.098637,0.015272,-0.104305,0.013897
1765408890.053812,-10.020324,-0.192492,0.600789,0.021075,-0.104000,0.004429
1765408890.055813,-9.933045,0.032281,0.681492,0.018937,-0.089034,0.002138
1765408890.057919,-9.933045,0.032281,0.235533,0.018937,-0.088575,0.002138
1765408890.058820,-9.917501,0.309660,0.562530,0.018479,-0.096059,0.009927
1765408890.063851,-10.321615,0.080105,1.175275,0.018937,-0.097738,0.014813
1765408890.065785,-10.277378,-0.130320,0.890722,0.016341,-0.093462,0.012523
1765408890.067848,-9.719033,-0.283357,0.116571,0.016952,-0.098044,0.007025
1765408890.070817,-9.719033,-0.283357,0.116571,0.016952,-0.101098,0.007025
1765408890.072820,-9.962935,0.058584,0.705404,0.018937,-0.094073,0.003665
1765408890.075784,-10.109396,0.200861,0.844094,0.020464,-0.094073,0.004734
1765408890.076761,-9.947392,0.206839,0.646820,0.017104,-0.090866,0.006567
1765408890.080782,-9.912122,0.016738,0.659971,0.021686,-0.095448,0.013744
1765408890.081842,-9.984456,-0.328192,0.642635,0.021228,-0.110414,0.013134
1765408890.085802,-10.065159,-0.257054,0.557150,0.020922,-0.109650,0.003512
1765408890.087851,-9.931850,0.027499,0.435198,0.025504,-0.096975,0.000611
1765408890.090825,-9.564202,0.144070,0.099235,0.019090,-0.091935,0.004581
1765408890.092877,-9.800333,0.228957,0.473458,0.012217,-0.099113,0.004123
1765408890.095813,-10.176947,0.164395,0.893113,0.012675,-0.095600,0.009316
1765408890.098775,-10.002390,-0.167384,0.668340,0.016493,-0.094226,0.017868
1765408890.100896,-9.800931,-0.310856,0.611549,0.015882,-0.095448,0.008399
1765408890.101885,-9.922883,-0.142276,0.603778,0.018173,-0.102167,0.002749
1765408890.103873,-10.008368,-0.111191,0.538020,0.019853,-0.110872,0.003818
1765408890.107898,-10.082495,0.096844,0.627690,0.024893,-0.109039,-0.001985
1765408890.110957,-10.009563,0.181731,0.829746,0.021380,-0.092241,0.005956
1765408890.112941,-9.940218,-0.050215,0.579866,0.020006,-0.098960,0.014508
1765408890.115827,-10.189501,-0.209230,0.610952,0.019242,-0.111177,0.007941
1765408890.120369,-10.116570,-0.288140,0.676112,0.021991,-0.110108,0.006872
1765408890.120869,-10.040649,-0.037064,0.631277,0.023824,-0.105069,0.004734
1765408890.122891,-9.904350,-0.008369,0.662362,0.020006,-0.105374,0.006414
1765408890.123844,-9.940817,0.069345,0.569106,0.021533,-0.111025,0.005956
1765408890.127854,-10.056191,-0.008967,0.655189,0.020311,-0.110567,0.005651
1765408890.130792,-9.800333,0.026303,0.443568,0.017257,-0.102320,0.007941
1765408890.132889,-9.926469,-0.120756,0.625897,0.020922,-0.107818,0.015272
1765408890.135857,-9.924676,-0.426829,0.564921,0.019395,-0.112094,0.009621
1765408890.137850,-10.072930,0.029890,0.546389,0.025198,-0.119119,-0.001527
1765408890.140890,-9.882831,0.143472,0.587040,0.019090,-0.100945,0.005192
1765408890.142784,-9.764465,0.173362,0.743663,0.021991,-0.110261,0.010690
1765408890.145857,-10.228358,0.164993,1.169895,0.015272,-0.116828,0.009774
1765408890.147794,-10.293518,-0.069345,0.856050,0.011759,-0.120646,0.012217
1765408890.150853,-9.805714,-0.405906,0.037064,0.019853,-0.121562,0.011454
1765408890.153851,-9.549855,-0.288140,-0.060378,0.021838,-0.118661,0.000611
1765408890.155765,-9.869678,0.070540,0.624103,0.024129,-0.107818,-0.001069
1765408890.157824,-10.064561,0.137494,1.099952,0.022907,-0.107207,0.006414
1765408890.160851,-10.386177,0.249880,1.376734,0.023060,-0.112094,0.005956
1765408890.162857,-10.039454,0.043042,0.821975,0.016493,-0.112857,0.009621
1765408890.165881,-9.927068,-0.096844,0.455524,0.019090,-0.121868,0.013286
1765408890.167855,-9.976088,-0.295911,0.558943,0.021838,-0.127213,0.010079
1765408890.171869,-10.202055,-0.058584,0.820182,0.025198,-0.124158,0.003818
1765408890.172859,-10.147058,0.090866,0.855452,0.023213,-0.110108,0.003360
1765408890.175746,-9.790171,0.151841,0.536824,0.022755,-0.111788,0.005803
1765408890.177826,-9.916306,0.080105,0.748446,0.017410,-0.118202,0.009316
1765408890.180867,-10.217599,-0.035270,1.021042,0.021075,-0.119119,0.009621
1765408890.182821,-10.096842,-0.225371,0.777140,0.023824,-0.119119,0.010537
1765408890.183885,-9.713055,-0.167384,0.353898,0.024740,-0.117439,0.004581
1765408890.188873,-9.948587,0.064562,0.646820,0.026267,-0.124158,-0.002291
1765408890.190842,-10.178144,0.157221,1.000717,0.022907,-0.122784,0.005956
1765408890.193878,-10.094451,0.105213,0.813008,0.023824,-0.113010,0.008858
1765408890.195874,-9.947392,-0.046031,0.721545,0.019395,-0.113010,0.010843
1765408890.197877,-10.118362,-0.054998,1.048541,0.021838,-0.119577,0.008399
1765408890.200835,-10.156025,-0.249283,0.940339,0.026573,-0.131489,0.012523
1765408890.202815,-9.877449,-0.135701,0.420253,0.023518,-0.131489,-0.000916
1765408890.205906,-9.796746,0.168580,0.438785,0.023060,-0.117133,0.000458
1765408890.208910,-9.681969,0.115973,0.576279,0.022907,-0.117592,0.009927
1765408890.209410,-10.154231,0.130918,1.071258,0.023976,-0.126907,0.009774
1765408890.212865,-10.180533,-0.090268,1.052128,0.020311,-0.120951,0.010385
1765408890.215881,-9.805116,-0.314443,0.493783,0.025351,-0.120951,0.016188
1765408890.217889,-9.629362,-0.381396,0.298900,0.027642,-0.134849,0.004276
1765408890.220881,-9.958152,-0.044835,0.679101,0.025962,-0.133474,-0.002902
1765408890.221875,-9.756694,0.130320,0.587040,0.027642,-0.117133,-0.002902
1765408890.225835,-9.584527,0.319225,0.469871,0.031307,-0.122173,0.003665
1765408890.227889,-9.882831,0.240316,0.806432,0.023366,-0.122173,0.010843
1765408890.228858,-10.289334,-0.090866,1.372549,0.023366,-0.122784,0.014508
1765408890.232854,-10.072333,-0.389168,1.032998,0.026878,-0.119271,0.014355
1765408890.235822,-9.464370,-0.400526,0.189503,0.026878,-0.131489,0.007025
1765408890.237852,-9.636537,-0.026303,0.130918,0.024740,-0.137139,-0.003971
1765408890.239822,-10.014346,0.201459,0.838116,0.028253,-0.129503,0.002749
1765408890.243792,-10.194881,0.357484,1.229675,0.031460,-0.111941,0.008705
1765408890.245813,-9.941415,0.176351,0.991152,0.022755,-0.129045,0.015272
1765408890.247818,-9.887612,-0.176351,0.681492,0.022297,-0.129045,0.014966
1765408890.248818,-10.135101,-0.428623,0.851267,0.027184,-0.141415,0.012370
1765408890.252901,-10.086082,-0.310856,0.767575,0.029169,-0.129503,0.004123
1765408890.253792,-9.922284,0.043042,0.820779,0.026878,-0.114690,-0.001069
1765408890.257811,-9.819464,0.251076,0.796270,0.028253,-0.133627,0.004276
1765408890.260862,-10.175154,0.256456,1.043161,0.028253,-0.133627,0.013286
1765408890.262860,-10.076518,-0.142276,0.744859,0.023824,-0.131794,0.014813
1765408890.265825,-9.988043,-0.271401,0.566117,0.024587,-0.125838,0.006720
1765408890.267867,-9.791965,-0.333572,0.570301,0.029474,-0.117744,0.009927
1765408890.270835,-10.228358,-0.077116,1.296030,0.032223,-0.128129,0.002138
1765408890.273850,-10.391558,0.150646,1.270923,0.028863,-0.128740,0.003818
1765408890.275871,-10.053802,0.137494,0.734098,0.028405,-0.124922,0.008094
1765408890.278853,-9.736369,0.079507,0.235533,0.030391,-0.135154,0.012523
1765408890.280835,-10.125537,-0.094452,1.000119,0.026573,-0.135154,0.008705
1765408890.283848,-10.333572,-0.194883,1.365375,0.029474,-0.123395,0.009468
1765408890.285872,-9.867287,-0.248087,0.496174,0.029932,-0.124464,0.008094
1765408890.286811,-9.921686,0.095050,0.706600,0.027031,-0.130725,0.000611
1765408890.290867,-10.161406,0.094452,1.133429,0.029474,-0.132710,0.007636
1765408890.292873,-10.351504,0.015543,1.249402,0.030849,-0.138361,0.010232
1765408890.295518,-10.175154,0.032281,0.951698,0.028863,-0.128282,0.007483
1765408890.297893,-10.025107,-0.028694,0.847680,0.032834,-0.129198,0.009010
1765408890.300928,-9.949782,-0.222382,0.672525,0.034361,-0.145080,0.009468
1765408890.302908,-10.270802,-0.057389,0.968436,0.032681,-0.148898,0.002749
1765408890.305943,-10.039454,0.062171,0.741870,0.033903,-0.132405,0.004429
1765408890.307877,-10.039454,0.062171,0.741870,0.033903,-0.130420,0.004429
1765408890.310888,-10.066953,0.200861,1.166308,0.032070,-0.132558,0.010996
1765408890.312852,-10.279769,0.065758,1.351028,0.029932,-0.137445,0.014203
1765408890.316558,-10.220587,-0.170971,0.841105,0.028253,-0.144011,0.010385
1765408890.317882,-9.910927,-0.151841,0.584648,0.029016,-0.138514,0.005345
1765408890.320787,-9.875656,-0.076518,0.982185,0.037110,-0.138972,0.009927
1765408890.322815,-9.948587,-0.046628,1.047943,0.030238,-0.144164,0.007025
1765408890.325881,-10.043638,0.063367,0.927786,0.031918,-0.150120,0.004123
1765408890.327885,-9.788378,0.127929,0.364658,0.033750,-0.142026,0.009774
1765408890.330888,-9.979673,0.123745,0.738881,0.036957,-0.142026,0.009621
1765408890.332880,-10.126732,-0.106408,1.359397,0.031460,-0.135612,0.014355
1765408890.335877,-10.146461,-0.179938,1.223099,0.030085,-0.147829,0.007330
1765408890.338970,-9.892993,-0.010163,0.658776,0.027336,-0.150273,0.003971
1765408890.340876,-9.753705,0.060976,0.482425,0.033292,-0.146455,0.008399
1765408890.343827,-10.169176,0.121951,1.074844,0.035736,-0.145080,0.008705
1765408890.345791,-10.348516,0.058584,1.391081,0.030849,-0.142942,0.011301
1765408890.347880,-10.240912,-0.019727,1.075442,0.027031,-0.144011,0.010996
1765408890.350807,-9.895982,-0.150646,0.687470,0.026725,-0.145080,0.013592
1765408890.353882,-9.898373,-0.061573,0.747250,0.032529,-0.150731,0.011301
1765408890.355821,-10.221185,-0.038857,1.306791,0.026573,-0.150273,0.012370
1765408890.357863,-10.215207,0.000000,1.166906,0.028863,-0.146760,0.010843
1765408890.358913,-10.104015,0.103419,0.912243,0.034361,-0.150273,0.008705
1765408890.362820,-9.978478,0.043639,1.018651,0.031765,-0.147524,0.012065
1765408890.363845,-10.087276,-0.005978,1.154950,0.033750,-0.150426,0.015119
1765408890.367901,-10.027497,-0.326399,0.920014,0.034208,-0.162337,0.014661
1765408890.370846,-10.095646,-0.142874,0.871592,0.032070,-0.161421,0.003054
1765408890.372856,-9.769248,-0.026303,0.568508,0.036652,-0.148746,0.006567
1765408890.373844,-9.765063,0.184122,0.919416,0.037874,-0.148288,0.009010
1765408890.378789,-9.999999,0.239120,1.047346,0.032529,-0.151036,0.011454
1765408890.379289,-10.111788,-0.046628,1.140602,0.029627,-0.159436,0.012675
1765408890.382827,-10.111788,-0.046628,1.140602,0.029627,-0.152258,0.012675
1765408890.383824,-9.707077,-0.274988,0.652798,0.038637,-0.155465,0.012981
1765408890.387820,-9.777617,-0.108800,0.968436,0.039248,-0.155465,0.005192
1765408890.390829,-9.899570,0.127331,1.041368,0.038332,-0.157909,0.004276
1765408890.392851,-9.985053,0.162602,0.948111,0.039248,-0.163101,0.007178
1765408890.395885,-9.985053,0.162602,0.948111,0.039248,-0.156687,0.007178
1765408890.397840,-9.882831,0.051411,1.093974,0.035736,-0.157451,0.015730
1765408890.400848,-9.784791,-0.239120,0.879962,0.034361,-0.157451,0.013439
1765408890.402911,-9.935436,-0.132712,0.703013,0.032376,-0.163865,0.006872
1765408890.405858,-10.034670,0.031086,0.923601,0.034667,-0.156229,0.004276
1765408890.407915,-10.108798,0.214012,1.299617,0.035888,-0.151495,0.007025
1765408890.410931,-10.081897,0.295911,1.329507,0.035888,-0.158978,0.009774
1765408890.413748,-9.910927,0.027499,0.891320,0.031918,-0.158978,0.017104
1765408890.415834,-9.922284,-0.258250,0.637255,0.034819,-0.165850,0.016341
1765408890.416906,-10.093853,-0.404113,1.128646,0.037721,-0.161116,0.013134
1765408890.420893,-10.110592,-0.120756,1.200382,0.044593,-0.153785,0.003818
1765408890.422867,-9.878646,0.233142,1.175275,0.034361,-0.154854,-0.000458
1765408890.425803,-9.542681,0.279770,0.486609,0.036194,-0.162337,0.007789
1765408890.428881,-9.720228,0.060976,0.608560,0.038943,-0.170890,0.015730
1765408890.430827,-10.043041,-0.148852,1.303802,0.038026,-0.155465,0.013744
1765408890.432871,-9.918698,-0.389766,1.152558,0.041539,-0.155465,0.014355
1765408890.435815,-9.918698,-0.389766,0.575681,0.041539,-0.166461,0.014355
1765408890.437886,-9.873264,0.112386,0.951698,0.039706,-0.163559,-0.003512
1765408890.440860,-9.971304,0.290531,1.120277,0.043371,-0.167224,0.008858
1765408890.443879,-10.218196,0.237924,1.324725,0.041386,-0.156687,0.009621
1765408890.444379,-10.188903,0.086083,1.381516,0.036957,-0.156687,0.016952
1765408890.448825,-10.188903,0.086083,1.381516,0.036957,-0.160047,0.016952
1765408890.449325,-9.710664,-0.548183,0.626494,0.038943,-0.175166,0.011454
1765408890.453918,-9.976088,-0.016738,1.097561,0.041081,-0.167988,-0.004581
1765408890.455849,-10.019128,0.268412,1.249402,0.044135,-0.156534,0.002749
1765408890.457880,-9.835006,0.300693,1.184242,0.040317,-0.156534,0.009468
1765408890.460897,-9.876852,0.227164,1.028216,0.041692,-0.161116,0.018784
1765408890.462906,-9.812290,-0.288140,0.853061,0.036805,-0.170431,0.018479
1765408890.465832,-9.952174,-0.266021,0.998924,0.040470,-0.170431,0.008552
1765408890.466900,-9.952174,-0.266021,0.998924,0.040470,-0.160047,0.008552
1765408890.470812,-9.898373,0.212817,1.213534,0.041844,-0.160963,0.004123
1765408890.471892,-9.965924,0.267814,1.303204,0.039095,-0.162796,0.013134
1765408890.473900,-9.858320,0.020923,1.073649,0.038943,-0.167530,0.017257
1765408890.477835,-10.021520,-0.202056,1.000717,0.041844,-0.176998,0.017868
1765408890.480804,-10.162600,-0.246891,1.225490,0.043066,-0.172264,0.007789
1765408890.482876,-10.054996,-0.184122,1.229675,0.046578,-0.163254,0.007941
1765408890.485896,-9.687947,0.019130,0.927786,0.044135,-0.163254,0.003207
1765408890.487822,-9.720228,0.222382,0.970827,0.044288,-0.170431,0.008094
1765408890.490844,-9.852941,0.006576,1.087996,0.042150,-0.170431,0.016188
1765408890.491833,-9.852941,0.006576,1.087996,0.042150,-0.173638,0.016188
1765408890.495837,-10.123145,0.002391,1.482544,0.044593,-0.163254,0.010843
1765408890.496976,-9.904350,-0.038259,1.346246,0.047647,-0.170737,0.009010
1765408890.500868,-9.684361,-0.173362,0.754424,0.045815,-0.180511,0.010232
1765408890.502850,-9.831419,-0.060976,0.689861,0.045204,-0.193797,0.007178
1765408890.505880,-10.148253,0.066954,1.319942,0.044593,-0.174707,0.008705
1765408890.506932,-9.809898,-0.005978,1.062888,0.047647,-0.163406,0.013286
1765408890.510876,-9.959946,0.087877,1.003706,0.039859,-0.174707,0.006109
1765408890.513813,-9.980869,0.021521,1.006695,0.040012,-0.176693,0.009163
1765408890.515931,-10.260639,-0.005978,1.456839,0.048869,-0.176693,0.015119
1765408890.520979,-10.108798,-0.182927,1.683405,0.051618,-0.167072,0.015424
1765408890.521479,-9.695121,-0.120158,0.917025,0.048106,-0.177915,0.009163
1765408890.522885,-9.476326,-0.010760,0.164395,0.044440,-0.188452,0.000764
1765408890.525821,-9.958152,0.433405,1.181851,0.049327,-0.182191,0.006261
1765408890.527837,-10.094451,0.268412,1.609278,0.049480,-0.165544,0.020922
1765408890.530879,-9.918099,-0.092061,1.335485,0.036041,-0.174555,0.014966
1765408890.533895,-9.973696,-0.407700,0.963056,0.038485,-0.186008,0.010537
1765408890.535908,-9.793758,-0.423242,0.692252,0.056505,-0.186467,0.011301
1765408890.538918,-10.260639,0.289335,1.425155,0.055741,-0.186925,-0.002138
1765408890.540929,-10.339549,0.351506,1.763510,0.041386,-0.168752,0.004123
1765408890.543809,-10.077712,0.108800,1.130440,0.050244,-0.186619,0.018479
1765408890.545942,-10.282758,-0.013152,1.362386,0.052687,-0.189368,0.017562
1765408890.548903,-10.365253,-0.188905,1.667264,0.049786,-0.184787,0.013897
1765408890.550908,-10.276181,-0.216404,1.366571,0.043219,-0.184787,0.006872
1765408890.553820,-9.892395,-0.026303,0.845289,0.048564,-0.194255,0.004734
1765408890.555811,-9.756096,0.147059,0.817790,0.051924,-0.183565,0.008858
1765408890.558884,-9.756694,0.193089,1.192611,0.052993,-0.182801,0.010537
1765408890.560872,-10.320420,0.242707,1.904591,0.049786,-0.180663,0.011454
1765408890.562841,-10.105211,-0.049020,1.334290,0.046120,-0.192117,0.014508
1765408890.565852,-10.037063,0.011956,1.142994,0.045815,-0.198378,0.011606
1765408890.568864,-9.750119,-0.278575,0.976805,0.048258,-0.197309,0.014203
1765408890.570922,-9.897178,-0.047824,1.249402,0.052229,-0.193644,0.005956
1765408890.573875,-9.842180,0.151841,1.127451,0.053298,-0.193644,0.005803
1765408890.575863,-9.848158,0.236729,0.999522,0.045204,-0.195324,0.005956
1765408890.577864,-10.131515,0.374821,1.288857,0.046426,-0.190590,0.009316
1765408890.580878,-10.326398,0.022716,1.715088,0.053603,-0.189979,0.020617
1765408890.582859,-9.913317,-0.384983,1.230273,0.056810,-0.190437,0.019090
1765408890.585966,-9.782400,-0.194883,0.767575,0.049633,-0.200517,0.000305
1765408890.588829,-10.258247,0.306074,1.515423,0.048869,-0.191048,-0.006567
1765408890.590833,-10.243901,0.459110,1.808943,0.055894,-0.181732,0.010232
1765408890.593843,-9.989238,0.349115,1.554280,0.049480,-0.186925,0.014661
1765408890.595918,-9.628765,0.033477,1.012673,0.038179,-0.197615,0.013744
1765408890.598826,-9.736967,-0.162602,0.921808,0.044288,-0.203113,0.010232
1765408890.600833,-9.713055,-0.158417,0.891918,0.051924,-0.208916,0.009316
1765408890.603880,-9.721423,0.165591,1.245815,0.044593,-0.183718,-0.002291
1765408890.604380,-9.533715,0.434003,1.084409,0.042761,-0.183718,0.004276
1765408890.607976,-9.533715,0.434003,1.084409,0.042761,-0.193644,0.004276
1765408890.610921,-10.098636,0.109995,1.616451,0.043982,-0.192575,0.011301
1765408890.611971,-10.266617,0.121353,1.875896,0.041081,-0.192575,0.009468
1765408890.616964,-9.961740,0.049020,1.462219,0.047495,-0.202044,0.010843
1765408890.617898,-9.432089,-0.373625,0.618125,0.046120,-0.202044,0.010385
1765408890.618921,-9.432089,-0.373625,0.618125,0.046120,-0.208763,0.010385
1765408890.621838,-9.991630,0.150646,1.511238,0.047189,-0.188146,-0.001069
1765408890.625908,-9.812290,0.325203,1.481946,0.047189,-0.185703,0.003207
1765408890.627910,-9.687349,0.307269,1.068866,0.046120,-0.199295,0.007178
1765408890.631940,-9.922284,-0.114180,1.385700,0.051924,-0.199295,0.019700
1765408890.633917,-9.906742,-0.404113,1.486729,0.053451,-0.197462,0.007178
1765408890.635924,-9.844571,-0.142874,1.434122,0.048106,-0.195171,-0.002138
1765408890.637900,-9.725608,0.228360,1.162123,0.044288,-0.195171,-0.005345
1765408890.640857,-9.856527,0.430416,1.231468,0.049786,-0.202807,0.005803
1765408890.642908,-9.733977,0.053204,1.217121,0.049786,-0.194408,0.012828
1765408890.645850,-9.819464,0.019130,1.464610,0.045204,-0.189674,0.007483
1765408890.648818,-10.102820,-0.043639,1.773075,0.045051,-0.209374,0.008705
1765408890.650862,-9.837996,-0.236729,1.211143,0.048564,-0.209374,0.009316
1765408890.652844,-10.022716,0.039455,1.359397,0.049175,-0.209374,-0.001222
1765408890.655478,-9.714250,-0.000598,1.239837,0.049175,-0.189979,0.003512
1765408890.657902,-9.763269,0.035868,1.330703,0.050702,-0.196088,0.002443
1765408890.660859,-10.248685,0.283955,1.956002,0.049022,-0.208610,-0.001069
1765408890.662926,-9.977880,0.069345,1.374940,0.046578,-0.200517,0.011148
1765408890.665911,-9.977880,0.069345,1.374940,0.046578,-0.211512,0.011148
1765408890.667834,-9.817670,-0.271999,1.384505,0.049938,-0.197768,0.005651
1765408890.670986,-10.096842,-0.081899,1.769488,0.053298,-0.197768,0.000458
1765408890.672868,-10.276181,0.166188,1.835246,0.048411,-0.200975,-0.001985
1765408890.675885,-10.003586,0.288140,1.412004,0.053145,-0.202960,0.004276
1765408890.677917,-9.787182,-0.017336,1.031205,0.053145,-0.204029,0.004276
1765408890.680885,-10.071735,-0.212817,1.738402,0.053603,-0.213497,0.009316
1765408890.681955,-10.163795,-0.412482,1.645743,0.049633,-0.206931,0.001222
1765408890.685879,-10.163795,-0.412482,1.645743,0.049633,-0.213497,0.001222
1765408890.687908,-9.793160,0.256456,1.251195,0.055741,-0.204029,-0.004123
1765408890.690855,-9.740554,0.227164,1.694165,0.053603,-0.198073,0.007483
1765408890.693902,-9.807508,0.077714,1.556073,0.053603,-0.208763,0.008552
1765408890.695817,-10.001194,-0.015543,1.465806,0.048869,-0.215177,0.006261
1765408890.698920,-10.004781,0.013749,1.432329,0.056200,-0.210749,0.010537
1765408890.700942,-9.955761,-0.324008,1.672644,0.060018,-0.209221,0.012828
1765408890.701899,-9.660448,-0.166188,1.150765,0.057116,-0.215941,0.001680
1765408890.705901,-9.907937,0.219990,1.388690,0.055589,-0.204487,-0.003665
1765408890.708931,-9.876852,0.290531,1.335485,0.053756,-0.204487,0.005803
1765408890.710896,-10.299497,0.350311,1.829268,0.060781,-0.211359,0.016799
1765408890.712941,-10.265422,-0.182927,2.199904,0.053298,-0.202960,0.014813
1765408890.715938,-10.369438,-0.316834,2.163438,0.059559,-0.200211,0.010232
1765408890.718934,-9.771041,-0.295313,1.055715,0.060170,-0.215177,0.008247
1765408890.720987,-9.953370,0.060976,1.284074,0.059101,-0.237474,-0.005345
1765408890.723960,-10.280366,0.450143,1.920134,0.060934,-0.210290,0.004276
1765408890.725889,-9.775226,0.082496,1.502869,0.059254,-0.206320,0.013744
1765408890.727876,-9.738162,0.124342,1.158536,0.049022,-0.213497,0.007789
1765408890.730967,-10.004781,-0.083094,1.648733,0.055436,-0.216552,0.010385
1765408890.732875,-10.087276,-0.386777,1.843615,0.057269,-0.217163,0.011148
1765408890.735905,-10.068149,-0.196676,1.712099,0.059407,-0.222966,0.001985
1765408890.738851,-9.960544,0.041846,1.748565,0.060018,-0.218537,-0.005651
1765408890.740877,-9.858320,0.187709,1.538737,0.058032,-0.218537,0.003971
1765408890.741856,-9.760879,0.222979,1.377331,0.057879,-0.225867,0.006261
1765408890.745846,-9.832614,0.028694,1.451458,0.060781,-0.225715,0.010537
1765408890.746905,-9.909132,-0.087279,1.737207,0.062461,-0.218842,0.008705
1765408890.750844,-9.982065,-0.361669,1.734816,0.062003,-0.217621,0.007178
1765408890.752850,-9.791965,-0.141081,1.489718,0.064904,-0.224035,-0.001222
1765408890.755935,-9.729793,0.180536,1.532759,0.061545,-0.217926,-0.002291
1765408890.757930,-9.684361,0.279770,1.482544,0.060323,-0.222202,0.003207
1765408890.760909,-10.156025,0.338953,1.951219,0.061697,-0.223424,0.006720
1765408890.762891,-9.946198,0.008369,1.738402,0.058796,-0.220828,0.014050
1765408890.765877,-9.650884,-0.367049,1.079627,0.063530,-0.220828,0.011606
1765408890.768908,-9.670013,-0.203252,1.357006,0.066126,-0.217163,-0.000611
1765408890.770938,-10.240315,0.179340,2.195122,0.066126,-0.213039,-0.001833
1765408890.772943,-10.065758,0.205643,2.112625,0.062156,-0.204945,0.006720
1765408890.775946,-9.730392,0.089072,1.509445,0.060323,-0.220370,0.005040
1765408890.777894,-9.763867,0.272597,1.574605,0.060323,-0.220370,0.007330
1765408890.780937,-9.843375,0.020325,1.673840,0.064904,-0.224798,0.014203
1765408890.782924,-10.059181,-0.169775,1.678622,0.061850,-0.228311,0.009621
1765408890.785887,-9.912720,-0.135103,1.579388,0.064904,-0.223424,0.002749
1765408890.787875,-9.874461,0.104615,1.896222,0.068264,-0.218995,0.003818
1765408890.790960,-9.748325,0.228360,1.669656,0.068570,-0.218995,0.004123
1765408890.792935,-9.748325,0.228360,1.669656,0.068570,-0.226173,0.004123
1765408890.795966,-10.196077,0.080105,1.910569,0.063072,-0.223882,0.014203
1765408890.797945,-10.068149,-0.206839,1.922525,0.065973,-0.223882,0.015424
1765408890.800858,-9.819464,-0.318030,1.551889,0.058338,-0.226326,0.006720
1765408890.802911,-9.652678,-0.032281,1.201578,0.058490,-0.233503,-0.001680
1765408890.805955,-9.638927,0.202056,1.219512,0.067959,-0.223271,0.003360
1765408890.807871,-9.736967,0.124342,1.629603,0.064294,-0.224798,0.011148
1765408890.811000,-10.177545,0.243902,2.236968,0.063072,-0.216552,0.005498
1765408890.812894,-10.108798,-0.072932,2.037302,0.059712,-0.220980,0.010079
1765408890.815942,-9.705881,-0.358082,1.337279,0.064904,-0.229074,0.010079
1765408890.817953,-9.579745,-0.213415,1.406026,0.069333,-0.232282,0.001985
1765408890.818927,-9.868484,0.131516,1.909971,0.069791,-0.233351,0.000305
1765408890.821919,-9.640123,0.100430,1.325323,0.070097,-0.233351,0.006872
1765408890.825903,-9.858918,0.166188,1.426351,0.069486,-0.236863,0.001985
1765408890.827884,-9.996411,0.132114,1.891439,0.071929,-0.222813,0.005345
1765408890.830997,-10.132113,0.005978,2.385222,0.070402,-0.220980,0.007789
1765408890.833874,-9.847560,-0.086083,1.725251,0.064294,-0.250760,0.008552
1765408890.835857,-9.684958,-0.167982,1.375538,0.068722,-0.250760,0.003207
1765408890.836873,-9.864896,0.046628,1.686992,0.072846,-0.237168,0.001985
1765408890.840904,-10.007172,0.142276,2.067193,0.073762,-0.235641,0.004887
1765408890.842925,-10.206838,0.179938,2.160449,0.069028,-0.235641,0.001985
1765408890.845900,-10.206838,0.179938,2.160449,0.069028,-0.237474,0.001985
1765408890.847928,-9.793758,-0.020923,1.578192,0.073457,-0.241139,0.012217
1765408890.848927,-9.809898,-0.121951,1.824486,0.074678,-0.241597,0.012217
1765408890.852930,-10.049019,0.011956,2.018771,0.069944,-0.243124,0.005803
1765408890.853937,-9.878048,0.144668,1.458632,0.066890,-0.243124,0.005956
1765408890.857920,-9.878048,0.144668,1.458632,0.066890,-0.248317,0.005956
1765408890.860927,-10.049617,0.230751,2.061214,0.070402,-0.235489,0.006872
1765408890.862943,-10.191893,0.077714,2.428264,0.067348,-0.235336,0.014966
1765408890.865988,-9.818267,-0.192492,1.872310,0.069639,-0.257327,0.012828
1765408890.867900,-9.708273,-0.246294,1.384505,0.070250,-0.257327,0.006109
1765408890.870937,-9.876852,0.071138,1.779053,0.074067,-0.249691,0.001527
1765408890.872930,-9.706479,0.088474,1.789813,0.075136,-0.245721,0.006109
1765408890.875863,-9.532519,0.208034,1.456839,0.068722,-0.244193,0.001069
1765408890.878990,-9.538497,0.304280,1.506456,0.066584,-0.242972,0.003512
1765408890.880872,-9.661644,0.164395,1.944046,0.069944,-0.244193,0.013134
1765408890.883872,-9.878048,-0.060976,2.123984,0.073457,-0.240528,0.011301
1765408890.885876,-9.726804,-0.070540,1.903395,0.071624,-0.245873,0.005651
1765408890.887933,-9.784791,0.073529,1.770684,0.068264,-0.245568,0.002443
1765408890.890956,-9.740554,0.190100,1.592539,0.071319,-0.253509,0.003818
1765408890.892952,-9.939023,0.194285,1.853180,0.072846,-0.251218,0.007636
1765408890.895884,-10.074127,0.081301,2.174796,0.071013,-0.240070,0.009010
1765408890.897906,-10.058583,-0.054400,2.375657,0.072235,-0.233198,0.007941
1765408890.900888,-9.777020,-0.231946,1.886657,0.073151,-0.244193,0.008247
1765408890.902979,-9.777020,-0.231946,1.886657,0.073151,-0.256716,0.008247
1765408890.905872,-9.893590,0.068747,2.031324,0.070250,-0.248622,-0.002749
1765408890.906857,-9.869678,0.249283,2.129364,0.074678,-0.246637,-0.001374
1765408890.910878,-9.561213,0.221186,1.671449,0.072846,-0.246942,0.006567
1765408890.912908,-9.656861,0.059780,1.511836,0.066279,-0.256563,0.006109
1765408890.913868,-9.977283,0.141081,2.166427,0.074678,-0.248164,0.004581
1765408890.917903,-9.996411,0.012554,2.445002,0.078038,-0.242819,0.012675
1765408890.920914,-9.754900,0.031086,1.978718,0.069791,-0.247859,0.002902
1765408890.922910,-9.748923,0.130320,1.805954,0.070097,-0.246331,0.002443
1765408890.926016,-9.640720,0.212219,1.877690,0.080481,-0.246331,0.003818
1765408890.927941,-9.808105,0.327594,2.143711,0.070555,-0.256563,0.005803
1765408890.930924,-10.202055,0.214012,2.397776,0.063835,-0.253662,-0.000305
1765408890.932943,-10.069344,-0.044835,2.142515,0.074984,-0.254273,0.010996
1765408890.933941,-9.829028,-0.105213,1.887254,0.075136,-0.261908,0.006414
1765408890.937951,-9.962935,0.163797,2.302726,0.072082,-0.256563,-0.004429
1765408890.940863,-9.765661,0.108800,1.967958,0.072235,-0.253509,-0.001069
1765408890.941979,-9.840983,0.249880,1.776064,0.072388,-0.268170,-0.008858
1765408890.945940,-10.068149,0.438785,2.195719,0.062766,-0.256716,-0.006720
1765408890.946947,-9.974891,0.247489,2.338594,0.071013,-0.249386,0.004276
1765408890.950872,-9.777617,-0.078910,1.904591,0.070402,-0.256411,0.004429
1765408890.952844,-9.729793,0.022119,1.917145,0.066584,-0.266795,-0.004276
1765408890.955883,-9.759683,0.147059,1.889048,0.069791,-0.257632,-0.000305
1765408890.957865,-9.618603,0.209230,1.686992,0.076358,-0.263588,0.000305
1765408890.960891,-9.933045,0.382592,2.268053,0.071319,-0.262367,-0.005651
1765408890.963891,-9.668818,0.261836,1.871114,0.071166,-0.247400,0.002749
1765408890.965943,-9.567192,-0.020325,1.593735,0.073915,-0.259465,0.006567
1765408890.966960,-9.763269,-0.121951,1.975131,0.070708,-0.262061,-0.000458
1765408890.968840,-10.127929,0.160808,2.500000,0.071166,-0.263130,-0.010385
1765408890.971950,-9.823050,0.309660,2.043280,0.067806,-0.259923,-0.010537
1765408890.973953,-9.664036,0.533238,1.713295,0.064752,-0.263130,-0.007025
1765408890.977937,-9.642514,0.342539,1.757532,0.064904,-0.259770,0.001680
1765408890.980966,-9.989238,0.105213,2.401961,0.065821,-0.256258,0.001833
1765408890.983051,-10.002390,-0.059780,2.421688,0.063988,-0.256258,-0.002443
1765408890.985919,-9.614418,-0.038259,1.734816,0.067042,-0.260534,-0.003207
1765408890.987906,-9.491868,0.192492,1.615256,0.069333,-0.263741,-0.007941
1765408890.990849,-9.491868,0.192492,1.615256,0.069333,-0.252440,-0.007941
1765408890.992910,-9.959349,0.139885,2.552606,0.069791,-0.262367,0.005040
1765408890.995877,-9.762074,-0.065758,2.145504,0.062461,-0.262367,0.002443
1765408890.997845,-9.774031,-0.132712,2.013391,0.061697,-0.267559,-0.004429
1765408891.000913,-9.456598,-0.182927,1.776662,0.074526,-0.256105,0.000153
1765408891.002917,-9.386656,-0.081301,1.751554,0.076664,-0.269239,-0.002291
1765408891.005884,-9.943806,0.159015,2.447393,0.063835,-0.252593,-0.013286
1765408891.006895,-10.078907,0.208034,2.668580,0.067501,-0.252593,-0.003207
1765408891.010899,-9.832614,0.072932,2.032520,0.074220,-0.257632,0.002902
1765408891.012879,-9.837397,-0.053802,2.228001,0.068264,-0.267712,-0.007330
1765408891.015963,-9.950381,-0.108202,2.428264,0.072540,-0.262214,0.002138
1765408891.016924,-9.661644,-0.329986,1.826279,0.073609,-0.268323,0.001680
1765408891.019934,-9.985053,0.063367,2.429459,0.069180,-0.272904,-0.016188
1765408891.022973,-10.036465,0.224773,2.541846,0.068111,-0.254120,-0.011301
1765408891.025939,-9.688545,0.289335,2.087518,0.074831,-0.264657,-0.002443
1765408891.028985,-9.583930,0.143472,1.944046,0.067195,-0.264657,0.001833
1765408891.030925,-9.890601,-0.100430,2.425873,0.068111,-0.269086,0.003054
1765408891.033887,-9.979673,-0.370636,2.413917,0.073457,-0.270308,0.000764
1765408891.035905,-9.797942,-0.205643,2.253108,0.075442,-0.270155,-0.010232
1765408891.037896,-9.512194,0.199665,1.896820,0.072388,-0.272751,-0.013286
1765408891.040891,-9.715446,0.411286,2.312290,0.075442,-0.272751,-0.005803
1765408891.042993,-9.715446,0.411286,2.312290,0.075442,-0.266490,-0.005803
1765408891.045956,-9.701099,-0.154232,1.967958,0.077122,-0.272599,0.009468
1765408891.047933,-9.825441,-0.317432,2.094691,0.074831,-0.266337,0.000611
1765408891.050918,-9.974891,-0.184122,2.531085,0.081398,-0.270613,-0.000153
1765408891.052891,-10.106407,-0.044237,2.638091,0.082009,-0.270613,-0.003665
1765408891.055957,-10.106407,-0.044237,2.638091,0.082009,-0.274889,-0.003665
1765408891.057961,-9.982065,0.199665,2.413917,0.077122,-0.276417,0.000916
1765408891.061182,-9.762672,-0.014347,2.095289,0.086132,-0.276417,0.006261
1765408891.062986,-9.873863,-0.081301,2.539454,0.081398,-0.279929,0.006261
1765408891.063959,-9.895385,-0.138690,2.465925,0.077733,-0.271071,-0.005803
1765408891.067016,-9.828429,0.028694,2.195719,0.083994,-0.281762,-0.004276
1765408891.070951,-9.907937,0.225371,2.385222,0.080940,-0.281609,-0.008858
1765408891.072941,-9.945002,0.365854,2.445002,0.081092,-0.273973,-0.005345
1765408891.075898,-9.945002,0.365854,2.445002,0.081092,-0.274584,-0.005345
1765408891.077966,-9.521161,0.138092,1.952415,0.073609,-0.279776,0.001374
1765408891.080911,-9.815877,-0.056791,2.438426,0.080176,-0.280387,0.004887
1765408891.082881,-9.942610,-0.211621,2.472501,0.079260,-0.277944,0.000458
1765408891.085919,-9.714250,-0.112386,2.288378,0.077885,-0.273209,-0.006567
1765408891.087981,-9.618603,0.001196,2.464132,0.083383,-0.268933,-0.005803
1765408891.088976,-9.393829,0.129125,2.098278,0.085979,-0.282372,-0.003207
1765408891.091961,-9.912720,0.328192,2.480870,0.079871,-0.292757,-0.007636
1765408891.095924,-9.949186,0.114778,2.669775,0.080023,-0.278249,-0.000458
1765408891.097891,-9.644308,-0.038259,2.265662,0.087354,-0.277027,0.001985
1765408891.099897,-9.403395,-0.093257,2.004424,0.087354,-0.286954,0.001985
1765408891.102934,-9.756096,0.102224,2.495217,0.084910,-0.285732,-0.006720
1765408891.105925,-9.617407,0.162602,2.223816,0.086896,-0.279624,-0.002902
1765408891.106939,-9.659253,0.199665,2.330224,0.087048,-0.270155,-0.004429
1765408891.111025,-9.887015,0.138690,2.637494,0.084910,-0.270155,-0.004429
1765408891.112958,-9.613820,0.038857,2.392396,0.091630,-0.275500,0.005651
1765408891.113921,-9.332854,-0.246294,2.015782,0.082009,-0.285579,0.000611
1765408891.118958,-9.640123,0.063367,2.386418,0.082314,-0.290008,-0.012523
1765408891.120941,-9.894786,0.298900,2.759445,0.091477,-0.274584,-0.005803
1765408891.122955,-9.497847,0.209230,2.025944,0.085063,-0.287412,-0.004429
1765408891.125935,-9.662840,0.389766,2.714012,0.074220,-0.275348,-0.013744
1765408891.126944,-10.023911,0.263630,3.052367,0.086896,-0.264963,0.000764
1765408891.133254,-9.616212,0.112386,2.454567,0.081551,-0.271988,0.009468
1765408891.133754,-9.898373,-0.080105,2.607604,0.081551,-0.299782,0.009468
1765408891.135924,-9.956957,-0.040650,2.643472,0.083689,-0.285274,0.001069
1765408891.137926,-9.294595,-0.133309,1.770684,0.085674,-0.282831,-0.001374
1765408891.140933,-9.575562,0.289335,2.645863,0.081245,-0.282372,-0.013744
1765408891.142904,-9.924676,0.211023,3.065519,0.079260,-0.269086,-0.001527
1765408891.145916,-9.852941,0.046031,2.479675,0.088728,-0.282525,0.009621
1765408891.148929,-9.838593,-0.265423,2.533477,0.080787,-0.288634,0.000153
1765408891.150892,-10.087276,-0.151841,2.886776,0.084605,-0.286649,-0.009010
1765408891.152903,-9.781204,0.010163,2.604017,0.094379,-0.283441,-0.009468
1765408891.155926,-9.373504,0.231946,2.064204,0.087048,-0.289092,-0.013744
1765408891.158964,-9.638927,0.526064,2.514347,0.083383,-0.282678,-0.007789
1765408891.160977,-10.068149,0.338953,3.015303,0.086437,-0.282220,0.005498
1765408891.162998,-10.135699,0.050215,3.060138,0.086590,-0.285885,0.003971
1765408891.165932,-9.620397,-0.054998,2.437828,0.087812,-0.287412,-0.004581
1765408891.167900,-9.332854,-0.144070,1.974533,0.086743,-0.287412,-0.002138
1765408891.170981,-9.604255,-0.039455,2.421090,0.092699,-0.301157,-0.007483
1765408891.172981,-10.121950,0.331181,3.170731,0.089186,-0.281303,-0.013439
1765408891.175896,-9.813485,0.375418,2.569345,0.085827,-0.276875,-0.005651
1765408891.177949,-9.479913,0.328790,2.268053,0.082772,-0.277791,-0.002138
1765408891.180947,-9.614418,0.073529,2.525107,0.086896,-0.291383,-0.001222
1765408891.182868,-9.941415,-0.223577,2.992587,0.082314,-0.292910,-0.003512
1765408891.185853,-9.722619,-0.154232,2.715208,0.086896,-0.286649,-0.012217
1765408891.187883,-9.432089,0.279770,2.315877,0.087965,-0.284816,-0.015577
1765408891.190890,-9.326876,0.364060,2.373266,0.087201,-0.295048,-0.009468
1765408891.193974,-9.922284,0.325203,3.118723,0.088881,-0.298408,-0.009774
1765408891.195923,-9.265901,0.008967,2.088115,0.085979,-0.299477,-0.006261
1765408891.198946,-9.311333,0.120756,2.276423,0.080329,-0.282067,-0.017104
1765408891.199446,-9.488282,0.143472,2.838354,0.087965,-0.282067,-0.012981
1765408891.202894,-9.495455,0.266619,2.599235,0.091630,-0.297491,-0.007178
1765408891.205938,-9.555235,0.263032,2.492826,0.078649,-0.302836,-0.024282
1765408891.208942,-9.520563,0.512912,2.580105,0.084910,-0.284816,-0.012981
1765408891.211051,-9.224054,0.326997,2.281205,0.087965,-0.299019,0.000458
1765408891.212982,-9.733380,0.281564,2.797704,0.081398,-0.299019,-0.013897
1765408891.215970,-9.733380,0.281564,2.797704,0.081398,-0.281914,-0.013897
1765408891.219000,-9.206120,-0.134505,2.009804,0.083383,-0.285885,-0.004581
1765408891.220922,-9.265901,0.212219,2.307508,0.079871,-0.293979,-0.022144
1765408891.223022,-9.628765,0.318627,2.955523,0.079565,-0.284052,-0.013744
1765408891.223997,-9.802128,0.282162,3.016499,0.088270,-0.288328,-0.004581
1765408891.227898,-9.802128,0.282162,3.016499,0.088270,-0.292910,-0.004581
1765408891.230938,-9.795551,-0.009565,2.741511,0.075289,-0.278402,-0.013286
1765408891.233909,-9.600070,0.035868,2.717599,0.088881,-0.278402,-0.015730
1765408891.234409,-9.653275,0.271401,3.120516,0.089797,-0.290925,-0.017104
1765408891.237965,-9.737565,0.139885,3.082257,0.074831,-0.292146,-0.018784
1765408891.240908,-9.759683,0.156624,2.703252,0.085521,-0.295353,-0.014050
1765408891.242995,-9.351386,0.051411,2.270445,0.088423,-0.285732,-0.014966
1765408891.245939,-9.510998,0.282759,2.891559,0.080787,-0.285732,-0.019700
1765408891.246954,-9.355571,0.143472,2.540650,0.082620,-0.283289,-0.014966
1765408891.250956,-9.680773,-0.169775,2.794117,0.085674,-0.303905,-0.014203
1765408891.252913,-9.635341,-0.154232,2.528096,0.092241,-0.299935,-0.023213
1765408891.255937,-9.672404,0.245696,2.786943,0.092393,-0.279013,-0.023976
1765408891.257903,-9.415350,0.289335,2.801291,0.091019,-0.279013,-0.021533
1765408891.258889,-9.526542,0.444763,2.822214,0.091019,-0.293979,-0.021533
1765408891.263923,-9.716641,0.084290,3.004543,0.084758,-0.307265,-0.009927
1765408891.265939,-10.053802,0.079507,3.274749,0.085521,-0.307265,-0.016952
1765408891.268918,-9.658057,-0.054998,2.688307,0.083536,-0.302836,-0.013286
1765408891.270917,-9.685556,0.163797,2.711621,0.084452,-0.298713,-0.020617
1765408891.273951,-9.556431,0.318030,2.809660,0.084452,-0.291230,-0.020617
1765408891.274451,-9.624580,0.138690,2.888570,0.082161,-0.300546,-0.008705
1765408891.277911,-9.793758,-0.005978,2.905308,0.081092,-0.306502,-0.014203
1765408891.280888,-9.793758,-0.005978,2.905308,0.081092,-0.300851,-0.014203
1765408891.281936,-9.384265,-0.102822,2.614777,0.085827,-0.296575,-0.013744
1765408891.285929,-9.134982,-0.080105,2.394787,0.086132,-0.303142,-0.018631
1765408891.287880,-9.387254,0.026901,2.648852,0.085063,-0.306807,-0.021380
1765408891.290908,-9.470347,0.191894,2.877809,0.088728,-0.304669,-0.021075
1765408891.291894,-9.258727,0.298302,2.742707,0.089797,-0.298102,-0.013439
1765408891.293926,-9.212098,0.141081,2.552606,0.083841,-0.309098,-0.015119
1765408891.296941,-9.442849,-0.074127,2.910090,0.086590,-0.309098,-0.009774
1765408891.300956,-9.588712,-0.358680,2.837159,0.091172,-0.311389,-0.009010
1765408891.303866,-9.543280,-0.105213,2.905308,0.093768,-0.308945,-0.021838
1765408891.305926,-9.576756,0.346126,3.065519,0.090408,-0.293979,-0.024282
1765408891.308959,-9.406981,0.269010,2.838354,0.090255,-0.302531,-0.006720
1765408891.310970,-9.554638,0.017934,2.818029,0.087965,-0.310014,-0.011301
1765408891.312936,-9.812887,0.049020,3.159971,0.090103,-0.304822,-0.015119
1765408891.315951,-9.774031,-0.080105,3.341104,0.091019,-0.293063,-0.011454
1765408891.318027,-9.390243,-0.035868,2.796509,0.096517,-0.303600,-0.012065
1765408891.320978,-9.557627,0.022716,3.152797,0.084758,-0.302073,-0.022755
1765408891.321942,-9.683763,0.198470,3.145624,0.097891,-0.300546,-0.015272
1765408891.326012,-9.556431,0.246294,3.091822,0.096517,-0.305433,-0.012065
1765408891.327948,-9.667622,0.282162,3.326757,0.092241,-0.306960,-0.020006
1765408891.330989,-9.597081,0.124342,3.140841,0.092088,-0.298866,-0.009010
1765408891.332984,-9.292204,-0.296509,2.819823,0.101251,-0.315817,-0.008247
1765408891.335949,-9.345408,0.051411,2.684122,0.095142,-0.315817,-0.021686
1765408891.337925,-9.633547,0.257054,3.052965,0.095142,-0.312916,-0.021686
1765408891.341977,-9.735173,0.434003,3.339909,0.093462,-0.304364,-0.017257
1765408891.343924,-9.629362,0.184720,3.176709,0.099266,-0.305585,-0.004734
1765408891.345945,-9.609037,-0.060976,3.120516,0.094226,-0.307723,-0.009010
1765408891.347922,-9.727402,-0.132114,3.195839,0.096975,-0.317039,-0.014966
1765408891.351006,-9.714250,-0.037064,3.137254,0.099113,-0.321162,-0.013439
1765408891.352989,-9.750119,-0.076518,3.142037,0.096517,-0.325133,-0.022907
1765408891.355924,-9.840983,0.242707,3.400287,0.099418,-0.311847,-0.021228
1765408891.358006,-9.245575,0.077714,2.824007,0.098807,-0.309251,-0.012217
1765408891.360917,-9.281443,0.113582,2.760042,0.095600,-0.325133,-0.019395
1765408891.362896,-9.549855,0.124342,2.930416,0.093615,-0.327271,-0.020769
1765408891.363896,-9.680773,0.058584,3.044595,0.103084,-0.323148,-0.011912
1765408891.367000,-9.282639,0.037064,2.697871,0.105527,-0.317345,-0.018326
1765408891.370968,-9.417742,0.402319,3.222142,0.100793,-0.311847,-0.025962
1765408891.372999,-9.746531,0.231946,3.575442,0.098960,-0.311847,-0.009927
