time,acc_x_g,acc_y_g,acc_z_g,gyro_x_rad_s,gyro_y_rad_s,gyro_z_rad_s
1765410004.404425,6.827474,6.105929,3.906025,-0.010232,0.004734,-0.004887
1765410004.404625,-6.982304,5.847680,3.833094,-0.005651,-0.008705,-0.001985
1765410004.404825,-7.107244,5.784313,4.145743,-0.009010,-0.007330,-0.004887
1765410004.405025,-7.146699,5.814203,4.072214,-0.009010,-0.009774,-0.004887
1765410004.405225,-6.948827,5.809421,3.745217,-0.007178,-0.005651,0.000458
1765410004.405442,-6.988282,5.808225,3.919775,-0.007330,-0.007330,0.000611
1765410004.405692,-6.990673,5.798660,3.976566,-0.008399,-0.005956,-0.001527
1765410004.405942,-6.992467,5.813007,3.884504,-0.007636,-0.001222,-0.000305
1765410004.406192,-7.033715,5.817789,3.955045,-0.011759,-0.007025,-0.001222
1765410004.406413,-7.065997,5.804638,4.019607,-0.009774,-0.007330,-0.003054
1765410004.406613,-7.055834,5.846484,3.845050,-0.008705,-0.007330,-0.001222
1765410004.406813,-7.132950,5.859038,3.885700,-0.008705,-0.006567,-0.001222
1765410004.407013,-7.314681,5.845289,4.124222,-0.005498,-0.002749,-0.001527
1765410004.407213,-7.270444,5.792682,4.018412,-0.006720,-0.000458,-0.003818
1765410004.407399,-7.124580,5.719153,3.755379,-0.004123,0.002291,-0.007025
1765410004.407649,-7.156264,5.758010,3.951458,0.000611,0.002291,-0.012828
1765410004.407899,-7.326637,5.751434,4.002869,0.012217,0.006109,-0.022449
1765410004.408149,-7.357723,5.723337,3.996891,0.017257,0.016188,-0.024587
1765410004.408369,-7.433045,5.564322,4.035748,0.023060,0.016188,-0.033750
1765410004.408619,-7.413916,5.477044,4.017814,0.030238,0.019395,-0.050549
1765410004.408869,-7.339191,5.571496,3.948469,0.034208,0.025962,-0.068570
1765410004.409119,-7.259086,5.820180,4.031563,0.034667,0.034056,-0.080634
1765410004.409436,-7.272835,5.955284,4.002271,0.030543,0.035888,-0.091324
1765410004.409686,-7.494021,6.125059,4.145145,0.028100,0.035888,-0.101404
1765410004.409936,-7.572930,6.148971,4.597082,0.032070,0.059865,-0.107665
1765410004.410186,-7.439621,6.287661,4.224055,0.032376,0.057727,-0.100640
1765410004.410367,-7.379243,6.177067,4.071018,0.032376,0.049022,-0.100640
1765410004.410617,-7.302725,6.205164,4.108082,0.019395,0.075900,-0.110261
1765410004.410867,-7.205881,6.224294,4.066236,0.016341,0.075900,-0.118508
1765410004.411117,-7.201099,6.205164,4.281444,0.004581,0.081245,-0.119271
1765410004.411374,-7.368483,6.142395,4.386657,-0.000458,0.079565,-0.121715
1765410004.411574,-7.307508,6.236848,4.341224,0.001985,0.082620,-0.134543
1765410004.411774,-6.969152,6.378526,3.920372,-0.004887,0.090103,-0.142637
1765410004.411974,-7.136537,6.317551,4.447034,-0.019395,0.100945,-0.147371
1765410004.412174,-7.028933,6.413199,4.402199,-0.019395,0.106138,-0.150120
1765410004.412317,-7.095886,6.588354,4.437469,-0.017104,0.117897,-0.153022
1765410004.412567,-6.670253,6.639167,4.085365,-0.028100,0.117897,-0.154243
1765410004.412817,-6.755140,6.643949,4.224055,-0.026878,0.120493,-0.151800
1765410004.413067,-6.933285,6.615255,4.507412,-0.030085,0.129198,-0.145997
1765410004.413298,-7.026542,6.487326,4.675992,-0.036652,0.135765,-0.142026
1765410004.413631,-6.548900,6.233859,4.153514,-0.043982,0.147677,-0.144164
1765410004.413965,-6.353418,6.128645,3.989717,-0.045662,0.147677,-0.155923
1765410004.414329,-6.398253,6.265542,4.090147,-0.045968,0.160810,-0.163559
1765410004.414579,-6.154949,6.467000,4.264706,-0.053298,0.172875,-0.173180
1765410004.414829,-6.168698,6.614059,4.268292,-0.061697,0.188452,-0.175471
1765410004.415079,-5.924198,6.720468,3.972979,-0.059865,0.193186,-0.168752
1765410004.415359,-6.171687,6.692969,4.378287,-0.067042,0.193186,-0.153480
1765410004.415609,-5.908655,6.376135,4.490674,-0.076053,0.208610,-0.154396
1765410004.415859,-5.290530,6.589550,3.653754,-0.073915,0.214566,-0.165697
1765410004.416109,-5.379004,6.600908,4.055475,-0.090103,0.216246,-0.178373
1765410004.416365,-5.948110,6.612864,4.766858,-0.083994,0.228158,-0.180053
1765410004.416615,-5.736489,6.704925,4.439861,-0.082620,0.243277,-0.164781
1765410004.416865,-5.361071,6.672644,3.901243,-0.091935,0.237932,-0.157756
1765410004.417115,-5.539215,6.494499,4.129602,-0.100793,0.246026,-0.169057
1765410004.417352,-5.947512,6.299616,4.346006,-0.100793,0.257022,-0.174402
1765410004.417602,-5.851865,6.319344,4.093735,-0.111330,0.264657,-0.173486
1765410004.417852,-5.857843,6.278096,4.476326,-0.120951,0.280845,-0.188910
1765410004.418102,-5.805236,6.451458,4.630559,-0.124158,0.302836,-0.217010
1765410004.418352,-6.031205,6.890243,4.658058,-0.118508,0.296881,-0.217773
1765410004.418602,-6.137015,6.910568,4.772835,-0.130725,0.314748,-0.202960
1765410004.418852,-5.575083,6.807149,4.002271,-0.129503,0.332463,-0.189826
1765410004.419102,-5.438785,6.630798,4.099712,-0.137597,0.327424,-0.183260
1765410004.419349,-5.850071,6.362386,4.534911,-0.146760,0.332158,-0.193186
1765410004.419682,-5.945719,6.189621,4.568985,-0.146760,0.354302,-0.208763
1765410004.420016,-5.596006,6.391080,4.222262,-0.142332,0.367894,-0.215483
1765410004.420359,-5.439382,6.493304,3.928144,-0.163254,0.371864,-0.219148
1765410004.420609,-5.685078,6.504064,4.485294,-0.165086,0.375071,-0.223729
1765410004.420859,-5.857244,6.584767,4.633548,-0.163712,0.396452,-0.226173
1765410004.421109,-5.388569,6.513629,3.980153,-0.171806,0.401949,-0.218232
1765410004.421373,-5.717360,6.420970,4.342419,-0.187841,0.401949,-0.219606
1765410004.421623,-6.018651,6.214131,4.655666,-0.180969,0.411418,-0.230754
1765410004.421873,-5.541606,6.284074,3.651363,-0.183412,0.434783,-0.240834
1765410004.422123,-5.245097,6.492706,3.712338,-0.191964,0.445321,-0.248469
1765410004.422376,-5.801052,6.480750,4.472740,-0.195477,0.462883,-0.256105
1765410004.422626,-5.958272,6.602103,4.149928,-0.195019,0.462425,-0.243888
1765410004.422876,-5.843495,6.532161,3.906025,-0.207083,0.478613,-0.234114
1765410004.423126,-5.276183,6.190817,3.341702,-0.216704,0.499382,-0.239612
1765410004.423327,-5.276183,6.190817,3.341702,-0.216704,0.499840,-0.239612
1765410004.423660,-6.150765,6.250597,4.608440,-0.227853,0.524275,-0.265268
1765410004.423994,-5.859635,6.308584,3.614299,-0.220064,0.542907,-0.260687
1765410004.424325,-5.810616,6.293041,3.554519,-0.228158,0.533591,-0.253967
1765410004.424575,-6.267933,6.079626,4.447632,-0.227853,0.538630,-0.258091
1765410004.424825,-6.273314,6.182448,3.792444,-0.231518,0.550695,-0.270613
1765410004.425075,-6.623624,6.096364,3.941296,-0.235794,0.554818,-0.274584
1765410004.425315,-6.511237,5.868603,4.029172,-0.230907,0.578184,-0.274737
1765410004.425565,-6.792204,6.154949,4.102104,-0.231823,0.563676,-0.272904
1765410004.425815,-7.105451,5.816595,4.807508,-0.252135,0.583529,-0.284663
1765410004.426065,-6.709707,6.037780,3.890482,-0.242819,0.599411,-0.309556
1765410004.426303,-6.807747,6.247608,3.882711,-0.250149,0.591165,-0.322537
1765410004.426636,-7.106647,6.345049,4.502630,-0.250760,0.598648,-0.324980
1765410004.426970,-6.915948,6.671448,4.026183,-0.248164,0.610102,-0.312305
1765410004.427332,-6.750358,6.741989,4.358560,-0.263588,0.614072,-0.310778
1765410004.427582,-6.908177,6.504064,4.348398,-0.269392,0.614072,-0.322079
1765410004.427832,-7.038497,6.830463,4.062051,-0.268170,0.606284,-0.327882
1765410004.428082,-7.234576,6.673840,4.707077,-0.288328,0.621555,-0.340557
1765410004.428378,-7.234576,6.673840,4.707077,-0.288328,0.630566,-0.340557
1765410004.428711,-6.786225,6.670851,3.872548,-0.306502,0.619570,-0.347430
1765410004.429045,-7.091104,6.759923,4.459588,-0.310778,0.619570,-0.364228
1765410004.429400,-6.720468,6.886657,3.932328,-0.314137,0.641561,-0.371864
1765410004.429650,-6.643352,6.825680,3.932328,-0.321010,0.630413,-0.367435
1765410004.429900,-6.409612,6.611669,3.610712,-0.326355,0.641714,-0.360105
1765410004.430150,-6.587757,6.393471,3.713534,-0.324064,0.645685,-0.364687
1765410004.430355,-6.795791,6.312768,4.051291,-0.336892,0.645685,-0.382249
1765410004.430605,-6.462219,6.511237,3.627450,-0.332005,0.655764,-0.399506
1765410004.430855,-6.129841,6.561453,2.850310,-0.345444,0.645532,-0.398131
1765410004.431105,-6.336082,6.489717,2.945959,-0.347124,0.645532,-0.391870
1765410004.431351,-6.336082,6.489717,2.945959,-0.347124,0.667218,-0.391870
1765410004.431684,-6.440697,5.750836,2.912482,-0.354455,0.673021,-0.383165
1765410004.432018,-7.294356,5.773552,3.895265,-0.360410,0.688751,-0.400422
1765410004.432362,-7.746293,5.527857,4.097321,-0.354913,0.679588,-0.420123
1765410004.432612,-7.541845,5.703012,3.204208,-0.355982,0.679588,-0.425468
1765410004.432862,-7.165231,5.668340,3.247848,-0.354455,0.698830,-0.430355
1765410004.433112,-6.939263,5.725729,3.170731,-0.349262,0.700815,-0.435241
1765410004.433371,-7.405547,5.769966,3.503108,-0.364687,0.687376,-0.438601
1765410004.433621,-7.873624,5.803442,3.847441,-0.359800,0.698219,-0.444252
1765410004.433871,-7.597440,5.451936,2.886776,-0.353538,0.696845,-0.437838
1765410004.434121,-7.597440,5.451936,2.886776,-0.353538,0.699746,-0.437838
1765410004.434391,-7.375656,5.480630,3.798421,-0.366061,0.711200,-0.478613
1765410004.434641,-7.282400,5.963653,3.206599,-0.367588,0.709673,-0.495412
1765410004.434891,-7.569942,6.157340,3.482185,-0.382096,0.729831,-0.497244
1765410004.435141,-7.565159,6.384504,3.639407,-0.370337,0.729831,-0.499382
1765410004.435382,-7.397178,6.583572,3.261597,-0.383013,0.714254,-0.498924
1765410004.435715,-7.795910,6.640362,4.385461,-0.399811,0.730748,-0.515418
1765410004.436049,-7.442610,6.758727,3.605332,-0.391717,0.737620,-0.523512
1765410004.436398,-7.724771,6.877689,3.928741,-0.415083,0.708145,-0.527177
1765410004.436648,-7.736130,6.773074,3.782281,-0.419970,0.727540,-0.525497
1765410004.436898,-7.942370,7.049258,3.695600,-0.428522,0.712269,-0.522748
1765410004.437148,-8.067311,6.620038,3.885102,-0.458454,0.708756,-0.521068
1765410004.437372,-7.441415,6.596126,3.241272,-0.454026,0.719752,-0.519083
1765410004.437705,-7.441415,6.596126,3.241272,-0.454026,0.718225,-0.519083
1765410004.438039,-7.233381,6.105929,2.957914,-0.470214,0.713491,-0.499993
1765410004.438319,-7.825202,5.913437,3.075083,-0.465327,0.723417,-0.502131
1765410004.438569,-7.318268,5.266020,2.476088,-0.474031,0.731511,-0.497244
1765410004.438819,-7.259086,5.251076,2.670372,-0.476169,0.736398,-0.509767
1765410004.439069,-7.411525,5.209230,2.514945,-0.476169,0.732733,-0.509767
1765410004.439365,-7.537661,4.985652,2.865853,-0.476628,0.732275,-0.537867
1765410004.439615,-7.470109,4.985652,2.556193,-0.467923,0.752739,-0.536340
1765410004.439865,-6.574007,5.001793,1.805954,-0.468075,0.740980,-0.534049
1765410004.440115,-7.642275,5.127928,3.235891,-0.476017,0.735024,-0.566425
1765410004.440386,-8.408655,5.185318,3.611908,-0.469908,0.745103,-0.588416
1765410004.440636,-8.238281,5.350310,3.372190,-0.476933,0.737620,-0.581086
1765410004.440886,-7.766618,5.587637,3.269966,-0.488692,0.748615,-0.606589
1765410004.441136,-7.806073,6.368961,3.460066,-0.482278,0.729220,-0.635147
1765410004.441290,-8.249640,7.032519,3.744619,-0.501368,0.729220,-0.635147
1765410004.441623,-8.605331,6.899807,4.156504,-0.515112,0.744797,-0.618196
1765410004.441957,-7.637493,6.959588,2.453371,-0.505644,0.752739,-0.588721
1765410004.442389,-7.635101,6.654112,2.986011,-0.530995,0.720974,-0.573144
1765410004.442639,-8.122907,6.024629,3.527020,-0.546724,0.726013,-0.577268
1765410004.442889,-7.771400,5.933763,2.702056,-0.541532,0.721279,-0.591165
1765410004.443139,-7.470109,5.813007,2.309899,-0.554055,0.720057,-0.596815
1765410004.443397,-7.440219,5.843495,2.421090,-0.557567,0.732733,-0.596663
1765410004.443647,-7.898134,6.038975,2.879005,-0.559705,0.721890,-0.597426
1765410004.443897,-8.216164,5.719751,3.170731,-0.579406,0.728762,-0.590401
1765410004.444147,-8.148014,5.298899,2.948350,-0.569326,0.735787,-0.578489
1765410004.444367,-7.419894,4.812290,1.984696,-0.574061,0.731358,-0.577420
1765410004.444700,-7.626733,4.543280,2.162840,-0.581086,0.732122,-0.613156
1765410004.445034,-7.984217,4.838593,3.057149,-0.574672,0.732122,-0.658055
1765410004.445386,-7.884983,5.680296,2.910688,-0.583071,0.746935,-0.672257
1765410004.445636,-7.688904,6.080822,2.798302,-0.597732,0.748768,-0.677908
1765410004.445886,-7.981825,5.937350,2.985413,-0.608880,0.741743,-0.674395
1765410004.446136,-8.432567,6.015662,3.110951,-0.604451,0.735634,-0.652251
1765410004.446303,-8.167742,5.642037,3.182687,-0.611018,0.749532,-0.632551
1765410004.446553,-8.373982,5.298899,3.423003,-0.613767,0.743118,-0.643699
1765410004.446803,-8.079268,5.068747,3.168340,-0.620486,0.745408,-0.666301
1765410004.447053,-7.769009,5.042443,2.095289,-0.614836,0.736245,-0.672868
1765410004.447383,-7.458153,5.154232,2.045672,-0.611629,0.747699,-0.662636
1765410004.447716,-7.663796,5.410090,2.835963,-0.614989,0.747699,-0.665538
1765410004.448050,-7.663796,5.410090,2.835963,-0.614989,0.756862,-0.665538
1765410004.449556,-7.361310,5.194882,1.984696,-0.629497,0.740063,-0.648433
1765410004.449806,-8.066713,4.878646,2.027738,-0.640187,0.738078,-0.647823
1765410004.450056,-8.096005,4.874462,1.867527,-0.630108,0.736856,-0.671494
1765410004.450306,-8.240075,5.227761,2.654232,-0.649350,0.754724,-0.712727
1765410004.449599,-7.806670,5.954088,2.454567,-0.662331,0.781144,-0.738078
1765410004.449849,-7.676948,6.374940,2.165232,-0.666759,0.756557,-0.735482
1765410004.450099,-8.674078,6.533954,3.273553,-0.684780,0.748463,-0.713949
1765410004.450349,-8.756575,6.162720,3.276542,-0.689209,0.765414,-0.688140
1765410004.451200,-8.697990,5.927187,3.108560,-0.691958,0.763276,-0.666759
1765410004.451450,-8.322572,4.907340,2.648852,-0.707687,0.750295,-0.660193
1765410004.451700,-7.974055,4.456599,2.638689,-0.700968,0.747546,-0.677144
1765410004.451950,-8.281921,4.408177,3.433165,-0.714865,0.747546,-0.709978
1765410004.451407,-8.358440,4.615614,3.231707,-0.714865,0.748004,-0.709978
1765410004.451740,-8.510879,4.501434,2.734338,-0.711200,0.724333,-0.692416
1765410004.452074,-8.071496,4.099114,2.439024,-0.709367,0.729220,-0.692568
1765410004.452528,-7.931013,3.919177,2.080942,-0.697914,0.718836,-0.716698
1765410004.452778,-8.023671,3.857006,2.290770,-0.710436,0.718836,-0.744950
1765410004.453028,-8.023671,3.857006,2.290770,-0.710436,0.713796,-0.744950
1765410004.453278,-8.229315,5.232543,2.354136,-0.712269,0.734260,-0.791987
1765410004.453427,-7.551410,5.769966,1.374940,-0.727082,0.726166,-0.773508
1765410004.453677,-8.393112,5.805834,2.733142,-0.738231,0.720974,-0.761596
1765410004.453927,-8.727880,5.209827,2.620157,-0.737773,0.723723,-0.739452
1765410004.454177,-8.727880,5.209827,2.620157,-0.737773,0.718683,-0.739452
1765410004.454336,-7.565159,3.882711,1.834050,-0.751822,0.698830,-0.712880
1765410004.454669,-7.871830,4.365136,1.725251,-0.744187,0.698830,-0.756709
1765410004.455003,-8.136656,4.561214,2.193328,-0.763123,0.725708,-0.755182
1765410004.455397,-8.192849,4.436872,2.222620,-0.745561,0.725861,-0.730137
1765410004.455647,-7.660808,4.457795,1.229675,-0.743881,0.720210,-0.725402
1765410004.455897,-7.727163,4.314920,1.854973,-0.763887,0.718072,-0.765109
1765410004.456147,-8.358440,4.692730,2.729555,-0.764651,0.752433,-0.786031
1765410004.456383,-7.979434,5.031085,1.642157,-0.763582,0.735634,-0.763123
1765410004.456633,-8.941893,4.982663,3.389526,-0.792598,0.709978,-0.765261
1765410004.456883,-8.903633,4.845767,3.339311,-0.790918,0.740521,-0.790460
1765410004.457133,-8.621472,4.906145,2.444404,-0.793667,0.740063,-0.778090
1765410004.457422,-8.354854,4.429698,2.539454,-0.809702,0.726319,-0.754877
1765410004.457672,-8.354854,4.429698,2.539454,-0.809702,0.704328,-0.754877
1765410004.457922,-8.874939,4.244380,2.685318,-0.808175,0.707229,-0.774577
1765410004.458172,-8.320779,3.786465,2.079149,-0.810924,0.734413,-0.763582
1765410004.458371,-7.708632,3.601147,1.341463,-0.793208,0.717003,-0.761443
1765410004.458704,-8.061932,3.582615,1.537542,-0.805426,0.696845,-0.785267
1765410004.459038,-9.031563,4.302965,2.490435,-0.814436,0.720210,-0.785267
1765410004.459558,-8.891678,4.610234,2.022955,-0.812451,0.733191,-0.806037
1765410004.459808,-8.255618,4.603060,1.728838,-0.824363,0.730289,-0.793972
1765410004.460058,-8.283715,4.888809,2.051052,-0.823599,0.730289,-0.801761
1765410004.460308,-8.473217,4.515183,2.323051,-0.837954,0.725402,-0.791223
1765410004.461188,-8.536585,3.961023,1.935676,-0.839634,0.723875,-0.759916
1765410004.461438,-8.173121,2.832974,1.336681,-0.831235,0.710436,-0.751975
1765410004.461688,-8.747010,3.024868,2.074366,-0.825432,0.707687,-0.789391
1765410004.461938,-9.237206,3.397895,2.740913,-0.837191,0.732427,-0.804662
1765410004.461383,-8.900046,3.267575,2.075562,-0.820087,0.726471,-0.786031
1765410004.461633,-8.121113,3.715925,1.637972,-0.823446,0.710131,-0.805273
1765410004.461883,-8.735054,4.237804,2.356528,-0.835511,0.725861,-0.836122
1765410004.462133,-8.751793,4.879244,2.238163,-0.836275,0.739605,-0.816880
1765410004.462439,-8.779291,4.603060,2.551410,-0.847881,0.727082,-0.798706
1765410004.462772,-8.494739,4.305356,1.925514,-0.857960,0.735176,-0.799012
1765410004.463106,-9.060257,4.362744,2.542444,-0.860709,0.729984,-0.800997
1765410004.463409,-9.255140,3.689622,2.728359,-0.873690,0.732733,-0.792598
1765410004.463659,-9.255140,3.689622,2.728359,-0.873690,0.710894,-0.792598
1765410004.463909,-8.460066,3.500119,1.670253,-0.872468,0.719752,-0.801913
1765410004.464159,-8.517454,3.262793,1.615256,-0.867276,0.714865,-0.793514
1765410004.464778,-8.427785,2.997967,1.681014,-0.861778,0.718530,-0.789085
1765410004.465028,-8.907221,3.086441,2.076757,-0.862694,0.707077,-0.809244
1765410004.465278,-9.265901,3.511477,2.125777,-0.878730,0.703259,-0.833831
1765410004.465528,-9.664036,4.340028,2.370277,-0.879646,0.715781,-0.839023
1765410004.465513,-9.087158,4.451817,2.019368,-0.889878,0.711505,-0.821614
1765410004.465846,-9.057866,4.087757,2.040292,-0.900263,0.711505,-0.796874
1765410004.466180,-9.259922,3.332735,2.161645,-0.901484,0.711200,-0.782366
1765410004.466359,-9.372907,2.485652,2.304519,-0.882548,0.701273,-0.769690
1765410004.466609,-9.001673,2.052845,1.463415,-0.884991,0.702953,-0.781907
1765410004.466859,-9.207316,2.052248,1.959589,-0.889573,0.701579,-0.810007
1765410004.467109,-9.121233,2.070779,2.346963,-0.873690,0.712880,-0.807411
1765410004.467394,-8.822333,1.910569,1.944046,-0.856280,0.703717,-0.801913
1765410004.467644,-8.372787,2.406743,1.529172,-0.866971,0.701579,-0.844063
1765410004.467894,-9.110472,3.776901,2.235772,-0.872468,0.707687,-0.873995
1765410004.468144,-9.090147,4.374701,2.370875,-0.877355,0.700357,-0.837802
1765410004.468333,-8.684838,4.268292,2.219034,-0.897208,0.684474,-0.807869
1765410004.468583,-8.823528,3.657341,1.910569,-0.903622,0.696081,-0.805120
1765410004.468833,-8.402678,2.968675,1.076040,-0.901484,0.696234,-0.779922
1765410004.469083,-8.836680,2.135342,1.326518,-0.891558,0.671188,-0.779617
1765410004.469397,-9.124820,2.391200,1.658297,-0.889725,0.675617,-0.808022
1765410004.469730,-9.221066,2.752271,1.594930,-0.893849,0.697761,-0.809396
1765410004.470064,-8.971784,2.647058,1.380320,-0.883158,0.714560,-0.787711
1765410004.470382,-8.464251,2.500000,1.171688,-0.876592,0.696386,-0.781907
1765410004.470632,-8.972978,2.643472,1.822094,-0.897972,0.696997,-0.811229
1765410004.470882,-8.653753,3.237087,1.177666,-0.899804,0.709367,-0.821461
1765410004.471132,-8.354256,3.413438,0.523673,-0.903012,0.709367,-0.801455
1765410004.471399,-9.085364,3.348876,1.831659,-0.903012,0.704480,-0.801455
1765410004.471649,-10.116570,2.928622,3.003945,-0.918894,0.715018,-0.784962
1765410004.471899,-9.910329,2.256097,2.609397,-0.906524,0.719141,-0.752739
1765410004.472149,-8.933523,1.591344,1.869918,-0.906829,0.701731,-0.764956
1765410004.472367,-8.803801,1.436514,1.247011,-0.906066,0.699288,-0.777784
1765410004.472617,-9.094930,1.011478,1.846006,-0.891252,0.692416,-0.768010
1765410004.472867,-9.370515,0.767575,2.044476,-0.881937,0.694706,-0.784504
1765410004.473117,-9.374700,1.539335,1.682807,-0.878272,0.690430,-0.806800
1765410004.473359,-9.972500,2.404949,2.780966,-0.887740,0.691958,-0.829097
1765410004.473692,-9.724413,2.978837,2.095289,-0.886518,0.690125,-0.813672
1765410004.474026,-9.008846,2.557389,1.300215,-0.894459,0.675006,-0.781755
1765410004.474339,-8.849832,2.773792,1.267934,-0.891558,0.675922,-0.798248
1765410004.474589,-9.337636,2.702056,1.535150,-0.892932,0.675922,-0.783587
1765410004.474839,-9.434480,2.027140,2.016379,-0.889114,0.661873,-0.745256
1765410004.475089,-9.076995,1.569225,1.108321,-0.893849,0.659887,-0.765414
1765410004.475376,-9.245575,1.696556,1.379722,-0.888962,0.674548,-0.778242
1765410004.475626,-8.804399,1.819703,1.299020,-0.887740,0.687834,-0.765261
1765410004.475876,-9.272476,2.232185,1.402439,-0.875064,0.658207,-0.763734
1765410004.476126,-9.918099,2.398374,2.304519,-0.888045,0.660651,-0.761291
1765410004.476382,-9.774031,2.187948,1.772477,-0.886518,0.667981,-0.758084
1765410004.476632,-8.982543,2.092898,1.049737,-0.894459,0.667981,-0.752739
1765410004.476882,-8.608320,2.138928,0.640244,-0.902553,0.655764,-0.761291
1765410004.477132,-9.691534,2.508369,2.254304,-0.903622,0.671035,-0.767399
1765410004.477340,-9.937230,2.375657,2.329029,-0.903622,0.679435,-0.767399
1765410004.477673,-9.601864,1.390483,1.720468,-0.905913,0.656833,-0.713643
1765410004.478007,-9.423719,1.265543,1.802965,-0.895834,0.655917,-0.737009
1765410004.478328,-9.423719,1.265543,1.802965,-0.895834,0.659429,-0.737009
1765410004.478578,-8.978956,0.939742,1.501076,-0.883006,0.653779,-0.718072
1765410004.478828,-9.139167,1.067671,1.211143,-0.877966,0.655764,-0.729984
1765410004.479078,-9.841581,1.097561,2.256097,-0.868192,0.657444,-0.718530
1765410004.479441,-8.861190,0.496174,1.144189,-0.875523,0.657444,-0.724028
1765410004.479691,-8.230511,1.119082,0.096246,-0.864832,0.642325,-0.755488
1765410004.479941,-8.784073,1.838833,0.643233,-0.870330,0.636369,-0.762360
1765410004.480191,-9.591104,2.281205,1.791009,-0.866971,0.636369,-0.743881
1765410004.480331,-9.824244,2.151482,1.770684,-0.866512,0.644616,-0.717156
1765410004.480664,-9.397416,1.270923,0.901482,-0.867123,0.644616,-0.695165
1765410004.480998,-8.718315,0.548780,0.503945,-0.857655,0.643852,-0.695317
1765410004.481328,-9.182209,0.671927,0.679101,-0.850630,0.629038,-0.709215
1765410004.481578,-9.689740,1.189622,1.417982,-0.851393,0.628886,-0.716545
1765410004.481828,-9.918698,2.042085,1.796987,-0.852004,0.641561,-0.716698
1765410004.482078,-9.530128,1.866929,1.260162,-0.846659,0.649197,-0.672257
1765410004.482333,-8.500716,0.879364,0.412482,-0.856433,0.635300,-0.656986
1765410004.482583,-9.018411,0.811812,0.859636,-0.853531,0.629497,-0.691347
1765410004.482833,-9.665230,1.132233,1.453850,-0.854295,0.642630,-0.705702
1765410004.483083,-10.275584,1.319942,2.101865,-0.853684,0.640339,-0.702495
1765410004.483319,-10.096842,1.864538,2.083931,-0.856586,0.645837,-0.708298
1765410004.483569,-10.181729,1.885461,2.471903,-0.865443,0.636674,-0.696539
1765410004.483819,-9.646699,1.588952,1.773673,-0.856891,0.634994,-0.665843
1765410004.484069,-8.993901,0.969632,0.355093,-0.849103,0.608880,-0.650419
1765410004.484348,-9.296986,0.816595,1.318149,-0.849103,0.616668,-0.650419
1765410004.484681,-9.335245,0.932568,1.029412,-0.843910,0.631940,-0.652709
1765410004.485015,-9.634145,0.677905,1.296030,-0.844827,0.608575,-0.628275
1765410004.485363,-9.549257,0.318030,0.839909,-0.849561,0.628275,-0.642478
1765410004.485613,-9.599473,0.533835,0.533238,-0.836122,0.628275,-0.639729
1765410004.485863,-9.340625,-0.053802,0.636657,-0.827722,0.630413,-0.626290
1765410004.486113,-9.858918,-0.015543,1.629603,-0.820697,0.620486,-0.645226
1765410004.486355,-10.301290,0.570301,1.911764,-0.815505,0.638201,-0.666759
1765410004.486605,-9.831419,0.953491,1.129842,-0.813520,0.625068,-0.661567
1765410004.486855,-9.405188,1.274510,1.140602,-0.809702,0.625068,-0.655153
1765410004.487105,-9.471543,1.207556,1.005500,-0.812145,0.613461,-0.643699
1765410004.487349,-9.686751,0.607365,1.077833,-0.805273,0.614683,-0.616821
1765410004.487599,-9.686751,0.607365,1.077833,-0.805273,0.620944,-0.616821
1765410004.487849,-9.922284,0.668340,1.623625,-0.798706,0.620944,-0.627359
1765410004.488099,-9.992227,1.120277,1.938666,-0.798095,0.622930,-0.608422
1765410004.488380,-10.032280,0.880559,1.611669,-0.803593,0.597579,-0.594677
1765410004.488630,-9.848158,0.502152,1.335485,-0.793514,0.600786,-0.579711
1765410004.488880,-9.728598,-0.087279,1.071258,-0.785420,0.607047,-0.575588
1765410004.489130,-10.022118,-0.339550,1.526781,-0.780838,0.606436,-0.585056
1765410004.489437,-10.417263,-0.117169,1.809541,-0.784504,0.606436,-0.614072
1765410004.489770,-10.798659,0.732903,2.175992,-0.773050,0.599564,-0.636827
1765410004.490104,-9.983858,1.374342,1.044954,-0.779922,0.610254,-0.627664
1765410004.490422,-9.476924,1.529172,0.642037,-0.785115,0.595288,-0.606895
1765410004.490672,-9.619798,1.205165,0.863223,-0.788322,0.586125,-0.590401
1765410004.490922,-9.467359,1.126853,0.912243,-0.790765,0.583529,-0.577115
1765410004.491172,-9.298182,0.732903,0.687470,-0.791071,0.604757,-0.569174
1765410004.491356,-8.760161,0.518890,-0.191894,-0.785878,0.610254,-0.552986
1765410004.491606,-9.565996,0.062171,1.165710,-0.775952,0.577573,-0.536645
1765410004.491856,-10.008368,-0.125538,1.496891,-0.767705,0.593914,-0.545503
1765410004.492106,-9.739956,0.062171,0.790292,-0.758389,0.594066,-0.539089
1765410004.492391,-9.365732,-0.294118,0.649809,-0.751670,0.603993,-0.518777
1765410004.492641,-9.490674,-0.658178,0.429220,-0.737314,0.580933,-0.515265
1765410004.492891,-9.858918,-0.980392,1.004304,-0.729526,0.580933,-0.521832
1765410004.493141,-9.858918,-0.980392,1.004304,-0.729526,0.606895,-0.521832
1765410004.493331,-9.429697,-0.878766,0.905069,-0.714560,0.612392,-0.561080
1765410004.493664,-9.282041,-0.263032,0.851865,-0.714560,0.613309,-0.561080
1765410004.493998,-9.244379,0.699426,0.933764,-0.712116,0.606742,-0.578489
1765410004.494357,-9.609037,1.238642,0.973218,-0.715170,0.606742,-0.565203
1765410004.494607,-9.955761,1.412601,0.890124,-0.715323,0.609796,-0.536492
1765410004.494857,-9.694523,1.076040,0.758010,-0.717003,0.617737,-0.510072
1765410004.495107,-10.049019,0.679101,1.529172,-0.715018,0.619723,-0.502284
1765410004.495332,-10.049019,0.679101,1.529172,-0.715018,0.611782,-0.502284
1765410004.495582,-9.371711,-0.191296,0.774749,-0.714712,0.593608,-0.484722
1765410004.495832,-9.111668,0.248685,-0.022716,-0.702495,0.586583,-0.495412
1765410004.496082,-9.488282,0.095648,0.481827,-0.705702,0.594066,-0.477849
1765410004.496349,-10.009563,-0.150646,1.046748,-0.700662,0.594066,-0.462883
1765410004.496599,-10.009563,-0.150646,1.046748,-0.700662,0.591012,-0.462883
1765410004.496849,-9.898373,-0.685677,1.016260,-0.698066,0.589943,-0.479224
1765410004.497099,-9.620397,-0.250478,0.414873,-0.678824,0.592387,-0.478766
1765410004.497392,-9.839788,-0.260641,0.471066,-0.683405,0.581238,-0.471893
1765410004.497642,-10.628883,-0.218197,1.527977,-0.677450,0.577420,-0.475253
1765410004.497892,-10.521279,-0.098039,0.876375,-0.670425,0.589027,-0.467159
1765410004.498142,-10.236728,0.028097,1.128049,-0.668134,0.583987,-0.461967
1765410004.498311,-9.880439,0.123147,0.729316,-0.671188,0.583376,-0.464258
1765410004.498644,-10.334767,0.260641,1.461023,-0.666454,0.569326,-0.454789
1765410004.498978,-10.175752,-0.172166,1.114299,-0.667523,0.569326,-0.446390
1765410004.499411,-10.175752,-0.172166,1.114299,-0.667523,0.564134,-0.446390
1765410004.499661,-10.211619,-0.548183,1.079627,-0.658055,0.545503,-0.444863
1765410004.499911,-10.237326,-0.255858,0.787303,-0.646143,0.545503,-0.448222
1765410004.500161,-10.150645,-0.087279,0.576279,-0.643547,0.547946,-0.444404
1765410004.500365,-9.803921,-0.157221,-0.071138,-0.637743,0.547946,-0.428827
1765410004.500615,-9.796746,-0.489000,0.054400,-0.623388,0.551459,-0.414014
1765410004.500865,-9.989238,-0.448948,0.270206,-0.622472,0.541227,-0.415999
1765410004.501115,-10.912242,-0.425634,0.911047,-0.618043,0.529773,-0.420123
1765410004.501385,-10.533237,0.016738,0.682688,-0.618043,0.541685,-0.420123
1765410004.501635,-10.497369,-0.034075,0.227762,-0.625679,0.540310,-0.415236
1765410004.501885,-10.290529,-0.126734,0.182329,-0.610560,0.532674,-0.397673
1765410004.502135,-10.698229,-0.208034,0.712578,-0.615294,0.519999,-0.404087
1765410004.502480,-10.854256,0.199665,0.570301,-0.606284,0.532674,-0.393245
1765410004.502730,-10.340744,-0.386179,0.155428,-0.608269,0.526719,-0.372781
1765410004.502980,-10.443566,-0.554758,0.164993,-0.596663,0.507629,-0.376140
1765410004.503230,-10.187708,-0.498565,-0.092659,-0.594066,0.509462,-0.377820
1765410004.503401,-10.473456,-0.442970,0.688666,-0.591470,0.514349,-0.382096
1765410004.503651,-10.188903,-0.338355,-0.020325,-0.590859,0.514349,-0.371406
1765410004.503901,-10.613939,-0.087279,0.599593,-0.589332,0.478155,-0.372322
1765410004.504151,-10.826158,-0.032281,0.439981,-0.592387,0.478460,-0.373391
1765410004.504357,-10.659969,-0.015543,0.289933,-0.589790,0.473573,-0.354913
1765410004.504690,-10.820180,-0.634864,0.467480,-0.596815,0.465021,-0.352164
1765410004.505024,-11.353417,-0.360473,1.016260,-0.584293,0.465021,-0.358425
1765410004.505389,-11.560257,-0.486011,1.329507,-0.580169,0.468686,-0.353233
1765410004.505639,-10.897895,-0.518890,0.190698,-0.569174,0.462730,-0.343612
1765410004.505889,-10.554757,-0.953491,-0.211023,-0.562607,0.447459,-0.338114
1765410004.506139,-10.302486,-0.988761,-0.318030,-0.545350,0.428980,-0.338114
1765410004.506327,-10.217599,-0.685677,-0.408895,-0.534660,0.428980,-0.349110
1765410004.506577,-10.368841,-0.286346,0.027499,-0.528398,0.438449,-0.345750
1765410004.506827,-10.275584,-0.775347,-0.655189,-0.524581,0.436310,-0.314748
1765410004.507077,-10.486010,-1.181851,-0.214012,-0.511752,0.407753,-0.310778
1765410004.507386,-10.772355,-1.197991,-0.072932,-0.509767,0.413403,-0.331089
1765410004.507719,-10.755618,-0.736490,-0.043639,-0.497244,0.423940,-0.333838
1765410004.508053,-10.388569,-0.355691,-0.435796,-0.489456,0.417679,-0.326355
1765410004.508394,-11.030605,-0.054998,0.384385,-0.484263,0.404545,-0.315665
1765410004.508644,-10.737684,-0.685079,-0.060378,-0.485332,0.404545,-0.292604
1765410004.508894,-10.424437,-1.150167,-0.355691,-0.474031,0.394619,-0.293826
1765410004.509144,-10.357483,-1.255978,-0.594213,-0.466090,0.388052,-0.299019
1765410004.509412,-11.084408,-1.187829,0.355093,-0.462425,0.373544,-0.300851
1765410004.509662,-11.498086,-0.949306,0.804041,-0.452651,0.376293,-0.306196
1765410004.509912,-11.024031,-0.906863,0.337159,-0.450666,0.376293,-0.298713
1765410004.510162,-10.462098,-0.711980,-0.139885,-0.444252,0.370184,-0.292757
1765410004.510363,-10.272595,-0.597800,-0.632472,-0.444099,0.347430,-0.280540
1765410004.510613,-11.529172,-0.791487,0.996533,-0.437838,0.331700,-0.271071
1765410004.510863,-11.749162,-1.082018,1.178862,-0.423330,0.331242,-0.265115
1765410004.511113,-10.908655,-1.647537,0.090866,-0.419512,0.331242,-0.254425
1765410004.511346,-10.404112,-1.788020,-0.461502,-0.418137,0.320246,-0.270919
1765410004.511679,-11.103539,-1.355213,0.441176,-0.402102,0.300851,-0.264352
1765410004.512013,-11.795193,-1.496891,1.111310,-0.402102,0.286343,-0.264352
1765410004.512360,-11.354614,-1.383309,0.381396,-0.372933,0.308029,-0.260992
1765410004.512610,-10.541606,-1.107126,-0.286944,-0.366672,0.308029,-0.248469
1765410004.512860,-10.541606,-1.107126,-0.286944,-0.366672,0.270766,-0.248469
1765410004.513110,-11.370156,-2.016977,0.688068,-0.351248,0.251371,-0.240528
1765410004.513363,-10.936153,-1.810736,-0.054998,-0.329256,0.270308,-0.247248
1765410004.513696,-10.417263,-1.702534,-0.786705,-0.316581,0.268781,-0.244346
1765410004.514030,-10.396938,-1.590148,-0.263032,-0.303753,0.247248,-0.243430
1765410004.514424,-10.777138,-1.340865,-0.092659,-0.286954,0.240986,-0.236710
1765410004.514674,-10.597797,-1.148972,-0.225371,-0.269392,0.240528,-0.219301
1765410004.514924,-10.300693,-1.335485,-0.576279,-0.270155,0.240528,-0.220217
1765410004.515174,-10.691055,-1.513630,-0.261836,-0.258701,0.218995,-0.216094
1765410004.515391,-10.490793,-2.081540,-0.422645,-0.248775,0.226020,-0.219911
1765410004.515641,-10.313247,-1.476566,-0.523673,-0.233351,0.217163,-0.232587
1765410004.515891,-10.534431,-1.221903,-0.443568,-0.239765,0.198684,-0.239001
1765410004.516141,-11.299615,-0.627092,0.435198,-0.226020,0.198684,-0.233351
1765410004.516423,-11.299615,-0.627092,0.435198,-0.226020,0.200058,-0.233351
1765410004.516756,-10.734694,-0.667145,-0.478240,-0.206472,0.199600,-0.203876
1765410004.517090,-10.750836,-1.099952,-0.173362,-0.215025,0.192423,-0.210901
1765410004.517440,-11.061691,-0.985174,0.353898,-0.201738,0.188910,-0.204793
1765410004.517690,-10.748445,-1.178862,-0.380201,-0.188299,0.179442,-0.192270
1765410004.517940,-10.748445,-1.178862,-0.380201,-0.188299,0.174402,-0.192270
1765410004.518190,-10.500956,-0.925992,-0.539216,-0.177151,0.173638,-0.206014
1765410004.518356,-10.718554,-1.019249,0.059780,-0.173944,0.166308,-0.189521
1765410004.518606,-10.677905,-1.056910,-0.016738,-0.169210,0.169973,-0.187841
1765410004.518856,-10.821377,-1.180057,0.227164,-0.162185,0.159894,-0.183107
1765410004.519106,-10.821377,-1.180057,0.227164,-0.162185,0.154549,-0.183107
1765410004.519448,-10.697631,-1.500478,-0.006576,-0.133169,0.120188,-0.180663
1765410004.519698,-10.445958,-1.599713,-0.295911,-0.134849,0.120188,-0.186314
1765410004.519948,-10.609755,-1.270923,0.247489,-0.122784,0.122784,-0.194561
1765410004.520198,-10.458511,-1.049139,0.184122,-0.108276,0.119271,-0.182343
1765410004.520388,-10.198468,-1.002511,-0.315638,-0.101709,0.100793,-0.177762
1765410004.520638,-10.150645,-0.963654,-0.359876,-0.098502,0.100487,-0.180358
1765410004.520888,-10.217599,-1.200382,0.066356,-0.081245,0.094990,-0.161574
1765410004.521138,-9.861309,-1.475371,0.156624,-0.083994,0.089339,-0.168752
1765410004.521377,-10.161406,-1.101148,0.131516,-0.077885,0.077885,-0.180358
1765410004.521627,-9.980272,-1.417384,0.133907,-0.067042,0.077885,-0.163101
1765410004.521877,-9.943806,-1.406623,0.302487,-0.055436,0.068417,-0.171959
1765410004.522127,-9.873264,-0.906265,0.215208,-0.051313,0.069791,-0.176235
1765410004.523988,-9.873264,-0.906265,0.215208,-0.051313,0.067806,-0.176235
1765410004.524238,-9.466762,-1.104735,-0.274988,-0.031307,0.047342,-0.155923
1765410004.524488,-9.744739,-1.099952,0.382592,-0.022144,0.049175,-0.156534
1765410004.524738,-9.831419,-1.123864,0.624103,-0.014050,0.053145,-0.154549
1765410004.524105,-9.259922,-0.919416,-0.174558,-0.011759,0.047800,-0.150273
1765410004.524355,-9.507411,-0.723338,0.230751,-0.008094,0.026114,-0.152869
1765410004.524605,-9.684361,-0.622310,0.565519,-0.007178,0.039401,-0.143553
1765410004.524855,-9.619798,-0.447154,0.675514,0.004581,0.031765,-0.126144
1765410004.524396,-9.209707,-0.529651,0.053802,0.007330,0.027336,-0.117439
1765410004.524646,-9.386656,-0.524868,0.082496,0.014355,0.013286,-0.103084
1765410004.524896,-9.521759,-0.683883,0.318030,0.025198,0.023213,-0.099113
1765410004.525146,-9.434480,-0.772358,0.408895,0.029322,0.027947,-0.089950
1765410004.525404,-9.370515,-0.557747,0.747250,0.029627,0.031765,-0.094379
1765410004.525604,-9.204327,-0.410091,0.361071,0.027184,0.020617,-0.081856
1765410004.525804,-9.293399,-0.395146,0.347322,0.026114,0.002291,-0.072540
1765410004.526004,-9.236010,-0.356887,0.127331,0.030085,0.005956,-0.064446
1765410004.526204,-9.154112,-0.499761,0.231946,0.027031,0.014355,-0.053145
1765410004.526480,-9.084169,-0.459708,0.083692,0.028100,0.008552,-0.059407
1765410004.526730,-9.255737,-0.199665,0.392157,0.022144,0.002138,-0.052534
1765410004.526980,-9.143950,-0.099235,0.243902,0.018631,0.009010,-0.040623
1765410004.527230,-9.225250,-0.070540,0.311454,0.019700,0.003360,-0.024740
1765410004.527457,-9.384265,-0.224175,0.681492,0.017410,0.000000,-0.021686
1765410004.527657,-9.472739,-0.053802,0.484816,0.018479,-0.000764,-0.016188
1765410004.527857,-9.439860,-0.254663,0.175155,0.010537,-0.003818,-0.012065
1765410004.528057,-9.263509,-0.058584,-0.011358,0.012828,-0.001985,-0.014661
1765410004.528257,-9.346603,0.145863,0.141081,0.007025,0.006720,-0.006567
1765410004.528399,-9.684958,0.200861,0.595409,0.005803,0.007178,-0.002902
1765410004.528599,-9.840386,0.112984,0.652798,0.003818,0.009010,0.000305
1765410004.528799,-9.696316,0.127929,0.415471,0.001222,0.011301,0.000916
1765410004.528999,-9.635341,0.068149,0.286944,0.001527,0.003971,0.007330
1765410004.529199,-9.866092,-0.035868,0.608560,-0.001680,0.003971,0.007330
1765410004.529388,-10.013748,-0.096844,0.553563,-0.004429,0.002291,0.004581
1765410004.529588,-9.901959,0.004782,0.254663,-0.002902,0.002902,0.000916
1765410004.529788,-9.829028,0.022716,0.191296,-0.001222,0.003054,0.002291
1765410004.529988,-9.936632,0.204448,0.398135,-0.001069,0.005651,0.001527
1765410004.530188,-10.040649,0.178144,0.388570,-0.000764,0.007178,0.004887
1765410004.530373,-10.011356,0.066356,0.393352,-0.005345,0.005498,0.004276
1765410004.530573,-10.113581,0.038259,0.442372,-0.005345,0.000764,0.002443
1765410004.530773,-10.050214,0.131516,0.381994,-0.003665,0.007330,0.003971
1765410004.530973,-9.955761,0.098039,0.255261,-0.004123,0.007789,0.002291
1765410004.531173,-9.915112,0.041846,0.306671,-0.005803,0.000458,-0.000458
1765410004.531374,-9.966521,0.065758,0.354495,-0.004276,0.002291,-0.000764
1765410004.531574,-9.891797,0.159015,0.225968,-0.003054,0.004276,-0.000611
1765410004.531774,-9.862504,0.136896,0.285748,-0.005345,0.004581,-0.000611
1765410004.531974,-9.973098,0.102822,0.354495,-0.011454,0.000611,-0.003207
1765410004.532174,-10.115973,0.147059,0.375418,-0.008094,0.000611,-0.002749
1765410004.532417,-9.986848,0.147657,0.181731,-0.008552,0.001985,-0.001374
1765410004.532617,-9.852941,0.178144,0.151243,-0.012370,0.004581,-0.004276
1765410004.532817,-9.955761,0.176949,0.261836,-0.011912,0.000458,-0.002596
1765410004.533017,-10.052007,0.104615,0.202056,-0.009621,-0.001222,-0.000305
1765410004.533217,-10.022716,0.064562,0.164993,-0.011606,-0.001222,-0.003054
1765410004.533341,-10.022716,0.064562,0.164993,-0.011606,0.002596,-0.003054
1765410004.533541,-10.090266,0.057389,0.379005,-0.015730,-0.001374,-0.002749
1765410004.533741,-10.040649,-0.028097,0.159015,-0.016646,-0.001374,-0.002291
1765410004.533941,-10.040649,-0.028097,0.159015,-0.016646,-0.006414,-0.002291
1765410004.534141,-10.167382,-0.132114,0.434003,-0.013592,-0.002902,-0.002902
1765410004.534404,-10.266617,-0.051411,0.516499,-0.012370,-0.001527,-0.006109
1765410004.534604,-10.151840,-0.075921,0.280966,-0.011454,-0.008094,-0.005498
1765410004.534804,-10.074724,-0.125538,0.290531,-0.012217,-0.008094,-0.003971
1765410004.535004,-10.087276,-0.157819,0.361669,-0.008094,-0.007636,-0.004887
1765410004.535204,-10.019726,-0.023912,0.275586,-0.010996,-0.008094,-0.007941
1765410004.535361,-9.960544,-0.004782,0.209230,-0.014050,-0.009316,-0.004123
1765410004.535561,-10.022716,-0.012554,0.380201,-0.013744,-0.011759,-0.001069
1765410004.535761,-10.149448,-0.050215,0.465088,-0.011301,-0.011759,-0.003360
1765410004.535961,-10.050214,-0.110593,0.337159,-0.010996,-0.010843,-0.002138
1765410004.536161,-9.864896,-0.117169,0.187709,-0.012065,-0.008705,-0.000458
1765410004.536342,-9.886416,-0.101028,0.285151,-0.010996,-0.012370,-0.001222
1765410004.536542,-9.946198,-0.078312,0.379603,-0.011606,-0.013286,-0.003512
1765410004.536742,-9.852941,-0.098039,0.233142,-0.007483,-0.009621,-0.002902
1765410004.536942,-9.766856,-0.193089,0.218795,-0.011301,-0.010079,-0.000916
1765410004.537142,-9.899570,-0.171569,0.392157,-0.010996,-0.012370,-0.001833
1765410004.537420,-10.007771,-0.076518,0.476447,-0.009010,-0.012370,-0.002749
1765410004.537620,-10.007771,-0.076518,0.476447,-0.009010,-0.011759,-0.002749
1765410004.537820,-9.846962,-0.111191,0.257652,-0.008399,-0.008399,0.002443
1765410004.538020,-9.916306,-0.160210,0.386179,-0.010385,-0.012523,0.002443
1765410004.538220,-10.029889,-0.145265,0.521282,-0.007789,-0.010537,-0.000611
1765410004.538379,-9.943806,-0.099235,0.355691,-0.006414,-0.010385,0.001069
1765410004.538629,-9.943806,-0.099235,0.355691,-0.006414,-0.006109,0.001069
1765410004.538879,-9.820659,-0.077714,0.277379,-0.006261,-0.008094,0.000000
1765410004.539129,-10.021520,-0.069345,0.530846,-0.009621,-0.014355,-0.001069
1765410004.539386,-10.066953,-0.053204,0.527260,-0.006720,-0.004276,0.000764
1765410004.539586,-9.891200,-0.040650,0.279770,-0.005498,-0.004276,0.001222
1765410004.539786,-9.765661,-0.052606,0.209230,-0.002902,-0.003512,0.001833
1765410004.539986,-9.919893,-0.074127,0.499761,-0.005040,-0.011148,0.000000
1765410004.540186,-10.010758,-0.017336,0.516499,-0.005803,-0.008247,-0.001527
1765410004.540373,-9.857722,0.009565,0.248685,-0.006720,-0.005192,0.000153
1765410004.540573,-9.744141,-0.003587,0.221186,-0.005345,-0.007178,0.002443
1765410004.540773,-9.880439,-0.044237,0.417264,-0.007636,-0.015119,0.002902
1765410004.540973,-9.988043,0.010760,0.466284,-0.005498,-0.008705,-0.000153
1765410004.541173,-9.851745,0.049020,0.230751,-0.009774,-0.006109,0.000153
1765410004.541385,-9.743543,-0.015543,0.203252,-0.009163,-0.003665,0.001985
1765410004.541585,-9.838593,-0.001196,0.327594,-0.009468,-0.008858,0.001374
1765410004.541785,-9.876254,0.005978,0.329986,-0.006261,-0.007789,-0.001680
1765410004.541985,-9.863102,-0.035270,0.358680,-0.007025,-0.001985,-0.000305
1765410004.542185,-9.851745,-0.016738,0.344333,-0.007483,-0.003818,-0.001833
1765410004.542396,-9.851745,-0.016738,0.344333,-0.007483,-0.004581,-0.001833
1765410004.542596,-9.919893,0.013152,0.321616,-0.008552,-0.003512,0.000153
1765410004.542796,-9.964130,-0.032281,0.411286,-0.009010,-0.003360,0.000305
1765410004.542996,-9.980869,0.013152,0.345528,-0.006872,-0.003360,-0.003665
1765410004.543196,-9.974891,0.034672,0.330583,-0.007636,-0.002902,-0.001527
1765410004.543352,-9.989837,-0.012554,0.399928,-0.009927,-0.005498,-0.001374
1765410004.543552,-10.001194,0.042444,0.337159,-0.007483,-0.005345,-0.002291
1765410004.543752,-10.028693,0.032281,0.330583,-0.007483,-0.003665,-0.001222
1765410004.543952,-10.049019,-0.043042,0.445959,-0.009468,-0.006109,-0.000153
1765410004.544152,-10.009563,-0.031086,0.295911,-0.009163,-0.006109,-0.001069
1765410004.544364,-9.947392,0.021521,0.182927,-0.007789,-0.003207,-0.000611
1765410004.544564,-9.936632,-0.040053,0.337159,-0.010385,-0.004581,-0.003054
1765410004.544764,-10.028693,-0.034672,0.418460,-0.010385,-0.008705,-0.001374
1765410004.544964,-10.009563,0.023912,0.361071,-0.009163,-0.006109,-0.001985
1765410004.545164,-9.976685,-0.022716,0.252272,-0.008094,-0.006261,-0.002443
1765410004.545417,-9.960544,-0.111789,0.330583,-0.009163,-0.007178,-0.001527
1765410004.545617,-10.010758,-0.013749,0.349115,-0.008552,-0.007025,-0.003054
1765410004.545817,-10.010758,-0.013749,0.349115,-0.008552,-0.004734,-0.003054
1765410004.546017,-9.925871,-0.101028,0.368245,-0.008552,-0.006261,-0.000305
1765410004.546217,-10.010758,-0.065758,0.396341,-0.009163,-0.006261,-0.004429
1765410004.546386,-9.995216,0.002989,0.278575,-0.003818,-0.006414,-0.002596
1765410004.546586,-9.818267,-0.036466,0.151841,-0.009621,-0.006872,-0.000305
1765410004.546786,-9.802725,-0.083692,0.302487,-0.009468,-0.005803,-0.000153
1765410004.546986,-9.923481,-0.051411,0.365854,-0.008399,-0.007941,-0.003818
1765410004.547186,-9.884026,-0.034672,0.255858,-0.005498,-0.006567,-0.001985
1765410004.547393,-9.892993,-0.092061,0.336561,-0.009316,-0.008705,-0.000458
1765410004.547593,-10.034670,-0.075323,0.493783,-0.008552,-0.010079,0.000458
1765410004.547793,-10.049019,-0.033477,0.439981,-0.006414,-0.005192,0.000458
1765410004.547993,-9.905546,-0.028694,0.230751,-0.005651,-0.006414,0.000458
1765410004.548193,-9.862504,-0.115973,0.321616,-0.007789,-0.005956,0.000153
1765410004.548352,-9.906742,-0.050215,0.399330,-0.009621,-0.008705,-0.000764
1765410004.548552,-9.898373,-0.027499,0.328790,-0.006261,-0.004581,-0.001680
1765410004.548752,-9.841581,-0.022716,0.280368,-0.006720,-0.004581,0.000000
1765410004.548952,-9.896580,-0.010760,0.382592,-0.006872,-0.004887,-0.000305
1765410004.549152,-10.004781,-0.040650,0.421449,-0.007025,-0.008399,0.000305
1765410004.549373,-9.984456,-0.023314,0.381396,-0.007025,-0.003512,0.000305
1765410004.549573,-9.830223,-0.007174,0.209230,-0.004276,-0.008399,-0.000305
1765410004.549773,-9.798540,-0.056193,0.286944,-0.010079,-0.008399,-0.000305
1765410004.549973,-9.964130,0.001793,0.453132,-0.010843,-0.009621,-0.001374
1765410004.550173,-9.986250,0.010760,0.390961,-0.008094,-0.008858,-0.002291
1765410004.550393,-9.874461,-0.008369,0.296509,-0.006109,-0.005192,-0.001527
1765410004.550593,-9.941415,-0.044237,0.373027,-0.007941,-0.008094,-0.002138
1765410004.550793,-9.998802,0.017934,0.438187,-0.007025,-0.008094,0.000611
1765410004.550993,-10.010758,0.040650,0.381396,-0.007483,-0.004734,-0.000764
1765410004.551193,-9.843973,0.021521,0.203850,-0.007789,-0.008247,-0.001222
1765410004.551346,-9.901959,-0.026303,0.334768,-0.010232,-0.008247,0.000000
1765410004.551546,-9.901959,-0.026303,0.334768,-0.010232,-0.007178,0.000000
1765410004.551746,-10.010758,0.037661,0.339550,-0.010079,0.001069,0.000764
1765410004.551946,-9.942610,0.001196,0.319225,-0.007789,-0.002443,0.001374
1765410004.552146,-10.021520,-0.004782,0.435198,-0.007789,-0.004429,-0.001527
1765410004.552374,-10.007172,0.013152,0.312052,-0.009163,-0.004429,0.000153
1765410004.552574,-9.888808,-0.037661,0.228360,-0.005345,-0.004734,-0.002443
1765410004.552774,-9.928861,-0.068149,0.313247,-0.008705,-0.007789,-0.002291
1765410004.552974,-10.011955,-0.001196,0.390961,-0.009774,-0.009010,-0.001985
1765410004.553174,-9.990434,-0.002391,0.292922,-0.009468,-0.006872,0.001069
1765410004.553345,-9.891797,-0.061573,0.297704,-0.009010,-0.006261,0.000000
1765410004.553545,-9.912720,-0.041846,0.315638,-0.009774,-0.008094,-0.001222
1765410004.553745,-9.931850,-0.023314,0.284553,-0.009316,-0.008858,-0.000764
1765410004.553945,-9.961740,-0.053802,0.381396,-0.009316,-0.008858,-0.001069
1765410004.554145,-9.976088,-0.044237,0.365854,-0.007636,-0.006720,-0.001985
1765410004.554356,-9.974294,0.011358,0.283955,-0.007941,-0.006720,-0.002902
1765410004.554556,-9.929459,-0.026303,0.294715,-0.007636,-0.002596,0.002443
1765410004.554756,-9.999999,-0.073529,0.463893,-0.009621,-0.007636,0.000611
1765410004.554956,-9.976685,-0.040053,0.325203,-0.007636,-0.009468,-0.002902
1765410004.555156,-9.862504,-0.013749,0.196078,-0.007789,-0.006414,-0.001680
1765410004.555387,-9.829028,-0.063367,0.276184,-0.009468,-0.006567,-0.003054
1765410004.555587,-9.912720,-0.014347,0.306074,-0.010232,-0.008094,-0.000611
1765410004.555787,-9.930654,-0.002989,0.280966,-0.007941,-0.007483,-0.001222
1765410004.555987,-9.889405,-0.090268,0.359278,-0.008858,-0.006109,-0.000153
1765410004.556187,-9.889405,-0.090268,0.359278,-0.008858,-0.008399,-0.000153
1765410004.556305,-9.918698,-0.017934,0.306671,-0.009927,-0.009316,-0.003512
1765410004.556505,-9.931850,-0.005380,0.319225,-0.005651,-0.008858,-0.000916
1765410004.556705,-9.970706,-0.066356,0.401722,-0.006109,-0.008858,0.000305
1765410004.556905,-10.020324,-0.025108,0.416069,-0.009774,-0.009927,0.000153
1765410004.557105,-9.955761,-0.045433,0.340746,-0.008858,-0.007789,0.001222
1765410004.557418,-9.826636,-0.088474,0.271999,-0.008399,-0.005040,0.000153
1765410004.557618,-9.824244,-0.015543,0.245696,-0.008399,-0.009010,0.001985
1765410004.557818,-9.886416,0.003587,0.358082,-0.007941,-0.007025,-0.000153
1765410004.558018,-9.876852,-0.043042,0.333572,-0.008858,-0.007025,-0.001374
1765410004.558218,-9.903154,-0.025108,0.333572,-0.008399,-0.005040,-0.001222
1765410004.558309,-9.940817,-0.006576,0.316236,-0.007483,-0.003207,0.000305
1765410004.558509,-9.876852,-0.011956,0.237924,-0.008552,-0.005345,0.001985
1765410004.558709,-9.850550,-0.035868,0.345528,-0.007178,-0.003054,-0.000764
1765410004.558909,-9.947392,-0.017336,0.370636,-0.009927,-0.003054,-0.002291
1765410004.559109,-9.959349,-0.014347,0.264825,-0.007330,-0.004581,-0.000458
1765410004.559375,-9.943806,-0.020325,0.304878,-0.009774,-0.004276,0.001222
1765410004.559575,-9.930654,-0.044237,0.364658,-0.010690,-0.005192,-0.000305
1765410004.559775,-9.881036,-0.005380,0.276184,-0.004734,-0.005040,0.001527
1765410004.559975,-9.875058,-0.011956,0.273792,-0.006261,-0.006109,-0.001680
1765410004.560175,-9.978478,-0.055595,0.475849,-0.008858,-0.005803,-0.002138
1765410004.560375,-9.986848,-0.010760,0.297704,-0.006872,-0.002749,-0.000153
1765410004.560575,-9.913317,-0.009565,0.204448,-0.006261,-0.007789,-0.000305
1765410004.560775,-9.879841,-0.072334,0.286944,-0.007636,-0.008552,-0.001527
1765410004.560975,-9.999999,0.011956,0.460904,-0.010079,-0.010537,-0.000764
1765410004.561175,-10.034670,0.043639,0.349115,-0.007483,-0.006720,-0.001374
1765410004.561361,-9.977880,-0.058584,0.401722,-0.006872,-0.003512,-0.000611
1765410004.561561,-9.922284,-0.031086,0.319225,-0.009927,-0.007483,-0.000764
1765410004.561761,-9.937828,0.009565,0.244500,-0.008705,-0.009468,-0.002138
1765410004.561961,-9.959946,-0.010760,0.341942,-0.006109,-0.005040,-0.000916
1765410004.562161,-9.985652,-0.064562,0.379603,-0.009010,-0.005040,-0.004123
1765410004.562348,-9.951577,0.010760,0.294118,-0.006720,-0.007636,0.000916
1765410004.562548,-9.943806,-0.034672,0.253467,-0.007941,-0.007636,-0.001222
1765410004.562748,-9.925871,-0.074127,0.351506,-0.010690,-0.010385,0.000153
1765410004.562948,-9.991032,0.008967,0.321019,-0.009927,-0.012523,-0.003207
1765410004.563148,-9.919296,0.016738,0.267814,-0.007941,-0.009163,-0.000764
1765410004.563518,-9.774628,-0.154830,0.308465,-0.008858,-0.008705,-0.001680
1765410004.563718,-9.527737,-0.217599,0.358680,-0.007941,-0.008705,-0.003665
1765410004.563918,-9.527737,-0.217599,0.358680,-0.007941,-0.007789,-0.003665
1765410004.564118,-9.677784,0.390961,0.310258,-0.009163,0.008858,-0.004734
1765410004.564318,-9.631156,0.034075,0.479436,-0.005956,0.015882,0.017562
1765410004.564345,-10.108200,-0.219990,1.074844,-0.011301,-0.004581,0.005040
1765410004.564595,-10.256454,-0.188905,0.700622,-0.016341,-0.002596,-0.008705
1765410004.564845,-9.871471,-0.435198,-0.101626,-0.002749,-0.003054,0.002596
1765410004.565095,-9.554040,-0.168580,-0.193687,0.001222,-0.003512,-0.006109
1765410004.565365,-9.881634,0.450143,0.622908,-0.006720,0.010385,-0.013134
1765410004.565565,-10.109993,0.442970,0.866810,-0.014050,0.011606,-0.013134
1765410004.565765,-9.956957,-0.253467,0.223577,-0.009927,-0.003054,0.016952
1765410004.565965,-9.809898,-0.635461,0.022119,-0.006720,-0.005956,0.004429
1765410004.566165,-9.882831,-0.338355,0.301291,-0.005651,0.012828,-0.016493
1765410004.566363,-9.923481,0.341942,0.466882,-0.007483,0.012828,-0.016952
1765410004.566563,-9.958152,0.414275,0.325203,-0.006872,0.000458,0.001222
1765410004.566763,-9.862504,0.068149,0.120756,-0.005345,0.000458,0.012217
1765410004.566963,-9.898373,-0.348517,0.436992,-0.005498,0.006872,0.004123
1765410004.567163,-9.919893,-0.404113,0.486609,-0.010996,0.000916,-0.005345
1765410004.567383,-9.892395,-0.069345,0.182927,-0.009621,0.000916,-0.010079
1765410004.567583,-9.892395,-0.069345,0.182927,-0.009621,0.005651,-0.010079
1765410004.567783,-9.936033,0.272597,0.450741,-0.008858,0.007330,-0.001222
1765410004.567983,-10.023313,0.065758,0.534433,-0.011606,0.003971,0.003054
1765410004.568183,-10.023313,0.065758,0.534433,-0.011606,0.001680,0.003054
1765410004.568323,-9.859515,-0.265423,0.092061,-0.008247,0.007789,-0.001527
1765410004.568523,-9.859515,-0.265423,0.092061,-0.008247,0.007789,-0.001527
1765410004.568723,-9.910927,0.117767,0.387972,-0.007483,0.009010,-0.005345
1765410004.568923,-9.812887,0.229555,0.147059,-0.009774,0.009010,-0.001985
1765410004.569123,-9.847560,0.087279,0.075921,-0.008552,0.006872,0.003665
1765410004.569355,-10.013150,-0.192492,0.454926,-0.009621,0.006261,0.006109
1765410004.569555,-10.105211,-0.303682,0.613343,-0.007941,0.009468,0.001374
1765410004.569755,-9.999401,-0.166786,0.379005,-0.008552,0.007025,-0.005498
1765410004.569955,-9.897178,0.103419,0.191296,-0.009468,0.007483,-0.007178
1765410004.570155,-9.901362,0.181133,0.224175,-0.008247,0.004276,-0.001374
1765410004.570317,-10.037063,0.150048,0.484218,-0.007025,0.008705,0.003360
1765410004.570517,-10.041844,-0.167384,0.399928,-0.009468,0.012981,0.007025
1765410004.570717,-9.913916,-0.381396,0.188307,-0.010843,0.005192,0.001985
1765410004.570917,-10.032280,-0.131516,0.247489,-0.005803,-0.001222,-0.008705
1765410004.571117,-10.021520,0.169775,0.355093,-0.006567,0.009468,-0.006872
1765410004.571386,-9.882831,0.185916,0.248685,-0.009010,0.007025,-0.000153
1765410004.571586,-9.866092,0.050215,0.264825,-0.011759,0.004734,0.004123
1765410004.571786,-10.071137,-0.080105,0.347920,-0.010385,0.005651,0.003360
1765410004.571986,-10.129124,-0.114778,0.375418,-0.011301,0.007025,-0.000458
1765410004.572186,-10.129722,-0.125538,0.487207,-0.008858,0.008858,-0.003054
1765410004.572330,-10.019726,-0.050215,0.303682,-0.010079,0.006261,-0.002596
1765410004.572530,-9.961740,0.077714,0.141081,-0.006567,0.000458,-0.004581
1765410004.572730,-9.961740,0.077714,0.141081,-0.006567,0.000000,-0.004581
1765410004.572930,-9.913916,-0.003587,0.283357,-0.006414,0.000153,0.001680
1765410004.573130,-10.020324,-0.027499,0.314443,-0.007636,0.001833,-0.000153
1765410004.573333,-10.045432,-0.149450,0.396341,-0.009621,0.000153,0.000611
1765410004.573533,-9.983858,-0.181731,0.414275,-0.007178,0.000305,-0.003207
1765410004.573733,-10.037063,0.001196,0.338355,-0.008858,0.000153,-0.005192
1765410004.573933,-10.058583,0.109397,0.288140,-0.009316,0.000611,-0.002902
1765410004.574133,-10.003586,-0.043639,0.282759,-0.007483,-0.001833,0.003360
1765410004.574344,-10.047226,-0.118962,0.322812,-0.007941,-0.007636,0.002291
1765410004.574544,-10.021520,-0.060976,0.274988,-0.007025,0.002443,-0.003818
1765410004.574744,-9.959349,-0.069345,0.289933,-0.008705,0.002596,-0.000611
1765410004.574944,-10.029889,-0.046031,0.303682,-0.005345,-0.006720,0.000458
1765410004.575144,-10.105211,0.037661,0.350311,-0.007178,-0.004734,-0.001985
1765410004.575342,-9.997607,-0.022716,0.285748,-0.007330,-0.002443,-0.002443
1765410004.575542,-9.970706,0.019130,0.363462,-0.006720,-0.003971,-0.000916
1765410004.575742,-9.980869,0.076518,0.225371,-0.008858,-0.006109,0.000764
1765410004.575942,-9.972500,-0.071736,0.303682,-0.008705,-0.003207,0.003818
1765410004.576142,-10.012553,-0.221186,0.387972,-0.010690,-0.007941,-0.000305
1765410004.576301,-10.029889,-0.041846,0.364060,-0.008552,-0.004581,-0.006109
1765410004.576801,-9.951577,0.092659,0.161406,-0.007025,-0.005345,-0.005192
1765410004.578325,-9.906742,0.039455,0.233142,-0.008858,-0.007636,-0.001374
1765410004.581440,-10.100429,0.010163,0.447154,-0.006872,-0.005040,0.002749
1765410004.583368,-10.015541,-0.035868,0.386179,-0.006720,-0.005040,0.002596
1765410004.586409,-9.869678,-0.135103,0.243902,-0.007941,-0.004734,0.000305
1765410004.588351,-9.866689,-0.111191,0.288737,-0.010537,-0.006261,-0.000611
1765410004.591357,-10.027497,-0.004782,0.391559,-0.010385,-0.006872,-0.003512
1765410004.593335,-9.954566,0.028694,0.308465,-0.008094,-0.004581,-0.003971
1765410004.596376,-9.899570,-0.005380,0.260641,-0.009774,-0.005192,-0.000916
1765410004.598323,-9.965326,-0.057987,0.376614,-0.008552,-0.009774,0.000153
1765410004.601360,-10.063366,-0.065758,0.473458,-0.009010,-0.006414,-0.001527
1765410004.601860,-9.990434,-0.086681,0.370636,-0.007483,-0.003360,-0.004276
1765410004.606396,-9.904350,-0.054400,0.346126,-0.007789,-0.003665,-0.005651
1765410004.608407,-9.904350,0.050813,0.304878,-0.009927,-0.003818,0.000000
1765410004.611350,-9.907339,0.063965,0.259445,-0.006567,-0.003054,-0.001069
1765410004.613344,-9.889405,-0.049617,0.338355,-0.010079,-0.004887,-0.000764
1765410004.616423,-9.909132,-0.072932,0.347322,-0.008858,-0.004581,0.000458
1765410004.618349,-9.873264,-0.002989,0.302487,-0.005956,-0.002138,-0.000764
1765410004.621450,-9.856527,-0.031086,0.253467,-0.006872,-0.002138,-0.001833
1765410004.624770,-9.868484,-0.057987,0.346724,-0.007941,-0.004887,-0.001985
1765410004.626344,-9.942610,0.011358,0.395744,-0.010537,-0.004734,-0.002291
1765410004.626844,-9.881634,-0.020325,0.359876,-0.010079,-0.004581,-0.003207
1765410004.631354,-9.858918,-0.045433,0.341942,-0.010232,-0.001374,-0.000305
1765410004.632412,-9.887612,-0.026303,0.286944,-0.010385,-0.001374,-0.002596
1765410004.636307,-9.882831,-0.000598,0.297704,-0.010385,-0.001069,-0.002596
1765410004.636807,-9.879243,-0.111191,0.358680,-0.010537,-0.000916,-0.002138
1765410004.641361,-9.885221,-0.100430,0.413678,-0.009774,-0.000458,-0.003818
1765410004.643384,-9.873264,0.014945,0.327594,-0.007330,-0.001833,-0.004581
1765410004.646393,-9.738162,-0.041846,0.180536,-0.008247,0.000153,0.000000
1765410004.648398,-9.738162,-0.041846,0.180536,-0.008247,-0.000611,0.000000
1765410004.649400,-9.916306,0.016738,0.398135,-0.004429,0.000153,-0.000458
1765410004.653378,-9.861309,-0.036466,0.303682,-0.008705,0.000153,-0.000458
1765410004.656323,-9.861309,-0.036466,0.303682,-0.008705,-0.000305,-0.000458
1765410004.658351,-9.959349,-0.044237,0.413678,-0.010232,0.001985,-0.001069
1765410004.661362,-9.934240,0.011956,0.380201,-0.008552,0.000305,-0.000153
1765410004.663360,-9.828429,-0.059780,0.242707,-0.008705,0.001833,-0.003207
1765410004.666340,-9.858918,-0.093257,0.334170,-0.010079,0.001833,-0.002291
1765410004.668344,-9.930654,-0.032879,0.371832,-0.007636,0.000764,-0.002443
1765410004.671364,-9.818267,-0.060378,0.246891,-0.007025,0.002902,-0.001374
1765410004.673321,-9.842180,-0.053802,0.314443,-0.007789,0.002443,-0.002291
1765410004.676301,-9.958751,0.001196,0.352702,-0.008094,0.003054,-0.000611
1765410004.678321,-9.957555,-0.002989,0.302487,-0.009316,0.003054,0.000458
1765410004.681336,-9.884026,-0.102822,0.297704,-0.008247,0.004887,-0.000305
1765410004.683380,-9.950979,-0.118364,0.370636,-0.008552,0.000305,-0.003054
1765410004.686375,-9.950381,-0.016738,0.318030,-0.009163,0.000305,-0.004429
1765410004.688427,-9.950381,-0.016738,0.318030,-0.009163,0.003360,-0.004429
1765410004.691409,-9.867885,-0.059780,0.266619,-0.007178,0.001374,-0.004276
1765410004.691909,-9.991032,-0.023314,0.395744,-0.009163,-0.000458,-0.004276
1765410004.696353,-9.971304,-0.016738,0.362267,-0.007941,0.003054,-0.001985
1765410004.698327,-9.907937,-0.114778,0.290531,-0.006567,0.003054,-0.001985
1765410004.701403,-9.907937,-0.114778,0.290531,-0.006567,-0.001527,-0.001985
1765410004.703363,-10.007771,0.022119,0.326399,-0.005956,0.001680,-0.004887
1765410004.706370,-9.966521,-0.037064,0.335964,-0.007789,-0.000611,-0.003054
1765410004.708405,-9.980869,-0.031683,0.365854,-0.007483,0.003054,-0.003207
1765410004.711398,-10.026302,0.056791,0.351506,-0.006720,0.003054,-0.000611
1765410004.713420,-10.026302,0.056791,0.351506,-0.006720,0.005192,-0.000611
1765410004.714390,-9.877449,-0.123745,0.237924,-0.007789,0.001527,-0.002291
1765410004.718487,-10.016738,-0.087279,0.344333,-0.007178,-0.005345,-0.006261
1765410004.721366,-10.016738,-0.013152,0.247489,-0.008399,-0.000153,-0.002596
1765410004.724822,-9.949782,0.000598,0.239718,-0.006109,0.003360,-0.003971
1765410004.725423,-10.017933,-0.015543,0.336561,-0.008247,0.002138,-0.003818
1765410004.728346,-10.123145,0.021521,0.364658,-0.007025,-0.001833,0.000000
1765410004.731464,-9.958152,-0.077116,0.233142,-0.006872,0.000611,-0.003054
1765410004.733334,-9.952174,-0.139885,0.329388,-0.007025,-0.002902,-0.003818
1765410004.736348,-10.034670,-0.075921,0.419058,-0.006720,-0.002902,-0.000764
1765410004.738345,-10.081299,0.023912,0.392157,-0.006720,-0.002291,-0.004123
1765410004.741468,-9.947392,0.019130,0.247489,-0.007636,-0.000305,-0.002902
1765410004.743425,-9.973696,-0.022716,0.328192,-0.007025,-0.005651,-0.001680
1765410004.746390,-9.973696,-0.022716,0.328192,-0.007025,-0.004429,-0.001680
1765410004.746890,-9.959349,-0.124342,0.306074,-0.005956,-0.006109,-0.002596
1765410004.749408,-9.942610,-0.086681,0.328790,-0.005192,-0.006414,-0.004887
1765410004.753369,-10.077712,-0.010760,0.382592,-0.006414,-0.009316,-0.005651
1765410004.756400,-10.023911,-0.007174,0.333572,-0.005192,-0.004123,-0.002902
1765410004.758389,-9.893590,-0.050215,0.155428,-0.005192,-0.005040,-0.002902
1765410004.759366,-9.888808,-0.052606,0.254663,-0.005651,-0.007636,-0.002902
1765410004.763370,-9.946198,-0.139885,0.280966,-0.007941,-0.012523,-0.006414
1765410004.764364,-9.842180,-0.080105,0.196676,-0.005651,-0.002443,-0.006109
1765410004.768352,-9.841581,0.000000,0.172166,-0.004887,-0.002443,-0.007178
1765410004.771360,-9.896580,-0.004782,0.329986,-0.006414,-0.003512,-0.006872
1765410004.773360,-10.003586,-0.015543,0.335964,-0.007025,-0.008552,-0.004734
1765410004.774322,-9.939621,-0.052606,0.230153,-0.007483,-0.004123,-0.005192
1765410004.778368,-9.828429,-0.052606,0.260043,-0.008094,-0.001069,-0.005345
1765410004.781420,-9.924676,-0.095648,0.402917,-0.006720,-0.004123,-0.006109
1765410004.783439,-9.980869,-0.023912,0.374821,-0.005651,-0.007789,-0.005651
1765410004.786407,-9.885221,-0.010760,0.246294,-0.005192,-0.003512,-0.004734
1765410004.786907,-9.880439,-0.056193,0.322214,-0.008094,-0.003054,-0.004734
1765410004.791346,-10.014943,-0.034672,0.416667,-0.006720,-0.006567,-0.001222
1765410004.791846,-10.026302,-0.049020,0.381396,-0.005803,-0.006261,-0.002443
1765410004.796355,-9.875058,-0.090866,0.220588,-0.008094,-0.000916,-0.007178
1765410004.798341,-9.886416,-0.102822,0.333572,-0.003971,-0.005498,-0.007330
1765410004.801435,-9.928263,-0.012554,0.412482,-0.004276,-0.007789,-0.006261
1765410004.801935,-9.930056,0.004782,0.353300,-0.005345,-0.009010,-0.005192
1765410004.805560,-9.790171,-0.047824,0.173362,-0.005498,-0.005345,-0.004734
1765410004.808427,-9.864299,-0.020923,0.309063,-0.005040,-0.003207,-0.005651
1765410004.809399,-9.918099,-0.023912,0.346724,-0.006261,-0.003818,-0.006109
1765410004.812431,-9.876852,-0.037064,0.315638,-0.006109,-0.003665,-0.005498
1765410004.816433,-9.878048,-0.050215,0.335964,-0.007789,-0.003512,-0.009621
1765410004.818435,-9.978478,-0.069345,0.507532,-0.007789,-0.004276,-0.008094
1765410004.820662,-10.049019,-0.033477,0.511717,-0.008705,-0.003512,-0.005956
1765410004.823463,-9.973098,-0.028694,0.445361,-0.005498,-0.005345,-0.005498
1765410004.826406,-9.935436,-0.050215,0.396939,-0.005192,-0.007789,-0.005345
1765410004.828463,-9.937828,-0.058584,0.394548,-0.006872,-0.010079,-0.007025
1765410004.830482,-9.863700,-0.054400,0.232544,-0.005956,-0.005651,-0.005345
1765410004.833424,-9.667622,-0.100430,0.047824,-0.006414,-0.007025,-0.005956
1765410004.836804,-9.763269,-0.053204,0.208632,-0.005956,-0.001833,-0.012217
1765410004.838479,-9.852941,0.071138,0.274390,-0.002443,-0.001833,-0.011606
1765410004.841434,-9.829028,-0.021521,0.224175,-0.004429,0.006109,-0.005651
1765410004.841934,-9.756096,-0.064562,0.253467,-0.005498,0.002138,-0.005803
1765410004.846460,-9.895982,-0.102822,0.411286,-0.006872,0.004581,-0.004887
1765410004.848415,-9.927068,-0.153037,0.361071,-0.005956,-0.000764,-0.007178
1765410004.851382,-9.861309,-0.114180,0.310856,-0.003971,-0.000764,-0.008705
1765410004.853463,-9.910329,0.014347,0.390961,-0.005956,0.001680,-0.012217
1765410004.856368,-9.912720,0.075323,0.429220,-0.005956,-0.001374,-0.007636
1765410004.856868,-9.853538,0.041248,0.387374,-0.006567,-0.001374,-0.001527
1765410004.859397,-9.853538,0.041248,0.387374,-0.006567,-0.001833,-0.001527
1765410004.863371,-9.886416,-0.166188,0.377810,-0.004276,-0.004276,-0.006720
1765410004.866373,-9.860114,-0.121951,0.284553,-0.004581,-0.004123,-0.009316
1765410004.868404,-9.804518,-0.039455,0.040650,-0.003818,-0.003207,-0.010232
1765410004.871390,-9.905546,0.051411,0.197274,-0.005040,-0.003207,-0.012828
1765410004.873431,-9.905546,0.051411,0.197274,-0.005040,0.000305,-0.012828
1765410004.876372,-10.034073,-0.077714,0.444763,-0.007330,0.002443,-0.005192
1765410004.878388,-9.884624,-0.202056,0.204448,-0.007789,-0.001374,-0.006720
1765410004.879405,-9.950381,-0.167384,0.297107,-0.009316,-0.006109,-0.009621
1765410004.883428,-9.894786,0.016141,0.237924,-0.007636,0.000458,-0.010843
1765410004.886436,-9.922284,0.099235,0.350311,-0.010996,0.003360,-0.011759
1765410004.888393,-9.808702,0.033477,0.216404,-0.011759,-0.001527,-0.005651
1765410004.891426,-9.837397,-0.126734,0.072932,-0.007941,-0.001527,-0.004887
1765410004.893369,-9.898373,-0.100430,0.227762,-0.009010,0.003665,-0.009927
1765410004.896370,-9.997607,-0.077714,0.353898,-0.007025,0.003665,-0.007941
1765410004.898365,-10.008368,-0.172764,0.497370,-0.005498,0.005498,-0.009468
1765410004.901328,-9.958152,0.016141,0.304280,-0.003818,0.001222,-0.013592
1765410004.903412,-9.915112,0.063367,0.309660,-0.002138,0.001833,-0.011454
1765410004.906386,-9.825441,-0.106408,0.178742,-0.003665,0.000000,-0.007941
1765410004.908391,-9.937828,-0.102822,0.383190,-0.003207,-0.001985,-0.011148
1765410004.911359,-9.994021,-0.035868,0.199665,-0.001069,-0.004734,-0.010996
1765410004.913381,-9.947392,-0.054998,0.234338,-0.001069,-0.004887,-0.008399
1765410004.916368,-9.919296,-0.020923,0.331181,-0.001527,0.000305,-0.007178
1765410004.918368,-9.919296,-0.020923,0.331181,-0.001527,-0.004123,-0.007178
1765410004.921375,-9.928861,0.023912,0.219990,-0.002596,-0.007178,-0.008399
1765410004.923391,-9.803921,-0.138690,0.062769,-0.005040,-0.007178,-0.006414
1765410004.924350,-9.982065,-0.109995,0.246294,-0.006261,-0.004123,-0.007178
1765410004.928420,-10.118362,-0.117169,0.418460,-0.007178,0.001985,-0.011454
1765410004.930515,-10.077114,-0.086083,0.411286,-0.007178,0.005192,-0.011454
1765410004.933456,-9.948587,-0.010760,0.352702,-0.004734,-0.001374,-0.012981
1765410004.936416,-10.058583,0.023912,0.532640,-0.009163,-0.001069,-0.012828
1765410004.940819,-9.979673,0.005380,0.317432,-0.007636,-0.003818,-0.008247
1765410004.941319,-9.917501,-0.175753,0.267814,-0.003971,-0.013744,-0.009774
1765410004.943429,-9.906742,0.010760,0.197872,-0.007025,-0.004581,-0.013592
1765410004.946404,-9.817072,0.014945,0.076518,-0.008399,-0.002291,-0.008247
1765410004.948402,-9.956957,-0.092061,0.380201,-0.005956,-0.005192,-0.009163
1765410004.951390,-10.184718,0.039455,0.629483,-0.004429,-0.006261,-0.011606
1765410004.951890,-10.050214,0.008967,0.474653,-0.009774,-0.006261,-0.010690
1765410004.956439,-9.872069,-0.106408,0.003587,-0.006109,-0.005651,-0.011148
1765410004.958352,-9.809898,-0.179340,0.008369,-0.001222,-0.008247,-0.006720
1765410004.959374,-9.974891,-0.143472,0.301291,-0.000916,-0.000916,-0.008858
1765410004.963396,-10.046627,-0.081301,0.532042,-0.005345,0.001680,-0.016952
1765410004.966392,-10.077712,0.034672,0.438187,-0.003360,-0.000764,-0.015882
1765410004.968386,-9.893590,0.046628,0.247489,-0.003512,-0.006872,-0.011759
1765410004.971357,-9.874461,0.116571,0.322214,-0.008552,-0.003207,-0.013286
1765410004.973357,-9.874461,0.116571,0.322214,-0.008552,-0.006261,-0.013286
1765410004.976466,-9.892395,-0.242707,0.308465,-0.010996,-0.006567,-0.008705
1765410004.978347,-9.832614,-0.286944,0.120756,-0.006872,-0.005040,-0.011454
1765410004.981393,-9.913916,-0.251076,0.474653,-0.007330,-0.002291,-0.015882
1765410004.983379,-9.860114,-0.020325,0.399928,-0.006109,-0.002138,-0.016035
1765410004.986382,-9.907339,-0.075921,0.390961,-0.010232,-0.006414,-0.011148
1765410004.986882,-9.746531,-0.126136,0.055595,-0.000764,-0.008705,-0.010537
1765410004.991371,-9.862504,-0.101626,0.248685,0.001527,-0.010537,-0.014203
1765410004.993389,-9.945002,0.035270,0.493783,-0.003054,-0.001527,-0.019395
1765410004.994746,-9.977880,0.170373,0.329986,-0.001069,-0.001374,-0.012370
1765410004.998404,-9.801530,-0.086083,0.337757,-0.001069,-0.004276,-0.006720
1765410005.001384,-9.990434,0.031086,0.501554,-0.003512,-0.009163,-0.015882
1765410005.003369,-10.098038,0.000000,0.575084,-0.007025,-0.003665,-0.010690
1765410005.006404,-9.751313,-0.191296,0.014347,-0.004429,-0.007330,-0.007789
1765410005.008424,-9.735173,-0.156624,0.105213,-0.006567,-0.001222,-0.013592
1765410005.011395,-9.898373,-0.021521,0.325203,-0.010232,-0.001222,-0.016341
1765410005.013436,-9.931252,-0.047824,0.444763,-0.008552,0.001374,-0.012981
1765410005.015433,-9.920491,-0.076518,0.376016,-0.010996,-0.005651,-0.012523
1765410005.018386,-10.010758,-0.017934,0.431014,-0.010996,-0.009468,-0.012523
1765410005.021428,-9.878048,-0.072932,0.190100,-0.004734,-0.003360,-0.010690
1765410005.023415,-9.866092,-0.147657,0.215208,-0.000153,-0.003054,-0.011759
1765410005.026422,-9.911524,-0.163797,0.355691,-0.004734,0.002749,-0.017257
1765410005.028456,-10.002390,-0.071736,0.423242,-0.007025,0.001833,-0.018784
1765410005.031342,-10.098038,0.019130,0.523673,0.000000,0.005040,-0.014203
1765410005.033440,-9.882831,-0.045433,0.392755,-0.002138,-0.003971,-0.010079
1765410005.036440,-9.866092,-0.041846,0.279173,-0.007483,-0.002443,-0.013897
1765410005.038466,-9.769846,-0.136896,0.077714,-0.002291,-0.004276,-0.011301
1765410005.041537,-9.914514,-0.191296,0.365854,0.001222,-0.003054,-0.017104
1765410005.043387,-9.943208,-0.050215,0.265423,-0.002596,-0.003054,-0.019395
1765410005.046467,-9.891200,-0.033477,0.205643,-0.002596,-0.001680,-0.019395
1765410005.048421,-9.907937,-0.173362,0.255261,-0.009010,-0.006109,-0.014355
1765410005.049486,-10.070539,-0.044835,0.495576,-0.006261,-0.004123,-0.015882
1765410005.052446,-9.970109,-0.041846,0.386777,-0.004276,-0.001527,-0.016341
1765410005.056370,-9.802725,-0.102822,0.065758,-0.005345,-0.001527,-0.015119
1765410005.058391,-9.985652,-0.114778,0.246294,-0.003360,-0.006261,-0.014966
1765410005.061473,-10.156623,-0.111191,0.472860,-0.004581,-0.000916,-0.018021
1765410005.063413,-10.070539,-0.086083,0.436394,-0.001833,0.008247,-0.019090
1765410005.064434,-9.795551,-0.001793,0.254663,-0.001069,0.002902,-0.017410
1765410005.068421,-9.966521,0.016738,0.524868,-0.002749,-0.003054,-0.019548
1765410005.071413,-9.966521,0.016738,0.524868,-0.002749,-0.002138,-0.019548
1765410005.073454,-9.931850,-0.092659,0.261836,-0.003818,-0.003971,-0.012523
1765410005.076376,-10.013150,-0.104017,0.493185,-0.006414,-0.003971,-0.018479
1765410005.078362,-10.040649,-0.066954,0.424438,-0.006567,-0.005803,-0.017257
1765410005.081379,-9.812290,-0.084888,0.056193,-0.005345,-0.011301,-0.016799
1765410005.083448,-9.840983,-0.041846,0.062769,-0.006109,-0.006567,-0.020769
1765410005.084396,-9.864896,-0.080703,0.223577,-0.004581,-0.001527,-0.018326
1765410005.088390,-9.916306,-0.062769,0.298302,-0.002749,-0.001833,-0.019395
1765410005.089414,-10.005977,-0.056193,0.406504,-0.005040,0.003360,-0.021533
1765410005.093451,-9.948587,-0.045433,0.379005,-0.004429,-0.000764,-0.020464
1765410005.096433,-9.933045,-0.117767,0.261239,-0.003054,-0.002291,-0.018021
1765410005.098434,-9.911524,-0.131516,0.387972,-0.003207,0.000153,-0.019853
1765410005.101406,-10.066953,-0.021521,0.561334,-0.006414,-0.001680,-0.019700
1765410005.103383,-9.979075,-0.063367,0.365854,-0.005345,-0.000916,-0.020311
1765410005.106373,-9.950979,-0.075323,0.285748,-0.002596,-0.005345,-0.017562
1765410005.108473,-10.050214,-0.061573,0.552965,-0.001833,-0.005345,-0.015882
1765410005.111405,-10.025107,-0.127929,0.523673,-0.003971,-0.007178,-0.018479
1765410005.113468,-9.819464,-0.234338,0.089670,-0.003665,-0.010079,-0.019395
1765410005.116396,-9.812290,-0.118364,0.066954,-0.002291,-0.013439,-0.023060
1765410005.118456,-10.017933,0.008369,0.414873,-0.003971,-0.008247,-0.022602
1765410005.121480,-9.899570,0.013749,0.364060,-0.001374,-0.002443,-0.016188
1765410005.123423,-9.899570,0.013749,0.364060,-0.001374,-0.004276,-0.016188
1765410005.126447,-9.686751,-0.081301,0.050215,-0.006261,-0.005345,-0.020617
1765410005.128456,-9.812290,-0.043639,0.343735,-0.006109,-0.006261,-0.019395
1765410005.131389,-9.929459,-0.125538,0.491392,-0.003818,-0.003818,-0.020464
1765410005.133401,-9.867287,-0.135103,0.393352,-0.006872,-0.002291,-0.021686
1765410005.134470,-9.763269,-0.104017,0.220588,-0.006109,-0.009468,-0.020769
1765410005.138383,-9.832614,-0.046628,0.068149,-0.004123,-0.008858,-0.023366
1765410005.141380,-9.867885,-0.015543,0.212817,-0.001374,-0.006720,-0.018326
1765410005.143428,-9.866689,-0.088474,0.234338,-0.007483,-0.001985,-0.019853
1765410005.146470,-9.942610,-0.101626,0.349713,-0.005956,-0.001833,-0.022907
1765410005.148448,-9.903154,-0.153635,0.327594,-0.003971,-0.003818,-0.022602
1765410005.151389,-9.891200,-0.136298,0.334170,-0.002443,-0.003360,-0.021228
1765410005.153495,-9.982663,0.009565,0.457915,-0.002443,-0.002291,-0.023213
1765410005.156425,-10.114776,-0.082496,0.639646,-0.005956,-0.003360,-0.021075
1765410005.158447,-9.852941,-0.089072,0.206839,-0.002596,-0.004581,-0.017562
1765410005.161386,-9.740554,-0.081301,0.021521,-0.004581,-0.010232,-0.021838
1765410005.161886,-9.856527,-0.080703,0.239718,-0.004734,-0.005498,-0.020769
1765410005.166403,-9.980272,-0.145863,0.483022,-0.002902,-0.005498,-0.019853
1765410005.168433,-9.990434,-0.163797,0.453132,0.000305,-0.003665,-0.024435
1765410005.172602,-9.818865,-0.081301,0.261239,-0.005040,-0.003665,-0.025045
1765410005.173416,-9.960544,-0.107604,0.455524,-0.004276,-0.005803,-0.023366
1765410005.176391,-9.875656,-0.166188,0.281564,-0.001833,-0.012523,-0.021533
1765410005.178392,-9.943806,-0.172166,0.335366,-0.005192,-0.012523,-0.026114
1765410005.181427,-9.850550,-0.138092,0.283357,-0.004734,-0.008399,-0.028711
1765410005.183386,-9.748923,-0.142276,0.017934,-0.005498,-0.009927,-0.023976
1765410005.186387,-9.709468,-0.080105,0.052606,-0.002902,-0.004887,-0.029169
1765410005.188425,-9.708273,-0.019130,0.028694,-0.003207,0.001222,-0.026420
1765410005.191398,-9.862504,-0.101626,0.335366,-0.004581,0.003207,-0.023671
1765410005.193419,-10.002390,-0.043639,0.640842,-0.000916,0.005498,-0.024740
1765410005.196479,-9.945600,-0.044237,0.597800,-0.001985,0.001222,-0.021533
1765410005.198450,-9.765661,-0.179340,0.322214,-0.005345,-0.003971,-0.020617
1765410005.199510,-9.901959,-0.228360,0.312052,-0.003512,-0.014050,-0.024435
1765410005.203453,-9.882831,-0.111191,0.301889,0.000458,-0.009621,-0.029627
1765410005.206488,-9.748923,-0.080105,0.150646,-0.004429,-0.006109,-0.026420
1765410005.208428,-9.830223,-0.093257,0.225968,-0.005040,-0.003512,-0.025962
1765410005.211504,-9.907339,-0.148254,0.127929,-0.003207,-0.008552,-0.024740
1765410005.213600,-9.925871,-0.144668,0.236131,-0.002902,-0.005040,-0.029322
1765410005.216516,-9.880439,-0.090866,0.289335,-0.004429,0.004123,-0.029932
1765410005.218455,-9.991630,-0.088474,0.534433,-0.005192,-0.001985,-0.027184
1765410005.221465,-10.010758,-0.086681,0.503945,-0.003971,-0.004123,-0.027947
1765410005.223453,-9.874461,-0.155428,0.185318,-0.004887,-0.005803,-0.026878
1765410005.226507,-9.735771,-0.141679,0.150646,-0.003360,-0.005956,-0.027336
1765410005.228426,-9.949782,-0.081899,0.381396,-0.002443,-0.005956,-0.031001
1765410005.231463,-10.027497,-0.127331,0.461502,-0.006109,-0.006261,-0.027794
1765410005.233434,-9.875058,-0.047226,0.083692,-0.003207,-0.005192,-0.028253
1765410005.236489,-9.925871,-0.035270,0.346126,-0.003512,-0.003665,-0.028405
1765410005.238439,-10.053802,-0.102822,0.642037,-0.006414,0.001833,-0.024435
1765410005.241458,-10.076518,-0.214012,0.615734,-0.002749,-0.002443,-0.024282
1765410005.243417,-10.076518,-0.214012,0.615734,-0.002749,-0.007330,-0.024282
1765410005.246429,-9.978478,-0.124342,0.191296,-0.001833,-0.000305,-0.029932
1765410005.246929,-9.958751,-0.179340,0.395744,-0.001680,-0.000305,-0.028711
1765410005.251410,-9.958751,-0.179340,0.395744,-0.001680,-0.003207,-0.028711
1765410005.253443,-9.837397,-0.086083,0.161406,-0.003512,-0.002596,-0.032376
1765410005.256429,-9.837397,-0.086083,0.161406,-0.003512,-0.007789,-0.032376
1765410005.258406,-9.855330,-0.072932,0.156624,0.000000,0.003054,-0.029474
1765410005.261406,-9.976088,-0.041248,0.531444,0.001527,0.003054,-0.029474
1765410005.263427,-9.996411,-0.156624,0.543998,-0.005803,-0.000764,-0.027184
1765410005.266480,-9.985652,-0.151841,0.407700,-0.003360,-0.009163,-0.031307
1765410005.268461,-9.929459,-0.070540,0.349115,-0.000916,-0.007483,-0.032376
1765410005.271426,-9.837397,-0.233142,0.303682,0.000458,-0.004581,-0.027031
1765410005.272457,-9.846365,-0.224175,0.286944,-0.001374,-0.011606,-0.034208
1765410005.276443,-9.894786,-0.086083,0.340746,-0.004581,-0.013286,-0.037568
1765410005.278470,-9.642514,-0.063367,-0.172166,-0.002291,-0.007483,-0.031001
1765410005.281459,-9.777617,-0.125538,0.086681,-0.002596,-0.010537,-0.030849
1765410005.283457,-10.031085,-0.197872,0.613941,-0.004581,0.004734,-0.031918
1765410005.286405,-10.168577,-0.176351,0.677307,-0.000611,0.004734,-0.030238
1765410005.288449,-9.921089,-0.202056,0.257054,-0.004734,0.002443,-0.031307
1765410005.291392,-9.809300,-0.154830,0.129125,-0.003665,-0.006109,-0.033598
1765410005.293412,-9.837397,-0.147059,0.169775,-0.003971,-0.006109,-0.034972
1765410005.296436,-9.837397,-0.147059,0.169775,-0.003971,-0.001680,-0.034972
1765410005.298468,-9.735771,-0.155428,0.173362,-0.004123,0.001222,-0.032681
1765410005.301485,-9.751313,-0.170971,0.145863,-0.005345,-0.001985,-0.033139
1765410005.303445,-9.833213,-0.131516,0.231946,-0.001680,0.004887,-0.033903
1765410005.304480,-10.003586,-0.129125,0.516499,0.000458,0.004887,-0.031612
1765410005.308439,-10.003586,-0.129125,0.516499,0.000458,0.003207,-0.031612
1765410005.311469,-10.008965,-0.270206,0.478240,-0.002902,-0.008094,-0.035583
1765410005.313428,-9.915112,-0.176351,0.170971,-0.004276,-0.008094,-0.041386
1765410005.316471,-9.667622,-0.120756,-0.082496,-0.001680,-0.007483,-0.035583
1765410005.318454,-9.780008,-0.066356,0.182927,-0.002596,-0.007483,-0.033445
1765410005.319453,-10.137493,-0.023912,0.640842,0.000611,-0.003512,-0.033598
1765410005.323477,-9.953370,-0.280966,0.313247,-0.000153,-0.005040,-0.030085
1765410005.326414,-9.827832,-0.243902,-0.013152,-0.001222,-0.012065,-0.036194
1765410005.328780,-9.960544,-0.139885,0.276184,0.001069,-0.008705,-0.042302
1765410005.331328,-9.832614,-0.212817,0.235533,-0.000916,0.001680,-0.033292
1765410005.333412,-9.784193,-0.101626,0.057389,-0.000458,-0.003512,-0.036041
1765410005.336443,-10.051410,0.028694,0.521282,-0.003054,-0.004276,-0.038790
1765410005.338428,-10.040649,-0.043042,0.515304,0.002138,0.002138,-0.028863
1765410005.339401,-9.872069,-0.276184,0.230153,0.004123,-0.004887,-0.028863
1765410005.343484,-9.954566,-0.343137,0.286346,-0.002138,-0.006414,-0.035888
1765410005.346456,-10.016738,-0.233740,0.181731,0.001833,-0.005345,-0.037263
1765410005.348447,-9.888808,-0.283357,0.221186,0.005345,-0.005498,-0.035888
1765410005.351399,-9.916904,-0.028694,0.410091,0.002902,-0.002596,-0.039706
1765410005.353427,-10.108798,0.059780,0.742468,0.002902,-0.000153,-0.039706
1765410005.356509,-9.836202,-0.196676,0.307269,-0.002138,-0.002138,-0.029474
1765410005.358461,-9.804518,-0.254065,0.014347,0.000611,-0.014508,-0.035888
1765410005.361510,-9.790769,-0.197872,0.096844,-0.000611,-0.009621,-0.038026
1765410005.363448,-9.794355,-0.228360,0.185916,0.000916,-0.007330,-0.035888
1765410005.366457,-9.875656,-0.076518,0.321616,0.001527,-0.006261,-0.042608
1765410005.368473,-10.015541,-0.061573,0.435198,-0.000764,-0.003971,-0.037721
1765410005.369432,-9.935436,-0.153037,0.297704,0.001833,-0.005956,-0.031918
1765410005.373421,-9.832017,-0.216404,0.028694,0.000916,-0.005651,-0.034972
1765410005.376435,-9.940817,-0.203850,0.302487,0.000916,-0.005651,-0.039248
1765410005.378431,-10.024508,-0.230751,0.576279,0.001680,-0.002596,-0.038026
1765410005.381421,-9.931850,-0.248685,0.506337,0.000916,-0.008858,-0.039095
1765410005.383419,-9.790769,-0.154232,0.063367,-0.005040,-0.011148,-0.045051
1765410005.386426,-9.910329,0.002391,0.223577,0.001985,-0.008858,-0.045968
1765410005.388441,-9.910329,-0.071736,0.426829,0.007178,-0.007330,-0.032223
1765410005.391406,-9.999999,-0.234338,0.536824,0.001222,-0.006720,-0.035277
1765410005.393436,-10.049019,-0.230751,0.453132,-0.002138,-0.008552,-0.042913
1765410005.396463,-9.903154,-0.228957,0.208034,-0.001222,-0.008399,-0.041081
1765410005.398440,-9.647297,-0.232544,-0.149450,-0.000153,-0.010079,-0.041386
1765410005.401439,-9.793160,-0.064562,-0.016738,0.000458,-0.005956,-0.047953
1765410005.403414,-9.958152,0.007174,0.452535,0.003207,0.002443,-0.040012
1765410005.406476,-10.060975,-0.098637,0.771760,0.005040,-0.001222,-0.033139
1765410005.408542,-10.000596,-0.245098,0.499761,0.000153,-0.004887,-0.040470
1765410005.411537,-9.912720,-0.219990,0.145863,-0.002138,-0.010843,-0.040470
1765410005.412037,-9.961142,-0.327594,0.274390,0.001222,-0.011301,-0.043371
1765410005.416469,-9.998802,-0.090268,0.542802,0.006872,-0.007941,-0.044593
1765410005.418492,-9.885818,-0.072932,0.479436,-0.000916,-0.001527,-0.045357
1765410005.421440,-9.801530,-0.034672,0.139287,-0.001680,-0.010996,-0.041386
1765410005.423398,-9.936632,-0.186514,0.213415,0.001069,-0.016493,-0.037110
1765410005.426433,-10.104015,-0.279770,0.401124,-0.000458,-0.011148,-0.040928
1765410005.428522,-10.139884,-0.249880,0.467480,-0.001222,-0.005345,-0.041692
1765410005.431458,-9.980869,-0.234338,0.503348,-0.001527,-0.010232,-0.044746
1765410005.433490,-9.689142,-0.197274,0.044835,-0.004276,-0.010232,-0.048564
1765410005.434458,-9.820060,-0.051411,0.118962,-0.004581,-0.009468,-0.046120
1765410005.438425,-9.837397,-0.176949,0.251076,-0.000764,-0.004581,-0.039401
1765410005.441404,-9.968913,-0.279770,0.467480,0.000458,-0.006872,-0.040623
1765410005.443414,-10.040051,-0.263032,0.313247,-0.002138,-0.000611,-0.052076
1765410005.446418,-9.863700,-0.108800,0.202654,-0.001069,-0.000611,-0.046578
1765410005.448479,-9.841581,-0.161406,0.388570,0.000764,-0.000458,-0.043371
1765410005.451432,-10.041247,-0.120158,0.697035,-0.000764,-0.003971,-0.045815
1765410005.453583,-9.971903,-0.178144,0.430416,-0.005040,-0.003971,-0.045204
1765410005.456503,-9.866092,-0.285748,-0.014945,-0.005040,-0.013897,-0.045204
1765410005.458462,-10.003586,-0.212817,0.182927,-0.004276,-0.011148,-0.048258
1765410005.461518,-10.053204,-0.180536,0.534433,-0.000611,-0.000305,-0.046731
1765410005.463450,-9.953370,-0.180536,0.402917,-0.002291,-0.004123,-0.046120
1765410005.466432,-9.802725,-0.178144,0.136298,-0.000764,-0.004123,-0.046731
1765410005.466932,-9.802725,-0.178144,0.136298,-0.000764,-0.007025,-0.046731
1765410005.471484,-9.875656,-0.226566,0.135701,0.000764,-0.004276,-0.046426
1765410005.471984,-9.861309,-0.291129,0.279770,-0.000153,0.005345,-0.043219
1765410005.476480,-9.992825,-0.244500,0.661167,-0.001833,0.004276,-0.049327
1765410005.478468,-10.067551,-0.119560,0.631277,0.001985,0.004276,-0.050244
1765410005.481473,-10.067551,-0.119560,0.631277,0.001985,-0.007178,-0.050244
1765410005.483440,-9.918698,-0.211621,0.332377,-0.005040,-0.012370,-0.051160
1765410005.486474,-9.996411,-0.145863,0.291726,-0.005040,-0.008858,-0.051771
1765410005.488464,-9.937828,-0.260043,0.335964,0.000000,-0.004887,-0.044593
1765410005.491447,-9.935436,-0.206241,0.280966,0.005651,-0.004887,-0.044593
1765410005.493472,-9.863700,-0.313247,0.120158,-0.002902,-0.008552,-0.048564
1765410005.494495,-9.722619,-0.187709,-0.139885,-0.000611,0.000458,-0.052382
1765410005.498416,-9.748923,-0.064562,0.219393,0.004581,0.000458,-0.046120
1765410005.501460,-9.891797,-0.129125,0.591822,0.001833,-0.001069,-0.044899
1765410005.503424,-9.897178,-0.168580,0.212817,-0.003207,-0.001069,-0.047342
1765410005.506455,-9.782997,-0.258250,-0.118364,-0.001222,-0.003360,-0.043219
1765410005.507443,-10.010758,-0.300096,0.373625,0.001680,-0.000458,-0.046578
1765410005.511448,-10.204447,-0.154232,0.880559,0.001527,0.008552,-0.048258
1765410005.513458,-10.121352,-0.261836,0.761597,0.001527,0.003665,-0.048258
1765410005.516410,-9.852343,-0.237327,0.164395,-0.005345,-0.005192,-0.046884
1765410005.517479,-9.745336,-0.292922,-0.120756,-0.003818,-0.012828,-0.047495
1765410005.521456,-9.967718,-0.315638,0.324008,0.001527,-0.004887,-0.047800
1765410005.523502,-9.965924,-0.182927,0.382592,0.003665,0.005345,-0.047800
1765410005.526434,-9.965924,-0.182927,0.382592,0.003665,-0.000458,-0.047800
1765410005.528466,-9.992227,-0.269608,0.149450,-0.000458,-0.010843,-0.052993
1765410005.531466,-10.139286,-0.280368,0.543400,0.004276,-0.001374,-0.053603
1765410005.533490,-9.713653,-0.277379,0.271401,0.002749,0.008705,-0.051771
1765410005.536452,-9.858320,-0.130320,0.380799,-0.000916,0.001069,-0.056047
1765410005.538458,-10.063964,-0.173362,0.540411,-0.000764,-0.005040,-0.050549
1765410005.541482,-10.073528,-0.298900,0.493185,0.003665,-0.007636,-0.046884
1765410005.543470,-9.862504,-0.363462,0.239120,0.002749,0.003054,-0.049938
1765410005.544530,-9.764465,-0.218795,0.114778,0.000458,-0.000611,-0.055589
1765410005.548503,-10.003586,-0.193687,0.422047,-0.002749,-0.010843,-0.051771
1765410005.551457,-9.950979,-0.133309,0.357484,-0.000458,-0.005040,-0.052840
1765410005.553522,-9.883428,-0.094452,0.400526,0.002443,0.003665,-0.050855
1765410005.556416,-9.672404,-0.347920,0.243902,-0.001833,0.002596,-0.044440
1765410005.556916,-9.880439,-0.316834,0.277977,0.000153,-0.007330,-0.052076
1765410005.561425,-9.944403,-0.192492,0.245696,0.003971,-0.000153,-0.053603
1765410005.563446,-10.098636,-0.225371,0.506934,0.002749,0.000000,-0.052687
1765410005.566458,-9.945600,-0.257652,0.472262,0.001833,0.003512,-0.052840
1765410005.568454,-9.878048,-0.224175,0.338953,0.002291,-0.001222,-0.058032
1765410005.571445,-9.817670,-0.225968,0.175155,0.001374,0.000764,-0.053298
1765410005.573441,-9.716641,-0.352702,0.066954,0.004123,-0.002902,-0.048258
1765410005.576468,-9.976088,-0.401722,0.559541,0.000611,-0.006109,-0.057574
1765410005.578470,-9.971304,-0.228360,0.426829,0.000305,0.002291,-0.059407
1765410005.581455,-9.820659,-0.285748,0.225968,-0.000305,-0.001833,-0.056047
1765410005.583435,-9.680773,-0.166188,0.049020,-0.002596,-0.000305,-0.057879
1765410005.586474,-9.832017,-0.089670,0.311454,-0.001985,0.001680,-0.058185
1765410005.587432,-9.748923,-0.300096,0.365854,-0.008247,0.007330,-0.052534
1765410005.591405,-9.850550,-0.264825,0.334768,-0.000305,-0.001527,-0.056200
1765410005.593494,-9.913916,-0.199665,0.394548,-0.001680,-0.002596,-0.052382
1765410005.596449,-9.828429,-0.217001,0.206241,0.000000,-0.006720,-0.053909
1765410005.598471,-9.848158,-0.240913,0.267217,0.002443,-0.000611,-0.053298
1765410005.601465,-9.722619,-0.300096,0.106408,0.000000,-0.000611,-0.051771
1765410005.603446,-9.934838,-0.227762,0.270206,-0.000764,0.009163,-0.056658
1765410005.606437,-9.817072,-0.346126,0.107604,-0.000458,0.009163,-0.053298
1765410005.608505,-10.136297,-0.337159,0.785509,0.002596,0.011606,-0.054214
1765410005.611434,-10.174556,-0.356289,0.914036,0.000000,0.007330,-0.061697
1765410005.611934,-10.063366,-0.389766,0.430416,-0.002902,-0.000611,-0.060323
1765410005.616469,-9.723217,-0.382592,-0.016738,0.001833,-0.003512,-0.061392
1765410005.618468,-9.768052,-0.221784,0.191296,0.003665,-0.000153,-0.060934
1765410005.619462,-9.900764,-0.180536,0.390961,0.003665,0.001680,-0.060934
1765410005.623453,-9.752509,-0.225968,0.049020,-0.000153,0.000458,-0.058948
1765410005.626502,-9.950381,-0.248685,0.161406,0.003665,-0.000153,-0.056505
1765410005.628456,-9.923481,-0.368245,0.237924,0.000916,0.006414,-0.056963
1765410005.631494,-9.845766,-0.425634,0.114778,-0.000153,0.000611,-0.059407
1765410005.633455,-9.791965,-0.200861,0.171569,-0.000764,0.010385,-0.066432
1765410005.634512,-10.069344,-0.052606,0.615734,0.004429,0.004429,-0.061850
1765410005.639427,-10.048421,-0.172764,0.676112,0.003818,0.004429,-0.051771
1765410005.641358,-9.906742,-0.281564,0.243902,0.002291,-0.005192,-0.056810
1765410005.644526,-9.930654,-0.266021,0.047824,-0.002749,-0.001374,-0.058032
1765410005.646570,-9.942610,-0.396939,0.071736,0.001985,-0.001680,-0.055131
1765410005.648499,-10.075322,-0.386179,0.596604,0.005651,0.006109,-0.057116
1765410005.651457,-9.992825,-0.149450,0.238522,-0.000305,0.006109,-0.063683
1765410005.651957,-10.389765,-0.334768,0.533238,-0.001985,0.001222,-0.058338
1765410005.656510,-10.338352,-0.347322,0.481827,0.000611,0.007025,-0.060781
1765410005.658533,-10.786703,-0.260641,1.058704,0.000305,0.010232,-0.061239
1765410005.661500,-10.383787,-0.599593,0.572692,-0.003665,-0.004887,-0.053298
1765410005.663471,-10.198468,-0.423242,0.478838,-0.000916,-0.004887,-0.068570
1765410005.666483,-9.930654,-0.326399,0.310856,-0.004887,0.004581,-0.068264
1765410005.668460,-9.979673,-0.132712,0.353898,-0.000916,0.003054,-0.067348
1765410005.671516,-9.824843,-0.211621,0.285151,0.001222,0.003054,-0.061392
1765410005.673503,-9.794355,-0.129125,0.149450,-0.001680,-0.004276,-0.064599
1765410005.676438,-9.848756,-0.047226,-0.051411,0.001069,-0.001985,-0.062766
1765410005.678435,-9.939023,-0.235533,0.368245,0.001069,0.000916,-0.062766
1765410005.681530,-10.120157,-0.450741,0.780129,0.004887,0.001527,-0.056658
1765410005.683472,-9.924676,-0.416667,0.323410,-0.003207,0.001527,-0.063377
1765410005.686506,-9.937828,-0.209828,0.216404,-0.002443,-0.000458,-0.067501
1765410005.688481,-9.877449,-0.252272,-0.026901,0.001069,-0.002902,-0.058338
1765410005.691451,-10.026302,-0.447154,0.455524,0.001374,0.001069,-0.058032
1765410005.693498,-9.994618,-0.420253,0.377810,-0.000153,0.006261,-0.065363
1765410005.696505,-10.057985,-0.439981,0.425634,-0.003054,0.001985,-0.065821
1765410005.698506,-10.025107,-0.374821,0.499761,0.008705,-0.005040,-0.066737
1765410005.701457,-10.029889,-0.320421,0.496174,0.003360,0.001069,-0.065057
1765410005.703429,-9.949186,-0.203252,0.240316,0.003207,0.001069,-0.068570
1765410005.706476,-10.020324,-0.229555,0.416069,0.004123,-0.004123,-0.064904
1765410005.708457,-9.897178,-0.456719,0.214012,0.005803,-0.000153,-0.058948
1765410005.711486,-9.829626,-0.437590,-0.078312,0.004887,-0.005345,-0.067042
1765410005.713494,-9.971903,-0.339550,0.209230,0.000764,0.001833,-0.074220
1765410005.715927,-10.015541,-0.088474,0.694644,0.003818,0.012523,-0.066432
1765410005.718824,-9.838593,-0.191296,0.482425,-0.000611,0.000611,-0.062766
1765410005.721535,-9.785987,-0.227164,0.276781,-0.006414,0.000611,-0.063377
1765410005.723480,-9.892993,-0.313845,0.280966,-0.000611,-0.002902,-0.061239
1765410005.726458,-9.909132,-0.523673,0.231946,0.003360,-0.008247,-0.056505
1765410005.728521,-10.052606,-0.505141,0.395744,-0.000153,-0.008247,-0.070860
1765410005.730690,-10.052606,-0.505141,0.395744,-0.000153,0.000305,-0.070860
1765410005.733665,-9.674795,-0.375418,-0.243902,0.000305,-0.000153,-0.063988
1765410005.734658,-9.643112,-0.437590,-0.119560,-0.001069,-0.006109,-0.071166
1765410005.739992,-9.979673,-0.217599,0.548780,0.000916,0.010690,-0.074984
1765410005.741551,-10.253465,-0.241511,0.964849,0.002596,0.014355,-0.062919
1765410005.743471,-9.891200,-0.437590,0.358082,-0.003054,0.003665,-0.066279
1765410005.746485,-9.820659,-0.372429,-0.040650,-0.003818,-0.000153,-0.074220
1765410005.748508,-9.744141,-0.408895,0.104017,0.001833,-0.002291,-0.066890
1765410005.751479,-9.650884,-0.288140,0.312649,-0.000305,0.005956,-0.066737
1765410005.753536,-9.771639,-0.275586,0.230751,-0.001985,0.001069,-0.070402
1765410005.756548,-9.589908,-0.466284,-0.279770,-0.004581,0.003512,-0.065668
1765410005.757048,-9.827234,-0.538020,0.286944,0.005192,0.000916,-0.065668
1765410005.761544,-9.956957,-0.410091,0.666547,0.005651,0.015730,-0.069791
1765410005.763500,-9.748923,-0.555356,0.156624,0.000764,0.001985,-0.067653
1765410005.766503,-9.740554,-0.383190,0.083692,-0.004581,0.000000,-0.078343
1765410005.768494,-9.844571,-0.166188,0.225371,0.008094,-0.002902,-0.071624
1765410005.771485,-9.719033,-0.419058,0.261836,0.001985,0.012675,-0.064752
1765410005.773465,-9.851745,-0.374821,0.384983,0.001069,0.004887,-0.075595
1765410005.776501,-9.996411,-0.388570,0.431014,-0.003360,0.008858,-0.072693
1765410005.777001,-9.813485,-0.603778,0.060976,0.003207,-0.001527,-0.070402
1765410005.781489,-9.893590,-0.333572,0.315041,0.002902,0.000000,-0.082467
1765410005.783498,-9.802725,-0.309660,0.203850,0.000305,0.005803,-0.075136
1765410005.786513,-9.817670,-0.218795,0.172764,0.000000,0.005803,-0.071777
1765410005.788494,-9.935436,-0.272597,0.237327,0.004581,0.004429,-0.067959
1765410005.791492,-9.934240,-0.494978,0.491392,0.000764,0.015272,-0.066584
1765410005.793525,-9.811692,-0.552367,0.369440,0.001833,0.011148,-0.072235
1765410005.796487,-9.998802,-0.376016,0.628886,-0.000305,0.001374,-0.078649
1765410005.798460,-9.985053,-0.340746,0.597800,-0.000764,-0.001222,-0.075136
1765410005.801497,-9.855929,-0.398733,0.053802,-0.001527,-0.007178,-0.074220
1765410005.803466,-9.754900,-0.408895,-0.154232,-0.000611,-0.001680,-0.074984
1765410005.806487,-9.754900,-0.408895,-0.154232,-0.000611,0.007941,-0.074984
1765410005.808481,-9.962935,-0.532042,0.558345,0.005192,0.008399,-0.075595
1765410005.811514,-10.050214,-0.373625,0.517695,0.001374,0.006872,-0.081398
1765410005.813484,-9.958152,-0.428025,0.362267,0.000611,0.014813,-0.078954
1765410005.816838,-9.679578,-0.241511,0.239120,0.004734,0.008247,-0.075442
1765410005.818505,-9.708273,-0.306671,0.221186,-0.002443,-0.004581,-0.073915
1765410005.821507,-9.823050,-0.251076,0.137494,-0.002596,0.001985,-0.073609
1765410005.822007,-9.783595,-0.468675,-0.117767,0.001985,0.001985,-0.067195
1765410005.825598,-9.803921,-0.574486,0.246294,0.001069,0.007483,-0.067806
1765410005.828519,-9.955761,-0.534433,0.486609,-0.001222,0.016646,-0.076053
1765410005.831536,-10.026900,-0.450741,0.572692,-0.003207,0.009468,-0.075442
1765410005.833537,-9.686153,-0.633668,-0.007174,-0.002596,0.002138,-0.075747
1765410005.836489,-9.728598,-0.381994,0.102822,0.004581,0.000305,-0.083078
1765410005.838508,-9.814083,-0.361669,0.202056,0.004581,0.007941,-0.083078
1765410005.844990,-9.810495,-0.437590,0.322812,0.003054,0.008552,-0.074984
1765410005.845490,-9.991630,-0.389168,0.347322,0.001833,0.009468,-0.085216
1765410005.847612,-9.991630,-0.389168,0.347322,0.001833,0.009163,-0.085216
1765410005.848639,-9.628167,-0.511119,-0.011956,0.000305,0.007636,-0.071624
1765410005.849585,-9.628167,-0.511119,-0.011956,0.000305,-0.000153,-0.071624
1765410005.851562,-9.959349,-0.352104,0.749641,-0.002291,0.009163,-0.085521
1765410005.856548,-9.413557,-0.248685,-1.065877,-0.000764,0.009163,-0.076358
1765410005.858551,-9.673002,-0.392157,0.142276,0.002291,-0.002749,-0.073609
1765410005.861541,-9.805116,-0.462697,0.745457,0.007178,0.014661,-0.073915
1765410005.863487,-9.757292,-0.479436,0.627690,-0.001985,0.010385,-0.080940
1765410005.866570,-9.232423,-0.527260,-0.600191,-0.009927,-0.011454,-0.081092
1765410005.868558,-9.495455,-0.436394,-0.532042,0.000764,-0.011454,-0.083230
1765410005.869539,-9.887612,-0.371832,0.325203,0.007178,0.012217,-0.083994
1765410005.873517,-10.065758,-0.217599,0.940339,-0.000305,0.020922,-0.081092
1765410005.876538,-10.023911,-0.471066,0.524868,-0.004581,0.019395,-0.078954
1765410005.878529,-9.720228,-0.602582,-0.308465,-0.000305,-0.001069,-0.075747
1765410005.881479,-9.884026,-0.477044,0.203252,0.005651,-0.000305,-0.084605
1765410005.883505,-9.879243,-0.240316,0.480631,0.000305,0.017868,-0.085368
1765410005.886522,-9.930056,-0.343137,0.442372,-0.002443,0.001069,-0.078191
1765410005.888591,-9.548061,-0.652798,-0.363462,0.002443,0.001069,-0.077580
1765410005.891505,-9.796746,-0.612147,0.013152,-0.000916,0.001680,-0.084910
1765410005.893559,-10.236728,-0.291726,0.966045,0.000611,0.022602,-0.091783
1765410005.896581,-9.878646,-0.413080,0.367049,-0.001833,0.015577,-0.078038
1765410005.898506,-9.752509,-0.397537,-0.022716,-0.002291,-0.001374,-0.085674
1765410005.901494,-9.945002,-0.289335,0.264228,0.001527,0.004429,-0.088728
1765410005.903482,-9.945002,-0.289335,0.264228,0.001527,0.013744,-0.088728
1765410005.906537,-10.083690,-0.431612,0.426829,-0.000458,0.009468,-0.079260
1765410005.908458,-10.115973,-0.506337,0.297704,-0.005956,0.003818,-0.082009
1765410005.911444,-9.976088,-0.645624,0.340148,0.004276,0.006720,-0.077427
1765410005.913536,-9.872069,-0.489000,0.172166,0.006261,0.006720,-0.084452
1765410005.916520,-9.872069,-0.489000,0.172166,0.006261,0.009621,-0.084452
1765410005.918520,-9.980869,-0.454328,0.524271,-0.004429,0.009316,-0.091172
1765410005.919667,-9.979673,-0.484218,0.423840,0.000611,0.012981,-0.081398
1765410005.923595,-9.664633,-0.529651,0.070540,0.000916,0.010690,-0.083536
1765410005.927572,-9.707675,-0.593018,-0.033477,-0.004276,0.010690,-0.088575
1765410005.928464,-9.814680,-0.662362,0.234338,0.001222,0.005803,-0.087201
1765410005.931495,-9.794952,-0.685079,0.211023,-0.002902,0.005956,-0.092088
1765410005.933497,-9.904350,-0.187709,0.340746,-0.002138,0.009927,-0.099113
1765410005.936514,-9.904350,-0.187709,0.340746,-0.002138,0.011454,-0.099113
1765410005.938491,-9.885818,-0.477044,0.172166,-0.000305,0.005803,-0.074678
1765410005.939512,-10.086679,-0.601387,0.413678,0.000916,0.009927,-0.085827
1765410005.943463,-10.017335,-0.749641,0.309660,0.001374,0.013439,-0.084605
1765410005.946593,-9.880439,-0.760402,0.177547,0.000611,0.002749,-0.092546
1765410005.948913,-10.029292,-0.328192,0.211621,0.000611,0.005040,-0.092546
1765410005.952560,-10.052007,-0.343137,0.325203,-0.002902,0.014966,-0.091172
1765410005.954501,-9.979075,-0.534433,0.343137,0.001527,0.016493,-0.088270
1765410005.956490,-10.175752,-0.701817,0.551769,0.000916,0.013592,-0.089644
1765410005.958507,-10.063964,-0.691655,0.409493,0.001985,0.015424,-0.093462
1765410005.961591,-9.892993,-0.562530,0.132114,0.004734,0.006872,-0.094837
1765410005.963501,-10.224771,-0.357484,0.572692,0.004429,0.005040,-0.097433
1765410005.964541,-10.014346,-0.442970,0.368245,0.004734,0.006261,-0.084299
1765410005.968476,-9.827832,-0.571497,0.185318,0.000000,0.010996,-0.086743
1765410005.971485,-9.851147,-0.394548,0.078910,0.000611,0.010996,-0.095295
1765410005.973494,-9.863102,-0.532640,0.247489,0.005345,0.007636,-0.081245
1765410005.976525,-9.964728,-0.711382,0.454926,0.002902,-0.000764,-0.088117
1765410005.977025,-10.081299,-0.408297,0.390961,-0.000305,0.009621,-0.094684
1765410005.981543,-9.985652,-0.607365,0.368245,-0.000305,-0.006261,-0.085216
1765410005.983541,-9.783595,-0.829746,-0.080105,0.003512,-0.006261,-0.088728
1765410005.984513,-9.925871,-0.618723,0.145863,0.001985,-0.004581,-0.097891
1765410005.988508,-9.906144,-0.527260,0.257652,0.002902,0.010537,-0.094990
1765410005.991494,-9.739358,-0.515304,0.090866,0.005498,0.004887,-0.088881
1765410005.993571,-9.950979,-0.561334,0.401722,-0.002443,-0.000458,-0.091935
1765410005.994495,-9.983260,-0.525466,0.270206,0.000458,0.001833,-0.093768
1765410005.998529,-9.823050,-0.685677,0.150646,0.007025,-0.001680,-0.087965
1765410006.001533,-9.875656,-0.710186,0.144668,0.001374,-0.000764,-0.097128
1765410006.003501,-10.069344,-0.452535,0.267814,-0.001833,-0.000764,-0.098044
1765410006.006506,-9.881634,-0.476447,0.163199,0.001222,0.009010,-0.091630
1765410006.008542,-9.852343,-0.570899,0.308465,0.006414,0.006872,-0.090255
1765410006.011474,-10.019726,-0.606169,0.401722,0.001069,0.006261,-0.095142
1765410006.012545,-10.111190,-0.677905,0.496772,0.003360,-0.002749,-0.093157
1765410006.016513,-9.801530,-0.564323,0.129723,-0.000305,0.004887,-0.097128
1765410006.018547,-9.866689,-0.382592,0.098039,0.002902,-0.001680,-0.093004
1765410006.021501,-10.040649,-0.631875,0.482425,-0.002596,-0.003360,-0.091935
1765410006.023508,-10.095646,-0.514706,0.492587,0.006261,-0.004887,-0.090713
1765410006.026568,-9.778812,-0.626494,0.136896,0.004581,0.001069,-0.091324
1765410006.027551,-9.613820,-0.637255,-0.075323,0.004887,0.001069,-0.093462
1765410006.031498,-9.613820,-0.637255,-0.075323,0.004887,-0.004123,-0.093462
1765410006.033509,-9.986848,-0.736490,0.429818,0.001680,-0.002749,-0.094226
1765410006.036464,-10.047822,-0.637853,0.387374,0.000458,0.007941,-0.099418
1765410006.038574,-9.900764,-0.579866,0.263630,0.003512,-0.001374,-0.098197
1765410006.041554,-9.989238,-0.389766,0.325801,0.004276,-0.001374,-0.099266
1765410006.043595,-10.022716,-0.260043,0.428025,0.005651,0.006109,-0.092241
1765410006.044589,-9.974891,-0.561932,0.420253,0.000153,0.003665,-0.085368
1765410006.046625,-10.185914,-0.726925,0.924199,0.003360,0.001222,-0.091324
1765410006.051555,-9.986848,-0.748446,0.402319,0.002138,-0.002138,-0.093157
1765410006.053611,-9.824244,-0.662960,0.087279,0.001069,-0.011912,-0.096669
1765410006.056570,-9.671806,-0.643831,-0.280966,0.005803,-0.010843,-0.098807
1765410006.058563,-9.972500,-0.523075,0.439981,0.004581,0.002138,-0.097891
1765410006.061498,-9.912720,-0.625299,0.271999,0.002596,0.002138,-0.095142
1765410006.062491,-9.912720,-0.625299,0.271999,0.002596,-0.007789,-0.095142
1765410006.066500,-10.055594,-0.563128,0.342539,0.004734,-0.000458,-0.104000
1765410006.068492,-9.736369,-0.590626,-0.063367,0.008247,0.004429,-0.095600
1765410006.071523,-9.719033,-0.562530,0.243902,0.006720,0.006261,-0.096211
1765410006.073573,-9.829028,-0.500956,0.237327,0.007025,0.006261,-0.096059
1765410006.076547,-9.829028,-0.500956,0.237327,0.007025,0.005498,-0.096059
1765410006.078589,-9.815877,-0.640244,0.174558,0.009010,0.004581,-0.104916
1765410006.081553,-9.744739,-0.505141,0.187709,0.003971,0.011912,-0.097586
1765410006.083605,-9.788378,-0.773553,0.144070,-0.001985,-0.000305,-0.098044
1765410006.085580,-9.978478,-0.478240,0.275586,0.002291,0.001985,-0.108276
1765410006.088540,-9.978478,-0.478240,0.275586,0.002291,0.010537,-0.108276
1765410006.091553,-9.637732,-0.651602,0.095648,0.001222,0.010996,-0.093768
1765410006.093480,-9.726207,-0.578670,0.154830,0.003207,0.010996,-0.096822
1765410006.096580,-10.087874,-0.668340,0.563128,0.003207,0.014966,-0.095753
1765410006.098553,-9.912720,-0.665949,0.187709,0.000000,0.014966,-0.098960
1765410006.101514,-9.771639,-0.661765,0.005978,-0.004429,0.010996,-0.098197
1765410006.102014,-10.056191,-0.620516,0.450741,-0.002596,0.014966,-0.100182
1765410006.106508,-10.203251,-0.602582,0.824964,0.005498,0.014966,-0.097891
1765410006.108498,-10.144667,-0.674318,0.608560,-0.000611,0.010996,-0.098960
1765410006.111491,-9.804518,-0.625299,0.060976,-0.001069,0.010690,-0.101404
1765410006.113564,-9.713055,-0.619321,-0.043042,0.000153,0.009621,-0.100793
1765410006.116525,-9.840386,-0.578670,0.304878,0.001680,0.008094,-0.094379
1765410006.118615,-10.032280,-0.578670,0.687470,0.003207,0.011912,-0.097128
1765410006.121534,-10.032280,-0.578670,0.687470,0.003207,0.017410,-0.097128
1765410006.123496,-9.748923,-0.944524,0.100430,0.001222,0.010537,-0.089644
1765410006.126598,-9.858918,-0.973218,0.196078,0.005345,0.000458,-0.100029
1765410006.128562,-10.017335,-0.936155,0.182927,0.005498,0.009163,-0.103847
1765410006.131593,-9.860114,-0.875179,0.269010,0.003665,0.013744,-0.111025
1765410006.133626,-9.752509,-0.643233,0.199665,0.003665,0.023824,-0.111025
1765410006.135496,-9.677187,-0.462697,0.114180,0.002138,0.005192,-0.103542
1765410006.138547,-10.050214,-0.444763,0.329986,0.001222,0.005192,-0.106749
1765410006.141582,-9.778812,-0.585844,-0.131516,0.006872,0.009621,-0.095295
1765410006.143589,-9.667622,-0.885940,0.133907,0.007483,0.011606,-0.096517
1765410006.144561,-9.717239,-0.783118,0.142276,0.002596,0.017410,-0.105832
1765410006.148553,-9.991630,-0.647417,0.376614,0.001985,0.005498,-0.107970
1765410006.151579,-9.925274,-0.590626,0.291726,0.001680,0.012065,-0.110872
1765410006.152079,-9.631754,-0.472262,-0.185916,0.007025,0.019242,-0.100640
1765410006.156582,-9.886416,-0.871592,0.346724,-0.001374,0.010690,-0.098197
1765410006.158580,-10.220587,-0.640842,0.597800,-0.000458,0.010385,-0.109956
1765410006.162764,-10.280366,-0.506934,0.504543,0.001680,0.014508,-0.103236
1765410006.163264,-9.861309,-0.781922,0.077714,0.000764,0.014203,-0.098960
1765410006.166580,-9.824244,-0.695241,-0.010760,0.000764,0.010843,-0.108123
1765410006.168656,-10.236131,-0.712578,0.567910,-0.000153,0.005345,-0.104611
1765410006.171497,-9.895982,-0.643233,0.129125,-0.000153,0.016646,-0.104916
1765410006.173542,-9.819464,-0.374821,0.043042,0.000153,0.024282,-0.104000
1765410006.176500,-9.819464,-0.374821,0.043042,0.000153,0.021686,-0.104000
1765410006.178526,-9.984456,-0.859636,0.356289,-0.002902,0.008247,-0.102931
1765410006.181685,-10.102820,-0.830942,0.526662,-0.002291,0.012675,-0.113468
1765410006.182185,-9.811692,-0.541009,0.273792,-0.003207,0.020159,-0.107818
1765410006.186536,-9.720826,-0.560736,-0.013152,-0.004276,0.011606,-0.102320
1765410006.188547,-9.945600,-0.665949,0.227762,0.000305,0.001680,-0.100182
1765410006.191484,-9.873264,-0.976805,0.064562,-0.000611,0.009468,-0.098044
1765410006.193563,-9.586321,-0.980392,-0.224175,0.001222,0.009927,-0.107665
1765410006.196488,-9.882831,-0.710186,0.253467,-0.002749,0.013439,-0.114537
1765410006.198517,-9.869678,-0.906265,0.468077,-0.001680,0.013744,-0.105374
1765410006.201511,-9.784193,-0.882353,0.053802,-0.002138,0.009010,-0.117897
1765410006.203484,-9.726207,-0.510521,0.054400,-0.001680,0.010690,-0.119577
1765410006.206501,-9.789574,-0.324008,0.138690,0.001222,0.009316,-0.108734
1765410006.208545,-9.964728,-0.679699,0.339550,-0.001833,0.006567,-0.098502
1765410006.211508,-9.878048,-1.077236,0.234935,-0.001222,0.006567,-0.105680
1765410006.213504,-9.900764,-0.891918,0.215208,0.000458,0.010690,-0.114537
1765410006.214553,-9.738760,-0.579268,-0.038259,0.003054,0.004887,-0.115454
1765410006.218590,-9.791965,-0.455524,0.114778,-0.003207,0.008247,-0.112246
1765410006.221599,-9.772835,-0.738881,0.236131,-0.001527,0.017715,-0.104458
1765410006.223543,-9.845168,-1.183644,0.254663,-0.001222,0.013286,-0.103542
1765410006.226577,-9.954566,-0.990555,0.252272,0.005498,0.003207,-0.116675
1765410006.228652,-10.028095,-0.437590,0.344931,0.003818,0.013592,-0.121409
1765410006.231571,-9.742945,-0.418460,0.150646,0.002902,0.014355,-0.102931
1765410006.233742,-9.664036,-0.839909,0.144668,-0.006872,0.005651,-0.104305
1765410006.234647,-10.035867,-0.869201,0.325203,-0.006261,0.006261,-0.112705
1765410006.237491,-9.812290,-0.859636,-0.094452,-0.002443,0.013592,-0.108276
1765410006.241528,-9.991630,-0.859039,0.320421,0.001374,0.012828,-0.110414
1765410006.242513,-10.230749,-0.810617,0.695839,-0.004276,0.013592,-0.114690
1765410006.245750,-10.327594,-0.916427,0.658776,-0.003818,0.013592,-0.112552
1765410006.248582,-10.327594,-0.916427,0.658776,-0.003818,0.015272,-0.112552
1765410006.252954,-9.747129,-0.298900,-0.087279,-0.001833,0.021228,-0.115912
1765410006.253592,-9.947392,-0.768771,0.431612,-0.004887,0.016952,-0.101709
1765410006.254570,-10.365852,-1.013869,0.898493,0.000000,0.018326,-0.105069
1765410006.258575,-10.117765,-1.056313,0.506337,-0.002443,0.018326,-0.114843
1765410006.261521,-9.653275,-0.914036,-0.098637,-0.006261,0.016493,-0.122937
1765410006.262552,-9.483500,-0.608560,-0.249283,-0.005803,0.010079,-0.122020
1765410006.266547,-9.928861,-0.685079,0.460904,-0.008858,0.010079,-0.114995
1765410006.268723,-9.895982,-0.893113,0.287542,-0.005498,0.009774,-0.116217
1765410006.271534,-9.850550,-0.585844,0.236729,-0.005345,0.018937,-0.118202
1765410006.273559,-9.570778,-0.605571,-0.020923,-0.002902,0.015272,-0.105222
1765410006.276545,-9.873863,-1.099952,0.183525,-0.004887,0.012370,-0.101404
1765410006.278568,-10.075920,-1.297226,0.496174,-0.000916,0.012370,-0.114232
1765410006.281579,-9.688545,-1.030607,-0.013152,0.001222,0.026573,-0.122784
1765410006.283566,-9.387852,-0.711382,-0.245098,-0.001374,0.015119,-0.122478
1765410006.286550,-9.868484,-0.364658,0.284553,-0.006567,0.015882,-0.124464
1765410006.288576,-10.068149,-0.667145,0.494978,-0.002138,0.019548,-0.102320
1765410006.291541,-9.855330,-0.936155,0.073529,-0.001527,0.021991,-0.106596
1765410006.293574,-9.777617,-0.743663,-0.033477,-0.002902,0.022755,-0.114537
1765410006.296508,-9.980869,-0.964849,0.439981,-0.005803,0.022755,-0.107360
1765410006.298545,-9.846962,-1.223099,0.303682,0.002291,0.022755,-0.111025
1765410006.301499,-9.930654,-0.888331,0.457915,0.002291,0.026573,-0.120493
1765410006.303601,-9.952174,-0.860234,0.365854,-0.002749,0.025351,-0.118355
1765410006.304591,-9.959349,-0.873984,0.181133,-0.005040,0.018937,-0.118050
1765410006.308610,-9.980272,-1.001315,0.087279,-0.001833,0.017868,-0.118202
1765410006.311571,-9.923481,-0.961262,0.136298,-0.000764,0.028405,-0.119424
1765410006.313570,-10.034670,-0.820779,0.462697,-0.002138,0.033139,-0.121868
1765410006.314564,-10.195478,-0.695839,0.853658,-0.007636,0.026267,-0.122020
1765410006.318629,-9.909731,-0.838116,0.276184,-0.009163,0.023518,-0.116370
1765410006.321547,-9.675991,-0.899091,-0.294715,-0.002749,0.019700,-0.116064
1765410006.323521,-9.824843,-1.041368,0.125538,-0.004123,0.019700,-0.119119
1765410006.326554,-9.978478,-0.881157,0.473458,-0.000916,0.016493,-0.123853
1765410006.328563,-9.972500,-0.785509,0.389766,-0.009010,0.016493,-0.127824
1765410006.331537,-9.497847,-0.761597,-0.284553,-0.007483,0.016493,-0.117744
1765410006.333571,-9.418339,-0.761597,-0.489000,-0.005040,0.011759,-0.114232
1765410006.336538,-9.860114,-0.713773,0.326997,-0.003971,0.009468,-0.116675
1765410006.337636,-9.885221,-0.938546,0.316834,-0.001833,0.027184,-0.107970
1765410006.341576,-9.653275,-1.096365,-0.081301,0.001069,0.021686,-0.110872
1765410006.343552,-9.839788,-0.907460,0.089670,-0.003360,0.013744,-0.119730
1765410006.346577,-10.249879,-0.880559,0.656384,-0.004123,0.014813,-0.118661
1765410006.348579,-9.984456,-1.040172,0.379603,-0.008094,0.020769,-0.117439
1765410006.351522,-9.664036,-0.894309,-0.153037,-0.006109,0.012981,-0.123395
1765410006.353500,-9.559420,-0.659971,-0.428623,-0.005956,0.020769,-0.123395
1765410006.356548,-10.008368,-0.783716,0.413080,-0.003818,0.010385,-0.111330
1765410006.358549,-10.129124,-1.142994,0.651004,-0.007941,0.022602,-0.116523
1765410006.361552,-9.773433,-1.092181,-0.033477,-0.003512,0.019395,-0.120493
1765410006.363504,-9.574963,-1.135222,-0.387972,-0.009163,0.018326,-0.127671
1765410006.366591,-9.879841,-0.869201,0.231946,-0.002291,0.007330,-0.127824
1765410006.368666,-10.294117,-0.839311,0.915830,-0.005345,0.019242,-0.127671
1765410006.371521,-10.294117,-0.839311,0.915830,-0.005345,0.021686,-0.127671
1765410006.373526,-9.668818,-0.858441,-0.261239,-0.006414,0.013897,-0.124158
1765410006.376533,-9.936632,-0.814204,0.104017,-0.004887,0.000916,-0.122020
1765410006.378563,-10.096842,-0.989359,0.291726,-0.009010,0.011759,-0.119577
1765410006.379515,-10.078907,-1.182449,0.448350,-0.006414,0.007483,-0.120340
1765410006.383550,-9.796746,-1.145385,0.301889,-0.008705,0.015882,-0.134238
1765410006.386541,-9.866689,-0.813606,0.172764,-0.007941,0.002291,-0.135154
1765410006.388496,-10.126732,-0.722142,0.226566,-0.008247,0.000611,-0.128282
1765410006.391534,-10.234337,-0.661167,0.562530,0.000153,0.013439,-0.122173
1765410006.394639,-9.961740,-0.832138,0.324008,-0.005345,0.013439,-0.113774
1765410006.396582,-9.748923,-0.955284,-0.118962,-0.008094,0.003207,-0.120646
1765410006.398603,-9.911524,-0.811812,0.004782,-0.006872,0.000305,-0.124006
1765410006.401644,-9.911524,-0.811812,0.004782,-0.006872,0.007178,-0.124006
1765410006.403700,-9.788378,-0.934959,0.138690,-0.004429,0.009316,-0.121104
1765410006.406570,-9.831419,-0.915830,0.296509,-0.012065,0.014050,-0.123700
1765410006.408580,-9.916306,-0.951698,0.181731,-0.011148,0.005651,-0.117286
1765410006.411589,-9.890003,-0.974414,0.080105,-0.007483,0.005345,-0.119577
1765410006.412582,-9.797942,-1.002511,-0.008967,-0.004887,0.006720,-0.117133
1765410006.416548,-9.689142,-1.203371,0.046628,-0.008858,0.003207,-0.120035
1765410006.418544,-9.747129,-1.152558,0.073529,-0.005956,0.003207,-0.128129
1765410006.419707,-9.892395,-1.122071,0.259445,-0.008399,0.012828,-0.129351
1765410006.423533,-9.787182,-0.961262,0.134505,-0.001222,0.013592,-0.127518
1765410006.426565,-9.976685,-0.962458,0.390961,-0.007483,0.012065,-0.127365
1765410006.428626,-10.056191,-0.889526,0.495576,-0.007636,0.009468,-0.126296
1765410006.431635,-9.808702,-1.011478,0.118364,-0.005192,0.003665,-0.123547
1765410006.433636,-9.764465,-1.003108,0.306074,-0.005956,0.002443,-0.124158
1765410006.436611,-9.892395,-0.932568,0.285748,-0.007941,0.002138,-0.126907
1765410006.438607,-9.887612,-1.230273,-0.016141,-0.012217,0.002138,-0.122326
1765410006.441612,-9.711261,-1.196796,-0.205643,-0.001374,0.005040,-0.125533
1765410006.443584,-9.724413,-0.891918,0.357484,-0.000458,0.015882,-0.127518
1765410006.446572,-9.825441,-0.824964,0.603778,-0.000458,0.015272,-0.127518
1765410006.447072,-9.673599,-1.002511,-0.057987,-0.007636,0.001374,-0.120188
1765410006.450645,-9.592896,-1.183644,-0.351506,-0.005040,0.001374,-0.120951
1765410006.453582,-9.592896,-1.183644,-0.351506,-0.005040,0.012828,-0.120951
1765410006.456623,-10.194881,-1.089192,0.915830,-0.004887,0.015882,-0.127824
1765410006.457123,-9.791965,-1.237446,0.090866,-0.004887,0.022755,-0.127824
1765410006.461644,-9.589311,-1.169297,-0.477044,-0.007789,0.018631,-0.133321
1765410006.463623,-9.686751,-1.010282,0.033477,-0.005651,0.018631,-0.139125
1765410006.466619,-9.728598,-0.601985,0.408895,0.001985,0.028100,-0.130114
1765410006.468682,-9.411763,-0.934361,-0.049020,-0.013744,0.022449,-0.123700
1765410006.471599,-9.264107,-0.976805,-0.685079,-0.013897,0.011301,-0.126755
1765410006.473610,-9.619201,-1.093974,0.072932,-0.006414,0.013134,-0.120493
1765410006.474547,-9.716641,-1.108321,0.442372,-0.006109,0.026420,-0.125686
1765410006.478600,-9.553442,-0.967240,-0.005978,-0.007636,0.023060,-0.128282
1765410006.481602,-9.509803,-1.247609,-0.301291,-0.013592,0.011606,-0.125686
1765410006.483544,-9.881036,-1.052128,0.046031,-0.005192,0.011606,-0.129809
1765410006.486557,-9.881036,-1.052128,0.046031,-0.005192,0.031460,-0.129809
1765410006.487633,-9.913916,-1.084409,0.338953,-0.003971,0.025045,-0.117744
1765410006.491603,-9.739956,-1.335485,-0.100430,-0.006567,0.016646,-0.123700
1765410006.493599,-9.914514,-1.198589,0.054400,0.000764,0.014050,-0.129809
1765410006.496651,-9.863700,-1.198589,0.157819,-0.000458,0.025962,-0.132558
1765410006.498572,-9.660448,-0.923601,0.280966,-0.000458,0.025962,-0.132558
1765410006.501592,-9.845168,-0.857245,0.187111,-0.013897,0.013592,-0.133016
1765410006.503613,-9.976088,-0.916427,0.088474,-0.010385,0.017257,-0.125075
1765410006.506610,-9.820659,-1.281086,-0.165591,-0.004429,0.019700,-0.119577
1765410006.507110,-10.077712,-1.323529,0.563128,-0.004276,0.019700,-0.122631
1765410006.511599,-10.077712,-1.323529,0.563128,-0.004276,0.023824,-0.122631
1765410006.513606,-10.096842,-1.275705,0.136298,-0.007636,0.018937,-0.134849
1765410006.516595,-9.690338,-1.349235,-0.020325,0.000000,0.018937,-0.132710
1765410006.518611,-10.053802,-1.000717,0.264228,-0.005498,0.023060,-0.141415
1765410006.521605,-10.088473,-0.872788,0.202056,-0.011606,0.023060,-0.140194
1765410006.523629,-9.912720,-1.015064,0.051411,-0.002596,0.019700,-0.129503
1765410006.526591,-9.837397,-1.091583,-0.005978,-0.000153,0.026878,-0.129503
1765410006.528576,-10.076518,-1.072453,0.577475,-0.001680,0.016799,-0.130878
1765410006.531561,-9.964130,-1.256576,0.125538,-0.011606,0.019395,-0.132405
1765410006.533594,-9.927666,-1.151363,0.208632,-0.006567,0.017562,-0.136834
1765410006.536554,-9.745934,-1.042563,0.231946,-0.007025,0.025809,-0.134085
1765410006.539559,-9.867885,-0.950502,0.187709,-0.003054,0.012981,-0.125533
1765410006.540059,-10.026302,-1.128646,0.139885,-0.011912,0.012523,-0.133627
1765410006.543555,-10.043041,-0.978001,0.090866,-0.000458,0.018479,-0.126907
1765410006.546555,-9.651482,-1.336681,0.043042,-0.002443,0.025045,-0.118966
1765410006.548602,-9.726207,-1.499282,0.377810,-0.007483,0.015272,-0.131031
1765410006.551579,-9.895982,-1.510043,0.181731,-0.012675,0.013134,-0.142942
1765410006.553621,-9.823647,-1.019847,0.013152,-0.002596,0.013134,-0.146302
1765410006.556567,-9.645503,-0.716164,0.062171,-0.000764,0.025351,-0.135459
1765410006.559687,-9.864896,-0.994739,0.530846,-0.010843,0.014508,-0.125533
1765410006.560943,-9.953967,-1.374342,0.086083,-0.015272,0.008399,-0.127976
1765410006.563614,-9.655666,-1.412601,-0.405308,-0.007789,0.012370,-0.133932
1765410006.564703,-9.406384,-1.299617,-0.144668,-0.005498,0.025198,-0.139888
1765410006.568608,-9.481109,-1.035390,0.124342,-0.016035,0.028100,-0.146150
1765410006.571601,-10.086082,-0.873984,0.667145,-0.010996,0.017410,-0.140041
1765410006.573593,-9.696316,-1.056910,-0.039455,-0.002443,0.022755,-0.128434
1765410006.574630,-9.323289,-1.059302,-0.472262,-0.006872,0.019700,-0.128587
1765410006.577672,-9.709468,-1.449067,-0.157819,-0.015424,0.019700,-0.135001
1765410006.581618,-10.165589,-1.416786,0.622908,-0.006720,0.023976,-0.136681
1765410006.583600,-9.852941,-1.154352,0.258250,-0.001374,0.033750,-0.137597
1765410006.586582,-9.684958,-0.944524,0.199665,-0.015577,0.029474,-0.138514
1765410006.588592,-9.762074,-0.891918,-0.017336,-0.010843,0.021838,-0.138514
1765410006.591581,-9.933643,-0.912243,0.285748,-0.004734,0.019395,-0.122326
1765410006.593580,-9.841581,-1.209947,0.225968,-0.009316,0.026420,-0.126449
1765410006.596587,-9.647297,-1.267336,0.031086,-0.017257,0.035430,-0.133321
1765410006.598549,-9.499043,-1.452654,-0.434003,-0.012675,0.018631,-0.131641
1765410006.601612,-10.296508,-1.220708,0.631277,-0.014203,0.010690,-0.144317
1765410006.603635,-10.188903,-1.175873,0.616332,-0.020311,0.037263,-0.147066
1765410006.604577,-9.756694,-1.102343,0.096844,-0.011759,0.033445,-0.134696
1765410006.608583,-9.620397,-1.402439,-0.076518,-0.012675,0.019242,-0.134696
1765410006.611548,-9.984456,-1.215925,0.108800,-0.013897,0.019242,-0.141873
1765410006.613620,-10.325203,-1.281683,0.608560,-0.009927,0.033139,-0.141568
1765410006.614592,-9.417742,-1.423960,-0.312052,-0.016035,0.033292,-0.144928
1765410006.618581,-9.540291,-1.117288,-0.418460,-0.019090,0.024282,-0.154549
1765410006.621636,-10.016738,-1.058106,0.577475,-0.016799,0.029474,-0.150884
1765410006.623605,-10.044236,-1.035390,0.392755,-0.015882,0.031765,-0.136987
1765410006.624612,-9.668818,-1.032998,-0.150646,-0.012370,0.029169,-0.136834
1765410006.628670,-9.549257,-1.218316,-0.198470,-0.021533,0.035583,-0.137903
1765410006.631573,-10.170969,-1.188426,0.524271,-0.021533,0.027794,-0.137903
1765410006.633598,-9.866092,-1.611071,0.270206,-0.013592,0.025962,-0.129809
1765410006.635619,-9.781204,-1.379722,-0.127929,-0.016646,0.025962,-0.144470
1765410006.638649,-9.781204,-1.379722,-0.127929,-0.016646,0.037110,-0.144470
1765410006.641688,-9.971304,-1.299617,0.414275,-0.006414,0.029016,-0.127518
1765410006.644580,-10.147058,-1.381516,0.777140,-0.010843,0.030543,-0.135918
1765410006.646604,-9.870873,-1.404830,-0.159015,-0.019090,0.029627,-0.147524
1765410006.647104,-10.028693,-1.264945,0.077116,-0.015119,0.023060,-0.143859
1765410006.651539,-9.702892,-1.461023,0.049617,-0.008858,0.025198,-0.143095
1765410006.653566,-9.686153,-1.205763,0.245098,-0.013439,0.030085,-0.150120
1765410006.656641,-9.518172,-1.141798,-0.288140,-0.019395,0.028405,-0.149967
1765410006.658611,-9.751313,-0.894907,-0.036466,-0.009316,0.023060,-0.141721
1765410006.661626,-9.559420,-1.062291,-0.101626,-0.010690,0.022449,-0.132863
1765410006.663578,-9.763269,-1.286466,-0.001196,-0.024282,0.022297,-0.136987
1765410006.666556,-9.848158,-1.529172,0.383190,-0.021380,0.018937,-0.137292
1765410006.668566,-9.968913,-1.617647,0.211621,-0.017104,0.018937,-0.139277
1765410006.671666,-9.968913,-1.617647,0.211621,-0.017104,0.021075,-0.139277
1765410006.672559,-9.871471,-1.067671,-0.324008,-0.021228,0.023213,-0.146302
1765410006.674548,-10.209229,-1.133429,0.467480,-0.014813,0.024587,-0.136070
1765410006.678642,-10.176947,-1.243424,0.573888,-0.014813,0.032376,-0.132100
1765410006.681564,-10.115973,-1.578790,0.328790,-0.026114,0.030543,-0.136070
1765410006.683564,-10.115973,-1.578790,0.328790,-0.026114,0.024129,-0.136070
1765410006.686599,-9.795551,-1.339670,0.023912,-0.018937,0.018021,-0.146913
1765410006.687603,-9.918698,-1.018651,0.355691,-0.017715,0.027184,-0.142179
1765410006.691591,-9.539095,-1.179459,-0.118962,-0.023213,0.010079,-0.141263
1765410006.693587,-9.714250,-1.388690,-0.124342,-0.018326,0.010079,-0.131489
1765410006.696652,-9.714250,-1.388690,-0.124342,-0.018326,0.017104,-0.131489
1765410006.698582,-10.187708,-1.671449,0.593018,-0.015730,0.015577,-0.133474
1765410006.701555,-9.647297,-2.005619,-0.161406,-0.025656,0.015577,-0.146913
1765410006.702055,-9.728598,-1.328312,0.125538,-0.012828,0.005803,-0.161116
1765410006.706662,-9.678382,-0.949306,-0.044237,-0.009774,0.015119,-0.149967
1765410006.708669,-9.800333,-1.021042,-0.146461,-0.012523,0.002902,-0.135765
1765410006.711621,-9.945002,-1.373744,0.242707,-0.018631,0.016952,-0.139277
1765410006.713675,-10.167382,-1.623625,0.571497,-0.018631,0.018173,-0.138972
1765410006.714648,-9.964130,-1.505858,0.305476,-0.020006,0.014355,-0.145539
1765410006.718599,-9.728598,-1.300813,-0.112386,-0.018326,0.010232,-0.148440
1765410006.721653,-10.023911,-0.997130,0.212219,-0.017410,0.010232,-0.144011
1765410006.723652,-9.970109,-0.988761,0.337159,-0.015272,0.021075,-0.135612
1765410006.728358,-9.690936,-1.244620,-0.111191,-0.021991,0.017410,-0.124617
1765410006.728858,-9.690936,-1.244620,-0.111191,-0.021991,0.018021,-0.124617
1765410006.731673,-9.544475,-1.763510,-0.085485,-0.017562,0.019395,-0.139735
1765410006.733652,-10.010758,-1.697752,0.667145,-0.019548,0.016646,-0.144164
