time,acc_x_g,acc_y_g,acc_z_g,gyro_x_rad_s,gyro_y_rad_s,gyro_z_rad_s
1765408071.344264,-6.936872,-4.824844,5.445958,-0.009621,-0.006109,-0.003054
1765408071.344464,-6.988282,-4.790769,5.413677,-0.006261,-0.006872,-0.002596
1765408071.344664,-6.911764,-4.780607,5.292922,-0.004123,-0.006261,-0.000916
1765408071.344864,-6.908177,-4.824246,5.355093,-0.009468,-0.006261,-0.000153
1765408071.345067,-6.908177,-4.824246,5.355093,-0.009468,-0.009621,-0.000153
1765408071.345317,-6.989478,-4.779411,5.408297,-0.008858,-0.006261,-0.001680
1765408071.345567,-6.921329,-4.752510,5.307268,-0.007941,-0.005192,-0.001985
1765408071.345817,-6.993064,-4.821855,5.460306,-0.008705,-0.007941,0.001527
1765408071.346126,-7.112027,-4.875657,5.534432,-0.008247,-0.007941,-0.000153
1765408071.346326,-7.198111,-5.003586,5.653992,-0.006261,-0.006567,0.003971
1765408071.346526,-7.119798,-5.182328,5.627690,-0.004887,-0.004276,0.004734
1765408071.346726,-7.187947,-5.323410,5.799856,-0.005956,-0.009163,0.002902
1765408071.346926,-7.362505,-5.512912,6.031802,0.001680,-0.006414,0.002443
1765408071.347027,-7.280009,-5.607962,6.060497,0.012828,-0.006414,0.000916
1765408071.347277,-7.280009,-5.607962,6.060497,0.012828,-0.009927,0.000916
1765408071.347527,-7.369679,-5.606168,6.235054,0.029932,-0.016493,0.001680
1765408071.347777,-7.336800,-5.815399,5.967239,0.049022,-0.016493,0.004429
1765408071.348018,-6.826279,-5.946914,5.453132,0.074984,-0.021075,0.007025
1765408071.348268,-6.715088,-5.841702,5.646819,0.092699,-0.020006,0.006720
1765408071.348518,-6.792802,-5.753228,5.958272,0.103084,-0.013592,0.010385
1765408071.348768,-6.444284,-5.785509,5.777139,0.118508,-0.001222,0.020617
1765408071.349157,-5.809421,-5.640841,5.009564,0.139583,-0.001222,0.028863
1765408071.349357,-5.809421,-5.640841,5.009564,0.139583,-0.008247,0.028863
1765408071.349557,-5.896102,-5.884743,5.628885,0.166614,-0.004887,0.049938
1765408071.349757,-5.573887,-5.989956,5.144667,0.181427,0.012217,0.054978
1765408071.349957,-5.101027,-6.024629,4.689143,0.186467,0.024587,0.056352
1765408071.350000,-5.271400,-5.997130,5.405308,0.202502,0.033139,0.063225
1765408071.350250,-5.456121,-5.823768,5.776541,0.215941,0.044135,0.073457
1765408071.350500,-5.139287,-6.046149,5.211620,0.219606,0.059712,0.082009
1765408071.350750,-4.720827,-6.284672,4.802725,0.227853,0.059712,0.084910
1765408071.351049,-4.939621,-6.159732,5.008966,0.248011,0.076053,0.094531
1765408071.351299,-5.081300,-6.071257,5.338953,0.259007,0.076053,0.099266
1765408071.351549,-5.067551,-5.879961,5.398732,0.263894,0.096059,0.109498
1765408071.351799,-4.751912,-6.262553,4.899569,0.273820,0.114995,0.130725
1765408071.352070,-4.913916,-6.720468,5.156623,0.293063,0.111788,0.135154
1765408071.352320,-5.144667,-6.471783,5.523074,0.311541,0.124006,0.133321
1765408071.352570,-5.008369,-6.350430,5.249880,0.315054,0.134696,0.138361
1765408071.352820,-4.800932,-6.585365,4.574366,0.322842,0.142026,0.142942
1765408071.353076,-5.005978,-6.665471,4.703490,0.335518,0.156534,0.144317
1765408071.353326,-4.985652,-6.657101,4.833811,0.355218,0.169668,0.146302
1765408071.353576,-5.155427,-6.190817,4.893591,0.363465,0.182038,0.142637
1765408071.353826,-5.232543,-6.180655,4.607843,0.368046,0.202196,0.150426
1765408071.354000,-5.152439,-6.268531,4.570779,0.387289,0.214566,0.161268
1765408071.354250,-5.126135,-6.359397,4.377092,0.397826,0.226326,0.164017
1765408071.354500,-5.230750,-6.500478,4.412960,0.397979,0.236099,0.162796
1765408071.354750,-5.772357,-6.349832,5.045432,0.406225,0.252745,0.158061
1765408071.355003,-5.850071,-6.342658,5.088473,0.423635,0.272293,0.166919
1765408071.355253,-5.360473,-6.359994,3.981348,0.436463,0.267254,0.168446
1765408071.355503,-6.212337,-6.242826,4.598278,0.438601,0.262519,0.162032
1765408071.355753,-6.563246,-6.489120,5.130320,0.454178,0.284969,0.166003
1765408071.356036,-6.068866,-6.383308,3.964610,0.463189,0.301920,0.161879
1765408071.356369,-5.949306,-6.074844,4.145743,0.457233,0.308792,0.149815
1765408071.356703,-6.609277,-5.663558,5.154232,0.477391,0.321468,0.155771
1765408071.357012,-6.640362,-5.608560,4.642515,0.495259,0.316123,0.173791
1765408071.357262,-6.480152,-5.951099,4.115255,0.494343,0.316123,0.171042
1765408071.357512,-6.556671,-6.162123,4.286226,0.500604,0.346361,0.167530
1765408071.357762,-7.116809,-5.893113,5.176351,0.511141,0.346819,0.164781
1765408071.358007,-7.472500,-5.488999,5.489598,0.512974,0.342390,0.162796
1765408071.358257,-7.208272,-5.328790,4.717838,0.512669,0.363923,0.170890
1765408071.358507,-7.132352,-5.698230,4.753706,0.520610,0.359036,0.176845
1765408071.358757,-7.681132,-5.471663,5.548780,0.535118,0.355524,0.179442
1765408071.359040,-7.220229,-5.491989,4.885221,0.540616,0.380111,0.183107
1765408071.359290,-6.716881,-5.415471,4.576756,0.534660,0.374002,0.176235
1765408071.359540,-7.533476,-5.334768,5.224772,0.541532,0.362090,0.183412
1765408071.359790,-7.831181,-5.115973,5.645025,0.561538,0.370032,0.191964
1765408071.360797,-7.043280,-5.164992,4.457197,0.566425,0.379500,0.196699
1765408071.361047,-6.600908,-5.370038,4.324485,0.554666,0.379958,0.193033
1765408071.361297,-7.208870,-5.198469,5.328790,0.569479,0.376140,0.191048
1765408071.361547,-7.507173,-4.769248,5.546389,0.578795,0.372475,0.200975
1765408071.361060,-7.560975,-5.144667,5.099234,0.565967,0.382096,0.206320
1765408071.361310,-7.415709,-5.174557,5.080105,0.566272,0.388663,0.202502
1765408071.361560,-7.175992,-5.188306,4.389048,0.573908,0.383623,0.205709
1765408071.361810,-7.064801,-5.313247,4.457197,0.576810,0.385456,0.203265
1765408071.362095,-7.180774,-5.144667,4.796747,0.575282,0.404393,0.198073
1765408071.362428,-7.355331,-5.166188,4.992826,0.584751,0.403629,0.209679
1765408071.362762,-7.265661,-5.023911,4.658058,0.598953,0.400422,0.211818
1765408071.363050,-7.372070,-4.719033,4.735772,0.604451,0.437838,0.215941
1765408071.363300,-7.368483,-5.013749,4.946198,0.606284,0.437838,0.220217
1765408071.363550,-7.387612,-5.150645,4.766858,0.606284,0.428827,0.220217
1765408071.363800,-8.133667,-5.258846,5.730511,0.608116,0.434020,0.212428
1765408071.364032,-8.023671,-4.875657,5.671329,0.619112,0.434020,0.207847
1765408071.364282,-7.737923,-4.359158,4.979674,0.625068,0.437227,0.214872
1765408071.364532,-7.262074,-4.734576,4.842180,0.617585,0.442725,0.218842
1765408071.364782,-7.262074,-4.734576,4.842180,0.617585,0.440128,0.218842
1765408071.365012,-7.397178,-4.742348,4.752510,0.614072,0.442114,0.210749
1765408071.365262,-7.400764,-4.011238,5.300095,0.615141,0.454026,0.196088
1765408071.365512,-6.988282,-3.684839,4.714849,0.616363,0.478918,0.204640
1765408071.365762,-6.443686,-3.487565,4.540889,0.617890,0.456164,0.219759
1765408071.366059,-6.443686,-3.487565,4.540889,0.617890,0.452651,0.219759
1765408071.366309,-6.842419,-3.937111,5.153036,0.612851,0.482125,0.216246
1765408071.366559,-6.575800,-3.840865,4.677187,0.618959,0.482125,0.213956
1765408071.366809,-6.808942,-3.326159,4.922286,0.610560,0.466243,0.209527
1765408071.367083,-7.570539,-3.228120,5.379004,0.608116,0.470977,0.213039
1765408071.367333,-7.440817,-3.414634,5.691056,0.618348,0.491747,0.235641
1765408071.367583,-7.022954,-3.917981,4.970109,0.605215,0.483347,0.230907
1765408071.367833,-7.203490,-3.821138,5.211620,0.596052,0.483347,0.215025
1765408071.367995,-7.651840,-3.658536,5.506336,0.596815,0.493426,0.211512
1765408071.368328,-7.425274,-3.428981,5.419057,0.604604,0.497702,0.216246
1765408071.368662,-7.197513,-3.229316,5.228359,0.598495,0.508393,0.212887
1765408071.369137,-7.379243,-3.591583,5.157818,0.584445,0.501520,0.219606
1765408071.369387,-7.323050,-3.995695,4.675394,0.593303,0.498313,0.219148
1765408071.369637,-7.323050,-3.995695,4.675394,0.593303,0.503964,0.219148
1765408071.369887,-6.777259,-3.691415,4.346006,0.590096,0.548710,0.194255
1765408071.370224,-6.751554,-3.240076,4.384265,0.597884,0.548710,0.206931
1765408071.370474,-6.751554,-3.240076,4.384265,0.597884,0.542296,0.206931
1765408071.370724,-7.144906,-4.124222,4.554040,0.603535,0.554971,0.228464
1765408071.370974,-7.132950,-4.268292,4.980870,0.601550,0.578642,0.219759
1765408071.370977,-6.627212,-4.478120,4.059062,0.597579,0.573297,0.214108
1765408071.371227,-6.725250,-3.857006,4.090147,0.595594,0.581391,0.204487
1765408071.371477,-7.146102,-3.857006,4.774031,0.604757,0.600175,0.222050
1765408071.371727,-7.407340,-4.102104,4.958153,0.604451,0.605367,0.228464
1765408071.372004,-7.575322,-4.479913,4.819464,0.591165,0.620944,0.206778
1765408071.372254,-7.326637,-4.251554,5.039454,0.594372,0.642172,0.204487
1765408071.372504,-7.186752,-4.172644,4.451219,0.605520,0.632245,0.210290
1765408071.372754,-7.774389,-3.379961,5.389765,0.602160,0.625221,0.198378
1765408071.372995,-7.743902,-3.675275,4.983261,0.597579,0.653015,0.216246
1765408071.373245,-7.112027,-3.733859,4.347202,0.606742,0.644310,0.226784
1765408071.373495,-7.421089,-4.012434,4.135581,0.600939,0.634384,0.219911
1765408071.373745,-7.893352,-3.481587,5.510521,0.604146,0.651640,0.217468
1765408071.374813,-7.916068,-3.511477,4.793160,0.601397,0.674395,0.225562
1765408071.375146,-7.549018,-3.133667,4.522955,0.597884,0.653168,0.229685
1765408071.375480,-7.843734,-3.296269,3.891678,0.583682,0.659429,0.231823
1765408071.375030,-9.153513,-3.693806,6.105929,0.594983,0.700357,0.231823
1765408071.375280,-8.140841,-4.074605,5.530846,0.603840,0.727235,0.246942
1765408071.375530,-7.934002,-3.411047,4.858321,0.585972,0.701426,0.230449
1765408071.375780,-8.204805,-3.642993,4.956958,0.578184,0.709673,0.226784
1765408071.376080,-7.188546,-3.124103,4.007651,0.612545,0.723875,0.253356
1765408071.376330,-7.188546,-3.124103,4.007651,0.612545,0.719752,0.253356
1765408071.376580,-7.855690,-3.805595,5.312051,0.594677,0.723264,0.239765
1765408071.376830,-7.553801,-3.674079,4.322692,0.595441,0.726471,0.235336
1765408071.377016,-7.831778,-3.570659,5.078909,0.602771,0.715018,0.233198
1765408071.377266,-8.430176,-3.409253,6.059301,0.599259,0.715018,0.236863
1765408071.377516,-8.476804,-3.762553,5.790291,0.592387,0.723417,0.250760
1765408071.377766,-8.242466,-3.927546,5.327594,0.594983,0.724181,0.239765
1765408071.378036,-7.760641,-3.945480,4.464371,0.601702,0.723723,0.244193
1765408071.378286,-7.437828,-3.947871,4.120038,0.597426,0.714865,0.235794
1765408071.378536,-7.581898,-3.528814,4.050693,0.600939,0.722654,0.230754
1765408071.378786,-6.939263,-3.669296,3.900645,0.605673,0.738231,0.247859
1765408071.378985,-6.837637,-3.659732,3.516260,0.613309,0.746172,0.251066
1765408071.379235,-7.058823,-3.785868,3.745815,0.605978,0.743270,0.247859
1765408071.379485,-7.392993,-3.889287,3.929937,0.606589,0.787558,0.239612
1765408071.379735,-6.618842,-3.643591,3.445122,0.617585,0.787558,0.237016
1765408071.380008,-6.270324,-3.301052,3.356050,0.606436,0.805579,0.235183
1765408071.380258,-7.552605,-2.874222,4.707077,0.615141,0.806495,0.252287
1765408071.380508,-8.687230,-3.155786,5.484217,0.613156,0.802219,0.257174
1765408071.380758,-8.467239,-3.459469,4.756097,0.602313,0.802982,0.247859
1765408071.381086,-8.481586,-2.978240,4.276661,0.598037,0.807869,0.232129
1765408071.381419,-8.043399,-2.789335,4.797943,0.602313,0.788322,0.244193
1765408071.381753,-8.073887,-2.875418,4.020205,0.589790,0.789849,0.240681
1765408071.384692,-7.569942,-2.679340,3.364419,0.591318,0.820850,0.249386
1765408071.384942,-7.656623,-3.023074,4.534911,0.601855,0.861167,0.260381
1765408071.385192,-7.763629,-3.067910,4.494260,0.609644,0.853226,0.271224
1765408071.385442,-7.763629,-3.067910,4.494260,0.609644,0.841314,0.271224
1765408071.384809,-7.956718,-3.167145,4.222859,0.592234,0.869261,0.255800
1765408071.385059,-7.335604,-3.011716,4.203730,0.614683,0.869261,0.272751
1765408071.385309,-7.809062,-3.091822,5.267813,0.593914,0.871094,0.259007
1765408071.385559,-8.235293,-3.408655,5.680296,0.586583,0.886213,0.264352
1765408071.385112,-8.180295,-3.790052,4.994021,0.598801,0.865443,0.264963
1765408071.385362,-8.396699,-3.403873,4.643113,0.598037,0.861320,0.249386
1765408071.385612,-8.538378,-2.943568,5.081300,0.594219,0.861320,0.242819
1765408071.385862,-8.203012,-2.890961,4.543878,0.588721,0.861320,0.247553
1765408071.386016,-7.382830,-2.957914,3.448111,0.593914,0.847423,0.254273
1765408071.386266,-6.851387,-3.473218,3.081062,0.587347,0.870636,0.253509
1765408071.386516,-6.877091,-3.261597,3.385939,0.600633,0.902859,0.248317
1765408071.386766,-6.982304,-2.848517,2.816834,0.596815,0.902859,0.250760
1765408071.387118,-8.130080,-2.720588,4.550454,0.594677,0.906524,0.258854
1765408071.387368,-7.996173,-2.849115,3.686633,0.606589,0.960127,0.280693
1765408071.387618,-7.123385,-3.368005,4.260521,0.611018,0.962724,0.294284
1765408071.387868,-7.871830,-3.437350,3.919177,0.597121,0.943481,0.268628
1765408071.388088,-7.953131,-3.171927,4.440459,0.597579,0.939205,0.268017
1765408071.388421,-7.331419,-3.291487,2.632711,0.607964,0.935540,0.275958
1765408071.388755,-6.978718,-2.936393,3.403276,0.595441,1.014494,0.262977
1765408071.389101,-8.152199,-3.161166,4.378287,0.587500,1.014494,0.282678
1765408071.389351,-8.152199,-3.161166,4.378287,0.587500,0.987922,0.282678
1765408071.389601,-7.544237,-3.546149,2.796509,0.574366,0.950506,0.260076
1765408071.389851,-7.577115,-2.824605,3.639407,0.574366,0.998917,0.260076
1765408071.390116,-7.879004,-2.412721,4.812888,0.610865,0.982882,0.284205
1765408071.390366,-8.307029,-2.639885,5.308464,0.580627,0.982882,0.277027
1765408071.390616,-8.307029,-2.639885,5.308464,0.580627,0.974788,0.277027
1765408071.390866,-8.104973,-3.224533,4.002869,0.586278,0.969749,0.294590
1765408071.391069,-8.113939,-2.928622,3.403276,0.603077,0.931570,0.279318
1765408071.391319,-8.972978,-2.452774,4.612625,0.578948,0.996321,0.262519
1765408071.391569,-9.049497,-2.497608,4.452415,0.583224,0.996321,0.287565
1765408071.391819,-8.348875,-2.659612,3.387135,0.595288,0.967763,0.301004
1765408071.391983,-9.350190,-3.005141,3.458871,0.580933,1.044427,0.281914
1765408071.392233,-8.676469,-2.539454,4.424916,0.584903,1.044427,0.273973
1765408071.392483,-8.601147,-2.259684,4.099712,0.591012,1.035417,0.290161
1765408071.392733,-8.247249,-2.763032,4.587517,0.582307,1.035417,0.291994
1765408071.393038,-8.499520,-2.852702,4.215686,0.581391,1.031446,0.293521
1765408071.393288,-7.170013,-2.900526,2.589072,0.582765,1.017091,0.293521
1765408071.393538,-7.667383,-2.786943,2.518532,0.573755,1.021367,0.277944
1765408071.393788,-7.667383,-2.786943,2.518532,0.573755,1.077719,0.277944
1765408071.393973,-7.323050,-2.546628,3.327355,0.597426,1.057255,0.300393
1765408071.394306,-7.783357,-2.498206,3.554519,0.569174,1.029003,0.278707
1765408071.394640,-8.053562,-2.368484,3.782878,0.589638,1.051757,0.297797
1765408071.394983,-8.525824,-2.898134,4.508608,0.595594,1.069931,0.311541
1765408071.395233,-8.525824,-2.898134,4.508608,0.595594,1.039540,0.311541
1765408071.395483,-9.629362,-2.803682,5.209230,0.566119,1.041831,0.293979
1765408071.395733,-8.480392,-3.348876,3.073290,0.583529,1.014342,0.298713
1765408071.396043,-7.929818,-2.750478,2.923242,0.591012,1.016632,0.290161
1765408071.396293,-8.872548,-2.932209,4.209708,0.580322,1.026254,0.298866
1765408071.396543,-9.267097,-2.893352,4.063845,0.580322,1.052979,0.298866
1765408071.396793,-7.943566,-3.214968,1.866332,0.585972,1.056339,0.296117
1765408071.396965,-8.361429,-2.960305,2.120995,0.586278,1.065807,0.280845
1765408071.397215,-10.028693,-2.517336,4.649689,0.602771,1.115440,0.284663
1765408071.397465,-9.605451,-2.274031,5.646221,0.602924,1.115440,0.303295
1765408071.397715,-8.409851,-2.892157,3.762553,0.578795,1.082759,0.298255
1765408071.398016,-7.560975,-2.697273,0.828551,0.578184,1.070541,0.289856
1765408071.398266,-8.946675,-2.491630,3.361429,0.600633,1.092838,0.289550
1765408071.398516,-8.425393,-2.319464,4.919296,0.602771,1.142623,0.289550
1765408071.398766,-8.374580,-1.923720,3.462458,0.577879,1.104903,0.301767
1765408071.398961,-8.139645,-2.479675,2.953132,0.566883,1.093143,0.295811
1765408071.399211,-9.145742,-2.459349,4.057866,0.604146,1.111928,0.319635
1765408071.399461,-8.104973,-3.163558,4.433285,0.594983,1.134529,0.319788
1765408071.399711,-9.656861,-1.984696,5.469871,0.594983,1.087951,0.319788
1765408071.399937,-9.156503,-2.406743,4.422524,0.563981,1.089784,0.293215
1765408071.400187,-8.409253,-2.035509,1.972142,0.610560,1.060615,0.324828
1765408071.400437,-8.598756,-2.138928,3.088235,0.587805,1.084744,0.304974
1765408071.400687,-9.247966,-2.174796,4.600669,0.574824,1.105055,0.309709
1765408071.400937,-8.807387,-2.106049,2.314084,0.581696,1.104903,0.313527
1765408071.401270,-9.183404,-2.190937,1.976327,0.572839,1.115593,0.301615
1765408071.401604,-9.082973,-1.569823,4.355571,0.582155,1.170418,0.302531
1765408071.401955,-9.065040,-1.553084,5.116570,0.580780,1.158201,0.339488
1765408071.402205,-8.132471,-2.618364,2.184361,0.544434,1.100626,0.325897
1765408071.402455,-8.817550,-2.502391,1.996054,0.560469,1.099405,0.313527
1765408071.402705,-8.115732,-2.749880,2.896341,0.578948,1.178970,0.325438
1765408071.403063,-8.249043,-1.848398,4.256336,0.589943,1.144456,0.326660
1765408071.403313,-8.222141,-1.864538,2.564562,0.537867,1.123381,0.311694
1765408071.403563,-8.424197,-2.367288,2.519130,0.570395,1.123381,0.345597
1765408071.403813,-8.535389,-3.042802,3.570062,0.588569,1.148427,0.358883
1765408071.404060,-9.312529,-3.036824,5.436991,0.576657,1.125977,0.325133
1765408071.404310,-9.592299,-2.308704,4.620396,0.556498,1.127046,0.306807
1765408071.404560,-9.159492,-2.434839,1.525586,0.571464,1.076039,0.330936
1765408071.404810,-9.158297,-2.486848,2.584887,0.584903,1.076192,0.330478
1765408071.405006,-9.047106,-2.399569,3.911406,0.572075,1.127810,0.326507
1765408071.405256,-8.836680,-2.134744,2.211860,0.566730,1.139569,0.329104
1765408071.405506,-9.128407,-2.396580,1.554280,0.558025,1.130864,0.317803
1765408071.405756,-9.878048,-1.856767,3.267575,0.577726,1.155452,0.324064
1765408071.406049,-10.078907,-1.750956,5.179339,0.585209,1.183246,0.340863
1765408071.406299,-9.920491,-1.771879,4.021998,0.560927,1.146441,0.334296
1765408071.406549,-9.502629,-2.198709,2.669177,0.542296,1.183246,0.330325
1765408071.406799,-9.773433,-1.895026,2.723577,0.580169,1.183246,0.346361
1765408071.407046,-9.773433,-1.895026,2.723577,0.580169,1.173472,0.346361
1765408071.407379,-9.686751,-1.736011,3.737446,0.549931,1.143387,0.329104
1765408071.407713,-10.044236,-1.830464,3.083452,0.556498,1.142165,0.332922
1765408071.407999,-9.105690,-1.546509,3.558703,0.592234,1.100779,0.369421
1765408071.408249,-8.579626,-2.634505,3.302845,0.569174,1.100779,0.355676
1765408071.408499,-9.232423,-1.796987,4.008847,0.536034,1.118647,0.309098
1765408071.408749,-8.217359,-1.895026,0.833333,0.556193,1.091158,0.342695
1765408071.408996,-8.665709,-2.192730,1.221305,0.557720,1.046412,0.341779
1765408071.409246,-9.445839,-1.953610,3.067910,0.560469,1.136667,0.321315
1765408071.409496,-8.917980,-1.860354,2.680535,0.550084,1.136667,0.338267
1765408071.409746,-9.571974,-2.106049,2.022955,0.550390,1.115745,0.333685
1765408071.409987,-11.856766,-1.521999,4.285031,0.562301,1.167058,0.330936
1765408071.410237,-11.501673,-2.197513,5.683285,0.563370,1.167058,0.361021
1765408071.410487,-9.887612,-1.929699,3.748804,0.557109,1.128574,0.343154
1765408071.410737,-9.934838,-2.185557,2.238163,0.541379,1.097725,0.341626
1765408071.411036,-10.087276,-1.916547,2.893950,0.570395,1.128115,0.355524
1765408071.411286,-10.076518,-2.192730,3.356050,0.586431,1.116967,0.370337
1765408071.411536,-9.406384,-2.390004,3.181492,0.542907,1.116967,0.343001
1765408071.411786,-10.092059,-2.307508,2.705643,0.542907,1.095281,0.343001
1765408071.411972,-10.113581,-1.947633,3.778096,0.574366,1.107041,0.356440
1765408071.412222,-10.173361,-2.455762,4.066236,0.574061,1.089631,0.362549
1765408071.412472,-10.496173,-2.156265,4.337039,0.552833,1.087187,0.341779
1765408071.412722,-9.879841,-2.543041,2.003228,0.559247,1.053590,0.345139
1765408071.412984,-9.879841,-2.543041,2.003228,0.559247,1.027323,0.345139
1765408071.413317,-8.657340,-1.627212,1.684600,0.563218,1.081537,0.331547
1765408071.413651,-8.888090,-1.000717,1.865136,0.563829,1.081537,0.337808
1765408071.414032,-8.554519,-1.458632,1.141798,0.549626,1.068861,0.352775
1765408071.414282,-8.775106,-1.465806,2.009206,0.552375,1.082911,0.350789
1765408071.414532,-9.363341,-1.568627,3.665709,0.567341,1.128421,0.368504
1765408071.414782,-8.854016,-1.347441,2.302128,0.553291,1.106582,0.370642
1765408071.415018,-8.619678,-1.393472,1.524390,0.528857,1.064433,0.353233
1765408071.415268,-9.617407,-1.591344,2.529292,0.538478,1.119869,0.368352
1765408071.415518,-10.375418,-1.712697,3.518651,0.555735,1.119869,0.384387
1765408071.415768,-10.963652,-1.570421,3.912601,0.549168,1.105666,0.374155
1765408071.416029,-10.912242,-1.816117,3.912003,0.516945,1.082606,0.352164
1765408071.416279,-10.606167,-1.213534,3.064323,0.543823,1.061378,0.363007
1765408071.416529,-9.624580,-1.666667,3.300454,0.556346,1.073596,0.381943
1765408071.416779,-8.895862,-1.810139,3.444524,0.544281,1.042900,0.369879
1765408071.417023,-9.403395,-1.491511,2.957914,0.522290,1.036944,0.346666
1765408071.417273,-8.782878,-1.639168,1.669058,0.542143,0.987464,0.366672
1765408071.417523,-9.017216,-1.743185,1.037781,0.536645,0.988227,0.362090
1765408071.417773,-9.109277,-1.308584,1.499282,0.547946,1.020909,0.352622
1765408071.418025,-9.195958,-1.262554,1.345648,0.535118,1.036333,0.367130
1765408071.418275,-8.898851,-1.519608,0.246294,0.527635,1.007775,0.373544
1765408071.418525,-9.520563,-1.279292,2.538857,0.535271,1.027933,0.361480
1765408071.418775,-10.300095,-1.433524,3.790052,0.547488,1.084286,0.382860
1765408071.418953,-9.612624,-1.715686,2.938187,0.540616,1.033431,0.390801
1765408071.419203,-9.945002,-1.703730,1.748565,0.516181,0.999376,0.357051
1765408071.419453,-9.398612,-1.486729,0.750837,0.542754,0.990976,0.386983
1765408071.419703,-10.225369,-2.177188,2.991989,0.549626,1.005179,0.394314
1765408071.419968,-10.776540,-1.935079,3.472022,0.542296,1.046718,0.361174
1765408071.420301,-11.194404,-1.261358,3.256814,0.528246,1.020450,0.361174
1765408071.420635,-10.519486,-1.672644,2.237566,0.530995,0.989296,0.368046
1765408071.420960,-11.626015,-1.225490,3.458273,0.551306,0.990060,0.371406
1765408071.421210,-11.224294,-1.614060,4.546867,0.544128,1.029919,0.375988
1765408071.421460,-11.126254,-1.594930,4.100908,0.526871,0.984562,0.366519
1765408071.421710,-10.919415,-1.534553,2.771999,0.513127,0.940732,0.359036
1765408071.421971,-10.384982,-1.485533,2.065399,0.530689,0.917214,0.366825
1765408071.422221,-10.294714,-1.125060,1.815519,0.536645,0.938594,0.370948
1765408071.422471,-9.982065,-1.122668,1.756337,0.528246,0.945314,0.373544
1765408071.422721,-10.020324,-1.099952,1.831659,0.524275,0.935540,0.374155
1765408071.423018,-9.573170,-1.637972,0.513510,0.526719,0.933402,0.388205
1765408071.423268,-8.833692,-1.526781,0.817193,0.538478,0.941038,0.381638
1765408071.423518,-9.512792,-1.457436,1.865136,0.534813,0.978759,0.372933
1765408071.423768,-10.079505,-0.914634,2.785150,0.538783,0.979828,0.385761
1765408071.424001,-9.384863,-1.434720,2.056432,0.532216,0.930653,0.393550
1765408071.424251,-9.624580,-1.808345,1.407221,0.525191,0.916145,0.380111
1765408071.424501,-9.057866,-1.908775,-0.255858,0.540463,0.928668,0.384082
1765408071.424751,-10.520084,-1.829268,2.453371,0.537714,0.914923,0.367130
1765408071.425038,-11.027020,-1.061693,3.182687,0.533744,0.944856,0.355371
1765408071.425288,-11.254781,-0.722142,3.071496,0.534354,0.919963,0.377973
1765408071.425538,-10.726923,-1.702534,1.825681,0.525344,0.886671,0.380569
1765408071.425788,-10.737684,-1.134624,2.430655,0.540616,0.905455,0.376140
1765408071.426161,-10.732902,-1.614060,3.861788,0.542907,0.905455,0.386678
1765408071.426494,-10.777138,-1.380320,3.488761,0.534965,0.881020,0.373239
1765408071.426828,-11.123264,-0.860234,1.817312,0.531605,0.827112,0.368352
1765408071.427060,-10.737684,-0.752032,1.933285,0.534049,0.839940,0.378584
1765408071.427310,-9.854733,-1.135820,1.789813,0.551917,0.824974,0.407294
1765408071.427560,-9.527139,-1.730631,1.666667,0.527329,0.799623,0.393245
1765408071.427810,-9.612624,-1.334888,0.975610,0.527329,0.785725,0.393245
1765408071.428018,-9.861907,-1.056910,0.181731,0.533285,0.812603,0.394924
1765408071.428268,-9.405188,-1.096365,0.682090,0.541990,0.806648,0.398590
1765408071.428518,-9.148731,-1.205763,1.145385,0.518930,0.812298,0.393550
1765408071.428768,-9.567192,-1.453252,1.096365,0.512210,0.822530,0.393550
1765408071.429058,-9.567192,-1.453252,1.096365,0.512210,0.825126,0.393550
1765408071.429308,-9.754900,-0.964251,2.117408,0.534660,0.804662,0.397368
1765408071.429558,-9.471543,-1.004902,2.167025,0.520457,0.804662,0.394161
1765408071.429808,-9.602462,-1.090985,1.685796,0.512210,0.783129,0.391717
1765408071.430101,-9.989238,-0.855452,1.514825,0.527788,0.762054,0.401338
1765408071.430351,-10.166784,-1.273314,0.772955,0.515723,0.770148,0.409127
1765408071.430601,-10.260041,-1.101745,1.352224,0.517097,0.801913,0.391717
1765408071.430851,-10.468675,-0.803443,1.924916,0.522443,0.801913,0.389274
1765408071.431174,-10.366450,-0.583453,2.558584,0.534202,0.773661,0.414472
1765408071.431424,-10.419655,-1.127451,2.207675,0.508545,0.761138,0.401033
1765408071.431674,-10.294714,-1.067671,1.524390,0.513738,0.760222,0.399811
1765408071.431924,-10.347919,-1.201578,2.442013,0.522443,0.762360,0.402407
1765408071.432048,-10.464490,-0.960067,2.751673,0.522137,0.757626,0.396910
1765408071.432298,-10.835724,-0.806432,3.153993,0.518319,0.729220,0.393092
1765408071.432548,-9.939023,-1.006695,1.713893,0.514959,0.696845,0.390343
1765408071.432798,-9.705881,-0.791487,1.071258,0.526566,0.696845,0.398131
1765408071.433129,-9.834408,-1.017456,2.586680,0.526566,0.697761,0.398131
1765408071.433462,-9.346005,-1.041965,1.173481,0.509920,0.681878,0.391412
1765408071.433796,-9.093734,-0.960067,0.563128,0.512363,0.654542,0.389579
1765408071.434145,-8.878526,-0.763391,-0.025108,0.518166,0.657596,0.386220
1765408071.434395,-9.282639,-0.532042,0.788498,0.523512,0.664774,0.401797
1765408071.434645,-9.282639,-0.532042,0.788498,0.523512,0.681573,0.401797
1765408071.434895,-9.318506,-0.802248,0.753228,0.506102,0.662178,0.403324
1765408071.435036,-9.565996,-1.018651,0.659971,0.506560,0.648281,0.407905
1765408071.435286,-9.689740,-1.067671,0.644428,0.513585,0.655764,0.405462
1765408071.435536,-9.442849,-1.127451,0.988163,0.518472,0.672104,0.406378
1765408071.435786,-9.375896,-1.038976,0.950502,0.515112,0.663858,0.399353
1765408071.436018,-10.463293,-0.950502,2.174796,0.517097,0.643699,0.408516
1765408071.436268,-10.035867,-1.744380,1.114299,0.515265,0.640645,0.413250
1765408071.436518,-10.380199,-1.666069,1.303204,0.521221,0.623235,0.394772
1765408071.436768,-10.107603,-1.140602,1.402439,0.519846,0.631177,0.375988
1765408071.436967,-10.422643,-0.675514,1.676829,0.523206,0.614989,0.386983
1765408071.437217,-10.815398,-0.746054,1.453850,0.517403,0.603840,0.394619
1765408071.437467,-9.915112,-0.945720,0.030488,0.513432,0.601091,0.395535
1765408071.437717,-9.548061,-1.437111,0.000000,0.508087,0.644310,0.386525
1765408071.438023,-9.307747,-0.410091,0.792683,0.524275,0.644310,0.381943
1765408071.438273,-9.886416,-0.418460,1.361789,0.519541,0.612851,0.404851
1765408071.438523,-9.941415,-0.626494,1.334888,0.504269,0.598953,0.398131
1765408071.438773,-9.420133,-0.477044,-0.149450,0.521373,0.590554,0.407905
1765408071.439042,-9.230033,-1.116093,0.513510,0.521373,0.584598,0.407905
1765408071.439292,-9.854136,-0.901482,1.176470,0.515418,0.588721,0.397062
1765408071.439542,-11.070061,-0.528455,2.924438,0.521679,0.563370,0.400575
1765408071.439792,-10.784312,-0.597800,1.969751,0.510683,0.545503,0.394619
1765408071.440029,-10.668339,-0.160210,1.359397,0.521373,0.545503,0.410043
1765408071.440279,-11.330104,-1.036585,3.012912,0.517250,0.529467,0.411876
1765408071.440529,-11.158535,-0.884744,2.491033,0.515265,0.512669,0.405615
1765408071.440779,-11.092777,-0.785509,1.761119,0.503200,0.512363,0.394008
1765408071.441080,-10.487206,-0.609158,1.017456,0.511752,0.493579,0.392634
1765408071.441330,-10.575082,-0.263630,1.644548,0.516639,0.487012,0.407753
1765408071.441580,-10.371830,-0.487805,1.514825,0.516945,0.481515,0.413709
1765408071.441830,-9.763269,-0.824366,0.493185,0.499077,0.467617,0.409127
1765408071.442107,-9.378286,-0.920612,-0.188307,0.507476,0.453720,0.410654
1765408071.442357,-9.994618,-0.699426,0.643233,0.519083,0.443488,0.403324
1765408071.442607,-9.760879,-0.450741,0.751435,0.509462,0.461967,0.407753
1765408071.442857,-9.847560,-0.313247,0.648015,0.511905,0.463647,0.412792
1765408071.443066,-9.760879,-0.881157,1.041368,0.507782,0.454484,0.421802
1765408071.443316,-9.614418,-1.376734,0.169775,0.507934,0.446848,0.424551
1765408071.443566,-9.824244,-1.377331,0.512912,0.521832,0.436921,0.404698
1765408071.443816,-9.741151,-0.931372,0.774151,0.517556,0.451582,0.397979
1765408071.444046,-10.108798,-0.522477,1.141798,0.523053,0.448070,0.397368
1765408071.444379,-9.717837,-0.551172,0.582257,0.510836,0.445168,0.404545
1765408071.444713,-9.807508,-0.931970,0.359876,0.510072,0.438907,0.407447
1765408071.445049,-10.777737,-0.743663,1.933285,0.518777,0.420581,0.394008
1765408071.445299,-10.461500,-0.424438,1.478957,0.512516,0.432493,0.391412
1765408071.445549,-10.565517,0.007174,1.379722,0.512516,0.413861,0.391412
1765408071.445799,-10.129124,-0.412482,1.012075,0.513738,0.389274,0.403171
1765408071.446041,-10.716163,-0.160210,1.614060,0.513127,0.389274,0.409280
1765408071.446291,-10.646220,-0.269010,1.796987,0.514196,0.389274,0.401186
1765408071.446541,-10.037063,-0.064562,0.850072,0.503964,0.386983,0.404545
1765408071.446791,-10.037063,-0.064562,0.850072,0.503964,0.360716,0.404545
1765408071.448881,-10.298899,0.035868,1.035390,0.515876,0.366672,0.402102
1765408071.449081,-10.188903,0.135103,1.074844,0.516945,0.366672,0.416610
1765408071.449281,-9.338832,-0.444165,0.424438,0.500604,0.358272,0.414319
1765408071.449481,-9.610831,-0.254663,0.407700,0.498924,0.349262,0.397979
1765408071.449681,-9.996411,-0.466284,0.730512,0.505644,0.334601,0.407142
1765408071.448933,-10.450740,-0.590626,1.418579,0.502589,0.350942,0.395230
1765408071.449183,-10.186513,0.081301,1.038976,0.503658,0.350942,0.383318
1765408071.449433,-9.867287,0.063367,0.561932,0.502589,0.338877,0.395841
1765408071.449683,-9.805714,-0.118962,0.603778,0.502742,0.324064,0.398590
1765408071.448992,-9.980869,-0.210426,0.638450,0.504269,0.312305,0.395841
1765408071.449242,-10.201457,-0.243305,0.994141,0.502589,0.328035,0.386525
1765408071.449492,-9.494260,-0.133907,-0.040650,0.507018,0.328951,0.386983
1765408071.449742,-9.875656,-0.002391,0.720349,0.500299,0.315970,0.385609
1765408071.450079,-9.783595,0.211621,0.574486,0.501673,0.310472,0.382402
1765408071.450329,-9.936632,-0.026303,1.041965,0.497092,0.310472,0.389885
1765408071.450579,-9.936632,-0.026303,1.041965,0.497092,0.311389,0.389885
1765408071.450829,-9.850550,-0.042444,0.408895,0.489761,0.290314,0.375682
1765408071.451116,-10.160210,0.212817,0.727523,0.491594,0.284663,0.370490
1765408071.451366,-10.136297,0.218795,0.591822,0.495106,0.283289,0.375224
1765408071.451616,-9.947392,0.093855,0.755619,0.493579,0.283289,0.375682
1765408071.451866,-9.947392,0.093855,0.755619,0.493579,0.275348,0.375682
1765408071.452074,-9.880439,0.491989,0.516499,0.486554,0.268017,0.356440
1765408071.452324,-9.771639,0.701817,0.142276,0.481515,0.265421,0.352164
1765408071.452574,-10.503346,1.110713,0.879962,0.471130,0.267101,0.349415
1765408071.452824,-10.536823,1.080822,1.284074,0.464105,0.267101,0.353538
1765408071.453062,-10.536823,1.080822,1.284074,0.464105,0.257938,0.353538
1765408071.453312,-9.854136,1.001913,0.327594,0.451735,0.239612,0.344833
1765408071.453562,-9.980869,1.000717,0.398135,0.435852,0.239612,0.347277
1765408071.453812,-10.521877,0.852463,1.235055,0.437227,0.221286,0.349720
1765408071.454032,-10.184121,0.861430,0.518890,0.432034,0.226173,0.333227
1765408071.454282,-10.035867,0.879962,0.422047,0.419206,0.229074,0.325286
1765408071.454532,-9.870873,0.978001,0.176949,0.419359,0.218842,0.323606
1765408071.454782,-10.697034,1.225490,1.406026,0.415847,0.197768,0.314290
1765408071.455014,-10.473456,1.142994,1.024629,0.405309,0.205098,0.308487
1765408071.455264,-10.075322,1.370158,0.290531,0.401797,0.200364,0.300088
1765408071.455514,-9.931850,1.351626,0.492587,0.392023,0.196546,0.296117
1765408071.455764,-10.436392,1.339072,0.925394,0.391106,0.182191,0.295964
1765408071.456072,-10.417861,1.174677,0.855452,0.384234,0.180663,0.290619
1765408071.456322,-10.417861,1.174677,0.855452,0.384234,0.178525,0.290619
1765408071.456572,-10.063366,1.769488,0.515304,0.366366,0.173333,0.267101
1765408071.456822,-10.032877,1.824486,0.366451,0.352164,0.173333,0.271835
1765408071.457019,-10.257649,1.792802,0.614538,0.340405,0.164934,0.271835
1765408071.457269,-10.233739,1.275108,0.339550,0.326202,0.166155,0.265574
1765408071.457519,-10.506933,1.275705,0.685079,0.326202,0.156076,0.265574
1765408071.457769,-10.339549,1.141798,0.387374,0.312763,0.158825,0.236863
1765408071.457981,-10.456717,1.824486,0.417264,0.306349,0.153022,0.225562
1765408071.458181,-10.349711,1.508847,0.044237,0.288023,0.127518,0.228616
1765408071.458381,-10.651602,1.459828,0.469871,0.287107,0.127518,0.223577
1765408071.458581,-10.593018,1.086203,0.227762,0.271682,0.133779,0.208458
1765408071.458781,-10.616928,1.053921,0.489598,0.259465,0.130572,0.195171
1765408071.459044,-10.322811,1.330105,-0.284553,0.249997,0.120493,0.176235
1765408071.459294,-10.865612,1.392874,0.052606,0.238085,0.107970,0.167072
1765408071.459544,-10.708989,1.412004,-0.334170,0.223882,0.107970,0.158825
1765408071.459794,-10.694642,1.362984,-0.049020,0.215788,0.104000,0.151036
1765408071.460016,-10.758009,1.288857,0.325203,0.202044,0.104305,0.147677
1765408071.460266,-10.887134,1.245815,-0.120756,0.193950,0.069180,0.140499
1765408071.460516,-11.169893,0.936155,-0.080105,0.193950,0.062308,0.140499
1765408071.460766,-10.596602,0.921808,-0.844094,0.178831,0.071319,0.115606
1765408071.461087,-10.742467,1.068866,-0.337159,0.169668,0.066584,0.102320
1765408071.461337,-10.943327,1.300215,0.035868,0.154396,0.054825,0.091935
1765408071.461587,-11.137014,1.279292,0.132712,0.149967,0.043830,0.091935
1765408071.461837,-10.784909,0.881157,-0.416069,0.140499,0.036041,0.093004
1765408071.462040,-10.759803,0.593018,-0.485414,0.127213,0.017562,0.083689
1765408071.462240,-11.081419,0.668340,0.014347,0.120799,0.011301,0.056658
1765408071.462440,-11.046148,0.911047,-0.142276,0.104763,0.008858,0.051007
1765408071.462640,-10.557148,0.937350,-0.538020,0.092546,0.001527,0.048869
1765408071.462840,-10.384982,0.658776,-0.486011,0.071319,-0.011759,0.043066
1765408071.463037,-10.501554,0.496772,-0.166188,0.063988,-0.020922,0.035430
1765408071.463287,-10.198468,0.405308,-0.251076,0.054214,-0.028711,0.021380
1765408071.463537,-9.765661,0.677905,-0.591224,0.043066,-0.030696,0.008858
1765408071.463787,-9.628167,0.847680,-0.405308,0.030696,-0.030696,0.011454
1765408071.464062,-9.576756,0.587040,-0.301291,0.018021,-0.037721,0.013744
1765408071.464262,-9.421926,0.462697,-0.383788,0.011912,-0.037110,0.005651
1765408071.464462,-9.121233,0.581062,-0.475849,0.003665,-0.029169,0.001833
1765408071.464662,-9.149927,0.523673,-0.173362,-0.004429,-0.033598,0.005651
1765408071.464862,-9.330462,0.283955,-0.031086,-0.007483,-0.036652,0.007178
1765408071.465161,-9.362743,0.068149,-0.075921,-0.013897,-0.030238,0.004276
1765408071.465411,-9.286225,-0.230153,-0.315638,-0.015730,-0.023518,0.002291
1765408071.465661,-9.617407,-0.209230,0.274390,-0.016646,-0.025045,0.002291
1765408071.465911,-9.989837,-0.111789,0.707795,-0.016952,-0.016799,-0.010385
1765408071.466135,-10.150645,-0.087279,0.659971,-0.012370,-0.014661,-0.005498
1765408071.466335,-9.922284,-0.341942,0.423242,-0.013592,-0.016646,-0.003207
1765408071.466535,-9.977283,-0.436394,0.548780,-0.011301,-0.020159,-0.004887
1765408071.466735,-10.203848,-0.444763,0.926590,-0.009468,-0.023366,-0.008858
1765408071.466935,-10.263031,-0.234935,0.998326,-0.008858,-0.025045,-0.015272
1765408071.467116,-9.991630,0.044237,0.570301,-0.007789,-0.020006,-0.012370
1765408071.467366,-9.821855,-0.004782,0.502152,-0.012523,-0.025504,-0.001527
1765408071.467616,-9.780008,-0.300096,0.621114,-0.010079,-0.027184,0.000305
1765408071.467866,-9.853538,-0.311454,0.583453,-0.008094,-0.027184,-0.005345
1765408071.468052,-9.853538,-0.311454,0.583453,-0.008094,-0.021991,-0.005345
1765408071.468252,-9.695121,-0.109995,0.349115,-0.009468,-0.019700,-0.004123
1765408071.468452,-9.672404,-0.218795,0.460904,-0.010843,-0.021380,-0.002902
1765408071.468652,-9.716641,-0.162602,0.395744,-0.011606,-0.018937,-0.002291
1765408071.468852,-9.677187,-0.092061,0.288737,-0.008552,-0.018937,-0.000611
1765408071.468990,-9.577354,-0.210426,0.123147,-0.010079,-0.015119,0.001222
1765408071.469190,-9.606049,-0.273195,0.264228,-0.009010,-0.011301,0.002443
1765408071.469390,-9.715446,-0.322812,0.439981,-0.009774,-0.011301,-0.000458
1765408071.469590,-9.781204,-0.197872,0.484218,-0.006109,-0.010079,0.000764
1765408071.469790,-9.729793,-0.058584,0.335964,-0.005040,-0.007789,0.006872
1765408071.469991,-9.682567,-0.291726,0.202056,-0.007636,-0.003512,0.008399
1765408071.470191,-9.785389,-0.411286,0.358680,-0.002749,-0.005956,0.005803
1765408071.470391,-9.774031,-0.189503,0.310856,-0.004429,-0.005956,0.000458
1765408071.470591,-9.625177,0.068149,0.156026,-0.002291,-0.002902,0.001985
1765408071.470791,-9.643710,0.058584,0.197274,-0.002749,-0.004123,0.005803
1765408071.470951,-9.850550,-0.112386,0.462697,-0.001222,-0.007636,0.006261
1765408071.471151,-9.831419,-0.169775,0.355691,0.000153,0.000000,0.004429
1765408071.471351,-9.721423,-0.006576,0.137494,-0.001527,0.003207,-0.000305
1765408071.471551,-9.759683,0.093257,0.157221,-0.001527,-0.002596,-0.000305
1765408071.471751,-9.991032,0.104017,0.486609,0.002291,-0.000153,0.005192
1765408071.472000,-10.054399,0.014347,0.465088,-0.000764,0.003818,0.005956
1765408071.472200,-9.915112,-0.086681,0.272597,0.000305,0.007941,0.004429
1765408071.472400,-10.035867,-0.094452,0.509923,0.000458,0.002596,0.001527
1765408071.472600,-10.035867,-0.094452,0.509923,0.000458,0.000611,0.001527
1765408071.472800,-10.016139,0.046628,0.373027,-0.000458,0.006720,0.003971
1765408071.473068,-9.858918,-0.011358,0.206839,-0.003054,0.006720,0.001527
1765408071.473268,-9.983260,0.031086,0.508728,-0.003207,-0.000764,0.000916
1765408071.473468,-10.089668,0.108202,0.457915,0.001680,-0.005345,0.000458
1765408071.473668,-9.995216,0.114180,0.334768,0.000916,-0.000305,0.001374
1765408071.473868,-9.906742,0.043639,0.225968,-0.001527,-0.002138,0.000153
1765408071.474022,-9.931252,0.137494,0.326399,-0.005345,-0.005803,-0.002596
1765408071.474222,-10.015541,0.221784,0.302487,-0.003971,-0.003207,0.000611
1765408071.474422,-9.829028,0.127929,0.147657,-0.003360,-0.002902,0.001985
1765408071.474622,-9.791965,0.032281,0.138690,-0.006261,-0.001222,0.000458
1765408071.474822,-9.939621,0.087279,0.306074,-0.005651,-0.005192,-0.000458
1765408071.475053,-9.925871,0.165591,0.249880,-0.005040,-0.003971,-0.001222
1765408071.475253,-9.840386,0.167384,0.129723,-0.008094,-0.001985,-0.005192
1765408071.475453,-9.935436,0.154232,0.295911,-0.008858,-0.000458,-0.000305
1765408071.475653,-10.013150,0.057987,0.362865,-0.011454,0.000611,0.000305
1765408071.475853,-10.006575,-0.013152,0.314443,-0.008705,-0.002749,-0.001069
1765408071.476056,-9.954566,-0.008369,0.254663,-0.012828,-0.001680,-0.001527
1765408071.476256,-10.047822,0.011358,0.349115,-0.011454,-0.003207,-0.002749
1765408071.476456,-10.135101,0.027499,0.444763,-0.013439,-0.004276,-0.003207
1765408071.476656,-10.141079,0.046628,0.366451,-0.013592,-0.003207,-0.000916
1765408071.476856,-9.972500,-0.003587,0.126734,-0.010385,-0.005345,-0.002291
1765408071.477058,-10.010758,-0.041846,0.303682,-0.009774,-0.009010,-0.003512
1765408071.477258,-10.084887,-0.069943,0.506934,-0.010996,-0.007483,-0.001222
1765408071.477458,-10.028693,-0.068149,0.212817,-0.012065,-0.005803,-0.001374
1765408071.477658,-9.829028,-0.105213,0.069345,-0.012675,-0.005803,-0.002749
1765408071.477858,-9.976685,-0.118364,0.331181,-0.010232,-0.012981,-0.003818
1765408071.478063,-10.053802,-0.059780,0.417264,-0.010385,-0.012981,-0.002443
1765408071.478263,-9.931252,-0.043042,0.229555,-0.009927,-0.007025,-0.002596
1765408071.478463,-9.817072,-0.136298,0.281564,-0.009927,-0.008705,-0.002443
1765408071.478663,-9.959349,-0.162602,0.412482,-0.007483,-0.016035,-0.001527
1765408071.478863,-10.015541,-0.078910,0.413678,-0.009468,-0.013286,-0.004734
1765408071.478964,-9.898373,-0.049020,0.220588,-0.010996,-0.006109,-0.004429
1765408071.479164,-9.895982,-0.075323,0.297704,-0.008399,-0.010079,-0.003665
1765408071.479364,-10.004781,-0.069345,0.508130,-0.005803,-0.009163,-0.003360
1765408071.479564,-9.956957,-0.056193,0.407700,-0.009010,-0.009010,0.000153
1765408071.479764,-9.824244,-0.100430,0.209828,-0.009163,-0.006872,0.000153
1765408071.479926,-9.942610,-0.089670,0.402917,-0.009163,-0.010232,-0.002596
1765408071.480126,-10.101027,-0.068149,0.577475,-0.007025,-0.012981,-0.001069
1765408071.480326,-9.954566,-0.101028,0.376016,-0.007941,-0.007025,0.000305
1765408071.480526,-9.784791,-0.089670,0.207437,-0.009316,-0.004276,-0.000611
1765408071.480726,-9.857722,-0.137494,0.325203,-0.006720,-0.008399,-0.000764
1765408071.481000,-10.088473,-0.130320,0.578670,-0.008552,-0.009774,-0.000458
1765408071.481200,-10.026302,-0.066356,0.433405,-0.005956,-0.005192,0.000305
1765408071.481400,-9.846962,-0.039455,0.248685,-0.007789,-0.009774,0.001374
1765408071.481600,-9.866092,-0.107006,0.376614,-0.008705,-0.009774,0.000764
1765408071.481800,-10.060975,-0.082496,0.547585,-0.006720,-0.007789,-0.001222
1765408071.482027,-10.022716,-0.026901,0.428623,-0.007789,-0.006109,-0.000153
1765408071.482227,-9.826636,0.005380,0.182329,-0.006872,-0.001985,0.000916
1765408071.482427,-9.753705,-0.021521,0.233740,-0.004581,-0.007178,0.001985
1765408071.482627,-9.945002,-0.015543,0.438785,-0.003665,-0.011148,0.002138
1765408071.482827,-9.990434,-0.003587,0.400526,-0.006109,-0.006720,-0.000764
1765408071.482923,-9.789574,-0.017934,0.147657,-0.005192,-0.004887,0.000764
1765408071.483123,-9.764465,-0.028694,0.190100,-0.005651,-0.004887,0.001222
1765408071.483323,-9.977283,-0.008369,0.474055,-0.008247,-0.008552,-0.000458
1765408071.483523,-10.081897,0.030488,0.512912,-0.005651,-0.007483,0.000153
1765408071.483723,-10.081897,0.030488,0.512912,-0.005651,-0.002902,0.000153
1765408071.484034,-9.725011,-0.003587,0.163199,-0.006872,-0.009010,0.001374
1765408071.484234,-9.936632,-0.017934,0.393950,-0.008858,-0.009010,-0.002138
1765408071.484434,-10.125537,-0.012554,0.532042,-0.007483,-0.006720,-0.002138
1765408071.484634,-9.950979,0.012554,0.251076,-0.006872,-0.000611,-0.002291
1765408071.484834,-9.791965,0.039455,0.104017,-0.006872,-0.004123,-0.002291
1765408071.484978,-9.960544,0.043639,0.396939,-0.009468,-0.006109,-0.002443
1765408071.485178,-10.181729,-0.022716,0.609158,-0.008094,-0.006109,-0.000153
1765408071.485378,-10.143471,-0.041248,0.416069,-0.007330,-0.005345,0.000611
1765408071.485578,-9.910329,0.009565,0.228360,-0.010385,-0.002138,-0.003207
1765408071.485778,-9.888210,0.025108,0.243902,-0.009316,-0.003818,-0.002291
1765408071.486023,-10.124342,-0.035270,0.538020,-0.011148,-0.012828,-0.004123
1765408071.486223,-10.149448,-0.022716,0.506934,-0.009468,-0.006414,-0.003665
1765408071.486423,-9.943208,-0.027499,0.182927,-0.006872,-0.003207,-0.001833
1765408071.486623,-9.778812,-0.026303,0.105213,-0.010232,-0.013744,-0.000458
1765408071.486823,-9.994021,0.013152,0.401722,-0.007789,-0.013744,-0.003360
1765408071.487067,-10.136894,-0.032879,0.614538,-0.007636,-0.012217,-0.003207
1765408071.487267,-9.992825,-0.070540,0.322214,-0.007330,-0.004429,-0.003512
1765408071.487467,-9.867287,-0.080105,0.185318,-0.009468,-0.007025,-0.002443
1765408071.487667,-10.051410,-0.057987,0.492587,-0.007789,-0.008705,-0.004581
1765408071.487867,-10.132710,-0.087279,0.578670,-0.006872,-0.008705,-0.002443
1765408071.487935,-9.910329,-0.032879,0.236729,-0.006872,-0.003207,-0.002443
1765408071.488135,-9.684958,-0.059182,0.075921,-0.006567,-0.003054,-0.001833
1765408071.488335,-9.808702,-0.072932,0.264825,-0.007941,-0.007636,-0.000153
1765408071.488535,-10.062170,-0.071736,0.565519,-0.008858,-0.009163,0.000764
1765408071.488735,-9.965924,-0.072334,0.387374,-0.010079,-0.004429,-0.001069
1765408071.489017,-9.791965,-0.058584,0.191296,-0.007789,-0.003512,-0.001680
1765408071.489267,-9.841581,-0.053802,0.325801,-0.010079,-0.010385,-0.001985
1765408071.489517,-10.033475,-0.062171,0.550574,-0.008094,-0.010385,0.000764
1765408071.489767,-10.057985,-0.084290,0.529651,-0.008094,-0.009163,0.001222
1765408071.490067,-9.934240,-0.073529,0.297107,-0.008858,-0.004581,-0.001069
1765408071.490267,-9.814680,-0.063367,0.210426,-0.008247,-0.003971,0.001222
1765408071.490467,-9.921089,-0.047824,0.390961,-0.008094,-0.010690,-0.000611
1765408071.490667,-9.983260,-0.037064,0.462697,-0.007330,-0.006567,0.000153
1765408071.490867,-9.945002,-0.061573,0.330583,-0.005651,-0.005498,-0.001222
1765408071.491048,-9.874461,-0.083692,0.295313,-0.008094,-0.006109,0.000305
1765408071.491248,-9.800333,-0.043042,0.230751,-0.007330,-0.006109,-0.001833
1765408071.491448,-9.839788,-0.003587,0.249283,-0.007789,-0.010843,-0.000611
1765408071.491648,-9.843375,-0.001793,0.257652,-0.006872,-0.005651,0.000305
1765408071.491848,-9.893590,-0.005978,0.289335,-0.006414,-0.004581,0.002596
1765408071.492021,-9.894786,0.001196,0.327594,-0.007636,-0.005956,0.000000
1765408071.492221,-9.916306,0.011956,0.307867,-0.007941,-0.006567,0.000305
1765408071.492421,-9.965326,-0.001793,0.306671,-0.009163,-0.006109,0.000305
1765408071.492621,-10.034670,0.007174,0.401722,-0.006872,-0.006109,-0.000305
1765408071.492821,-10.113581,-0.020923,0.496174,-0.008552,-0.006261,-0.000305
1765408071.493023,-10.040649,-0.027499,0.388570,-0.010843,-0.003360,0.000764
1765408071.493223,-9.983260,0.004782,0.270206,-0.006720,-0.006261,-0.002291
1765408071.493423,-10.017933,0.005978,0.313247,-0.009316,-0.007025,-0.001069
1765408071.493623,-10.035867,-0.019130,0.451937,-0.009010,-0.007025,0.000764
1765408071.493823,-10.044236,-0.024510,0.457915,-0.007789,-0.005803,-0.001833
1765408071.494034,-9.924676,0.000598,0.284553,-0.007178,-0.006414,-0.003512
1765408071.494234,-9.825441,0.001196,0.115973,-0.008094,-0.005192,-0.000916
1765408071.494434,-9.857722,-0.034672,0.233142,-0.007789,-0.008858,0.001833
1765408071.494634,-9.930654,-0.029890,0.396939,-0.007330,-0.008247,-0.002596
1765408071.494834,-9.977283,-0.016141,0.370636,-0.007483,-0.008247,0.000153
1765408071.494976,-9.824244,0.015543,0.190100,-0.007941,-0.004887,-0.001222
1765408071.495176,-9.800333,-0.008369,0.156026,-0.009163,-0.003360,0.000764
1765408071.495376,-9.894786,-0.035868,0.381396,-0.009163,-0.007178,0.000764
1765408071.495576,-10.026302,-0.041846,0.509923,-0.011912,-0.007330,-0.002138
1765408071.495776,-9.986848,-0.033477,0.362267,-0.006720,-0.007025,-0.003207
1765408071.495928,-9.861309,-0.013152,0.211621,-0.005192,-0.004581,-0.001374
1765408071.496128,-9.929459,0.008369,0.300096,-0.006872,-0.005803,-0.000764
1765408071.496328,-10.027497,-0.032281,0.455524,-0.011301,-0.009468,-0.003512
1765408071.496528,-9.955164,-0.101626,0.404113,-0.009316,-0.006872,-0.001222
1765408071.496728,-9.873863,-0.064562,0.217001,-0.009316,-0.005345,-0.000611
1765408071.496992,-9.806311,-0.035868,0.237924,-0.010843,-0.003360,0.000305
1765408071.497192,-9.883428,-0.057389,0.342539,-0.005498,-0.005345,0.001833
1765408071.497392,-10.009563,-0.053802,0.493783,-0.009621,-0.007483,-0.001985
1765408071.497592,-9.955164,-0.059182,0.356289,-0.010385,-0.004887,-0.001222
1765408071.497792,-9.832614,-0.043042,0.204448,-0.010385,-0.004429,-0.001222
1765408071.497947,-9.893590,-0.025705,0.309063,-0.006261,-0.007636,-0.000153
1765408071.498147,-10.038258,-0.087877,0.542802,-0.007330,-0.007636,-0.001985
1765408071.498347,-10.108798,-0.075323,0.529651,-0.008399,-0.005803,-0.001374
1765408071.498547,-9.953370,-0.049020,0.320421,-0.007483,-0.002749,-0.002138
1765408071.498747,-9.953370,-0.049020,0.320421,-0.007483,-0.002749,-0.002138
1765408071.499054,-9.956957,-0.065758,0.388570,-0.005956,-0.007636,0.000916
1765408071.499254,-10.049019,-0.074127,0.445959,-0.007178,-0.007636,0.000000
1765408071.499454,-9.930654,-0.004185,0.278575,-0.006872,-0.004887,-0.000153
1765408071.499654,-9.836799,0.003587,0.241511,-0.008858,-0.003818,0.000153
1765408071.499854,-9.960544,-0.052606,0.349115,-0.007178,-0.007330,0.000000
1765408071.499977,-10.081299,-0.071736,0.490196,-0.010079,-0.005651,-0.002138
1765408071.500177,-10.058583,0.008369,0.444763,-0.009010,-0.006567,-0.001833
1765408071.500377,-9.895982,0.005978,0.261239,-0.007789,-0.003207,0.000000
1765408071.500577,-9.842180,-0.010760,0.185318,-0.004429,-0.005956,0.001985
1765408071.500777,-9.970109,-0.044237,0.408895,-0.006261,-0.008705,-0.000611
1765408071.501053,-10.031085,-0.023912,0.474055,-0.008858,-0.005956,-0.000764
1765408071.501253,-9.844571,-0.039455,0.199665,-0.006567,-0.008552,0.002749
1765408071.501453,-9.754900,-0.022716,0.088474,-0.004734,-0.008399,0.000764
1765408071.501653,-9.857722,-0.015543,0.297107,-0.006261,-0.008705,-0.002596
1765408071.501853,-9.997607,-0.058584,0.450741,-0.009010,-0.008705,-0.000764
1765408071.501965,-9.997607,-0.058584,0.450741,-0.009010,-0.008247,-0.000764
1765408071.502165,-9.904947,-0.007771,0.203252,-0.008858,-0.002443,-0.000305
1765408071.502365,-9.817072,-0.033477,0.237924,-0.007941,-0.008247,0.000153
1765408071.502565,-9.921089,-0.079507,0.446557,-0.005956,-0.007483,0.000153
1765408071.502765,-9.983858,-0.026303,0.395744,-0.009010,-0.007483,0.000611
1765408071.503127,-9.983858,-0.026303,0.395744,-0.009010,-0.005803,0.000611
1765408071.503327,-9.735173,-0.022716,0.154232,-0.005040,-0.008858,-0.001374
1765408071.503527,-9.864896,-0.055595,0.357484,-0.005956,-0.009774,-0.001069
1765408071.503727,-10.028095,-0.040053,0.499761,-0.007025,-0.007330,-0.001985
1765408071.503927,-9.952174,-0.007174,0.288140,-0.009316,-0.007330,-0.000764
1765408071.504038,-9.845766,-0.032879,0.215806,-0.009774,-0.004276,-0.003360
1765408071.504238,-9.898971,-0.057389,0.285151,-0.010996,-0.008705,-0.001985
1765408071.504438,-9.704685,-0.231946,0.653993,-0.006414,-0.008705,-0.001680
1765408071.504638,-9.264705,-0.013749,-0.129125,-0.006414,-0.003818,-0.001680
1765408071.504838,-9.221066,0.408895,-0.164395,-0.008552,0.004581,-0.006720
1765408071.504988,-9.465566,0.109397,0.564921,-0.008247,0.007025,0.012065
1765408071.505188,-9.940817,-0.234935,0.973218,-0.010079,-0.004429,0.007636
1765408071.505388,-10.203251,-0.170971,0.744859,-0.016646,0.004581,-0.002749
1765408071.505588,-9.799137,-0.521282,-0.104017,-0.016646,0.010385,-0.002749
1765408071.505788,-9.438664,-0.341942,-0.273792,-0.000305,0.001985,-0.006567
1765408071.506009,-10.072930,0.465088,0.762793,-0.003971,0.008858,-0.017104
1765408071.506259,-10.534431,0.622908,1.318747,-0.013439,0.015577,0.000000
1765408071.506509,-10.135101,-0.168580,0.425634,-0.013744,0.007636,0.017868
1765408071.506759,-10.135101,-0.168580,0.425634,-0.013744,-0.004734,0.017868
1765408071.506993,-9.859515,-0.515304,0.251076,-0.003971,0.001680,-0.014966
1765408071.507193,-9.998206,0.343137,0.561932,-0.008399,0.004734,-0.019700
1765408071.507393,-10.080104,0.572095,0.332975,-0.006414,0.001374,-0.002596
1765408071.507593,-9.800333,0.019727,0.072932,-0.007789,0.005803,0.016035
1765408071.507793,-9.843375,-0.401124,0.321616,-0.008247,0.006872,0.004429
1765408071.507954,-9.999999,-0.330583,0.541009,-0.008399,0.003971,-0.003512
1765408071.508154,-9.932447,-0.166188,0.234338,-0.009774,0.004734,-0.008552
1765408071.508354,-9.837397,0.108800,0.069345,-0.005040,0.007941,-0.007636
1765408071.508554,-9.881634,0.334768,0.319225,-0.006109,0.007941,-0.002596
1765408071.508754,-9.960544,0.166786,0.425634,-0.010690,0.005040,0.005651
1765408071.509006,-9.974891,-0.276781,0.300096,-0.011148,-0.002596,0.003971
1765408071.509206,-9.873863,-0.273792,0.131516,-0.006109,-0.001374,-0.001222
1765408071.509406,-9.734576,-0.147059,0.181731,-0.006872,0.006109,-0.007483
1765408071.509606,-9.682567,0.151841,0.206241,-0.006872,0.011301,-0.008705
1765408071.509806,-9.952174,0.233142,0.362267,-0.008094,0.001374,-0.001680
1765408071.510026,-10.143471,0.117169,0.339550,-0.009316,0.004887,0.004123
1765408071.510226,-9.982065,-0.221186,0.313247,-0.008552,0.012675,0.006567
1765408071.510426,-9.900764,-0.365854,0.328192,-0.009927,0.007941,0.000153
1765408071.510626,-10.074127,-0.199665,0.529651,-0.007636,0.000000,-0.008705
1765408071.510826,-10.064561,0.151841,0.418460,-0.008552,0.004276,-0.010690
1765408071.510943,-9.794355,0.261239,0.087877,-0.008247,0.008552,-0.002138
1765408071.511143,-9.680773,0.141679,0.093257,-0.006414,0.007330,0.006720
1765408071.511343,-9.970109,-0.186514,0.462697,-0.009621,0.000764,0.005803
1765408071.511543,-10.105211,-0.253467,0.379603,-0.007025,0.004887,0.001374
1765408071.511743,-10.029889,-0.072932,0.233142,-0.005803,0.007178,-0.002749
1765408071.511977,-9.974891,0.107604,0.303682,-0.007789,0.009163,-0.006872
1765408071.512177,-10.138091,0.089072,0.585844,-0.010996,0.002749,-0.001527
1765408071.512377,-10.073528,-0.028097,0.363462,-0.009774,0.003054,0.002138
1765408071.512577,-9.854136,-0.069345,0.066356,-0.009316,0.001374,0.000916
1765408071.512777,-9.847560,-0.059780,0.212817,-0.006720,0.009774,0.000305
1765408071.512925,-10.074127,-0.112984,0.483022,-0.007483,0.007330,-0.001222
1765408071.513125,-10.230749,-0.083692,0.545791,-0.011301,-0.000611,-0.003207
1765408071.513325,-10.151840,0.053802,0.355691,-0.007025,0.000764,-0.002902
1765408071.513525,-9.836202,0.045433,0.074127,-0.008858,0.004123,-0.000611
1765408071.513725,-9.844571,0.015543,0.211023,-0.007483,0.002749,0.001680
1765408071.513956,-10.106407,-0.066954,0.408297,-0.008094,-0.004429,0.000611
1765408071.514156,-10.142276,-0.074725,0.384983,-0.005651,-0.000764,-0.001680
1765408071.514356,-9.999999,-0.071736,0.282162,-0.004429,-0.000305,-0.002596
1765408071.514556,-9.939023,-0.074127,0.283955,-0.005498,-0.003054,-0.002902
1765408071.514756,-9.989238,-0.076518,0.362267,-0.007941,-0.003054,-0.004123
1765408071.514990,-10.029889,-0.077714,0.335964,-0.008247,-0.005498,-0.002749
1765408071.515190,-9.900167,-0.001196,0.185318,-0.006414,0.001374,-0.000305
1765408071.515390,-9.897178,0.007174,0.237327,-0.005498,0.001069,0.001222
1765408071.515590,-10.031682,-0.060378,0.404113,-0.005956,-0.004276,0.002138
1765408071.515790,-10.089668,-0.160210,0.427427,-0.006261,-0.004276,0.002443
1765408071.515999,-10.089668,-0.160210,0.427427,-0.006261,-0.006109,0.002443
1765408071.516199,-9.858918,0.047824,0.111789,-0.007025,-0.002902,-0.003818
1765408071.516399,-9.928263,0.098039,0.312052,-0.008552,-0.002902,-0.002596
1765408071.516599,-10.016738,0.042444,0.450143,-0.007483,-0.003665,0.003207
1765408071.516799,-10.018531,-0.045433,0.306074,-0.007483,-0.003665,0.003512
1765408071.516987,-10.018531,-0.045433,0.306074,-0.007483,-0.005040,0.003512
1765408071.517320,-9.942610,-0.156624,0.339550,-0.007483,-0.010996,-0.003207
1765408071.517654,-10.074127,-0.007174,0.443568,-0.011454,-0.011454,-0.006872
1765408071.518008,-10.004184,0.088474,0.325203,-0.004123,-0.009163,-0.003818
1765408071.519928,-9.826038,0.063367,0.089670,-0.007483,-0.002596,0.000916
1765408071.522980,-9.931850,-0.052606,0.359876,-0.012217,-0.006109,0.001680
1765408071.523989,-10.168577,-0.151243,0.591822,-0.010537,-0.006720,-0.000458
1765408071.526012,-10.035867,-0.160210,0.361071,-0.009316,-0.006720,-0.003360
1765408071.530022,-9.812290,0.004782,0.093257,-0.006872,-0.004276,-0.003207
1765408071.531019,-9.791965,0.068149,0.224773,-0.007789,-0.006414,-0.004581
1765408071.534979,-10.002390,0.038259,0.487805,-0.006720,-0.010385,0.000000
1765408071.537047,-10.014346,-0.011956,0.361669,-0.006261,-0.001222,0.002596
1765408071.539959,-9.789574,-0.113582,0.089670,-0.009621,-0.001222,0.004734
1765408071.543055,-9.820659,-0.164993,0.289933,-0.008858,-0.007483,0.000000
1765408071.544993,-10.065159,-0.099235,0.564323,-0.007789,-0.010843,-0.002596
1765408071.547041,-10.063366,0.037661,0.387972,-0.006109,-0.007330,-0.002749
1765408071.550037,-9.777617,0.066356,0.132114,-0.007178,-0.001833,-0.000611
1765408071.552863,-9.837397,-0.011956,0.370636,-0.008094,-0.010232,-0.000764
1765408071.555041,-9.837397,-0.011956,0.370636,-0.008094,-0.009468,-0.000764
1765408071.555983,-9.948587,-0.083692,0.297704,-0.010996,-0.002138,-0.001069
1765408071.559991,-9.830821,-0.139885,0.142874,-0.008858,-0.002138,-0.000611
1765408071.562962,-9.962935,-0.025705,0.455524,-0.008552,-0.005498,-0.001374
1765408071.564995,-10.005977,0.080105,0.511119,-0.004734,-0.008094,-0.001985
1765408071.566069,-9.861309,0.034672,0.233142,-0.004734,-0.001833,-0.001985
1765408071.567976,-9.826636,-0.080703,0.280966,-0.009468,-0.004581,0.002138
1765408071.570961,-9.995216,-0.080105,0.480631,-0.006720,-0.003512,0.000611
1765408071.573028,-10.013150,-0.046628,0.374223,-0.009163,-0.002902,-0.001069
1765408071.577023,-9.791965,-0.059780,0.211621,-0.009316,0.000458,-0.000458
1765408071.579980,-9.869678,-0.014347,0.339550,-0.009468,-0.001527,-0.000611
1765408071.582930,-10.003586,-0.004782,0.419656,-0.008094,-0.003512,0.000458
1765408071.584962,-9.960544,-0.001196,0.341942,-0.006872,-0.000916,-0.002138
1765408071.587949,-9.901362,-0.040650,0.337159,-0.007483,-0.003207,-0.002291
1765408071.590031,-9.968315,-0.034075,0.392157,-0.008094,-0.007025,-0.001069
1765408071.593052,-9.974891,-0.022716,0.380201,-0.006414,-0.002138,-0.000916
1765408071.594949,-9.843973,-0.088474,0.237924,-0.010385,0.000153,0.000764
1765408071.596979,-9.860114,-0.098039,0.301291,-0.009163,-0.000305,0.000305
1765408071.599974,-9.958152,-0.007174,0.405308,-0.006720,-0.003207,-0.002291
1765408071.602998,-9.884026,0.005978,0.287542,-0.007636,-0.001374,-0.002443
1765408071.604987,-9.818267,-0.020325,0.215208,-0.008247,-0.001985,0.001374
1765408071.607969,-9.940218,-0.054998,0.420253,-0.006720,-0.000764,0.001833
1765408071.609941,-10.105808,-0.059182,0.533238,-0.007483,-0.002596,-0.000153
1765408071.613016,-10.041247,-0.054998,0.337159,-0.005803,0.001222,-0.000764
1765408071.614986,-9.817670,-0.068149,0.136896,-0.008094,0.004734,-0.001374
1765408071.617970,-9.892993,-0.043042,0.325801,-0.010996,0.000000,-0.001680
1765408071.619992,-10.031682,0.023314,0.455524,-0.008247,-0.001985,0.001527
1765408071.623003,-9.921089,0.017934,0.303682,-0.008247,-0.000153,0.001680
1765408071.624936,-9.835006,-0.108800,0.190100,-0.007941,0.004276,0.001527
1765408071.628098,-9.997009,-0.128527,0.401722,-0.010079,0.000458,0.001985
1765408071.630093,-10.068149,-0.086083,0.419656,-0.006414,0.000458,-0.000458
1765408071.633045,-9.937230,-0.067551,0.248685,-0.007941,0.000764,-0.002443
1765408071.634986,-9.842777,-0.062171,0.200263,-0.007636,0.000153,-0.000611
1765408071.638101,-9.995216,-0.009565,0.393352,-0.004887,-0.002902,-0.001222
1765408071.640045,-10.064561,-0.021521,0.429220,-0.006261,0.000000,0.002902
1765408071.642075,-9.988043,-0.084888,0.301889,-0.007636,-0.000458,0.001222
1765408071.644972,-9.925871,-0.133907,0.237924,-0.009468,0.000764,-0.000764
1765408071.645992,-9.998206,-0.058584,0.358680,-0.008399,-0.001833,-0.000764
1765408071.649999,-9.994021,0.032879,0.304878,-0.007025,0.000305,-0.000764
1765408071.652044,-9.888210,0.057389,0.210426,-0.005040,-0.000611,0.000611
1765408071.655102,-9.848756,-0.043639,0.295313,-0.008858,-0.001222,0.003818
1765408071.658091,-9.999999,-0.114778,0.376016,-0.005956,-0.003971,0.001833
1765408071.660071,-10.010758,-0.095648,0.309660,-0.008705,-0.001833,0.000458
1765408071.661062,-9.942610,-0.077714,0.288140,-0.005803,-0.002138,-0.000458
1765408071.663980,-9.942610,-0.105213,0.318627,-0.009468,-0.004429,0.001069
1765408071.667945,-10.065758,-0.064562,0.388570,-0.005498,-0.004429,0.000764
1765408071.669968,-10.004781,0.003587,0.266021,-0.005956,-0.001680,0.000000
1765408071.673000,-9.869678,0.008369,0.176351,-0.007025,-0.003054,-0.000458
1765408071.673500,-9.910329,-0.051411,0.318627,-0.008094,-0.006567,0.001680
1765408071.678021,-9.986848,-0.115375,0.349713,-0.006109,-0.006261,0.001222
1765408071.680005,-9.898373,-0.047824,0.211621,-0.003971,-0.005956,0.000458
1765408071.683063,-9.842180,-0.010760,0.172166,-0.010232,-0.002138,-0.000305
1765408071.685061,-9.901959,-0.075323,0.352702,-0.009163,-0.008247,-0.001222
1765408071.688119,-10.017933,-0.028694,0.371832,-0.006720,-0.008247,0.001833
1765408071.690071,-9.930654,-0.022119,0.224175,-0.008705,-0.003818,0.000153
1765408071.692933,-9.787780,-0.039455,0.193687,-0.009163,-0.004734,-0.000305
1765408071.694971,-9.892993,-0.100430,0.349115,-0.007941,-0.007025,0.000305
1765408071.697985,-10.013150,-0.054998,0.367049,-0.008094,-0.005956,-0.001222
1765408071.700037,-9.967718,0.004782,0.245098,-0.006567,-0.005956,-0.000764
1765408071.703057,-9.892395,-0.013749,0.288737,-0.008247,-0.006414,-0.001222
1765408071.705011,-10.040051,-0.067551,0.474653,-0.009316,-0.004429,-0.000916
1765408071.707960,-10.014346,-0.050215,0.400526,-0.009316,-0.001527,-0.000916
1765408071.710026,-9.862504,-0.010760,0.161406,-0.008705,-0.007178,-0.001527
1765408071.712992,-9.795551,-0.065758,0.168580,-0.008247,-0.007178,-0.003054
1765408071.714934,-9.924676,-0.079507,0.371832,-0.007025,-0.008858,-0.000458
1765408071.717978,-10.014346,-0.002989,0.447154,-0.007636,-0.006720,-0.002749
1765408071.720046,-9.921089,0.066954,0.249880,-0.009468,-0.001680,-0.001527
1765408071.722966,-9.844571,0.032281,0.297704,-0.010079,-0.008705,-0.001222
1765408071.724947,-9.976088,-0.077116,0.412482,-0.009163,-0.008705,0.000458
1765408071.727993,-10.003586,-0.093257,0.420851,-0.007941,-0.004887,-0.001222
1765408071.730109,-9.818865,-0.004782,0.151841,-0.005498,-0.004887,-0.001374
1765408071.732993,-9.745336,-0.025108,0.120756,-0.007330,-0.004887,-0.001374
1765408071.733493,-9.745336,-0.025108,0.120756,-0.007330,-0.010843,-0.001374
1765408071.738073,-10.008965,-0.054998,0.460904,-0.006872,-0.007178,-0.002596
1765408071.738573,-9.870276,-0.095648,0.279770,-0.010537,-0.000611,-0.003971
1765408071.742054,-9.726804,-0.129125,0.124342,-0.007941,-0.008552,-0.005040
1765408071.744994,-9.849353,-0.059780,0.313247,-0.008094,-0.008552,-0.005345
1765408071.746978,-10.113581,0.005380,0.528455,-0.009163,-0.004734,-0.005803
1765408071.750098,-9.980272,-0.016141,0.404113,-0.007025,0.001222,-0.000153
1765408071.751037,-9.808105,0.013749,0.209828,-0.006109,0.000305,-0.003512
1765408071.755022,-9.861309,-0.005978,0.258250,-0.006414,-0.004276,-0.001222
1765408071.758090,-10.027497,0.023314,0.468675,-0.009774,-0.004276,-0.000153
1765408071.758590,-10.005379,0.014347,0.425036,-0.008399,-0.000764,0.000611
1765408071.762028,-9.796148,-0.081301,0.166188,-0.009163,-0.000764,0.003665
1765408071.764897,-9.817072,-0.072932,0.172166,-0.007789,-0.002138,-0.002749
1765408071.767080,-9.991032,-0.125538,0.431612,-0.009621,-0.002902,-0.001833
1765408071.768079,-10.032280,-0.095648,0.457915,-0.007025,-0.005345,-0.003818
1765408071.772015,-9.959946,-0.089670,0.251076,-0.007636,-0.001222,-0.002443
1765408071.776047,-9.904947,-0.084290,0.277977,-0.009163,0.002138,-0.003360
1765408071.777945,-9.924676,-0.100430,0.343137,-0.006720,-0.003665,-0.008552
1765408071.779969,-10.025107,-0.047824,0.435198,-0.007025,-0.002138,-0.007025
1765408071.782950,-9.983260,0.033477,0.315638,-0.008094,0.000764,-0.005345
1765408071.783450,-9.839788,0.062171,0.258847,-0.007941,-0.002291,-0.001527
1765408071.787988,-9.917501,0.041846,0.362267,-0.009010,-0.001527,-0.002902
1765408071.789970,-10.175752,-0.025108,0.508130,-0.008858,-0.004429,-0.003360
1765408071.792984,-10.175752,-0.025108,0.508130,-0.008858,-0.001527,-0.003360
1765408071.794959,-9.973098,-0.102822,0.222382,-0.010385,0.000153,-0.001374
1765408071.795979,-9.921686,-0.137494,0.270206,-0.009927,-0.001374,-0.005498
1765408071.800051,-10.066355,-0.074127,0.445959,-0.005498,-0.005345,-0.003818
1765408071.801080,-9.977283,-0.004782,0.265423,-0.004581,-0.003665,-0.004734
1765408071.805097,-9.805116,-0.014945,0.075323,-0.007025,-0.002749,-0.000764
1765408071.807979,-9.924676,-0.056791,0.296509,-0.005803,-0.003207,-0.001527
1765408071.808479,-10.096842,-0.044835,0.474653,-0.007483,-0.003971,-0.002291
1765408071.812961,-10.019128,-0.040650,0.235533,-0.007178,0.002749,-0.004429
1765408071.814938,-9.943806,-0.034672,0.196078,-0.007789,0.002749,-0.005803
1765408071.818019,-9.940817,0.017934,0.335366,-0.008552,0.000153,-0.002749
1765408071.818967,-10.038258,0.019130,0.443568,-0.010537,-0.003971,-0.001527
1765408071.823075,-9.933045,-0.065758,0.264825,-0.008705,0.000000,-0.001833
1765408071.825011,-9.857722,-0.222979,0.191894,-0.005498,0.000153,-0.000611
1765408071.827931,-10.053204,-0.208034,0.539216,-0.004581,-0.000916,-0.001985
1765408071.830058,-10.163795,-0.087279,0.610354,-0.006261,-0.004887,-0.003512
1765408071.833064,-9.940218,-0.092061,0.300693,-0.007025,-0.005956,-0.003512
1765408071.834988,-9.824244,-0.022716,0.098637,-0.002749,-0.010996,-0.006567
1765408071.836990,-9.986848,0.119560,0.414873,-0.006872,-0.010079,-0.005498
1765408071.839962,-10.104015,0.159015,0.420253,-0.005651,-0.008858,-0.004887
1765408071.843046,-9.996411,0.078910,0.230751,-0.009316,-0.007636,-0.000153
1765408071.843546,-9.906742,-0.089670,0.121951,-0.007483,-0.009316,0.002443
1765408071.848011,-9.953967,-0.194883,0.240316,-0.009468,-0.011301,0.001527
1765408071.849134,-10.087276,-0.240316,0.462697,-0.008247,-0.011759,-0.004581
1765408071.853110,-10.023911,-0.080105,0.316834,-0.006567,-0.011454,-0.008094
1765408071.853610,-9.836202,0.025705,0.056791,-0.006720,-0.008399,-0.006567
1765408071.858048,-9.890003,0.028097,0.200263,-0.006261,-0.008247,-0.003207
1765408071.859989,-10.068746,-0.068747,0.404113,-0.009468,-0.010996,-0.000764
1765408071.862974,-10.095049,-0.049617,0.390961,-0.006567,-0.010079,-0.005345
1765408071.864955,-9.942610,0.047824,0.195481,-0.009621,-0.009468,-0.005192
1765408071.867983,-9.806910,0.056193,0.200861,-0.009468,-0.011454,-0.004734
1765408071.869966,-10.020324,0.033477,0.374223,-0.007636,-0.010843,-0.001222
1765408071.871050,-10.151840,-0.089670,0.469871,-0.009010,-0.010843,-0.002291
1765408071.874998,-9.983260,-0.150646,0.264228,-0.007941,-0.004123,-0.004429
1765408071.877034,-9.826636,-0.161406,0.108800,-0.009316,-0.006109,-0.004429
1765408071.879941,-9.826636,-0.161406,0.108800,-0.009316,-0.011606,-0.004429
1765408071.880969,-10.087874,-0.068149,0.454926,-0.005040,-0.003360,-0.007025
1765408071.884998,-10.010161,-0.028694,0.379603,-0.006567,-0.003360,-0.005345
1765408071.887996,-9.795551,0.009565,0.142276,-0.005803,-0.006109,-0.005956
1765408071.889987,-9.977283,0.086083,0.417264,-0.007789,-0.010385,-0.006567
1765408071.892977,-10.016738,-0.064562,0.383788,-0.007178,-0.008094,-0.001833
1765408071.894979,-9.973696,-0.035868,0.401124,-0.006872,-0.006414,-0.003971
1765408071.897955,-9.937828,0.124342,0.279770,-0.006414,-0.005651,-0.004887
1765408071.898455,-9.965326,-0.009565,0.521282,-0.009468,-0.010843,0.000611
1765408071.902108,-10.013150,-0.069345,0.395744,-0.008247,-0.014661,-0.003512
1765408071.902991,-9.961740,-0.141081,0.278575,-0.007941,-0.012217,-0.003360
1765408071.907926,-9.795551,-0.199665,0.197872,-0.007178,-0.009621,-0.005803
1765408071.909930,-9.925871,-0.118364,0.327594,-0.005651,-0.014966,-0.009621
1765408071.910992,-10.010758,-0.119560,0.422047,-0.006872,-0.015730,-0.007789
1765408071.912959,-9.892395,0.023912,0.140483,-0.005192,-0.009010,-0.009010
1765408071.917022,-9.706479,0.148254,-0.033477,-0.008247,-0.009010,-0.009010
1765408071.920005,-9.945002,0.159613,0.333572,-0.007178,-0.009468,-0.005956
1765408071.921949,-10.129124,0.001196,0.672525,-0.007636,-0.005803,-0.001680
1765408071.925014,-9.972500,0.010760,0.439981,-0.007941,-0.000153,-0.005803
1765408071.927996,-9.674795,-0.124342,0.039455,-0.011606,-0.010385,-0.004276
1765408071.929974,-9.943208,-0.101028,0.541607,-0.007178,-0.010385,-0.007789
1765408071.932185,-9.943208,-0.101028,0.541607,-0.007178,-0.007789,-0.007789
1765408071.934985,-9.918099,-0.016738,0.363462,-0.008399,-0.006109,-0.005345
1765408071.938010,-9.685556,-0.053802,-0.017934,-0.008247,-0.006872,-0.008399
1765408071.940011,-9.960544,-0.172166,0.483620,-0.006109,-0.007789,-0.002138
1765408071.940997,-10.105211,-0.123745,0.511119,-0.009927,-0.007789,-0.008705
1765408071.943079,-9.995216,-0.011358,0.288737,-0.007330,-0.005803,-0.008552
1765408071.948011,-9.722619,-0.008967,0.004185,-0.007483,-0.010996,-0.009163
1765408071.950012,-9.921686,0.027499,0.307867,-0.010537,-0.010996,-0.004887
1765408071.953002,-10.194881,0.020923,0.681492,-0.010537,-0.006109,-0.005040
1765408071.953502,-9.982065,-0.005978,0.314443,-0.008705,0.000764,-0.004734
1765408071.956100,-9.711859,-0.114180,0.068149,-0.008705,-0.002291,-0.001985
1765408071.960038,-9.949782,-0.224175,0.337757,-0.009774,-0.008399,-0.004887
1765408071.962109,-10.038857,-0.111191,0.424438,-0.010232,-0.006567,-0.009927
1765408071.965003,-9.937828,-0.089670,0.368245,-0.009010,0.003207,-0.007789
1765408071.968004,-9.863102,0.015543,0.351506,-0.008094,-0.003360,-0.004276
1765408071.970011,-10.064561,-0.033477,0.541607,-0.010690,-0.009316,-0.007483
1765408071.973028,-10.035269,-0.086083,0.405308,-0.008247,-0.001222,-0.004887
1765408071.975047,-9.843375,-0.191296,0.160210,-0.008552,-0.001222,-0.007330
1765408071.975976,-9.888210,-0.026303,0.304878,-0.008552,-0.001680,-0.007330
1765408071.979001,-10.080104,-0.046628,0.491392,-0.009621,-0.011301,-0.010232
1765408071.982044,-9.980869,-0.004782,0.352702,-0.006720,-0.006567,-0.007789
1765408071.984981,-9.759683,-0.045433,0.040650,-0.010690,-0.007330,-0.009010
1765408071.987018,-9.840983,0.046628,0.197274,-0.008399,-0.006872,-0.009316
1765408071.990021,-9.970109,-0.153037,0.325203,-0.006261,-0.011912,-0.003207
1765408071.993028,-10.075322,-0.143472,0.468675,-0.011148,-0.007178,-0.007789
1765408071.995034,-9.827832,-0.095648,0.065758,-0.008552,-0.000305,-0.011301
1765408071.997969,-9.814083,-0.023314,0.210426,-0.007178,-0.003207,-0.007330
1765408071.999941,-9.958152,-0.003587,0.345528,-0.008552,-0.003207,-0.008399
1765408072.002025,-10.273791,0.020923,0.725729,-0.008399,-0.003512,-0.007025
1765408072.005067,-9.891797,-0.065160,0.066954,-0.008552,0.001069,-0.006261
1765408072.008851,-9.881634,-0.123147,0.308465,-0.008705,-0.006567,-0.007636
1765408072.010000,-9.848158,-0.144668,0.246294,-0.010232,-0.003818,-0.012370
1765408072.012968,-10.145862,-0.046031,0.550574,-0.008094,-0.009163,-0.010079
1765408072.013468,-9.945600,-0.062171,0.182927,-0.008705,-0.004734,-0.007483
1765408072.017989,-9.923481,-0.063367,0.307269,-0.005651,-0.006109,-0.010232
1765408072.020007,-9.925871,-0.064562,0.178742,-0.009468,-0.006720,-0.007483
1765408072.021959,-10.063366,-0.084888,0.315638,-0.008399,-0.011148,-0.009316
1765408072.024947,-10.014346,-0.020923,0.272597,-0.007330,0.001833,-0.007941
1765408072.027011,-9.891200,-0.150048,0.109995,-0.008858,-0.005345,-0.005803
1765408072.029994,-10.133308,-0.131516,0.499761,-0.005345,-0.006414,-0.009774
1765408072.033049,-10.224771,-0.072932,0.512912,-0.005956,-0.006414,-0.011148
1765408072.034974,-9.899570,-0.057389,0.188307,-0.007483,0.000000,-0.011454
1765408072.038032,-9.905546,0.031086,0.139885,-0.010385,-0.007789,-0.010537
1765408072.039927,-10.128527,-0.041846,0.528455,-0.007636,-0.007789,-0.009010
1765408072.042969,-10.077712,-0.130320,0.352104,-0.005192,-0.011148,-0.009010
1765408072.045052,-10.031085,-0.096844,0.317432,-0.005498,-0.005192,-0.007178
1765408072.048024,-9.866092,-0.130918,0.169775,-0.006261,-0.007330,-0.010079
1765408072.049998,-10.108798,-0.124342,0.502152,-0.005803,-0.012065,-0.007483
1765408072.052107,-10.080104,-0.023912,0.497370,-0.006414,-0.010996,-0.011148
1765408072.055009,-9.913916,-0.051411,0.226566,-0.007941,-0.012675,-0.006872
1765408072.058074,-9.753705,-0.155428,0.072932,-0.007941,-0.012675,-0.006872
1765408072.060116,-10.095049,-0.081301,0.541607,-0.009163,-0.014355,-0.011759
1765408072.063034,-9.909731,-0.018532,0.267814,-0.003971,-0.004123,-0.005498
1765408072.064983,-9.835006,-0.030488,0.058584,-0.008552,-0.015119,-0.011606
1765408072.067988,-10.013150,0.074127,0.414873,-0.007789,-0.011454,-0.011301
1765408072.070000,-10.083690,0.027499,0.430416,-0.007636,-0.007636,-0.005651
1765408072.072994,-9.930654,-0.178144,0.242707,-0.004581,-0.008399,-0.004276
1765408072.074969,-9.906144,-0.197274,0.255858,-0.007025,-0.008705,-0.009010
1765408072.077971,-10.053802,-0.185318,0.426829,-0.008094,-0.009468,-0.008552
1765408072.079955,-10.011955,-0.120158,0.280966,-0.003971,-0.015119,-0.005498
1765408072.083006,-9.920491,-0.069943,0.240316,-0.004887,-0.008705,-0.010996
1765408072.084939,-9.949782,-0.069345,0.363462,-0.007941,-0.006567,-0.008858
1765408072.086019,-10.065758,-0.109995,0.483022,-0.004581,-0.008858,-0.005803
1765408072.087957,-10.008368,-0.191894,0.288140,-0.005192,-0.008858,-0.005192
1765408072.093017,-9.951577,-0.151841,0.295313,-0.004276,-0.006261,-0.010996
1765408072.095062,-9.878646,-0.123147,0.276781,-0.003665,-0.004887,-0.010232
1765408072.096069,-10.001194,-0.077714,0.487207,-0.004581,-0.009316,-0.011148
1765408072.100016,-9.965326,0.006576,0.316834,-0.003054,-0.008094,-0.012217
1765408072.101965,-9.940218,-0.019130,0.403515,-0.003818,-0.008094,-0.008399
1765408072.104960,-9.940218,-0.019130,0.403515,-0.003818,-0.010537,-0.008399
1765408072.106010,-10.113581,-0.093257,0.509923,-0.003971,-0.010996,-0.011454
1765408072.109934,-10.011955,-0.111191,0.434003,-0.004429,-0.008705,-0.012675
1765408072.113032,-9.942610,-0.141081,0.302487,-0.006567,-0.013286,-0.010079
1765408072.115081,-9.971304,-0.026303,0.344333,-0.002749,-0.016952,-0.014050
1765408072.117997,-9.971304,-0.026303,0.344333,-0.002749,-0.013286,-0.014050
1765408072.118497,-9.901362,-0.021521,0.252272,-0.005956,-0.018784,-0.006720
1765408072.120975,-9.978478,-0.106408,0.289933,-0.009468,-0.018784,-0.009468
1765408072.124953,-9.942013,-0.059780,0.221186,-0.005498,-0.014813,-0.009927
1765408072.128006,-9.825441,-0.173362,0.198470,-0.002596,-0.014355,-0.006109
1765408072.129963,-9.884026,-0.147059,0.336561,-0.007178,-0.010843,-0.010690
1765408072.132902,-9.985053,-0.046628,0.337159,-0.004734,-0.003054,-0.008094
1765408072.135019,-9.837397,-0.107006,0.192492,-0.004581,-0.003054,-0.008094
1765408072.137980,-9.804518,-0.054998,0.062171,-0.003818,-0.006261,-0.011301
1765408072.140059,-10.007172,-0.148254,0.517695,-0.003665,-0.007178,-0.007483
1765408072.142007,-10.005977,-0.200861,0.414275,-0.004581,-0.005651,-0.009468
1765408072.143028,-9.927068,-0.066954,0.265423,-0.004734,-0.006872,-0.014508
1765408072.148057,-9.870276,0.035270,0.162602,-0.006109,-0.007636,-0.015119
1765408072.150029,-9.870276,0.035270,0.162602,-0.006109,-0.011606,-0.015119
1765408072.152958,-10.053802,-0.028694,0.416069,-0.008705,-0.003512,-0.011912
1765408072.154999,-9.978478,-0.031086,0.339550,-0.006261,-0.003512,-0.011454
1765408072.156062,-9.943806,-0.026303,0.442970,-0.009316,-0.002902,-0.010385
1765408072.160009,-10.078907,-0.076518,0.527260,-0.005651,-0.012370,-0.010079
1765408072.162028,-9.986848,-0.173960,0.221784,-0.005651,-0.012065,-0.010079
1765408072.164780,-9.842180,-0.043042,0.096844,-0.005498,-0.007330,-0.012981
1765408072.168911,-9.862504,0.039455,0.192492,-0.004123,-0.007330,-0.009927
1765408072.170098,-9.862504,0.039455,0.192492,-0.004123,-0.011454,-0.009927
1765408072.172956,-10.065758,-0.062171,0.308465,-0.008552,-0.009010,-0.009010
1765408072.174940,-9.898971,-0.172166,0.191296,-0.005498,-0.002443,-0.008705
1765408072.177939,-9.959349,-0.182927,0.527260,-0.004276,-0.001222,-0.012217
1765408072.180024,-10.003586,-0.109995,0.612147,-0.008399,-0.008858,-0.010385
1765408072.183020,-10.089668,-0.056193,0.259445,-0.007178,-0.018631,-0.012370
1765408072.184987,-9.806311,0.031086,-0.105213,-0.004887,-0.003818,-0.016952
1765408072.188044,-9.698110,-0.008369,-0.032281,-0.004429,-0.003818,-0.011912
1765408072.190019,-10.054996,-0.032879,0.598398,-0.007483,-0.007483,-0.012981
1765408072.193019,-10.331181,-0.033477,0.792683,-0.008247,-0.011454,-0.014966
1765408072.194914,-10.031682,-0.073529,0.328192,-0.007636,-0.006109,-0.012675
1765408072.197995,-9.809898,-0.078910,0.114778,-0.004581,-0.012217,-0.013897
1765408072.199924,-9.924676,-0.082496,0.353898,-0.012217,-0.017104,-0.014508
1765408072.202970,-10.075322,-0.005380,0.413080,-0.009316,-0.015730,-0.012523
1765408072.204916,-9.822452,-0.125538,-0.013749,-0.007178,-0.007025,-0.010996
1765408072.207948,-9.747129,-0.178144,0.062171,-0.009316,-0.014203,-0.014508
1765408072.210080,-9.995814,-0.182927,0.329986,-0.010079,-0.012523,-0.016035
1765408072.213002,-10.051410,-0.093257,0.517097,-0.006720,-0.005803,-0.015424
1765408072.214964,-9.769248,-0.050215,0.155428,-0.010385,-0.002443,-0.013897
1765408072.217980,-9.714250,-0.070540,0.168580,-0.007330,-0.008399,-0.011759
1765408072.219939,-10.043041,-0.132712,0.471066,-0.008858,-0.015882,-0.015730
1765408072.222934,-10.208632,-0.130320,0.719153,-0.005803,-0.008705,-0.014203
1765408072.224988,-10.001194,-0.078910,0.329986,-0.005956,-0.008705,-0.016035
1765408072.227928,-9.874461,-0.100430,0.110593,-0.005956,-0.014813,-0.016035
1765408072.229985,-9.995216,-0.143472,0.265423,-0.006109,-0.019853,-0.016493
1765408072.232948,-10.018531,-0.080105,0.299498,-0.003207,-0.013744,-0.014508
1765408072.233448,-9.821855,-0.071736,0.182927,-0.008399,-0.005803,-0.014203
1765408072.237946,-9.915709,-0.051411,0.237924,-0.008399,-0.010843,-0.016341
1765408072.240025,-10.168577,-0.104017,0.539216,-0.005192,-0.011912,-0.011454
1765408072.241006,-10.114776,-0.248685,0.408895,-0.004429,-0.012370,-0.012523
1765408072.245084,-9.905546,-0.284553,0.274390,-0.003054,-0.009163,-0.016646
1765408072.247080,-9.840983,-0.153037,0.198470,-0.006414,-0.017562,-0.016646
1765408072.249998,-9.925274,-0.071736,0.256456,-0.005345,-0.017562,-0.015272
1765408072.253032,-9.952174,-0.004782,0.188307,-0.004887,-0.009621,-0.015424
1765408072.255068,-9.890003,-0.027499,0.274988,-0.007789,-0.001833,-0.015577
1765408072.257067,-9.909132,-0.115973,0.494978,-0.006414,-0.005803,-0.009927
1765408072.260011,-10.096842,-0.246294,0.576279,-0.008247,-0.016035,-0.014050
1765408072.264787,-9.985053,-0.145265,0.215806,-0.005956,-0.014203,-0.017562
1765408072.265287,-9.800931,-0.102822,-0.015543,-0.000611,-0.009468,-0.016035
1765408072.268017,-9.923481,-0.016141,0.471664,-0.005498,-0.009621,-0.012523
1765408072.268517,-10.116570,-0.081899,0.747250,-0.006720,-0.010690,-0.012217
1765408072.271032,-10.019128,-0.182927,0.384983,-0.008399,-0.017715,-0.008094
1765408072.275016,-9.823647,-0.217001,-0.078312,-0.001985,-0.017715,-0.010690
1765408072.276033,-9.887612,-0.313247,0.252272,-0.002138,-0.019853,-0.012981
1765408072.279985,-10.049019,-0.218795,0.573888,-0.005192,-0.016188,-0.017104
1765408072.282995,-9.995216,-0.096844,0.449546,-0.002138,-0.011912,-0.016646
1765408072.285016,-9.781204,0.016141,0.147059,-0.005498,-0.012981,-0.016493
1765408072.285962,-9.814680,0.104615,0.014945,-0.005192,-0.016799,-0.014661
1765408072.289992,-9.884026,-0.074127,0.047226,-0.005040,-0.016799,-0.011148
1765408072.291078,-9.898971,-0.182927,0.194883,-0.003360,0.000305,-0.018021
1765408072.294967,-9.909132,-0.099235,0.490196,-0.002443,0.000305,-0.015272
1765408072.297967,-9.923481,-0.002989,0.462697,-0.003054,-0.005192,-0.015577
1765408072.299960,-10.147058,0.031086,0.708393,-0.004276,-0.011606,-0.014661
1765408072.300962,-10.146461,0.009565,0.563128,-0.002443,-0.015882,-0.011759
1765408072.304943,-9.863700,-0.199665,0.118364,-0.003818,-0.020922,-0.008858
1765408072.305964,-9.768650,-0.289933,0.072334,-0.006261,-0.020922,-0.015577
1765408072.310091,-9.924078,-0.136298,0.242707,-0.005345,-0.013897,-0.019700
1765408072.312955,-9.808702,-0.074127,-0.013749,-0.002291,-0.007941,-0.016646
1765408072.314947,-9.757890,0.040650,0.070540,-0.003360,-0.006109,-0.020311
1765408072.317975,-10.039454,0.084888,0.689263,-0.003818,-0.005040,-0.017715
1765408072.319951,-10.054996,-0.081301,0.686872,-0.004887,-0.005040,-0.014050
1765408072.321000,-9.871471,-0.139885,0.108800,-0.007483,-0.010385,-0.015577
1765408072.324971,-9.719033,-0.087279,-0.077714,-0.007789,-0.010843,-0.019548
1765408072.325961,-9.857722,-0.104615,0.277977,-0.001833,-0.009621,-0.016188
1765408072.329967,-9.857722,-0.104615,0.277977,-0.001833,-0.007941,-0.016188
1765408072.331026,-9.991032,-0.050215,0.539813,-0.005956,-0.003207,-0.018021
1765408072.334986,-9.774031,-0.026303,0.142276,-0.007483,-0.005803,-0.018021
1765408072.337951,-9.983260,0.002391,0.361669,-0.006109,-0.014050,-0.017562
1765408072.340022,-10.175752,0.000000,0.671927,-0.006872,-0.014050,-0.018479
1765408072.341028,-10.175752,0.000000,0.671927,-0.006872,-0.008247,-0.018479
1765408072.343012,-9.653275,-0.190100,-0.076518,-0.008094,-0.007789,-0.018326
1765408072.346131,-9.870873,-0.058584,0.361669,-0.006872,-0.010690,-0.022907
1765408072.349936,-10.077114,-0.025108,0.625299,-0.005498,-0.009468,-0.019242
1765408072.352981,-9.942013,-0.055595,0.317432,-0.006261,-0.009468,-0.019700
1765408072.354954,-9.826636,-0.069345,0.125538,-0.010996,-0.007483,-0.020922
1765408072.357019,-9.949186,-0.078312,0.415471,-0.007789,-0.012828,-0.016188
1765408072.359985,-10.098038,-0.123147,0.507532,-0.003818,-0.014813,-0.020159
1765408072.363038,-9.943806,-0.081301,0.224773,-0.005040,-0.007941,-0.025351
1765408072.365053,-9.716641,0.017934,-0.108800,-0.009163,-0.005498,-0.024129
1765408072.370928,-9.751911,0.044237,0.111191,-0.007789,-0.012217,-0.019090
1765408072.371428,-10.184718,-0.016141,0.705404,-0.008552,-0.012675,-0.021228
1765408072.373033,-10.158416,-0.148254,0.668938,-0.010537,-0.001527,-0.018479
1765408072.375001,-9.766856,-0.237924,0.063367,-0.007330,-0.004123,-0.018173
1765408072.378010,-9.805714,-0.192492,0.026303,-0.010537,-0.014355,-0.024435
1765408072.379994,-10.013150,-0.060976,0.379603,-0.007941,-0.010996,-0.025045
1765408072.382970,-10.013150,0.004185,0.363462,-0.007025,-0.004581,-0.023824
1765408072.384939,-9.816475,0.040650,0.207437,-0.012370,-0.002443,-0.022602
1765408072.388056,-9.816475,0.040650,0.207437,-0.012370,-0.006261,-0.022602
1765408072.390026,-10.113581,-0.159015,0.502152,-0.013286,-0.006567,-0.021686
1765408072.392938,-10.081897,-0.218795,0.477642,-0.009163,-0.002596,-0.020769
1765408072.394931,-9.924676,-0.160210,0.497370,-0.005803,0.003360,-0.021991
1765408072.397980,-9.905546,-0.103419,0.374223,-0.008094,-0.009316,-0.022297
1765408072.399949,-9.905546,-0.103419,0.374223,-0.008094,-0.017562,-0.022297
1765408072.403001,-10.025107,-0.047824,0.215806,-0.008705,-0.008094,-0.023518
1765408072.404933,-9.955761,-0.175753,0.292922,-0.008705,0.000305,-0.019242
1765408072.407973,-9.983260,-0.282162,0.541607,-0.008552,-0.016646,-0.020617
1765408072.409960,-10.188903,-0.236131,0.509326,-0.010232,-0.016646,-0.028863
1765408072.412019,-10.077712,-0.102822,0.196078,-0.006872,-0.008094,-0.027031
1765408072.414983,-9.831419,-0.107604,0.160210,-0.008247,-0.001985,-0.024129
1765408072.418020,-9.990434,-0.118364,0.763988,-0.005345,-0.006567,-0.021380
1765408072.420000,-10.167980,-0.185318,0.683883,-0.009927,-0.014966,-0.023671
1765408072.422990,-9.854136,-0.304280,-0.117767,-0.007636,-0.016035,-0.025198
1765408072.424988,-9.652080,-0.221186,-0.386179,-0.007025,-0.012828,-0.026420
1765408072.427945,-9.953370,-0.182927,0.346724,-0.007483,-0.009774,-0.023671
1765408072.429959,-10.173959,-0.205643,0.860234,-0.005040,-0.005803,-0.025656
1765408072.432970,-10.007172,-0.055595,0.365854,-0.003054,-0.005192,-0.027489
1765408072.433989,-9.717837,0.028694,-0.071736,-0.006414,-0.009468,-0.024740
1765408072.437128,-9.797942,0.005978,0.002391,-0.004734,-0.012523,-0.022144
1765408072.439985,-10.243901,-0.142276,0.734098,-0.005651,-0.011759,-0.016341
1765408072.442973,-10.162600,-0.269010,0.671329,-0.008247,-0.006414,-0.019242
1765408072.443473,-9.777617,-0.257652,-0.032879,-0.009163,-0.010843,-0.023671
1765408072.448025,-9.736967,-0.135103,-0.139885,-0.005803,-0.016188,-0.023824
1765408072.450017,-10.019726,-0.026901,0.380201,-0.004429,-0.010690,-0.021991
1765408072.452914,-10.133906,-0.065758,0.581062,-0.005345,-0.002749,-0.018326
1765408072.456082,-10.029889,-0.173362,0.381396,-0.009621,-0.002902,-0.023060
1765408072.458036,-10.048421,-0.167384,0.402917,-0.006720,-0.010385,-0.023671
1765408072.460035,-10.124342,-0.241511,0.503348,-0.004887,-0.011912,-0.020617
1765408072.463002,-10.069344,-0.217001,0.506934,-0.005803,-0.014050,-0.025809
1765408072.464812,-9.973696,-0.192492,0.397537,-0.008247,-0.006109,-0.027642
1765408072.468161,-9.916306,-0.216404,0.349115,-0.002443,-0.011606,-0.023976
1765408072.469992,-10.051410,-0.072932,0.512315,-0.002443,-0.018479,-0.030238
1765408072.471035,-10.081299,0.017934,0.447154,-0.005345,-0.017257,-0.028711
1765408072.475033,-9.965326,-0.067551,0.119560,-0.005345,-0.020159,-0.028711
1765408072.476998,-9.969511,-0.101626,0.033477,-0.003971,-0.012675,-0.025962
1765408072.480041,-9.939023,-0.029890,0.139885,-0.003054,-0.012675,-0.026725
1765408072.483013,-9.928263,0.034672,0.327594,-0.000764,-0.010385,-0.023518
1765408072.484967,-9.899570,-0.074725,0.242707,-0.005803,-0.007941,-0.020617
1765408072.487928,-10.037063,-0.163199,0.489000,-0.005803,-0.010537,-0.020617
1765408072.489972,-10.041844,-0.165591,0.593018,-0.004123,-0.016493,-0.019700
1765408072.492978,-9.851147,-0.247489,0.365256,-0.005345,-0.016493,-0.020922
1765408072.494934,-10.013150,-0.071736,0.313247,-0.008094,-0.017410,-0.028253
1765408072.495970,-10.107603,0.040650,0.399928,-0.007025,-0.013897,-0.024893
1765408072.500040,-9.905546,-0.073529,0.346724,-0.006109,-0.009010,-0.019242
1765408072.502039,-9.784193,-0.131516,0.115375,-0.007789,-0.017715,-0.025351
1765408072.505014,-9.925871,-0.198470,0.166188,-0.012981,-0.019548,-0.027794
1765408072.508003,-10.060975,-0.221186,0.362267,-0.005498,-0.012370,-0.022144
1765408072.509939,-10.053802,-0.227164,0.563725,-0.004276,-0.005498,-0.026114
1765408072.512920,-9.915112,-0.186514,0.437590,-0.008705,-0.005498,-0.028711
1765408072.514958,-9.906742,-0.070540,0.235533,-0.011454,-0.012065,-0.034972
1765408072.515987,-9.970109,0.065758,0.303682,-0.007789,-0.017562,-0.026114
1765408072.519982,-10.015541,-0.098039,0.392157,-0.007025,-0.010843,-0.020769
1765408072.523003,-9.914514,-0.293520,0.326997,-0.013592,-0.010996,-0.024893
1765408072.525005,-9.862504,-0.307269,0.053204,-0.006872,-0.010996,-0.029016
1765408072.527948,-10.007172,-0.117767,0.288140,-0.006872,-0.013897,-0.029016
1765408072.528448,-10.113581,0.038259,0.569106,-0.003512,-0.007789,-0.026420
1765408072.532013,-9.992825,-0.029292,0.548780,-0.008399,-0.002443,-0.021380
1765408072.534954,-9.864896,-0.190100,0.242109,-0.011454,-0.018784,-0.023213
1765408072.536954,-10.081299,-0.217001,0.417862,-0.008247,-0.018784,-0.023824
1765408072.538025,-10.081299,-0.217001,0.417862,-0.008247,-0.009468,-0.023824
1765408072.543064,-10.001194,-0.365854,0.459110,-0.005803,-0.011301,-0.023518
1765408072.545006,-9.921089,-0.328192,0.367049,-0.009316,-0.011301,-0.028253
1765408072.548045,-9.910329,-0.257652,0.240316,-0.009010,-0.019395,-0.033139
1765408072.549921,-9.876852,-0.118364,0.162602,-0.004581,-0.021686,-0.033750
1765408072.552949,-9.867885,0.151841,0.096246,-0.003665,-0.013592,-0.031001
1765408072.554954,-9.884026,-0.016738,0.200861,-0.009468,-0.008705,-0.023824
1765408072.556023,-10.087276,-0.234338,0.665949,-0.006414,-0.014203,-0.020769
1765408072.560033,-10.087276,-0.234338,0.665949,-0.006414,-0.014508,-0.020769
1765408072.563043,-9.881036,-0.272597,0.174558,-0.006720,-0.013897,-0.028711
1765408072.563543,-9.780008,-0.094452,0.001793,-0.004581,-0.018479,-0.033292
1765408072.568031,-9.894786,-0.010163,0.284553,-0.005345,-0.016646,-0.028100
1765408072.568531,-9.979673,-0.037064,0.239120,-0.009774,-0.013439,-0.027642
1765408072.570972,-9.970706,-0.056193,0.178144,-0.008094,-0.004276,-0.023824
1765408072.574985,-9.942610,-0.159015,0.266619,-0.003971,-0.010232,-0.018479
1765408072.575997,-10.175752,-0.288140,0.700622,-0.005192,-0.010232,-0.024129
1765408072.577936,-10.215207,-0.287542,0.600789,-0.004734,-0.011301,-0.027794
1765408072.583020,-9.867885,-0.340746,0.099235,-0.005651,-0.011301,-0.028711
1765408072.584956,-9.741151,-0.112386,0.172166,-0.007941,-0.012370,-0.028711
1765408072.585999,-10.022716,-0.001196,0.583453,-0.008858,-0.013897,-0.033598
1765408072.590012,-10.138689,-0.096844,0.686274,-0.007330,-0.017868,-0.026267
1765408072.592996,-9.915112,-0.270206,0.174558,-0.005803,-0.020617,-0.024893
1765408072.595005,-9.857722,-0.445361,0.104017,-0.007941,-0.020617,-0.025504
1765408072.598036,-9.910329,-0.467480,0.127929,-0.003971,-0.018479,-0.032834
1765408072.600038,-10.100429,-0.197872,0.481827,-0.004276,-0.015730,-0.039706
1765408072.603009,-9.967119,0.118364,0.447154,-0.005803,-0.005956,-0.040164
1765408072.604950,-9.915112,0.092061,0.500956,-0.008247,-0.007025,-0.030085
1765408072.605927,-10.004781,-0.043042,0.388570,-0.009774,-0.020006,-0.025198
1765408072.609985,-10.083690,-0.204448,0.222382,-0.006109,-0.025045,-0.022907
1765408072.612953,-9.742945,-0.350909,-0.124342,-0.004734,-0.013592,-0.023824
1765408072.614984,-9.727402,-0.380201,0.120158,-0.004276,-0.009468,-0.027031
1765408072.616971,-9.842180,-0.182927,0.462697,-0.004276,-0.011301,-0.027031
1765408072.619949,-10.017933,0.089670,0.454926,-0.006414,-0.011148,-0.033903
1765408072.621973,-9.833811,-0.080105,-0.056193,-0.006109,-0.009621,-0.023366
1765408072.625054,-9.803921,-0.313845,0.191296,-0.004887,-0.007941,-0.021838
1765408072.627991,-10.159015,-0.396939,0.939742,-0.004887,-0.006720,-0.025809
1765408072.630001,-10.095646,-0.376614,0.734696,-0.003971,-0.010996,-0.033292
1765408072.631060,-9.930654,-0.124940,0.182927,-0.007483,-0.020617,-0.037415
1765408072.634933,-9.805116,0.060976,0.087279,-0.004734,-0.018326,-0.031307
1765408072.637986,-9.922883,-0.025108,0.428623,-0.006567,-0.018479,-0.025504
1765408072.638486,-10.015541,-0.190100,0.390961,-0.009316,-0.017257,-0.025504
1765408072.643066,-9.833811,-0.506934,-0.000598,-0.004734,-0.014966,-0.023671
1765408072.643566,-9.812887,-0.455524,0.141081,-0.001222,-0.009316,-0.030543
1765408072.648042,-10.080702,-0.052009,0.720349,-0.001527,-0.007789,-0.039706
1765408072.650060,-10.190099,0.141081,0.850072,-0.005651,-0.009927,-0.035736
1765408072.653049,-9.821855,0.037064,0.047824,-0.008399,-0.015119,-0.022449
1765408072.654963,-9.741750,-0.198470,-0.112386,-0.006567,-0.019853,-0.020464
1765408072.657950,-9.926469,-0.417862,0.406504,-0.003207,-0.016035,-0.020159
1765408072.659956,-10.139286,-0.448948,0.724534,-0.003512,-0.012370,-0.028558
1765408072.661002,-9.999999,-0.276781,0.322812,-0.004734,-0.004581,-0.035277
1765408072.665010,-9.787780,-0.090866,0.086083,-0.005192,-0.010690,-0.034819
1765408072.667975,-9.965326,-0.052606,0.464491,-0.002749,-0.011759,-0.028863
1765408072.670013,-10.142276,-0.153037,0.728120,-0.001985,-0.009468,-0.025504
1765408072.672991,-10.005379,-0.435796,0.385581,-0.005498,-0.012217,-0.026725
1765408072.675039,-9.883428,-0.375418,0.096844,-0.003360,-0.010843,-0.033139
1765408072.678018,-10.052606,-0.145265,0.461502,0.001069,-0.015882,-0.036499
1765408072.679987,-10.019128,-0.118962,0.539216,-0.001222,-0.008858,-0.033139
1765408072.681032,-9.966521,0.006576,0.296509,-0.006414,-0.014508,-0.035888
1765408072.682990,-9.807508,-0.008967,-0.105811,-0.004581,-0.012065,-0.029322
1765408072.688067,-9.782400,-0.365854,0.147657,0.000153,-0.007636,-0.022449
1765408072.690034,-10.102820,-0.349115,0.791487,-0.001985,-0.003971,-0.032223
1765408072.693024,-10.155428,-0.185318,0.800454,-0.006261,-0.006261,-0.035583
1765408072.694925,-9.942610,-0.011956,0.371832,-0.006414,-0.014355,-0.034819
1765408072.696986,-9.698708,-0.080703,-0.028694,-0.003818,-0.014355,-0.031001
1765408072.699969,-9.698708,-0.080703,-0.028694,-0.003818,-0.017104,-0.031001
1765408072.700983,-9.954566,-0.393352,0.326399,-0.003207,-0.010843,-0.034667
1765408072.705006,-9.946795,-0.389766,0.225968,-0.006109,-0.008705,-0.034056
1765408072.707977,-9.920491,-0.294118,0.387374,-0.004123,-0.010996,-0.036805
1765408072.709984,-10.051410,-0.133907,0.454328,-0.001680,-0.010996,-0.036346
1765408072.711955,-10.051410,-0.133907,0.454328,-0.001680,-0.012675,-0.036346
1765408072.712977,-10.055594,-0.199665,0.222979,-0.003054,-0.013286,-0.040012
1765408072.717947,-9.961740,-0.168580,0.164993,-0.001069,-0.008858,-0.033445
1765408072.719974,-9.988043,-0.215208,0.466284,-0.003207,-0.005956,-0.033139
1765408072.722021,-10.104015,-0.163199,0.612745,-0.003971,-0.006872,-0.035583
1765408072.724949,-10.034670,-0.148852,0.335964,-0.005192,-0.008705,-0.032070
1765408072.727949,-10.034670,-0.209230,0.175753,-0.001985,-0.011759,-0.032070
1765408072.729949,-10.092059,-0.347920,0.474653,0.000458,-0.011759,-0.026725
1765408072.732920,-10.149448,-0.389766,0.766380,0.001680,-0.010843,-0.032681
1765408072.734936,-10.042442,-0.168580,0.557747,-0.001069,-0.009316,-0.042302
1765408072.737030,-9.927068,0.014347,0.046628,-0.003512,-0.020769,-0.039554
1765408072.737964,-9.980869,-0.078910,0.181731,-0.005956,-0.019700,-0.030696
1765408072.742946,-9.973696,-0.309660,0.299498,0.003665,-0.015424,-0.032223
1765408072.744954,-10.020324,-0.514108,0.520086,-0.002138,-0.013744,-0.034667
1765408072.747083,-10.064561,-0.259445,0.397537,-0.003512,-0.014661,-0.042302
1765408072.750006,-10.023911,0.078910,0.236729,-0.000305,-0.016493,-0.040623
1765408072.751073,-9.924676,0.164395,0.217599,-0.002902,-0.013134,-0.034667
1765408072.755053,-10.087276,0.088474,0.459110,-0.006567,-0.011148,-0.025198
1765408072.758089,-10.087276,0.088474,0.459110,-0.006567,-0.011759,-0.025198
1765408072.759987,-9.849353,-0.627690,-0.004782,-0.004123,-0.008552,-0.029932
1765408072.764873,-9.854733,-0.392157,-0.004782,-0.000611,-0.008552,-0.041539
1765408072.765373,-9.854733,-0.392157,-0.004782,-0.000611,-0.001985,-0.041539
1765408072.767284,-9.984456,-0.009565,0.606169,-0.005803,-0.002596,-0.032223
1765408072.769945,-10.133906,-0.117169,0.842898,-0.005040,-0.008247,-0.029474
1765408072.772015,-10.056790,-0.463893,0.538020,-0.002596,-0.014355,-0.027642
1765408072.775964,-9.721423,-0.779531,-0.180536,-0.005651,-0.026420,-0.036194
1765408072.776464,-10.034073,0.054998,0.444763,-0.000305,-0.026878,-0.052382
1765408072.779946,-9.976088,0.029890,0.205643,-0.006109,-0.009774,-0.040012
1765408072.781991,-9.623982,-0.017336,-0.034672,-0.002596,-0.014203,-0.031918
1765408072.784959,-9.932447,-0.149450,0.338355,-0.000764,-0.010232,-0.030085
1765408072.788007,-10.309062,-0.315041,1.064682,-0.001527,-0.015119,-0.024435
1765408072.788507,-10.170371,-0.305476,0.331181,-0.004887,-0.018021,-0.033750
1765408072.793010,-9.912720,-0.332377,-0.039455,-0.004734,-0.021991,-0.032834
1765408072.795023,-9.868484,-0.316236,0.079507,-0.003207,-0.011606,-0.040928
1765408072.797947,-10.077712,-0.182927,0.624701,-0.000305,-0.002596,-0.034667
1765408072.799991,-10.114776,-0.209230,0.813008,-0.000611,-0.002596,-0.037263
1765408072.802013,-10.075322,-0.168580,0.436394,-0.005803,-0.013592,-0.036652
1765408072.804968,-10.053204,-0.203252,0.346126,-0.008094,-0.023518,-0.038943
1765408072.807929,-9.986250,-0.132712,0.309660,0.001985,-0.018173,-0.034819
1765408072.810967,-9.765661,-0.393950,0.149450,-0.003971,-0.016646,-0.031765
1765408072.812930,-9.933045,-0.194883,0.261836,-0.002749,-0.021533,-0.040775
1765408072.814918,-10.031085,-0.069943,0.343137,-0.004429,-0.019242,-0.036499
1765408072.817973,-10.035867,-0.037661,0.494978,-0.000458,-0.014661,-0.029627
1765408072.819951,-9.919893,-0.221186,0.229555,-0.004887,-0.016493,-0.029932
1765408072.822936,-9.919893,-0.221186,0.229555,-0.004887,-0.021380,-0.029932
1765408072.824965,-9.925871,-0.583453,-0.053802,-0.000458,-0.016799,-0.037568
1765408072.826005,-10.047822,-0.413080,0.444763,0.002291,-0.013134,-0.042608
1765408072.827945,-10.138689,-0.129125,0.741870,0.000153,-0.008399,-0.048106
1765408072.833012,-9.930654,0.004782,0.425634,-0.002596,-0.011912,-0.040164
1765408072.835014,-9.776422,-0.157819,0.060976,-0.003360,-0.021686,-0.032834
1765408072.838073,-9.971304,-0.417264,0.300096,0.000611,-0.024129,-0.032070
1765408072.840024,-10.105211,-0.414873,0.600191,0.002749,-0.015882,-0.037568
1765408072.842066,-9.956957,-0.147059,0.142276,-0.001222,-0.012523,-0.044135
1765408072.845033,-9.930654,-0.022716,0.340746,-0.001833,-0.017562,-0.039095
1765408072.847096,-10.076518,-0.007174,0.582257,0.001680,-0.016646,-0.032987
1765408072.848036,-9.901959,-0.332377,0.411884,0.000764,-0.020159,-0.026573
1765408072.852031,-9.775226,-0.393950,0.069943,-0.005651,-0.020006,-0.040012
1765408072.855062,-9.866092,-0.182927,0.087279,-0.003360,-0.013897,-0.040623
1765408072.857014,-10.044236,-0.186514,0.581062,0.000764,-0.013897,-0.034667
1765408072.858016,-10.032280,-0.391559,0.612147,-0.004123,-0.016188,-0.037110
1765408072.862162,-9.877449,-0.497967,0.255858,-0.004734,-0.018173,-0.044440
1765408072.864993,-9.862504,-0.272597,0.153037,-0.002443,-0.018937,-0.049786
1765408072.868826,-9.898373,0.013749,0.337159,-0.001680,-0.018021,-0.046578
1765408072.869326,-10.007172,0.057389,0.559541,-0.006872,-0.018021,-0.043219
1765408072.871043,-9.844571,-0.288140,0.318030,-0.004429,-0.013134,-0.034056
1765408072.874942,-9.758488,-0.396341,0.142276,-0.003207,-0.019395,-0.041844
1765408072.877968,-9.955761,-0.221186,0.301291,-0.005956,-0.019242,-0.047189
1765408072.879984,-9.989238,-0.126136,0.498565,-0.002749,-0.017410,-0.040317
1765408072.882032,-9.840983,-0.208034,0.301291,-0.005345,-0.015577,-0.042608
1765408072.885035,-9.840983,-0.208034,0.301291,-0.005345,-0.015730,-0.042608
1765408072.887954,-9.812290,-0.353898,0.234338,-0.008247,-0.020922,-0.043677
1765408072.889977,-9.989238,-0.218795,0.468077,-0.005192,-0.020922,-0.046884
1765408072.892964,-9.924078,-0.148254,0.399928,-0.001680,-0.014203,-0.046273
1765408072.893989,-9.664036,-0.298900,0.148254,-0.006720,-0.012523,-0.042455
1765408072.897996,-9.752509,-0.283357,0.138690,-0.001680,-0.021838,-0.051618
1765408072.900044,-9.903154,-0.162602,0.284553,-0.000916,-0.010690,-0.048411
1765408072.902099,-10.056790,0.029292,0.554758,-0.001680,-0.010690,-0.043524
1765408072.904954,-9.836202,-0.112386,0.190698,-0.004734,-0.005651,-0.036194
1765408072.906997,-9.780008,-0.498565,0.301291,-0.006414,-0.019700,-0.033903
1765408072.910002,-9.940218,-0.387972,0.333572,-0.002443,-0.017104,-0.050091
1765408072.913005,-9.825441,-0.199665,0.225371,-0.000305,-0.012828,-0.044593
1765408072.914996,-9.695121,-0.164395,0.126734,-0.002596,-0.012828,-0.046731
1765408072.917960,-9.906742,-0.166188,0.399330,-0.003054,-0.012675,-0.043982
1765408072.919975,-9.953370,-0.506934,0.447752,-0.004734,-0.012217,-0.039706
1765408072.922028,-10.035867,-0.375418,0.407700,-0.007483,-0.010690,-0.052840
1765408072.924932,-10.035867,-0.375418,0.407700,-0.007483,-0.003971,-0.052840
1765408072.925959,-9.955761,-0.246891,0.486011,-0.005345,-0.008247,-0.038943
1765408072.929941,-9.999999,-0.433405,0.285151,-0.005651,-0.019700,-0.045509
1765408072.932973,-10.025107,-0.291129,0.340148,-0.005040,-0.011759,-0.053145
1765408072.934968,-9.842180,-0.249283,0.267217,-0.004123,-0.011759,-0.050091
1765408072.937956,-9.842180,-0.249283,0.267217,-0.004123,-0.010996,-0.050091
1765408072.940059,-9.995216,-0.288140,0.490196,-0.009010,-0.014050,-0.041233
1765408072.942068,-9.878048,-0.559541,0.184122,-0.009010,-0.013744,-0.041233
1765408072.944985,-9.787182,-0.396939,-0.038259,-0.003360,-0.009774,-0.052840
1765408072.947996,-9.970706,-0.143472,0.509326,-0.002291,-0.009774,-0.051618
1765408072.950114,-9.970706,-0.143472,0.509326,-0.002291,-0.008858,-0.051618
1765408072.952027,-9.931850,-0.317432,0.361071,-0.005498,-0.012370,-0.041386
1765408072.954971,-9.858918,-0.450741,0.301889,-0.006261,-0.013439,-0.046578
1765408072.955962,-9.941415,-0.348517,0.285748,-0.001222,-0.021075,-0.049175
1765408072.960058,-9.939621,-0.362267,0.395744,-0.002902,-0.021075,-0.046731
1765408072.963013,-9.882233,-0.235533,0.156624,-0.001069,-0.017715,-0.051007
1765408072.964795,-9.844571,-0.298900,0.190100,-0.004123,-0.009468,-0.045051
1765408072.967058,-9.767454,-0.483022,0.236729,-0.004581,-0.009468,-0.049633
1765408072.970050,-9.998206,-0.377212,0.396939,-0.002291,-0.013286,-0.051160
1765408072.972039,-10.019128,-0.340746,0.368245,-0.002291,-0.011454,-0.049022
1765408072.975004,-10.047822,-0.169177,0.484816,0.000000,-0.006720,-0.049022
1765408072.978032,-9.974891,-0.160210,0.468077,0.000611,-0.003512,-0.043524
1765408072.980037,-9.958751,-0.303682,0.453132,-0.005803,-0.014813,-0.041692
1765408072.982949,-9.958751,-0.303682,0.453132,-0.005803,-0.016493,-0.041692
1765408072.984969,-9.763269,-0.487805,-0.056193,-0.001527,-0.018173,-0.042608
1765408072.987022,-10.065758,-0.310258,0.554758,0.001985,-0.004123,-0.049786
1765408072.989968,-10.266019,-0.301291,0.821377,-0.001222,0.001680,-0.041081
1765408072.992000,-10.032280,-0.602582,0.264228,-0.003971,-0.011454,-0.038026
1765408072.994991,-10.032280,-0.602582,0.264228,-0.003971,-0.017715,-0.038026
1765408072.997012,-10.013150,-0.341344,0.457915,0.002443,-0.001680,-0.052993
1765408072.999968,-10.180533,-0.219990,0.818986,0.004734,0.000305,-0.047647
1765408073.002953,-10.131515,-0.195481,0.627690,0.001527,-0.007636,-0.046120
1765408073.004999,-9.989238,-0.332377,0.196078,-0.002291,-0.014050,-0.043066
1765408073.005968,-9.870873,-0.454328,0.065758,0.004429,-0.017410,-0.040623
1765408073.009921,-9.959349,-0.490196,0.522477,0.003360,-0.012217,-0.043677
1765408073.012914,-10.083092,-0.355093,0.586442,0.005345,-0.008399,-0.046426
1765408073.013414,-9.779410,-0.548780,0.021521,0.000764,-0.022602,-0.041692
1765408073.018026,-9.823050,-0.481229,0.131516,0.007636,-0.022602,-0.052229
1765408073.018526,-10.208632,-0.136298,0.841105,0.006261,-0.010996,-0.053756
1765408073.023025,-10.102820,-0.181731,0.655189,0.002443,-0.012981,-0.042455
1765408073.023525,-9.823050,-0.224773,-0.023912,0.001833,-0.020922,-0.045815
1765408073.027987,-9.878646,-0.343735,0.215208,0.003512,-0.025198,-0.041539
1765408073.028487,-10.002987,-0.368245,0.581659,0.005345,-0.014508,-0.041997
1765408073.032927,-9.920491,-0.301889,0.416667,0.006261,-0.019242,-0.041844
1765408073.035023,-9.739956,-0.351506,-0.025108,-0.002902,-0.020617,-0.046578
1765408073.037963,-9.905546,-0.365854,0.117169,-0.001069,-0.019548,-0.048258
1765408073.039940,-9.945002,-0.320421,0.347322,0.000764,-0.014661,-0.043982
1765408073.042956,-10.017933,-0.193089,0.603180,0.001680,-0.009316,-0.048564
1765408073.043456,-9.757292,-0.300096,0.136298,-0.002138,-0.007941,-0.043677
1765408073.048013,-9.850550,-0.269010,0.172166,0.001222,-0.020464,-0.044593
1765408073.049969,-10.001792,-0.069345,0.413678,-0.000305,-0.009621,-0.043677
1765408073.052033,-10.013150,-0.178144,0.643233,0.005803,-0.007025,-0.031001
1765408073.053078,-9.873863,-0.519488,0.333572,-0.002291,-0.012065,-0.035583
1765408073.058006,-10.064561,-0.527857,0.628886,-0.000611,-0.017868,-0.042302
1765408073.059957,-10.014346,-0.570899,0.395744,0.002443,-0.015882,-0.042302
1765408073.062970,-9.735771,-0.571497,-0.068747,0.004276,-0.021838,-0.045204
1765408073.065046,-9.849353,-0.350311,0.209230,0.000458,-0.016493,-0.057727
1765408073.067036,-10.065758,-0.233740,0.759206,0.002443,-0.008094,-0.050702
1765408073.068032,-9.990434,-0.367647,0.601387,0.003971,-0.012370,-0.042913
1765408073.072099,-9.978478,-0.301291,0.405906,0.004581,-0.014355,-0.050855
1765408073.075026,-9.851745,-0.360473,0.127929,0.005345,-0.014355,-0.045051
1765408073.077038,-9.887612,-0.349115,0.445959,0.006872,-0.016799,-0.041692
1765408073.078046,-9.907937,-0.484816,0.536824,0.006261,-0.010843,-0.045051
1765408073.082976,-9.788378,-0.517097,0.273792,0.006261,-0.014661,-0.045051
1765408073.084985,-9.679578,-0.347920,-0.093257,0.004581,-0.012828,-0.055741
1765408073.087947,-9.790769,-0.263630,0.210426,0.005498,-0.012828,-0.049327
1765408073.089993,-9.962935,-0.416069,0.523673,0.003360,-0.004887,-0.050396
1765408073.092979,-9.877449,-0.457915,0.352104,0.002902,-0.008399,-0.050855
1765408073.093479,-9.837397,-0.292922,0.215208,0.004581,-0.009621,-0.053451
1765408073.097953,-9.881036,-0.035868,0.332975,0.007636,-0.007789,-0.050855
1765408073.099948,-10.132113,-0.166188,0.948709,0.003818,-0.003818,-0.043371
1765408073.102963,-10.008368,-0.394548,0.585246,0.001985,-0.005956,-0.039859
1765408073.105009,-9.777020,-0.504543,-0.067551,-0.001374,-0.019242,-0.043982
1765408073.107949,-9.930654,-0.239120,0.080703,0.001222,-0.012370,-0.054520
1765408073.109966,-9.930654,-0.239120,0.080703,0.001222,-0.002443,-0.054520
1765408073.113022,-10.114776,-0.619321,0.872190,0.002443,-0.001833,-0.044135
1765408073.115022,-9.955761,-0.449546,0.284553,-0.003054,-0.005803,-0.053451
1765408073.117034,-9.961740,-0.221186,0.312052,0.000611,-0.010232,-0.052993
1765408073.120006,-10.057388,-0.148254,0.529053,0.005956,-0.010232,-0.044899
1765408073.121065,-10.043041,-0.498565,0.616930,0.005192,-0.007636,-0.033903
1765408073.125054,-9.897178,-0.778336,0.369440,-0.001069,-0.008858,-0.045815
1765408073.127035,-9.962935,-0.522477,0.159613,0.004123,-0.012675,-0.053145
1765408073.130030,-9.999999,-0.443568,0.320421,0.010079,-0.009316,-0.045662
1765408073.132027,-9.892395,-0.532640,0.304280,0.004581,-0.009316,-0.051771
1765408073.135013,-10.004781,-0.370038,0.748446,0.004581,-0.007789,-0.051771
1765408073.137963,-9.698708,-0.350311,0.009565,0.004123,-0.013439,-0.052993
1765408073.140067,-10.060376,-0.188905,0.322214,0.006872,-0.027031,-0.051465
1765408073.141998,-10.076518,-0.414873,0.496772,0.002291,-0.009468,-0.045662
1765408073.145230,-9.992825,-0.588235,0.585844,0.006720,-0.006720,-0.046273
1765408073.148034,-9.806910,-0.451937,0.273792,0.008858,-0.011606,-0.057574
1765408073.149989,-10.004184,-0.180536,0.359278,0.006567,-0.019853,-0.055894
1765408073.150944,-9.946198,-0.227164,0.112386,0.004734,-0.019853,-0.045357
1765408073.154969,-9.967119,-0.506934,0.285748,0.004734,-0.019700,-0.045357
1765408073.157980,-9.897178,-0.631277,0.297704,0.006109,-0.009621,-0.048411
1765408073.160025,-9.936632,-0.451339,0.272597,0.007025,-0.016646,-0.052993
1765408073.163006,-10.062170,-0.069943,0.409493,0.004581,-0.017562,-0.056658
1765408073.164947,-10.118362,0.028694,0.457915,0.011606,-0.010690,-0.040470
1765408073.165993,-10.118362,0.028694,0.457915,0.011606,-0.005498,-0.040470
1765408073.170035,-10.074127,-0.637255,0.581062,0.003665,-0.018173,-0.043830
1765408073.173003,-10.288138,-0.551172,0.734098,-0.000305,-0.018021,-0.052687
1765408073.175172,-10.014346,-0.359876,0.239120,0.008247,-0.017868,-0.050702
1765408073.178045,-9.878048,-0.435796,0.012554,0.008247,-0.027642,-0.051924
1765408073.180148,-9.959349,-0.409493,0.358680,0.003054,-0.026267,-0.056658
1765408073.182969,-10.025107,-0.264228,0.322812,0.004581,-0.018326,-0.055283
1765408073.184970,-9.735771,-0.219990,0.027499,0.006261,-0.015577,-0.049938
1765408073.187985,-10.037063,-0.151841,0.584648,0.005192,-0.011148,-0.051313
1765408073.190048,-10.062170,-0.474055,0.609756,0.006567,-0.011148,-0.041844
1765408073.191002,-10.043041,-0.765184,0.474653,0.004887,-0.022755,-0.049786
1765408073.194919,-9.998802,-0.487805,0.362267,0.004429,-0.019853,-0.057421
1765408073.197977,-9.965326,-0.321019,0.296509,0.004887,-0.018631,-0.058796
1765408073.198477,-10.099234,-0.282162,0.487805,0.003207,-0.023518,-0.060323
1765408073.202996,-9.940218,-0.203850,0.303085,0.007636,-0.021991,-0.059407
1765408073.204997,-9.781802,-0.148254,0.088474,0.004123,-0.018631,-0.059101
1765408073.206040,-9.868484,0.013152,0.191296,0.001985,-0.018937,-0.057269
1765408073.210021,-10.214609,-0.373027,0.949306,0.003207,-0.015424,-0.047953
1765408073.211916,-10.148253,-0.663558,0.818388,0.003360,-0.014966,-0.052993
1765408073.212947,-9.913916,-0.456719,0.186514,0.004123,-0.024893,-0.062003
1765408073.217960,-9.809898,-0.186514,0.004782,0.001374,-0.029169,-0.061392
1765408073.219911,-10.001194,-0.092061,0.360473,0.004734,-0.024282,-0.054520
1765408073.222962,-10.009563,-0.297107,0.609756,0.004887,-0.015577,-0.050244
1765408073.223954,-9.919893,-0.317432,0.380201,0.003818,-0.013744,-0.057879
1765408073.227991,-9.840386,-0.328790,0.245098,0.000764,-0.022602,-0.051771
1765408073.229989,-9.833811,-0.509326,0.360473,0.004581,-0.027489,-0.053145
1765408073.233032,-9.901362,-0.492587,0.514108,0.001374,-0.021380,-0.060934
1765408073.235016,-9.788976,-0.404113,0.377810,0.002291,-0.017104,-0.060170
1765408073.238015,-9.708273,-0.375418,0.191894,-0.001527,-0.028863,-0.063683
1765408073.239979,-9.863700,-0.356289,0.295313,-0.001833,-0.026573,-0.064294
1765408073.242951,-9.744141,-0.357484,0.112984,0.001222,-0.018173,-0.061850
1765408073.244938,-9.696915,-0.324008,0.181731,-0.000916,-0.013897,-0.065210
1765408073.246034,-9.912720,-0.227762,0.643233,-0.000611,-0.011606,-0.063683
1765408073.249989,-9.867287,-0.367049,0.490196,-0.001985,-0.012523,-0.057727
1765408073.252045,-9.626971,-0.483022,0.086083,-0.003207,-0.022297,-0.059407
1765408073.255040,-10.028095,-0.388570,0.752032,-0.002902,-0.012981,-0.066279
1765408073.258042,-9.989238,-0.502152,0.769966,-0.004123,-0.009927,-0.059712
1765408073.259992,-9.850550,-0.566117,0.104017,-0.003971,-0.024129,-0.063225
1765408073.262010,-9.846962,-0.364658,-0.080105,-0.002596,-0.026114,-0.068875
1765408073.264954,-10.008368,-0.282162,0.431014,0.000000,-0.009316,-0.063683
1765408073.268035,-10.169774,-0.192492,1.010282,0.004429,-0.007941,-0.056352
1765408073.270111,-9.901959,-0.499761,0.200861,-0.008552,-0.012981,-0.053145
1765408073.273004,-9.867287,-0.684481,0.135103,-0.008094,-0.020464,-0.057421
1765408073.274983,-10.149448,-0.456719,0.732305,0.004276,-0.005040,-0.057269
1765408073.277020,-10.074724,-0.647417,0.882951,0.005345,-0.005345,-0.048258
1765408073.280392,-10.217000,-0.593018,0.911047,-0.008094,-0.016035,-0.065668
1765408073.282939,-10.032280,-0.431612,0.321019,-0.003512,-0.020159,-0.064904
1765408073.284959,-9.591104,-0.511717,-0.240316,0.001527,-0.026420,-0.054825
1765408073.287952,-9.745336,-0.389766,0.020923,-0.000153,-0.022449,-0.064294
1765408073.290028,-10.195478,-0.423242,1.007891,0.000458,-0.008552,-0.053298
1765408073.292993,-10.008368,-0.871592,0.714969,0.003207,-0.008552,-0.052534
1765408073.294988,-9.891200,-0.815997,0.153037,0.004123,-0.025198,-0.065515
1765408073.298059,-9.857125,-0.694644,0.019130,0.001527,-0.022602,-0.070097
1765408073.300053,-10.077712,-0.381396,0.606169,0.010996,-0.009316,-0.062003
1765408073.303004,-9.958152,-0.448350,0.707795,0.006720,-0.017257,-0.057727
1765408073.303504,-9.933045,-0.618125,0.365256,-0.007483,-0.017257,-0.065515
1765408073.307047,-9.933045,-0.618125,0.365256,-0.007483,-0.020006,-0.065515
1765408073.309951,-9.835006,-0.478240,0.082496,0.010232,-0.015882,-0.057421
1765408073.312915,-10.028693,-0.425634,0.711382,0.004887,-0.003054,-0.060628
1765408073.314949,-10.277378,-0.597800,1.019249,0.000611,0.001069,-0.060476
1765408073.315928,-10.017933,-0.755021,0.474055,0.009010,-0.007789,-0.058948
1765408073.319945,-10.017933,-0.755021,0.474055,0.009010,-0.021991,-0.058948
1765408073.322982,-9.885221,-0.377810,0.173362,0.003971,-0.012675,-0.070097
1765408073.323482,-9.845766,-0.121353,0.150646,0.005651,-0.012675,-0.062614
1765408073.327932,-9.998802,-0.347322,0.665949,0.005651,-0.006720,-0.052229
1765408073.329970,-10.052606,-0.370038,0.668340,0.003665,-0.007941,-0.050244
1765408073.332072,-9.817072,-0.707795,0.089670,0.002596,-0.016493,-0.050549
1765408073.334957,-9.818267,-0.638450,0.110593,0.008399,-0.013439,-0.053909
1765408073.338017,-9.806311,-0.675514,0.469871,0.011301,-0.013439,-0.052382
1765408073.338517,-9.906742,-0.667145,0.564323,0.008094,-0.009163,-0.058948
1765408073.342946,-9.803921,-0.491392,0.148254,0.010079,-0.024740,-0.061850
1765408073.344995,-9.695121,-0.351506,-0.064562,0.007789,-0.018631,-0.052840
1765408073.348079,-9.813485,-0.426829,0.223577,0.011148,-0.002443,-0.047342
1765408073.348579,-10.148851,-0.679101,0.846485,0.007330,-0.002443,-0.048869
1765408073.353027,-10.035867,-0.830942,0.427427,0.012523,-0.008094,-0.049938
1765408073.355050,-9.916306,-0.890124,0.288737,0.011301,-0.019548,-0.055131
1765408073.357950,-10.178144,-0.609756,0.796867,0.014966,-0.019548,-0.066737
1765408073.359032,-10.178144,-0.609756,0.796867,0.014966,-0.017868,-0.066737
1765408073.363004,-9.835006,-0.513510,0.101626,0.011759,-0.026114,-0.061545
1765408073.365025,-10.001792,-0.218795,0.203252,0.015577,-0.012065,-0.061545
1765408073.366987,-9.995216,-0.494381,0.459708,0.021228,-0.019090,-0.043066
1765408073.370127,-9.998802,-0.707795,0.521282,0.011912,-0.013744,-0.056200
1765408073.372252,-9.998802,-0.707795,0.521282,0.011912,-0.009163,-0.056200
1765408073.375029,-9.808105,-0.503945,0.269010,0.012523,-0.010079,-0.057727
1765408073.377055,-9.857722,-0.325203,0.344333,0.018937,-0.029322,-0.052229
1765408073.380077,-9.913916,-0.301889,0.492587,0.013897,-0.016188,-0.054062
1765408073.383102,-9.854136,-0.450741,0.371832,0.017104,-0.019242,-0.047495
1765408073.385040,-9.562408,-0.598398,-0.264228,0.010996,-0.016799,-0.051465
1765408073.387977,-9.848158,-0.591822,0.040650,0.014203,-0.022144,-0.053756
1765408073.389020,-9.988043,-0.733501,0.671927,0.014355,0.001374,-0.051924
1765408073.393033,-9.878048,-0.878766,0.604376,0.017562,-0.004276,-0.053451
1765408073.394993,-9.791367,-0.747250,0.307269,0.010996,-0.018631,-0.067195
1765408073.397025,-9.977283,-0.283357,0.369440,0.015424,-0.023824,-0.072540
1765408073.400038,-9.828429,-0.190100,0.106408,0.019853,-0.013592,-0.052993
1765408073.403013,-9.788976,-0.509326,0.164993,0.019242,-0.013134,-0.051313
1765408073.405004,-9.911524,-0.747250,0.368245,0.010690,-0.005040,-0.058490
1765408073.407980,-9.980869,-0.700622,0.469273,0.017562,-0.005040,-0.058796
1765408073.409935,-9.872069,-0.474653,0.184122,0.018937,-0.002138,-0.062461
1765408073.412028,-9.994021,-0.350909,0.676112,0.016035,0.000458,-0.056505
1765408073.414956,-10.080104,-0.554161,0.792683,0.016799,-0.003207,-0.051771
1765408073.417991,-10.080104,-0.554161,0.792683,0.016799,-0.011606,-0.051771
1765408073.419972,-9.832614,-0.416069,-0.086083,0.016952,-0.018937,-0.059254
1765408073.422972,-10.002987,-0.364060,0.404113,0.019090,-0.012370,-0.056047
1765408073.423472,-10.108798,-0.521282,0.730512,0.020922,-0.005498,-0.049938
1765408073.427982,-10.144667,-0.745457,0.770564,0.019700,-0.005498,-0.053756
1765408073.429982,-9.863102,-0.626494,0.147657,0.019700,-0.007483,-0.053756
1765408073.432970,-10.080104,-0.148852,0.637255,0.022602,-0.010079,-0.065821
1765408073.435010,-9.764465,-0.283357,0.297107,0.020006,-0.004429,-0.048869
1765408073.437061,-10.005977,-0.451339,0.499761,0.014203,-0.020311,-0.057116
1765408073.440010,-9.998802,-0.603180,0.290531,0.012065,-0.008247,-0.058185
1765408073.442987,-9.839788,-0.609756,0.117169,0.016646,-0.013286,-0.058796
1765408073.444963,-9.976088,-0.477044,0.251076,0.015119,-0.014203,-0.066432
1765408073.446990,-10.221185,-0.450741,0.839311,0.008858,-0.006567,-0.065057
1765408073.448010,-10.235533,-0.433405,0.818986,0.011759,-0.002596,-0.066737
1765408073.452989,-9.895982,-0.254663,0.303682,0.016493,-0.012217,-0.064752
1765408073.454997,-9.979673,-0.445361,0.131516,0.003512,-0.028100,-0.066890
1765408073.456038,-10.065758,-0.480631,0.214012,0.012675,-0.016952,-0.064904
1765408073.459934,-10.015541,-0.622908,0.345528,0.016646,-0.009468,-0.058032
1765408073.461994,-9.784791,-0.624103,0.090866,0.008552,-0.016646,-0.067195
1765408073.465072,-10.160210,-0.448350,0.722740,0.008247,-0.016646,-0.076816
1765408073.467985,-10.106407,-0.357484,0.747250,0.015882,-0.001527,-0.069791
1765408073.469941,-10.040649,-0.320421,0.618125,0.015730,-0.026114,-0.064294
1765408073.475570,-9.890003,-0.468675,0.221186,0.005956,-0.023060,-0.063988
1765408073.475903,-9.844571,-0.558345,0.052606,0.008247,-0.028863,-0.064294
1765408073.476237,-9.874461,-0.625299,-0.046628,0.014050,-0.024435,-0.064904
1765408073.478076,-9.989238,-0.541607,0.376614,0.014050,-0.016035,-0.064904
1765408073.483041,-10.040649,-0.479436,0.777738,0.011606,-0.018479,-0.070555
1765408073.484974,-9.887015,-0.560736,0.590626,0.010843,-0.018479,-0.067653
1765408073.488019,-9.998802,-0.413678,0.365854,0.006414,-0.027031,-0.077274
1765408073.490092,-9.949186,-0.288737,0.255858,0.007789,-0.025656,-0.072693
1765408073.493054,-9.949186,-0.288737,0.255858,0.007789,-0.017868,-0.072693
1765408073.495055,-9.872667,-0.551172,0.259445,0.013134,-0.018937,-0.066279
1765408073.497914,-9.880439,-0.718556,0.108800,0.002443,-0.018937,-0.075136
1765408073.500008,-9.849353,-0.630081,0.141081,0.009010,-0.017257,-0.075595
1765408073.502920,-9.958152,-0.493783,0.576877,0.012523,-0.003971,-0.074373
1765408073.503420,-10.039454,-0.318030,1.009086,0.010537,-0.011148,-0.074526
1765408073.505998,-9.884026,-0.344333,0.453730,0.002291,-0.022449,-0.075136
1765408073.509932,-9.655666,-0.493783,0.039455,0.006261,-0.022449,-0.064904
1765408073.512975,-9.629960,-0.735294,0.065758,0.008552,-0.023824,-0.063377
1765408073.514978,-9.791367,-0.754424,0.412482,0.007941,-0.020922,-0.070555
1765408073.515989,-9.789574,-0.579866,0.338355,0.007789,-0.017257,-0.077274
1765408073.518010,-9.739358,-0.399928,0.326997,0.008399,-0.014813,-0.069944
1765408073.523012,-9.647297,-0.560736,0.205643,0.005192,-0.014813,-0.060018
1765408073.524973,-9.984456,-0.450741,0.734098,0.008399,-0.019853,-0.063377
1765408073.527972,-9.811094,-0.664754,0.370636,0.005345,-0.019548,-0.058338
1765408073.529957,-9.654470,-0.921808,0.111191,0.003207,-0.019548,-0.063835
1765408073.532995,-9.654470,-0.921808,0.111191,0.003207,-0.022297,-0.063835
1765408073.535015,-10.094451,-0.823768,0.694644,0.008858,-0.016646,-0.075595
1765408073.538034,-9.876254,-0.614538,0.367049,0.004887,-0.001985,-0.079565
1765408073.539990,-10.069344,-0.435796,0.914634,0.003818,-0.009621,-0.076969
1765408073.541964,-10.001194,-0.521879,0.674318,0.002596,-0.009621,-0.068570
1765408073.543926,-10.001194,-0.521879,0.674318,0.002596,-0.023366,-0.068570
1765408073.547921,-9.733380,-0.970827,0.108800,0.008399,-0.019700,-0.077580
1765408073.550086,-9.979075,-0.807030,0.494978,0.012370,-0.008705,-0.075289
1765408073.551967,-9.881036,-0.817790,0.482425,0.015272,-0.007941,-0.074526
1765408073.552935,-9.944403,-0.494381,0.393950,0.012065,-0.007941,-0.082314
1765408073.557070,-10.010758,-0.434601,0.921210,0.014661,0.001833,-0.066126
1765408073.559948,-9.907937,-0.779531,0.768771,0.021075,-0.020006,-0.057727
1765408073.562998,-9.870873,-0.768771,0.380201,0.015882,-0.020006,-0.067042
1765408073.563498,-9.791367,-0.832138,0.019727,0.011606,-0.024435,-0.071013
1765408073.567117,-9.690338,-0.725729,-0.010163,0.018937,-0.014813,-0.067195
1765408073.569964,-9.948587,-0.581062,0.530846,0.016341,-0.007789,-0.069333
1765408073.572941,-10.180533,-0.601387,0.769966,0.014813,-0.000764,-0.066584
1765408073.574985,-10.149448,-0.775347,0.706600,0.016646,-0.008247,-0.061697
1765408073.578049,-10.149448,-0.775347,0.706600,0.016646,-0.008858,-0.061697
1765408073.579011,-10.040649,-0.767575,0.519488,0.018784,-0.016799,-0.065973
1765408073.584812,-10.102820,-0.875179,0.555356,0.016646,-0.015577,-0.068417
1765408073.585312,-10.038258,-0.876375,0.364658,0.019700,-0.011148,-0.070250
1765408073.587970,-9.796746,-0.743663,-0.023314,0.018326,-0.012370,-0.071777
1765408073.589951,-9.796746,-0.743663,-0.023314,0.018326,-0.013592,-0.071777
1765408073.593003,-10.210424,-0.515304,0.785509,0.021380,-0.008705,-0.065821
1765408073.593503,-10.014943,-0.740674,0.376614,0.021686,-0.010079,-0.059101
1765408073.597934,-10.063366,-0.694644,0.520684,0.021991,-0.013286,-0.067806
1765408073.600000,-9.965326,-0.853658,0.419656,0.019090,-0.007483,-0.065057
1765408073.602962,-9.908535,-0.893711,0.206241,0.019090,-0.021686,-0.065057
1765408073.604936,-9.887612,-0.533835,0.114180,0.022602,-0.009621,-0.079107
1765408073.607959,-9.861309,-0.163797,0.319823,0.026267,-0.009774,-0.066432
1765408073.609014,-9.912122,-0.252272,0.381994,0.021533,-0.011301,-0.060323
1765408073.612976,-10.105211,-0.530846,0.691057,0.019242,-0.011301,-0.056505
1765408073.614948,-9.843375,-1.028216,0.239120,0.017562,-0.007636,-0.053909
1765408073.617938,-9.733380,-0.905667,-0.086083,0.023213,-0.020311,-0.067653
1765408073.619949,-9.813485,-0.655787,0.308465,0.018173,-0.012370,-0.072693
1765408073.621977,-10.074127,-0.362865,0.722740,0.021838,-0.008705,-0.070402
1765408073.622947,-9.833811,-0.273195,0.314443,0.021991,-0.008705,-0.054978
1765408073.627941,-10.010161,-0.663558,0.712578,0.016646,-0.019548,-0.056200
1765408073.628441,-9.906742,-0.807628,0.460306,0.020006,-0.022602,-0.060170
