time,acc_x_g,acc_y_g,acc_z_g,gyro_x_rad_s,gyro_y_rad_s,gyro_z_rad_s
1765408071.344264,-6.962229083687606,-4.821374673410326,5.4829973020076,-0.011963510371106184,-0.005090269249608982,-0.002485657125748146
1765408071.344464,-6.998008562791466,-4.846484301799019,5.505478988136127,-0.012675344956929452,-0.0052477698822289065,-0.0021900885131002335
1765408071.344664,-7.0345964869173665,-4.872899710177359,5.527841846892267,-0.01331096855887666,-0.005500528016864929,-0.0019799007319231936
1765408071.344864,-7.071263643342498,-4.901709371715546,5.550582769505839,-0.013729745619695704,-0.005867088124489944,-0.0018536129094702037
1765408071.345067,-7.107004273572201,-4.933852468840667,5.573976690879189,-0.013783448664123864,-0.006359928125663541,-0.0018021078414628103
1765408071.345317,-7.140534994621445,-4.970052314643059,5.598036602734383,-0.013321077997899396,-0.006983836809508432,-0.0018078010700134579
1765408071.345567,-7.170314809457153,-5.010766118266915,5.622496873756513,-0.012194170121813355,-0.007734439395164089,-0.0018441245483940456
1765408071.345817,-7.194587545071448,-5.056155052797512,5.646821930151802,-0.01026240894444004,-0.008596961140313174,-0.0018753853992252883
1765408071.346126,-7.211446313481949,-5.106077187217216,5.670240169927708,-0.00739930476164372,-0.009545325562315464,-0.001857049559844943
1765408071.346326,-7.218917691003124,-5.160104031761534,5.691800713000936,-0.0034976650948531857,-0.010541682769561288,-0.0017364895968637521
1765408071.346526,-7.215061429335018,-5.21755931784831,5.710448387066395,0.0015254482823265822,-0.011536453677898722,-0.0014542220923157826
1765408071.346726,-7.198079879651583,-5.277576454462221,5.725110467133024,0.007724594598620717,-0.012468958167587496,-0.0009456377898882764
1765408071.346926,-7.16643010156408,-5.339169216553912,5.734787329331578,0.015122969320868696,-0.013268668056757584,-0.0001431944170069122
1765408071.347027,-7.1189308835739284,-5.401308954758276,5.738638460996586,0.023710826441409736,-0.013857087148575736,0.0010210003124429148
1765408071.347277,-7.054856660809223,-5.463001193811111,5.736055344000176,0.033445500719880915,-0.014150211810038239,0.0026123323681460225
1765408071.347527,-6.974010716950554,-5.523354946739087,5.726713805046955,0.04425311771414708,-0.014061470282240366,0.004690705189302558
1765408071.347777,-6.876771220064115,-5.581639219277695,5.7106005650924105,0.05603195117781675,-0.013504982553037633,0.0073076184246775484
1765408071.348018,-6.7641055798573095,-5.637322679849887,5.68801170041463,0.06865724562834324,-0.012398934980302243,0.010503480236306578
1765408071.348268,-6.637551232797934,-5.690094093704557,5.6595240490696455,0.08198718311306137,-0.01066883836536337,0.014305319825092514
1765408071.348518,-6.499163942461751,-5.73986287839154,5.625943515641597,0.09586956536720893,-0.008250444451917482,0.01872504245319855
1765408071.348768,-6.351437502156173,-5.7867410737827285,5.588236129437291,0.11014873272985093,-0.00509213356395189,0.023758333649801264
1765408071.349157,-6.197200961799441,-5.83100989756603,5.547448693677184,0.12467225541865981,-0.0011566436122065061,0.029384271991481137
1765408071.349357,-6.039501130857525,-5.873075422752009,5.504626526295134,0.13929699375776286,0.0035779318487259896,0.0355656541274429
1765408071.349557,-5.881479034981511,-5.913418422579022,5.460736201962972,0.1538942081408613,0.00911790659155706,0.042249981176912546
1765408071.349757,-5.726248919416773,-5.952543040541065,5.4166006846388095,0.16835349080575576,0.015454523427109656,0.04937101258898501
1765408071.349957,-5.576787307722489,-5.99092794846324,5.372852487056371,0.18258538263103502,0.02256518856341193,0.0568507686121362
1765408071.35,-5.435838021579711,-6.028982579315937,5.329908084899127,0.19652262875709747,0.030415307509343903,0.06460185939253842
1765408071.35025,-5.305837285812606,-6.067010312284823,5.287964324302655,0.2101201182039362,0.038960543005396524,0.07253003484983984
1765408071.3505,-5.188861074118569,-6.105180167894477,5.247015173960198,0.2233536399737569,0.04814927177243972,0.08053687221501138
1765408071.35075,-5.086594881370347,-6.143508279135381,5.206885353115712,0.2362176613306134,0.05792501149362288,0.08852253394668057
1765408071.351049,-5.000324574195415,-6.181849849584402,5.167276697284919,0.24872238406693858,0.06822861834134897,0.09638853471526138
1765408071.351299,-4.9309459126493245,-6.219901620970395,5.127823239831838,0.2608903551588723,0.07900010672269095,0.10404045566651408
1765408071.351549,-4.878989362956272,-6.2572143696746885,5.088150835519875,0.27275289876289316,0.09018000229634242,0.1113905371462899
1765408071.351799,-4.844655875204903,-6.293214596708082,5.04793646298011,0.2843466064276523,0.10171019341063317,0.11836006526573377
1765408071.35207,-4.827858820054939,-6.327233937475143,5.006961895065303,0.2957100821001255,0.11353429074247373,0.12488144790757655
1765408071.35232,-4.82826750191129,-6.358543736225661,4.965156816500714,0.30688108918595264,0.1255975473734842,0.13089986772927342
1765408071.35257,-4.845348337768578,-6.386391268844656,4.922627525853506,0.3178941893166919,0.13784643819636666,0.13637442052959758
1765408071.35282,-4.878400680976262,-6.410034002338842,4.879668856002272,0.32877890882242494,0.1502280400027968,0.14127869788469524
1765408071.353076,-4.926585424821647,-6.428769116726314,4.836758949126315,0.33955843268928054,0.16268937438787695,0.14560083361012846
1765408071.353326,-4.988945860864769,-6.441956747689616,4.794538703511068,0.3502488041717207,0.17517686548351077,0.149343082053866
1765408071.353576,-5.064421420240212,-6.449036688610439,4.753779187791664,0.3608585879705954,0.18763602755648626,0.15252102341914311
1765408071.353826,-5.151855656471123,-6.449539625415015,4.715340647998076,0.3713889331468115,0.20001144420362077,0.1551624972613093
1765408071.354,-5.250000279231711,-6.443095140376735,4.680126433635377,0.3818339587786976,0.2122470435488342,0.15730634966123327
1765408071.35425,-5.357517447485205,-6.429439103434732,4.6490349133999125,0.39218138692263405,0.22428662528100773,0.15900104493000497
1765408071.3545,-5.472982835158615,-6.408422334360927,4.6229122387850685,0.40241335953375873,0.23607456596214893,0.16030315306048842
1765408071.35475,-5.594891883165188,-6.38002097549524,4.602508218295915,0.4125073933256384,0.24755662186446084,0.1612757002353954
1765408071.355003,-5.721670938087772,-6.34434765415542,4.588436503096924,0.4224374443326484,0.25868075846748206,0.16198637128047594
1765408071.355253,-5.851693912208409,-6.301661728513197,4.581139369536429,0.4321750628054392,0.2693979571452857,0.1625055710155712
1765408071.355503,-5.983304219668603,-6.252376669340603,4.5808573966057295,0.44169061298085155,0.27966298265989803,0.16290437231285024
1765408071.355753,-6.114841241182185,-6.197062676648988,4.587605234793666,0.4509545193494465,0.2894351350549272,0.16325239940936612
1765408071.356036,-6.244670271228803,-6.136442854092929,4.601155549512038,0.45993849471126363,0.29867903465903567,0.16361571924042426
1765408071.356369,-6.371214868078298,-6.071381799327386,4.621033504091056,0.4686167090307159,0.3073654770297915,0.16405483855201505
1765408071.356703,-6.492990934565475,-6.0028664791664825,4.646523917756304,0.4769668654182145,0.31547235324041356,0.16462291926266517
1765408071.357012,-6.608642294693748,-5.931980549054356,4.6766925041142295,0.48497115167658567,0.32298559280469136,0.1653643160916642
1765408071.357262,-6.716977334330547,-5.859874154426511,4.710421350311271,0.49261702849508343,0.3299000734733495,0.16631350409508894
1765408071.357512,-6.817005467668097,-5.78773106315465,4.746457524468558,0.49989780665795475,0.33622044454770217,0.16749441432975473
1765408071.357762,-6.907971261586331,-5.716733913912483,4.783472646432626,0.5068129712279895,0.34196180451231917,0.16892016222095338
1765408071.358007,-6.989383155788147,-5.648027471177784,4.820129892899977,0.5133682347806963,0.34715015239697433,0.17059314959015906
1765408071.358257,-7.061032926784395,-5.582679914158534,4.8551531800675924,0.51957533252106,0.3518225128168561,0.1725055317208401
1765408071.358507,-7.123001897145855,-5.521643108392,4.8873923342254475,0.5254515959252772,0.3560266359988984,0.17464003914045806
1765408071.358757,-7.175650909243767,-5.465713539912997,4.915878798339515,0.5310193504568952,0.35982019663071074,0.1769711215344258
1765408071.35904,-7.219593032209519,-5.415495611229246,4.9398682065823225,0.5363051738760879,0.36326944924748616,0.17946635188632615
1765408071.35929,-7.25565016428264,-5.371368681820363,4.958867913165498,0.541339031512273,0.3664473367062847,0.18208801121520335
1765408071.35954,-7.284796609872804,-5.333459168318769,4.97264897626724,0.5461532885607465,0.3694310916643258,0.18479477446328585
1765408071.35979,-7.308093968803285,-5.301619316221986,4.981243199569882,0.5507815935553,0.3722994214784662,0.18754342677786864
1765408071.360797,-7.326622112339328,-5.275414627759921,4.984926546909378,0.5552576245330143,0.3751294194893565,0.1902905437961799
1765408071.361047,-7.341411110782509,-5.25412204229651,4.98419082464518,0.559613688202772,0.3779933835249679,0.19299406862620222
1765408071.361297,-7.353379240399023,-5.236740659876675,4.979706208573663,0.5638791756694778,0.38095573663492616,0.19561472308220357
1765408071.361547,-7.363282131834804,-5.22201620999438,4.9722774083280035,0.5680789136622757,0.38407024593544864,0.19811720771300398
1765408071.36106,-7.3716768442903815,-5.208479832890536,4.962795534368332,0.5722314966384068,0.3873777325680968,0.20047116577770296
1765408071.36131,-7.378902492757991,-5.194501000773405,4.9521869886042955,0.5763477285790906,0.3909044509794351,0.20265189985036208
1765408071.36156,-7.385077395958925,-5.178353288172611,4.941361286381842,0.5804293370368552,0.39466127761021963,0.20464083848777911
1765408071.36181,-7.390112279587766,-5.158290283411006,4.931161472730223,0.5844681352468178,0.39864379114359044,0.20642576353971803
1765408071.362095,-7.393739246692608,-5.132627750894272,4.922322129033842,0.5884457869383645,0.40283325980704054,0.2080008260030993
1765408071.362428,-7.395555937979991,-5.099827644602671,4.915439554775048,0.5923342723359343,0.407198479783149,0.2093663883963525
1765408071.362762,-7.395083073269078,-5.058579718390068,4.910956619360773,0.5960970757152539,0.411698333918859,0.21052872354904142
1765408071.36305,-7.391831735912535,-5.007876950950204,4.90916215160104,0.5996910294006966,0.41628487060543673,0.21149957385717752
1765408071.3633,-7.385374986487669,-4.947081404949956,4.91020259265247,0.6030686724367214,0.4209066513696855,0.21229554554712138
1765408071.36355,-7.3754170604253435,-4.87597715963107,4.914102121548287,0.6061809333160006,0.4255120953283009,0.2129372986617431
1765408071.3638,-7.361852575336863,-4.794806606591171,4.920786254783506,0.6089799340074639,0.43005257454191903,0.2134485067667172
1765408071.364032,-7.344807953094433,-4.7042862093971545,4.930103104376377,0.6114217265393396,0.4344850879945789,0.21385459794131817
1765408071.364282,-7.324658126228706,-4.605598527681427,4.941836742539408,0.6134687954121114,0.43877443522532744,0.21418133499628933
1765408071.364532,-7.3020141400793435,-4.500359048475332,4.9557091616154505,0.6150921829528233,0.4428948858294402,0.21445332764541258
1765408071.364782,-7.2776813754644625,-4.3905584520425975,4.971370878507795,0.6162731287181873,0.44683138174657977,0.21469258199293706
1765408071.365012,-7.2525926193987065,-4.278482609118344,4.988383855552845,0.6170041638842134,0.45058032064971326,0.21491719208329957
1765408071.365262,-7.227723690608138,-4.166613957901462,5.006202566828499,0.6172896562907366,0.45414995898802857,0.21514028061342746
1765408071.365512,-7.204001314854581,-4.0575195838383165,5.024159415915062,0.6171458419039758,0.45756044658877965,0.21536930106133892
1765408071.365762,-7.1822139384234465,-3.953733330458956,5.041460091068449,0.6166003939059891,0.46084347151267335,0.2156057998503926
1765408071.366059,-7.162936532273634,-3.8576405950909356,5.0571935428229375,0.6156915769836111,0.4640414761852038,0.21584568666109005
1765408071.366309,-7.14647968402552,-3.7713740504459317,5.070359973314238,0.6144670248998217,0.46720641839726545,0.2160799865424453
1765408071.366559,-7.132870643893565,-3.6967263883018093,5.079918027496222,0.6129821747507153,0.470398080554549,0.21629598545878986
1765408071.366809,-7.121869552497176,-3.635083429895409,5.0848493420636185,0.611298394861094,0.47368195673274804,0.216478654018142
1765408071.367083,-7.113018861688635,-3.5873788456431583,5.084235484252694,0.6094808533813862,0.47712677209804116,0.21661223150149014
1765408071.367333,-7.105719186397725,-3.5540705747858556,5.077339783556104,0.6075961886602367,0.4808017233822737,0.2166818485999415
1765408071.367583,-7.099321461785819,-3.535138111474636,5.063685030248402,0.6057100586061903,0.4847735617321922,0.21667505348128355
1765408071.367833,-7.09322394064875,-3.530098508212527,5.043117889568566,0.6038846649635224,0.48910365530685823,0.21658310044696594
1765408071.367995,-7.0869631171091765,-3.538037668305194,5.015852234962422,0.6021763699480304,0.4938451736114498,0.21640189006049143
1765408071.368328,-7.080289226241319,-3.557653228485716,4.982485820416853,0.6006335392595802,0.4990405386031085,0.21613251452330356
1765408071.368662,-7.073218884221275,-3.587306324874335,4.943987155739898,0.5992947443529645,0.5047192856895043,0.2157814287865166
1765408071.369137,-7.066059776084241,-3.625080929331446,4.901652165168359,0.5981874370866858,0.5108964668214614,0.21536030350607727
1765408071.369387,-7.0594051792288,-3.6688501131568034,4.857033423455997,0.5973271836772989,0.517571712870394,0.21488561916093518
1765408071.369637,-7.054099167898643,-3.7163482252929323,4.8118481162966695,0.596717516986624,0.5247290521353569,0.21437805343801897
1765408071.369887,-7.0511761912623845,-3.7652473048584314,4.767873545862276,0.5963504277973489,0.532337538336924,0.21386171575164614
1765408071.370224,-7.051781227722813,-3.813236056649074,4.72684029610532,0.5962074632955369,0.5403526610320967,0.21336329498424794
1765408071.370474,-7.057078610604065,-3.8581004533465912,4.690332816775587,0.5962613452359979,0.5487184147138154,0.21291119099091357
1765408071.370724,-7.068158321289822,-3.897805387932024,4.659705367208006,0.5964779750345894,0.5573698363194368,0.21253467483935046
1765408071.370974,-7.085947796271207,-3.930575673768681,4.6360185435264825,0.596818667047445,0.5662358070838402,0.21226306904315265
1765408071.370977,-7.111135641664931,-3.954972342332106,4.619998802066584,0.5972424493927562,0.5752419317111617,0.21212489108816743
1765408071.371227,-7.144111969576687,-3.9699582492499284,4.612021201064291,0.5977082927653313,0.5843133272116107,0.21214689656661262
1765408071.371477,-7.184928620954094,-3.9749468964310464,4.612114066196656,0.5981771612696235,0.593377171301057,0.21235299297663554
1765408071.371727,-7.233280841391407,-3.9698299595129725,4.619982774919605,0.5986138110670354,0.602364880354831,0.21276304180206898
1765408071.372004,-7.288509796081553,-3.954980935359013,4.635047961132895,0.5989882867658379,0.6112138071883744,0.21339160283251302
1765408071.372254,-7.349623324246589,-3.9312336658352245,4.656491885491463,0.5992770864398141,0.6198683717820134,0.2142467076134733
1765408071.372504,-7.415331460283101,-3.8998356075401257,4.683306556813261,0.5994639849409967,0.6282805770293044,0.2153287884631099
1765408071.372754,-7.484093581141547,-3.8623774740568737,4.714338539318835,0.5995405131799064,0.6364099291766896,0.21662991933661155
1765408071.372995,-7.5541748257120584,-3.820703350092653,4.748327462178694,0.5995060854994938,0.6442228740357755,0.2181335165683617
1765408071.373245,-7.623710027078102,-3.776807570165768,4.783937429406299,0.5993677607701206,0.6516919482666479,0.21981459390017757
1765408071.373495,-7.690773769263582,-3.7327255122916787,4.819782658677955,0.5991396282928426,0.658794899471626,0.22164058768282077
1765408071.373745,-7.753455324588161,-3.690424958551257,4.854450388705565,0.5988418274012256,0.6655140376325692,0.22357269636398486
1765408071.374813,-7.809936759824687,-3.6517037635557186,4.88652459536334,0.5984992352788412,0.6718360438641396,0.2255676350515108
1765408071.375146,-7.858571321091022,-3.6180990160042876,4.914613217344518,0.5981398892906736,0.6777523810177132,0.22757968821636845
1765408071.37548,-7.897957937929431,-3.590812468986747,4.937380370303707,0.597793244960918,0.6832603355905128,0.2295629333324784
1765408071.37503,-7.927006899450479,-3.570656000186324,4.953584013194847,0.5974883988469327,0.6883645924749534,0.2314734968779893
1765408071.37528,-7.944991554663625,-3.558018948341572,4.962118189834925,0.5972524129097909,0.6930791147272989,0.23327169857561894
1765408071.37553,-7.951581621586127,-3.5528570012706604,4.962057293433878,0.5971088568872069,0.697428985337056,0.2349239481393685
1765408071.37578,-7.946855960615069,-3.554701005484434,4.952699261696026,0.5970766476856979,0.7014518105630728,0.23640428200359997
1765408071.37608,-7.931296132681075,-3.562684165351788,4.933606168501134,0.597169224035921,0.7051983215586841,0.23769545870915657
1765408071.37633,-7.905765174905825,-3.5755869513350875,4.904642983559035,0.5973940512931826,0.7087319232278948,0.2387895585844143
1765408071.37658,-7.871477271238197,-3.5918993905623857,4.866015896288431,0.5977524072905686,0.7121270745973612,0.2396880532330889
1765408071.37683,-7.829962809197768,-3.6098995347845904,4.818309395665377,0.5982393787097313,0.7154665158135276,0.24040134000258476
1765408071.377016,-7.7830302044797675,-3.6277451345224145,4.7625171856573525,0.5988440173852531,0.7188374835433688,0.24094778887992588
1765408071.377266,-7.732722206303894,-3.6435739046157374,4.700058038372207,0.599549649428857,0.7223271764293976,0.2413524051074566
1765408071.377516,-7.681261696260312,-3.655606897020405,4.632765619680185,0.6003343637147163,0.7260178294073014,0.2416452367459379
1765408071.377766,-7.630981325912125,-3.6622491683018983,4.56284226139,0.6011717183133479,0.729981812093229,0.24185964383344183
1765408071.378036,-7.584233228659207,-3.662181682529738,4.4927711737652904,0.6020316986791148,0.7342771755535114,0.24203051778545176
1765408071.378286,-7.543279264356601,-3.6544383676748313,4.425189059828279,0.6028819408830696,0.738944042519549,0.2421925232518595
1765408071.378536,-7.510167528106103,-3.6384629817551963,4.362729134540533,0.6036891976982931,0.7440021789759997,0.24237843503012438
1765408071.378786,-7.486605396332135,-3.6141420737359278,4.30785034757427,0.6044209835044363,0.7494499964416708,0.2426176436390888
1765408071.378985,-7.473841997217669,-3.5818123023566786,4.26267078496579,0.6050472959213896,0.7552651049752221,0.24293488768872615
1765408071.379235,-7.472573385906882,-3.542241999258437,4.228822178752462,0.6055422845823129,0.7614063748145745,0.2433492412217171
1765408071.379485,-7.482882026018056,-3.496587920211008,4.207339253367805,0.6058857271290694,0.7678172973368754,0.24387336163900025
1765408071.379735,-7.50421882926669,-3.4463290446405965,4.198593162380357,0.6060641830369664,0.7744302928890627,0.24451300748832308
1765408071.380008,-7.535431705247178,-3.3931806478915036,4.202273169510219,0.6060717223436539,0.7811715174146157,0.24526685737010182
1765408071.380258,-7.574839813905687,-3.3389938113181525,4.217415437847933,0.6059101612266024,0.7879656958514992,0.2461266729857393
1765408071.380508,-7.620347304709539,-3.2856474589787865,4.242472543407654,0.6055887781837233,0.7947405730423595,0.2470778321921809
1765408071.380758,-7.669584492719067,-3.2349409787207333,4.275412887335483,0.6051235348703609,0.8014307076011189,0.24810022291039194
1765408071.381086,-7.720060084068175,-3.1884950686536326,4.31383727554596,0.6045358815226943,0.8079804976564934,0.24916946513565347
1765408071.381419,-7.7693076695790495,-3.147667182133879,4.3551017771781035,0.6038512781833834,0.8143464711392946,0.25025843002225096
1765408071.381753,-7.815013662392463,-3.1134866631932225,4.396440492558519,0.6030975942223016,0.8204989615321763,0.2513390312049941
1765408071.384692,-7.855120075517435,-3.086613499399841,4.4350864692323695,0.6023035476675144,0.8264233007175787,0.2523842404212718
1765408071.384942,-7.887901373866483,-3.0673230397776083,4.468391711777103,0.6014973110863163,0.8321205860267805,0.25337021813686195
1765408071.385192,-7.912018509141651,-3.055516747518097,4.493947322162403,0.6007053501111018,0.8376079458440661,0.25427837389365904
1765408071.385442,-7.926554778252323,-3.050756471207285,4.509702591412418,0.5999514914119698,0.8429181100807279,0.2550971163099501
1765408071.384809,-7.931037775858681,-3.0523175177537096,4.514078670217872,0.5992561662494328,0.8480980614497877,0.2558230479985936
1765408071.385059,-7.925450308152681,-3.0592544709207887,4.506069840409075,0.5986357657864726,0.8532066100213209,0.2564614154909373
1765408071.385309,-7.910231452881195,-3.0704732425981978,4.485323836683348,0.5981020722587075,0.8583108505799815,0.2570257214367847
1765408071.385559,-7.886267206834054,-3.084802953691335,4.452191654483002,0.5976617739187349,0.8634815922415384,0.2575365146414738
1765408071.385112,-7.8548683141252935,-3.101061632094469,4.407737025227988,0.5973161110343732,0.8687879889325733,0.258019471478446
1765408071.385362,-7.8177313324312365,-3.1181105003538963,4.3536975476463144,0.5970607218007233,0.8742917480286834,0.25850296517117777
1765408071.385612,-7.77687872350549,-3.1348932884346765,4.292394161492154,0.596885753903056,0.8800414317946479,0.259015386524765
1765408071.385862,-7.734575479645298,-3.150459727829624,4.226592287737489,0.596776286498408,0.8860674539248427,0.2595825216190014
1765408071.386016,-7.6932234638653565,-3.163975374954325,4.159324700633171,0.5967130834847496,0.8923783755859601,0.2602252914664661
1765408071.386266,-7.6552394083725845,-3.174721842757383,4.093691768886836,0.5966736756988748,0.8989590069236363,0.2609581058178454
1765408071.386516,-7.622926816308194,-3.182091785706343,4.032658193097212,0.5966337384630535,0.9057706282802747,0.2617879913562777
1765408071.386766,-7.598353929860586,-3.1855822688891897,3.978865601475912,0.5965686882244514,0.9127533866316306,0.26271455075063227
1765408071.387118,-7.583248353632281,-3.1847895319136548,3.93447675796066,0.5964553772906444,0.9198306467743441,0.26373070920944053
1765408071.387368,-7.578914614042375,-3.179407832058551,3.9010607889039544,0.5962737326398746,0.9269148428708286,0.2648241078252236
1765408071.387618,-7.586176243633141,-3.169234251090487,3.8795221494872636,0.5960081717794167,0.9339142206143096,0.2659789117277938
1765408071.387868,-7.605341167516588,-3.1541795142428017,3.87007128025283,0.5956486390039932,0.9407397959034646,0.26717774286214546
1765408071.388088,-7.63618873124638,-3.134282574504951,3.8722329409991145,0.595191142711223,0.9473118894662442,0.26840345672674965
1765408071.388421,-7.677977488409763,-3.109725197764545,3.8848884789602955,0.5946377368571703,0.9535657107935077,0.26964056278780213
1765408071.388755,-7.729473698555849,-3.0808427055918584,3.9063494881311622,0.5939959630471956,0.9594555946475992,0.27087619738938906
1765408071.389101,-7.789000907845095,-3.0481279814163686,3.934460942915398,0.5932778387538677,0.9649575791021778,0.27210064497130976
1765408071.389351,-7.854510618554929,-3.0122269673828037,3.966730767236776,0.5924985363865327,0.9700700774769412,0.2733074510501322
1765408071.389601,-7.9236727700034875,-2.973924710579539,4.000480198394245,0.5916749417808395,0.9748125245652158,0.27449319504489544
1765408071.389851,-7.993983310840857,-2.9341217568423543,4.033006821829639,0.5908242935353779,0.9792221073733951,0.275657013098029
1765408071.390116,-8.06288530595634,-2.8938018263736605,4.061750533502765,0.5899630725317188,0.9833489480312543,0.27679998005917233
1765408071.390366,-8.127899363128822,-2.85399326455932,4.084451049156077,0.5891062394150165,0.9872502896603835,0.2779244554933092
1765408071.390616,-8.186757848746145,-2.815727921030299,4.0992838224963615,0.5882668364911426,0.9909843215311447,0.27903346192425954
1765408071.390866,-8.237535592616975,-2.780000927103026,4.10496145369976,0.5874559132884778,0.9946043063743392,0.2801301168528282
1765408071.391069,-8.278768509570082,-2.7477334204980672,4.100791713169912,0.5866827082992521,0.9981536575062864,0.28121711358462087
1765408071.391319,-8.309551174930196,-2.719738811932409,4.086689973759891,0.5859550049071071,1.0016625298048742,0.2822962485796808
1765408071.391569,-8.329604533478728,-2.6966927716996274,4.063149791960873,0.5852795700063549,1.005146306587397,0.28336801217237484
1765408071.391819,-8.33930554717263,-2.6791076069622606,4.0311785109607055,0.5846625885661303,1.0086060956883982,0.2844312718017018
1765408071.391983,-8.339672342643468,-2.6673121028738938,3.9922057358946494,0.5841100254346396,1.0120310538011321,0.28548306732101814
1765408071.392233,-8.332301753509665,-2.661437627798773,3.947972761559292,0.5836278649403928,1.0154021077598119,0.2865185202253468
1765408071.392483,-8.319260690441084,-2.6614107667870615,3.900410657326069,0.5832221959759548,1.0186964769304065,0.28753085772431924
1765408071.392733,-8.30293781517444,-2.6669525198134427,3.85151358116754,0.5828991294594127,1.021892349615092,0.2885115651042176
1765408071.393038,-8.285866917264462,-2.677584017243633,3.8032130815969927,0.5826645573458591,1.0249731394062263,0.2894506813635072
1765408071.393288,-8.270537465996084,-2.692638297510904,3.7572600640978395,0.5825237860804527,1.027930906150356,0.29033724036487873
1765408071.393538,-8.259210263644293,-2.71127714094991,3.7151236170589623,0.5824810987109146,1.030768693974848,0.29115985335555156
1765408071.393788,-8.253756343357896,-2.732511945113225,3.6779179162492364,0.5825393107397454,1.0335016560916994,0.29190743768327454
1765408071.393973,-8.255534850359684,-2.755228413655281,3.6463672484805962,0.5826993774810753,1.036156893798339,0.2925701026739026
1765408071.394306,-8.265320801136648,-2.778215927962461,3.6208136914251847,0.5829600852576307,1.038771977580925,0.2931401826672636
1765408071.39464,-8.283287227382182,-2.8002031380771704,3.6012637859601018,0.583317826350774,1.0413921995394582,0.2936133563283521
1765408071.394983,-8.309039408460142,-2.8199010092571433,3.587462797711113,0.5837664334424525,1.0440667397657364,0.293989731271771
1765408071.395233,-8.341692727228095,-2.836053178357325,3.578980380720002,0.5842970415607731,1.0468440708896587,0.2942747288640479
1765408071.395483,-8.379981208810177,-2.847491462319423,3.5752906320909745,0.584897957531313,1.0497670401148544,0.2944795960009577
1765408071.395733,-8.42238192406639,-2.853192568838887,3.57583270623342,0.5855545500231133,1.0528681579593064,0.2946214123127112
1765408071.396043,-8.467241475379625,-2.852331180784256,3.5800446227356977,0.5862492131455218,1.0561656767801813,0.2947225444885016
1765408071.396293,-8.512894029077666,-2.844324780795145,3.5873706218662798,0.5869614747930068,1.0596610141603866,0.2948095892937339
1765408071.396543,-8.557764077688999,-2.828866560599884,3.59724850093648,0.5876683068063316,1.063337928395594,0.2949119098334675
1765408071.396793,-8.600449732988311,-2.805944029391989,3.6090862558894385,0.588344663867139,1.0671635993727242,0.2950599005944953
1765408071.396965,-8.639783816328888,-2.775842137714457,3.6222378491870892,0.5889642460450305,1.0710914719003597,0.2952831320787933
1765408071.397215,-8.67487110246724,-2.739130943226448,3.635986850865796,0.5895004448522069,1.0750654560134412,0.2956085370371369
1765408071.397465,-8.705101014151472,-2.696639294670815,3.6495433999864826,0.5899273977220181,1.0790249028560461,0.29605879963634013
1765408071.397715,-8.730136211487206,-2.6494174199461153,3.662054999125317,0.590221059342273,1.0829097148693008,0.29665108183413474
1765408071.398016,-8.749880039197926,-2.5986919423581334,3.6726286788057476,0.5903602153535129,1.0866650163833373,0.29739617269329155
1765408071.398266,-8.764429738507326,-2.545816479484424,3.6803634240670084,0.5903274024817848,1.090244970919505,0.29829810139317514
1765408071.398516,-8.77402537476757,-2.4922202714623163,3.6843943740386753,0.5901097257076304,1.0936154979102384,0.2993542268222013
1765408071.398766,-8.779004366337716,-2.4393569310144168,3.6839493065322633,0.5896995619513029,1.0967557481994559,0.30055579081364775
1765408071.398961,-8.779768756903529,-2.388655214835415,3.678413267445856,0.589095131385881,1.099658268484277,0.3018888783169783
1765408071.399211,-8.77676879298327,-2.3414729848015337,3.66739304961057,0.5883009196040152,1.1023278859388785,0.3033356684014761
1765408071.399461,-8.770502883471293,-2.2990541178232844,3.6507717487718088,0.5873279296623617,1.1047794853489297,0.3048758072065691
1765408071.399711,-8.761530729610444,-2.2624868788690646,3.6287436437902194,0.5861937163684009,1.1070349858437514,0.3064877132555227
1765408071.399937,-8.75049372930147,-2.232662314834346,3.6018206579285077,0.584922129626889,1.1091199269688756,0.30814965393156235
1765408071.400187,-8.738135435178373,-2.21023279436384,3.570805261771866,0.5835427008441749,1.1110601478330242,0.30984050566399984
1765408071.400437,-8.725315296942979,-2.1955729403476227,3.5367313999244923,0.5820896401490777,1.1128790633916228,0.31154019910571473
1765408071.400687,-8.71301064265115,-2.1887466713038726,3.5007820511365773,0.5806004489294923,1.1145959552408504,0.31322991843324505
1765408071.400937,-8.702303633644025,-2.189484478542534,3.4641956356773176,0.5791141910277892,1.1162254862700458,0.31489215846326696
1765408071.40127,-8.694351085660246,-2.197174768557333,3.4281729769233076,0.5776695143977562,1.1177783760493643,0.31651075239371695
1765408071.401604,-8.690336156440235,-2.210872540435735,3.393793985591463,0.5763025596928081,1.1192629236722664,0.31807097152719643
1765408071.401955,-8.691402828702147,-2.2293279276216404,3.3619500429486,0.5750449151863475,1.120686902228932,0.31955976251795304
1765408071.402205,-8.698577000963766,-2.2510358271377258,3.333294674419944,0.5739217822966955,1.1220593112661006,0.32096612883298187
1765408071.402455,-8.712681258246086,-2.2743055358586957,3.3082131942705457,0.5729505142903121,1.1233915688439269,0.32228160186408183
1765408071.402705,-8.734253075483872,-2.2973464024873853,3.286812694323489,0.5721396737347806,1.1246979001722208,0.3235007148844621
1765408071.403063,-8.763477361651795,-2.3183633522078084,3.268934734670202,0.5714887016991442,1.125994835653839,0.3246213986933027
1765408071.403313,-8.800143462176761,-2.3356557812184864,3.254191292538026,0.5709882116266523,1.127299823796207,0.3256452365976576
1765408071.403563,-8.843634172248787,-2.347714151376968,3.2420204888052613,0.5706208534601314,1.1286290480591492,0.32657752256132794
1765408071.403813,-8.892950383796403,-2.353309014596065,3.2317551263414925,0.5703626587706928,1.1299946605622193,0.32742705975165703
1765408071.40406,-8.946770266884437,-2.3515664576727495,3.222695047019653,0.5701847531056291,1.1314017771658753,0.32820563931736046
1765408071.40431,-9.003537250931965,-2.342023217580086,3.214173220262606,0.5700552943337415,1.1328456676735086,0.3289271801186216
1765408071.40456,-9.061567645419295,-2.3246556466930373,3.2056064526826513,0.5699414870755096,1.1343096193792033,0.32960659437994105
1765408071.40481,-9.119167478456356,-2.299879552099809,3.1965264199854295,0.5698115431925108,1.1357639560399764,0.3302585284956373
1765408071.405006,-9.17474911186565,-2.268521350289,3.1865937656466587,0.5696364832755694,1.1371666166439693,0.3308961587197759
1765408071.405256,-9.226940300611593,-2.2317636644737355,3.175602756399132,0.5693916905301935,1.138465489316503,0.3315301952281453
1765408071.405506,-9.274680043807855,-2.1910702510489037,3.163484058489662,0.569058150582053,1.139602376397766,0.33216820398113495
1765408071.405756,-9.317295916983392,-2.148096356183468,3.150310065077177,0.568623343205161,1.1405181411498209,0.33281431755045887
1765408071.406049,-9.354556791463637,-2.1045914319511647,3.1363026958116627,0.5680817754284075,1.141158359536315,0.3334693646825903
1765408071.406299,-9.386694122915761,-2.062301414916902,3.1218385827938837,0.5674351510142307,1.1414787081997189,0.33413139212896664
1765408071.406549,-9.414385819567858,-2.0228772066793463,3.107443274591969,0.5666921785574716,1.1414493496347033,0.33479649059849315
1765408071.406799,-9.43869971789681,-1.9877945216678803,3.0937673667461576,0.565868043387397,1.141057708077328,0.3354597918080708
1765408071.407046,-9.460998082439062,-1.958288350147072,3.081542742454352,0.5649835869062944,1.1403092431077366,0.33611648698579205
1765408071.407379,-9.48280889428821,-1.9353036821422702,3.071522279030097,0.5640642293890274,1.1392261007840259,0.3367627248474423
1765408071.407713,-9.505673294109116,-1.9194631562381281,3.0644084027329606,0.5631386553486284,1.137843833868914,0.3373962729914744
1765408071.407999,-9.530981605115478,-1.9110515758338493,3.060775494328649,0.5622372817805603,1.1362066918873184,0.33801686342764337
1765408071.408249,-9.55981315938473,-1.9100163099045093,3.060990878095904,0.5613905461851815,1.134362219820254,0.33862617983051263
1765408071.408499,-9.592797240750967,-1.9159814598422877,3.065140381865878,0.5606270738075936,1.1323560093283824,0.33922748564942856
1765408071.408749,-9.630012659879556,-1.92827284325481,3.0729670530773125,0.5599718216424161,1.130227397387499,0.3398249569885274
1765408071.408996,-9.670940752748638,-1.9459508670939316,3.0838344664603823,0.5594443439122837,1.1280067289527904,0.3404228623548982
1765408071.409246,-9.714480876210052,-1.9678491801811469,3.096727076318929,0.5590573414826681,1.1257145351879183,0.34102477760974115
1765408071.409496,-9.759029592263396,-1.9926180284936204,3.1102967236853973,0.5588156269726973,1.1233626533561247,0.3416330132670459
1765408071.409746,-9.80261595815768,-2.018772063189193,3.122956325649531,0.5587155844841318,1.1209569604041574,0.34224838052173673
1765408071.409987,-9.84307711864331,-2.0447428769406235,3.1330118802417632,0.5587451567504111,1.1185010895657548,0.3428703546877079
1765408071.410237,-9.878252245190525,-2.0689366496949777,3.138815775735448,0.5588843533811926,1.1160003398350142,0.34349761686189334
1765408071.410487,-9.906170583605164,-2.089796790274799,3.1389200408747664,0.5591062352942848,1.1134650051000028,0.34412887559138766
1765408071.410737,-9.92521247487526,-2.105870398855256,3.132208998761424,0.5593783001729389,1.1109125191805875,0.3447638099493952
1765408071.411036,-9.934229865061893,-2.1158760951671804,3.1179970488951723,0.5596641782330315,1.108368079346808,0.34540395045557654
1765408071.411286,-9.93262133150255,-2.118769674884505,3.0960859088655375,0.5599255359500496,1.1058636863305817,0.34605332363052277
1765408071.411536,-9.92036258217252,-2.1138033261413884,3.0667817877074723,0.5601240703675187,1.10343574469849,0.34671871806814153
1765408071.411786,-9.897996161136778,-2.1005737173553616,3.030874806576784,0.5602234750919202,1.10112149718672,0.3474094827160435
1765408071.411972,-9.86658493799386,-2.0790542648221964,2.989582535650989,0.5601912831761614,1.0989546656789537,0.34813684228648245
1765408071.412222,-9.827633933723458,-2.049607514702325,2.944459228722925,0.5600005167762158,1.0969607646665223,0.3489127919186388
1765408071.412472,-9.782984943114796,-2.012974756699285,2.8972732955675844,0.5596310721278526,1.0951526273333392,0.3497486907531921
1765408071.412722,-9.73468918827558,-1.9702414311677583,2.849858521039603,0.5590707591021066,1.0935267222139582,0.35065371467445755
1765408071.412984,-9.684865460000534,-1.9227785842869372,2.803950024575722,0.558315929049754,1.0920608267622736,0.3516333653233526
1765408071.413317,-9.635554555074311,-1.8721629348038817,2.761022497958633,0.5573716573064506,1.0907135366497827,0.3526882570684875
1765408071.413651,-9.588584097815229,-1.8200812124258883,2.722152400123833,0.5562514723563995,1.0894258941033967,0.353813392600223
1765408071.414032,-9.545459383939164,-1.7682276029408597,2.6879248062253307,0.5549766392973794,1.0881251255371895,0.3549980790469776
1765408071.414282,-9.507294358509247,-1.7182048584231637,2.6583996025145025,0.5535750254542102,1.0867301624906152,0.35622653589506037
1765408071.414532,-9.474792041590613,-1.6714387741119556,2.633142682943648,0.5520796041339755,1.085158363787281,0.3574791248625548
1765408071.414782,-9.448276781668667,-1.629112764660636,2.611318045064035,0.550526679225441,1.0833326964991983,0.3587340236716968
1765408071.415018,-9.427773384629697,-1.5921257512881895,2.5918285281153928,0.5489539365919175,1.0811885759738433,0.35996910154932565
1765408071.415268,-9.413121664163034,-1.5610736024092873,2.5734879599497607,0.5473984536586666,1.0786796160254741,0.361163745325935
1765408071.415518,-9.40410952165412,-1.5362520698896727,2.5552050125858994,0.5458948164642277,1.0757816762742298,0.362300417433031
1765408071.415768,-9.400603392211416,-1.5176773834352633,2.5361571868077983,0.5444734809908022,1.0724947682733772,0.3633657779737091
1765408071.416029,-9.402653013661368,-1.5051195688229757,2.515932032770505,0.5431594736474928,1.0688425857661439,0.36435126495474407
1765408071.416279,-9.410549955032373,-1.4981433800600346,2.494614320430395,0.5419714828567119,1.0648696811929483,0.3652531057390087
1765408071.416529,-9.424826973804976,-1.4961523606369924,2.4728040591598797,0.5409213627272892,1.0606366047471756,0.36607181755842366
1765408071.416779,-9.446196492146159,-1.4984324925460983,2.4515599098726364,0.5400140372496861,1.0562135852038597,0.36681131614982154
1765408071.417023,-9.475438012899817,-1.504192729718692,2.4322730516027637,0.5392477601560172,1.0516735076875603,0.36747778117487734
1765408071.417273,-9.513252843067502,-1.512600458402947,2.416486204805749,0.5386146741870315,1.0470850242365142,0.36807844514231863
1765408071.417523,-9.56010837696726,-1.5228108691289002,2.4056806397365103,0.53810162497521,1.042506621749425,0.36862048544981324
1765408071.417773,-9.616093810421592,-1.5339904330243288,2.4010596187289814,0.5376911910126312,1.0379823480946861,0.3691101864227023
1765408071.418025,-9.68080597531784,-1.5453358928223064,2.403358040458047,0.5373628795734008,1.0335396412662474,0.36955248773822486
1765408071.418275,-9.753279316526426,-1.5560910433080808,2.4127040537951623,0.5370944273091122,1.0291893562184413,0.3699509600367408
1765408071.418525,-9.831968683233372,-1.5655637235938336,2.4285499808536466,0.5368631484012907,1.0249277376331787,0.3703081668358565
1765408071.418775,-9.91478800133732,-1.573144687503178,2.4496790028563784,0.536647281572188,1.0207398321497827,0.3706262994776399
1765408071.418953,-9.99920242084497,-1.5783285721170421,2.4742830883085407,0.5364272834376775,1.0166036995899268,0.3709079225739871
1765408071.419203,-10.08236690455683,-1.580735529262678,2.500099625570656,0.5361870044869854,1.0124947729291562,0.3711566512228426
1765408071.419453,-10.161301078490922,-1.580130703081211,2.5245913708998544,0.5359146818895625,1.0083898286013024,0.3713776020664434
1765408071.419703,-10.23308815646722,-1.5764380064503634,2.545155166913261,0.5356036889197017,1.00427020643671,0.371577511811979
1765408071.419968,-10.295083752406153,-1.5697447546515655,2.5593450845190926,0.5352529795210976,1.0001240573871348,0.37176448359849407
1765408071.420301,-10.345117920891655,-1.5602946823933856,2.565092882930967,0.534867164175634,0.995947447149443,0.3719473940202959
1765408071.420635,-10.381671807447034,-1.5484686398122676,2.5609052292426826,0.53445617264538,0.9917441668382043,0.3721350667525411
1765408071.42096,-10.404010419970156,-1.5347544152615789,2.546016511635156,0.5340345009008486,0.9875241894456623,0.3723353710774115
1765408071.42121,-10.412255919850718,-1.5197088098112848,2.520478978050849,0.5336200792017244,0.9833008745307398,0.37255440975139337
1765408071.42146,-10.40739097705561,-1.5039156810617964,2.4851768092072026,0.5332328272220874,0.9790872033253434,0.3727959274267875
1765408071.42171,-10.391188402023952,-1.4879433945384979,2.441757292893525,0.5328929977411767,0.9748914839696909,0.37306103063574286
1765408071.421971,-10.366070869104897,-1.4723046696192865,2.392481589079048,0.5326194562725846,0.9707131075737679,0.3733482800584256
1765408071.422221,-10.334912181576904,-1.4574216838634104,2.340009010868625,0.5324280694727225,0.9665390343894473,0.37365418303179665
1765408071.422471,-10.300797962505534,-1.4435994466998663,2.2871389033392644,0.5323303536908124,0.9623416661920242,0.37397406217245455
1765408071.422721,-10.266767921209828,-1.431010341336333,2.236539768639469,0.5323324815459138,0.9580785736975451,0.37430320849668225
1765408071.423018,-10.235563636338238,-1.419691797170419,2.1904956369402657,0.5324346939090999,0.9536942540403756,0.3746381659432151
1765408071.423268,-10.209405325209541,-1.409557230515308,2.1506962294968677,0.532631128759003,0.9491237914898075,0.3749779580436213
1765408071.423518,-10.189818553343322,-1.4004183318072734,2.118091402679433,0.5329100452625323,0.9442980401688305,0.3753250650810215
1765408071.423768,-10.177527187806426,-1.3920153898304186,2.092822086737387,0.533254387733533,0.939149755336888,0.3756859903979309
1765408071.424001,-10.17242224330683,-1.384051925044507,2.0742305393165767,0.5336426137805231,0.9336199960947563,0.37607130653653126
1765408071.424251,-10.17360868149877,-1.3762298612027501,2.0609448045691146,0.5340497139929384,0.9276641437303264,0.3764951319687958
1765408071.424501,-10.179525116497382,-1.3682811607746652,2.051027789831826,0.5344483679268681,0.9212570116160584,0.3769740558711755
1765408071.424751,-10.188125123715723,-1.359991618661836,2.0421792113463537,0.5348101941679515,0.9143966794916195,0.3775256078209813
1765408071.425038,-10.197102874177645,-1.3512134000152902,2.0319755251631397,0.5351070521801677,0.9071067867846762,0.3781664523189923
1765408071.425288,-10.204140320173698,-1.3418653298239764,2.018127453417318,0.5353123489514792,0.8994370669081448,0.37891054484741504
1765408071.425538,-10.207149888958675,-1.3319228624862882,1.9987295426124045,0.535402304955701,0.8914619601276558,0.3797674877877511
1765408071.425788,-10.20448740794311,-1.321401427512202,1.9724751882004263,0.5353571382459701,0.8832772549419079,0.38074126954093473
1765408071.426161,-10.195114699543552,-1.3103368130900157,1.9388142851001546,0.535162120625791,0.8749948676454938,0.38182949070001965
1765408071.426494,-10.178698008948931,-1.2987653061470639,1.8980366699756106,0.5348084448274224,0.8667360380969898,0.3830231162496474
1765408071.426828,-10.155635230220547,-1.2867057374617332,1.8512713873109552,0.5342938313939545,0.8586233815460041,0.3843067558243504
1765408071.42706,-10.127011195327533,-1.2741457333876234,1.8004003240312294,0.5336228114160231,0.8507723959680783,0.3856594488136027
1765408071.42731,-10.094486530129938,-1.2610346453273735,1.747894890406143,0.5328066412813527,0.8432831540746145,0.3870558929528274
1765408071.42756,-10.060131997520077,-1.2472848633464768,1.6965937379620957,0.5318628263290918,0.836232951325485,0.3884679967833157
1765408071.42781,-10.026225983246583,-1.2327813597573227,1.6494455530793979,0.5308142537615141,0.8296706080754593,0.38986658243911104
1765408071.428018,-9.995036236914386,-1.2173973664367341,1.6092434549702208,0.5296879698336514,0.8236129537935146,0.39122305203826857
1765408071.428268,-9.968607250762183,-1.201013274538779,1.5783771765501196,0.5285136756433815,0.8180437819145472,0.3925108667507025
1765408071.428518,-9.948572367280478,-1.1835362152246744,1.5586260182984057,0.5273220456716294,0.8129152852766193,0.3937067463435537
1765408071.428768,-9.93600613321519,-1.1649183641032876,1.5510093698669083,0.5261429945717728,0.8081517157171889,0.3947915517320707
1765408071.429058,-9.931328193706102,-1.1451721663429784,1.5557034677533763,0.5250040367757044,0.8036548147874962,0.3957508553424703
1765408071.429308,-9.934265190052592,-1.1243807555592131,1.572025056189202,0.5239288866059884,0.7993104664575716,0.396575233009014
1765408071.429558,-9.943872028218648,-1.102702473158301,1.5984763249675655,0.5229364139175262,0.794996025913873,0.3972603245586521
1765408071.429808,-9.958609205527983,-1.0803695631538361,1.6328415916490722,0.5220400109730431,0.7905878559899499,0.3978067092633003
1765408071.430101,-9.976468925782797,-1.0576821343838296,1.6723249578054324,0.5212473728490217,0.7859687094062661,0.3982196318324125
1765408071.430351,-9.995139289992498,-1.0349987861967593,1.7137192308445544,0.520560662752703,0.781034678435809,0.39850859842853337
1765408071.430601,-10.012192859848243,-1.0127249775841667,1.753598158900419,0.5199770153112748,0.7757014552830552,0.39868684544843186
1765408071.430851,-10.025283828972187,-0.991299797564929,1.7885243630993726,0.5194893136750061,0.7699096047259691,0.3987706762473767
1765408071.431174,-10.03233749325692,-0.9711816620862089,1.815263345776645,0.5190871602610981,0.7636284961073997,0.3987786663176666
1765408071.431424,-10.031716833800546,-0.9528335228820718,1.8309907474447609,0.5187579520140186,0.7568585505714962,0.39873074520599444
1765408071.431674,-10.022353479480305,-0.936707936710919,1.8334779112372346,0.5184879763063099,0.7496315640043015,0.3986471662211015
1765408071.431924,-10.003833567127396,-0.923231602182424,1.8212412058719898,0.5182634627020007,0.7420090252151547,0.39854738365423487
1765408071.432048,-9.976432569917476,-0.912788264139527,1.79364291422309,0.5180715434702409,0.7340785019433281,0.39844888316118143
1765408071.432298,-9.941096756549852,-0.9056989496311432,1.750934555653027,0.5179010785395177,0.7259482992340958,0.3983660462120457
1765408071.432548,-9.899372693179947,-0.9021994121309558,1.694237248574111,0.5177432961183168,0.7177407281854253,0.3983091570065807
1765408071.432798,-9.853290419628522,-0.9024158169488318,1.625459112908541,0.5175922038169641,0.7095844617723481,0.3982836689468335
1765408071.433129,-9.80521049724691,-0.9063405044470608,1.5471565936449216,0.5174447388721308,0.7016065589275137,0.39828983402158324
1765408071.433462,-9.757649114361994,-0.9138100055725286,1.4623529941001916,0.5173006454726916,0.6939247634386921,0.39832276680100415
1765408071.433796,-9.713097755518424,-0.924487619623112,1.3743317474224146,0.5171620936947805,0.6866406285709546,0.39837297723041176
1765408071.434145,-9.673854162287109,-0.9378530987181,1.2864240354490761,0.5170330859422338,0.679833914961068,0.3984273706254277
1765408071.434395,-9.64187953690277,-0.9532023860439727,1.2018105500934189,0.5169187182490458,0.6735585786791569,0.39847067285511006
1765408071.434645,-9.618693342527402,-0.9696605990559114,1.1233547309903602,0.5168243656323587,0.667840504694351,0.3984871840844668
1765408071.434895,-9.60531209962554,-0.9862109206398842,1.0534793819703354,0.5167548553457324,0.6626769602716305,0.39846270165887704
1765408071.435036,-9.60223325084715,-1.001740341541271,0.99409168088471,0.516713697739098,0.6580375891316832,0.3983864043047455
1765408071.435286,-9.609460489565047,-1.0151005433534603,0.9465553597992676,0.5167024576864593,0.6538666803039921,0.39825247596553315
1765408071.435536,-9.626563444006594,-1.0251795012386307,0.9117041056494881,0.5167203463241429,0.650086418257874,0.3980612716515691
1765408071.435786,-9.652762318564182,-1.030977500652424,0.8898866784410474,0.5167640799264139,0.6466008200303422,0.39781988010602537
1765408071.436018,-9.687026748153764,-1.031680500082575,0.8810315658386136,0.5168280047308795,0.6433000826980758,0.3975420060637795
1765408071.436268,-9.728177363791625,-1.0267238345165832,0.8847176059503465,0.51690444775843,0.6400651200817759,0.3972471672638173
1765408071.436518,-9.774978459474186,-1.0158397818027924,0.9002377355228106,0.5169842333986148,0.6367721613433011,0.39695927366006917
1765408071.436768,-9.826211314743865,-0.9990836540656393,0.9266461961964478,0.5170572979233465,0.6332973775497065,0.3967047312203891
1765408071.436967,-9.88072056777567,-0.9768353598456118,0.9627843943385482,0.5171133339120275,0.6295215516284303,0.39651028499417196
1765408071.437217,-9.93743013320324,-0.9497767523768047,1.0072858940400649,0.5171424057097916,0.6253347979294201,0.3964008588103009
1765408071.437467,-9.995329814532251,-0.9188483270942159,1.0585660860264399,0.5171354980043606,0.6206412793770609,0.39639763417554597
1765408071.437717,-10.053438620440108,-0.8851905836079442,1.114806693129975,0.5170849873843238,0.6153637740214609,0.39651654575466344
1765408071.438023,-10.11075541570771,-0.850075527540356,1.173948380333932,0.5169850480507577,0.6094478234384575,0.3967672923752199
1765408071.438273,-10.16621070565467,-0.814833460385916,1.2337045904255175,0.5168320057022204,0.6028650965429567,0.39715289558858274
1765408071.438523,-10.21863368297282,-0.7807801689097422,1.291605948166248,0.5166246401429494,0.5956155892558674,0.3976697777374236
1765408071.438773,-10.26674601392993,-0.7491494232055409,1.3450791621176135,0.5163644216925513,0.5877283790153289,0.39830827185911966
1765408071.439042,-10.30918943771316,-0.7210345219804257,1.39155964745545,0.5160556569903089,0.5792608128717048,0.39905343129271714
1765408071.439292,-10.344589197947627,-0.6973406381699916,1.4286331840387345,0.5157055121000634,0.5702961518307254,0.3998859981996158
1765408071.439542,-10.371649644471468,-0.678747981506553,1.4541971712208392,0.5153238747897041,0.5609397913003837,0.40078341930236794
1765408071.439792,-10.38927205663708,-0.6656851894414878,1.4666261923422843,0.5149230226493168,0.5513142492616547,0.40172084467182534
1765408071.440029,-10.396679229861807,-0.658312783007061,1.4649221244330433,0.514517082463873,0.5415531854194636,0.4026720853805678
1765408071.440279,-10.393528669419158,-0.6565170519746454,1.4488285880799188,0.5141212908438282,0.5317947826291913,0.4036105231709488
1765408071.440529,-10.379997118565042,-0.6599145407118658,1.4188931634907498,0.513751089490163,0.5221748671049139,0.4045099664123307
1765408071.440779,-10.356822813052975,-0.6678665130007444,1.3764667302913591,0.5134211112689467,0.5128201586718795,0.40534545197265626
1765408071.44108,-10.325297274172678,-0.6795022798931335,1.3236364405109786,0.5131441355055543,0.5038420328157719,0.4060940120930009
1765408071.44133,-10.287204937953009,-0.6937507012927853,1.2630967225525884,0.5129301038994187,0.49533114829544045,0.4067354423241811
1765408071.44158,-10.24471555788078,-0.7093801021139934,1.1979699485954294,0.5127852832011027,0.4873532496615454,0.40725309432446755
1765408071.44183,-10.200239962833233,-0.7250472328188925,1.1315934138759114,0.5127116429791587,0.47994639541689343,0.40763467265481834
1765408071.442107,-10.156263638660112,-0.739355154284399,1.0672919230128726,0.5127065014316223,0.4731197919184395,0.40787296607469575
1765408071.442357,-10.115174416492117,-0.7509184600605379,1.0081560727222076,0.5127624812906006,0.46685432946196703,0.40796642144374623
1765408071.442607,-10.079100099763211,-0.7584330341082794,0.956844928656608,0.5128677986098062,0.46110481356990257,0.40791947497302106
1765408071.442857,-10.049769348226173,-0.760747058048042,0.9154277776732402,0.5130068760059784,0.45580375570855114,0.4077425717089487
1765408071.443066,-10.028405532121106,-0.7569297260553381,0.8852740490403023,0.5131612424097258,0.4508664478931651,0.40745181385030754
1765408071.443316,-10.015659723981399,-0.7463332880468015,0.8669953463186433,0.5133106628381096,0.44619693305125624,0.4070681860539174
1765408071.443566,-10.011585950864978,-0.7286426602108411,0.860439893050447,0.513434426445283,0.44169442901300054,0.4066163316783362
1765408071.443816,-10.015659039768762,-0.70390610764054,0.8647371136616001,0.5135127001060119,0.43725976290041063,0.40612291400051237
1765408071.444046,-10.026832577769984,-0.6725416965576464,0.8783875515641227,0.5135278343653237,0.4328013943257974,0.4056146801476383
1765408071.444379,-10.043631748574615,-0.6353173006520948,0.899390545708109,0.5134655057045188,0.42824063466999557,0.4051164156673969
1765408071.444713,-10.064273377839475,-0.593305473533479,0.9253996099041445,0.5133156026989322,0.42351571943632116,0.40464900149626476
1765408071.445049,-10.086803559493331,-0.5478169940304193,0.9538937845643702,0.513072803426204,0.41858448013112576,0.4042277638106222
1765408071.445299,-10.10924172421697,-0.5003181595494779,0.98235215241902,0.5127368268476056,0.4134254880679444,0.40386126815800194
1765408071.445549,-10.129719230815866,-0.45233775076406046,1.0084181770979095,0.5123123608482884,0.4080376811796992,0.40355067064811145
1765408071.445799,-10.146601187690404,-0.40537048508614454,1.030041346931153,0.5118086795847705,0.40243861413062443,0.40328969305875284
1765408071.446041,-10.15858250705636,-0.3607842580865955,1.045586342755056,0.5112389721515409,0.3966615808386854,0.40306522172843134
1765408071.446291,-10.16475248253447,-0.31973795892154605,1.0539038178622528,0.5106194159678501,0.3907519352477805,0.402858449864319
1765408071.446541,-10.164625590747484,-0.2831152847651034,1.0543607457364017,0.5099680409022295,0.38476296479438504,0.40264641691802566
1765408071.446791,-10.158139481027977,-0.2514783832945131,1.0468319389173288,0.5093034435109757,0.37875165166168157,0.4024037669121776
1765408071.448881,-10.145624159961667,-0.22504365221465505,1.0316578680180561,0.5086434205930364,0.37277461276253926,0.40210454582004734
1765408071.449081,-10.127748730261716,-0.20368050088671877,1.00957669831481,0.5080035909684333,0.36688445957837024,0.4017238700263068
1765408071.449281,-10.105453286015527,-0.18693211010743768,0.9816397570106886,0.5073960670836096,0.3611267624184733,0.4012393159193673
1765408071.449481,-10.07987380545185,-0.1740552212946716,0.9491195310890636,0.5068282380603882,0.3555377387520759,0.4006319116598748
1765408071.449681,-10.052267202317793,-0.16407414177826316,0.9134182424422987,0.5063017384123597,0.35014272341477964,0.3998866660412331
1765408071.448933,-10.023941817733876,-0.15584312282181437,0.8759830976925297,0.5058116856922545,0.3449554267060791,0.3989926422094788
1765408071.449183,-9.996195793822926,-0.14811151570019698,0.8382316029352083,0.5053462579998119,0.33997793647675395,0.39794265487642183
1765408071.449433,-9.970263271196513,-0.13958751997923638,0.801487897343748,0.504886651444486,0.33520136915644955,0.3967327154456325
1765408071.449683,-9.947267446232377,-0.12899817916870893,0.7669300921593726,0.5044074238632772,0.3306070403152276,0.3953613582603154
1765408071.448992,-9.92818009154513,-0.11514458702099543,0.7355490527193361,0.503877203156434,0.32616802537878625,0.39382895615380453
1765408071.449242,-9.913788024649861,-0.0969515433622514,0.7081196970316617,0.5032597162867003,0.32185100233748654,0.39213709408559655
1765408071.449492,-9.904667405324643,-0.07351053785053978,0.68518577949412,0.5025150773735273,0.3176182768396974,0.39028804005493856
1765408071.449742,-9.901166770418284,-0.04411474730827149,0.6670584013856539,0.501601262110775,0.31342987320807264,0.38828433933725415
1765408071.450079,-9.903399679830997,-0.0082850653867226,0.6538275151860706,0.5004756930420867,0.3092455567809078,0.38612854788414575
1765408071.450329,-9.911247602683279,0.034213260209580786,0.6453844505109535,0.49909686547183874,0.305026662336268,0.3838231009876771
1765408071.450579,-9.924372997231963,0.08336353237515336,0.6414521056520643,0.49742595244726734,0.3007376405656333,0.38137028694388286
1765408071.450829,-9.942241644266133,0.13890036995980248,0.6416186429911902,0.49542833307719547,0.296347281135741,0.3787722761558255
1765408071.451116,-9.96415258724946,0.20032292666979756,0.6453709626422562,0.493074986999991,0.2918296158666491,0.37603115617677046
1765408071.451366,-9.989273681437515,0.2669190547274562,0.6521256554936733,0.4903436874954174,0.28716454477974834,0.37314894139781996
1765408071.451616,-10.016680745127339,0.3378003038889906,0.6612565957109312,0.4872199088986048,0.28233824960894927,0.3701275460285056
1765408071.451866,-10.045398642528523,0.4119467836597161,0.6721191462934366,0.48369734994027025,0.2773434527811893,0.36696871693827465
1765408071.452074,-10.074443198935477,0.48825993279359114,0.6840712219628743,0.4797779780387651,0.2721795516920613,0.3636739251765144
1765408071.452324,-10.10286326017837,0.5656200011682735,0.696491580851296,0.47547153066248304,0.2668526266847602,0.3602442274110487
1765408071.452574,-10.129782007239832,0.6429435691113942,0.7087957080375621,0.47079446633748645,0.2613752963182808,0.3566801303325142
1765408071.452824,-10.154435763463793,0.7192352642263938,0.720449131699851,0.46576842616426445,0.2557663746038353,0.3529815007473527
1765408071.453062,-10.176207563034914,0.7936278018635374,0.7309769766270293,0.4604183297045829,0.25005027548376113,0.3491475441966377
1765408071.453312,-10.194652628617263,0.8654059736059847,0.7399679313922193,0.45477027427709527,0.2442561222230431,0.345176833617404
1765408071.453562,-10.209514096714674,0.9340128839713723,0.7470716192808299,0.4488494310075183,0.23841655958744443,0.34106733246478554
1765408071.453812,-10.22072915852917,0.9990397377040422,0.7519903313053138,0.4426781368657587,0.2325663204351487,0.33681634298340307
1765408071.454032,-10.228427026304377,1.0602029784335896,0.7544677232210232,0.4362743678799715,0.22674063877084824,0.3324203231443721
1765408071.454282,-10.232920326412604,1.1173140719186139,0.7542774958556482,0.42965074010722704,0.22097361059880608,0.3278745510013879
1765408071.454532,-10.23469120713882,1.1702475399955068,0.751214674381062,0.42281412513305083,0.21529658643910896,0.32317266545750195
1765408071.454782,-10.234373112822949,1.2189120800326607,0.7450913563515724,0.4157658981558787,0.20973665677799894,0.3183061622234447
1765408071.455014,-10.23272868647344,1.2632281053609287,0.7357375602561779,0.40850277011902797,0.20431528338113913,0.31326395503019683
1765408071.455264,-10.230623638755521,1.3031133419929337,0.7230062957263155,0.40101809779017283,0.19904713319741824,0.3080321177490858
1765408071.455514,-10.228996243794963,1.3384766873026648,0.7067811611929097,0.393303522561616,0.19393917005328715,0.30259390667990965
1765408071.455764,-10.228822656495327,1.3692196009402144,0.6869850137696096,0.3853507615953185,0.18899004604476252,0.2969301282809528
1765408071.456072,-10.231078875115854,1.395243825249618,0.6635886604874301,0.37715336127853083,0.18418982006090037,0.29101986972992727
1765408071.456322,-10.236700304532514,1.4164640034702225,0.6366183573407189,0.36870822301427525,0.1795200214564619,0.28484155699949776
1765408071.456572,-10.246539823814429,1.432823433467713,0.6061606623800477,0.36001673181189453,0.17495406480906958,0.27837426152400024
1765408071.456822,-10.261325651077863,1.4443105370874918,0.5723636472618931,0.351085366394145,0.17045800040286124,0.27159915080091873
1765408071.457019,-10.281621037586495,1.450972944708888,0.535434498202935,0.34192574285246385,0.1659915602702834,0.26450096572603354
1765408071.457269,-10.307788201724458,1.4529261785262713,0.4956343430107892,0.33255412368559956,0.16150944170992068,0.2570693970042316
1765408071.457519,-10.339958515949437,1.4503552288377586,0.4532712455631539,0.32299048492365046,0.15696276413734542,0.24930022547883746
1765408071.457769,-10.378010099188169,1.4435092851810833,0.40869192215026284,0.3132572615553625,0.1523006398242668,0.24119610387670085
1765408071.457981,-10.421553261349485,1.432691303851942,0.3622723769374605,0.30337789132661064,0.1474718119615008,0.23276690317478593
1765408071.458181,-10.46992401657853,1.4182442841848248,0.3144076452120544,0.29337526705890354,0.142426333211266,0.2240296131629755
1765408071.458381,-10.522185995785463,1.4005355530105053,0.2655010862317374,0.2832702019776747,0.13711728110109347,0.21500784306623458
1765408071.458581,-10.57714124120005,1.3799400336102197,0.21595385510117496,0.2730800126244124,0.13150252057739156,0.2057309960400576
1765408071.458781,-10.633350420262698,1.3568238198521487,0.16615514274271584,0.26281732436712407,0.12554651147159515,0.1962332033727125
1765408071.459044,-10.689163033357463,1.3315298118672956,0.11647374237395862,0.2524892022768742,0.11922211937730222,0.18655212305445615
1765408071.459294,-10.742758221474057,1.3043668807654292,0.06725179075195069,0.24209670436660238,0.11251234753223148,0.17672773397162878
1765408071.459544,-10.792196578913204,1.2756029127109496,0.018801992355763037,0.23163494195440845,0.10541188890550984,0.1668012690851172
1765408071.459794,-10.835482760530713,1.2454608364072097,-0.028590317235080206,0.22109370941065956,0.09792840037281023,0.1568144082370478
1765408071.460016,-10.87063780038565,1.2141161429148402,-0.07465965905580181,0.21045871092904203,0.09008340972917334,0.1468087937715611
1765408071.460266,-10.89577919646267,1.1816946831376087,-0.11914808613048992,0.19971336503395845,0.08191277891726513,0.13682585838551198
1765408071.460516,-10.909206012331722,1.1482703542475317,-0.16178964110202781,0.1888411101788066,0.07346667187724096,0.1269068888602458
1765408071.460766,-10.909485497196957,1.1138631679932618,-0.2022932757058673,0.17782807373241236,0.06480900784431037,0.11709321160479698
1765408071.461087,-10.895537194672817,1.0784386898374458,-0.24032537716058466,0.1666659145779756,0.056016397231565304,0.10742638576373092
1765408071.461337,-10.866710243226887,1.0419096812302686,-0.2754928468677541,0.15535461957571867,0.04717654689772198,0.097948319261826
1765408071.461587,-10.822849273101308,1.004140108942043,-0.30732845058372443,0.1439050296636276,0.03838610893591356,0.08870125727999496
1765408071.461837,-10.76434380710495,0.964951127474442,-0.33528137420061865,0.1323408841342742,0.029747965052433305,0.07972760644277886
1765408071.46204,-10.692155761798459,0.9241288155895944,-0.35871636012015073,0.12070019325482977,0.021367991673555832,0.07106955172947194
1765408071.46224,-10.60782001591348,0.8814342744420222,-0.3769239697017299,0.10903578112225627,0.013351416922629481,0.06276842358136185
1765408071.46244,-10.513414093811427,0.8366173371044076,-0.3891430911661245,0.09741488881342528,0.005798935560468266,0.054863804260863396
1765408071.46264,-10.41149464979865,0.7894348499692132,-0.39459553767555905,0.08591779438013623,-0.0011972198442222368,0.04739241855516327
1765408071.46284,-10.305000743918287,0.739673416109872,-0.39253142825004594,0.07463548563488942,-0.007557041346454438,0.04038690288093901
1765408071.463037,-10.197126887587842,0.6871754594470322,-0.38228280301265916,0.06366650278159877,-0.01321612842151785,0.03387456752880198
1765408071.463287,-10.09117199112113,0.6318669854510827,-0.36332186286775325,0.05311313605253963,-0.01812847744286176,0.027876267355269057
1765408071.463537,-9.99037303504278,0.5737851850495856,-0.3353196217181885,0.04307720724294149,-0.022268474668992046,0.02240549457933568
1765408071.463787,-9.897734300411177,0.5131035034862209,-0.298200423322313,0.03365568361122084,-0.02563192450018894,0.017467804024052933
1765408071.464062,-9.815864265746564,0.4501509870595118,-0.2521875175510024,0.024936377541620775,-0.028236006728029835,0.013060660128528816
1765408071.464262,-9.746832522347077,0.38542227595011697,-0.19783494931025292,0.01699398212455913,-0.030118134688874684,0.009173746838056917
1765408071.464462,-9.692058048495127,0.3195750983741193,-0.13604163789502707,0.00988667860938464,-0.031333767227671123,0.005789717890840985
1765408071.464662,-9.652238051092437,0.25341345630860923,-0.06804463377263424,0.0036535211880789754,-0.03195330310065113,0.00288530779872992
1765408071.464862,-9.62732357581984,0.18785641239696124,0.0046100136842890365,-0.0016872420745969847,-0.03205825119554184,0.0004326840470241009
1765408071.465161,-9.616544339102763,0.1238942199949526,0.08011862535029148,-0.006138811289561361,-0.03173691779481997,-0.00159910191475293
1765408071.465411,-9.618481008999826,0.06253538496546342,0.15649154048610123,-0.009725403479905637,-0.031079882227733318,-0.003242712121454503
1765408071.465661,-9.63117898470207,0.0047497791369009905,0.23164140358193328,-0.012490779820696345,-0.030175549007645432,-0.004531296630424386
1765408071.465911,-9.652294096546475,-0.04858640322326144,0.30348282906007157,-0.014495831687228015,-0.02910606731926459,-0.005497533049225062
1765408071.466135,-9.679257891663223,-0.0967385193954499,0.3700365690635098,-0.01581539029001019,-0.027943889158105896,-0.006172967388210402
1765408071.466335,-9.70944866743314,-0.1391501465132731,0.4295301959006063,-0.016534478836636887,-0.026749188722070952,-0.006587645646147224
1765408071.466535,-9.740354593763868,-0.17546598469677624,0.4804874131796349,-0.0167442624661634,-0.025568288590204914,-0.006769994336636028
1765408071.466735,-9.769717095148497,-0.20553972797895645,0.5217994330617722,-0.016537963743305586,-0.02443314101200257,-0.006746892458401158
1765408071.466935,-9.795645497117457,-0.22942690533791021,0.5527736683532614,-0.01600699904884558,-0.023361811045365978,-0.006543868199893999
1765408071.467116,-9.816697116013728,-0.2473642287464472,0.5731568098974621,-0.01523755699257838,-0.02235982195262475,-0.006185346971338511
1765408071.467366,-9.831920286199743,-0.2597386208447919,0.5831313870033474,-0.014307789120052579,-0.021422165578272194,-0.005694881349895343
1765408071.467616,-9.84086119292398,-0.2670501773718952,0.5832872589538765,-0.013285722059375149,-0.02053575207676455,-0.005095316256562349
1765408071.467866,-9.843538363331154,-0.26987330109376495,0.5745716336501101,-0.01222793757412957,-0.019682067605767194,-0.004408876008740757
1765408071.468052,-9.840390681216705,-0.2688192837241689,0.5582225345264957,-0.011179011504110567,-0.01883982151925484,-0.0036571832858612687
1765408071.468252,-9.832205697027128,-0.2645024705760761,0.5356911285431386,-0.010171657738790358,-0.017987396336046135,-0.002861222139574133
1765408071.468452,-9.820035161315799,-0.25751144126201597,0.5085583944555115,-0.009227486734422188,-0.01710496026331061,-0.0020412469893449797
1765408071.468652,-9.805104490872589,-0.24838635920560517,0.47845147584951225,-0.008358257716411124,-0.016176152113500715,-0.0012166332637650857
1765408071.468852,-9.788722368215552,-0.2376033772259789,0.44696466762822207,-0.007567482736979195,-0.01518929223948148,-0.0004056691647466178
1765408071.46899,-9.772195841800565,-0.22556646816083328,0.41558927837650783,-0.0068522338749551605,-0.014138109435907134,0.00037470237212108214
1765408071.46919,-9.756755201821218,-0.21260630246290246,0.38565563486259113,-0.006205012400759715,-0.01302200626727896,0.0011091729593514042
1765408071.46939,-9.743491666190216,-0.19898499428150657,0.3582892430081276,-0.005615556321565502,-0.01184591463183928,0.0017843646406872564
1765408071.46959,-9.733309584610804,-0.18490492305758918,0.3343816257111611,-0.005072485872681356,-0.010619815504741722,0.002389105933684213
1765408071.46979,-9.726893572543313,-0.17051962942816543,0.3145749426688586,-0.004564713083823403,-0.009358007733585236,0.002914662085953553
1765408071.469991,-9.724689963049967,-0.1559449887367211,0.29925865348043096,-0.004082569507182828,-0.008078210878203122,0.0033548932500824017
1765408071.470191,-9.726901392381436,-0.14126923751269257,0.2885763921956276,-0.0036186320436659945,-0.006800579676969215,0.003706314321514507
1765408071.470391,-9.73349315116343,-0.126560788127579,0.28244154953367484,-0.003168247975070913,-0.005546694687378037,0.003968037385834414
1765408071.470591,-9.744209940347988,-0.11187325767921845,0.2805603592770161,-0.0027297769585595813,-0.004338575885197073,0.004141595485378625
1765408071.470791,-9.758601731794123,-0.0972479318205102,0.2824613953923609,-0.002304580652953555,-0.003197747069381197,0.004230666983062109
1765408071.470951,-9.776057443868623,-0.08271471588356503,0.28753034422671303,-0.0018967996171417917,-0.0021443642508924042,0.004240731059029109
1765408071.471151,-9.79584497319694,-0.06829295808025376,0.2950487414282875,-0.0015129620909045704,-0.0011964143722134905,0.004178684184169945
1765408071.471351,-9.817155768252753,-0.053993223722372245,0.30423514534538004,-0.001161470761968355,-0.0003689928186222921,0.004052443339435638
1765408071.471551,-9.839151778732196,-0.039820583633981,0.31428715243414085,-0.0008520119331187163,0.00032632253884349016,0.00387056150832071
1765408071.471751,-9.861012400877673,-0.025779670806231152,0.3244227373096942,-0.000594927279827594,0.00088197283651664,0.0036418810996625673
1765408071.472,-9.881978885844697,-0.011881583123637875,0.3339193360839696,-0.00040058330442431744,0.0012947622958188758,0.0033752433041096446
1765408071.4722,-9.901393555519313,0.0018476662616157373,0.3421487946199316,-0.0002787686438805547,0.0015660115960343178,0.0030792557458659115
1765408071.4724,-9.918731285341277,0.015358096319752495,0.34860610572261064,-0.00023814378100278294,0.0017014892024470583,0.002762107123055127
1765408071.4726,-9.933621248118031,0.028567647074821866,0.3529300742926181,-0.0002857609215538074,0.001711097041077219,0.0024314146691567515
1765408071.4728,-9.945857763020113,0.04135671716746867,0.35491462696173615,-0.00042666486004815877,0.0016083046478012773,0.0020940963094555867
1765408071.473068,-9.955400027127185,0.053566674569859814,0.35451024087276106,-0.0006635795699466314,0.0014093500037772597,0.0017562659605584346
1765408071.473268,-9.96236137174663,0.06500294622016185,0.351815782726445,-0.0009966807462452355,0.0011322492301464536,0.0014231531783245352
1765408071.473468,-9.966989368654207,0.0754425485637523,0.34706174803154916,-0.0014234535676679618,0.0007956806066047169,0.0010990492165976662
1765408071.473668,-9.969638525783763,0.08464534024554678,0.3405863351416269,-0.0019386391232623353,0.00041783106650059015,0.0007872826731679064
1765408071.473868,-9.970737540737872,0.09236790132421938,0.3328061087813375,-0.0025342791317302877,1.5307456973219435e-05,0.0004902284258956071
1765408071.474022,-9.970753319537804,0.09837875822092751,0.3241833996018743,-0.003199869505739203,-0.00039778860969533414,0.00020935239688493483
1765408071.474222,-9.970154250644194,0.10247364240055513,0.31519296102653666,-0.003922625426569087,-0.0008105431749397875,-5.4707866104594744e-05
1765408071.474422,-9.969375386775953,0.10448954182811053,0.3062905182243271,-0.0046878490415124185,-0.0012156180959246963,-0.0003020307400169641
1765408071.474622,-9.96878811601024,0.1043164824257135,0.2978856346829788,-0.005479383500869511,-0.0016093235517926484,-0.0005332754250692269
1765408071.474822,-9.968676606230755,0.1019062880850966,0.29032086915233657,-0.006280135551054991,-0.0019913834571044344,-0.0007495371915497954
1765408071.475053,-9.969222765498632,0.09727791429650533,0.28385852049420557,-0.0070726492920910496,-0.0023644283905623234,-0.0009522043007855921
1765408071.475253,-9.970500661082246,0.09051915918192656,0.2786754006887796,-0.007839712474511953,-0.0027332706384090065,-0.0011428209840065595
1765408071.475453,-9.972480412600913,0.08178462172438916,0.2748652108774213,-0.008564973045585721,-0.0031040317116479686,-0.0013229540584754397
1765408071.475653,-9.975040703012786,0.07128990197801041,0.2724473711950993,-0.009233538191941195,-0.0034832053668914613,-0.0014940598063391103
1765408071.475853,-9.977988306632284,0.0593023731097881,0.27138058832976164,-0.00983252305885376,-0.0038767450141913014,-0.0016573532862695925
1765408071.476056,-9.981082447086477,0.046129305273780244,0.27157907476343324,-0.010351514864478035,-0.00428925847035189,-0.0018136889359049047
1765408071.476256,-9.98406145070701,0.03210443495517108,0.2729292681763859,-0.010782921588682515,-0.004723375472481674,-0.0019634629571886604
1765408071.476456,-9.986669084766769,0.017574076231603723,0.2753051305807411,-0.01112218142928077,-0.005179329894008623,-0.0021065439397418236
1765408071.476656,-9.988678115604493,0.0028836067578231427,0.2785805081452557,-0.011367818459620852,-0.005654775291497581,-0.002242233221028006
1765408071.476856,-9.989908992900222,-0.011635162130950194,0.2826375642369854,-0.011521341643156572,-0.006144831965995095,-0.0023692547534965532
1765408071.477058,-9.990242224294093,-0.025675410644239068,0.2873709779649022,-0.011586998440524637,-0.0066423460900064705,-0.002485775521917386
1765408071.477258,-9.989623873088185,-0.03896521337742108,0.29268827767794164,-0.011571407794326943,-0.007138326524330913,-0.0025894590236896766
1765408071.477458,-9.988064448142334,-0.051275511907861414,0.29850711872819646,-0.011483105427132573,-0.007622514428731638,-0.0026775543253520014
1765408071.477658,-9.9856320904026,-0.06242570465409256,0.30475052749755144,-0.011332034630747168,-0.00808403647801912,-0.0027470218460777574
1765408071.477858,-9.98244140663652,-0.07228648095464235,0.3113412946458623,-0.011129011135441277,-0.008512092424992608,-0.0027946941440505023
1765408071.478063,-9.97863956467874,-0.08077972478531985,0.3181967517759552,-0.010885187020801145,-0.008896627269762997,-0.002817465394633728
1765408071.478263,-9.974391280172771,-0.08787558193017231,0.3252249013178696,-0.010611538481716412,-0.009228937388072624,-0.0028124986460237346
1765408071.478463,-9.969864141901608,-0.09358704768162729,0.3323223817924697,-0.01031840324893735,-0.009502164451937382,-0.002777437615834303
1765408071.478663,-9.965215504400762,-0.09796260484466182,0.3393743549564518,-0.01001509224604901,-0.009711643181155196,-0.002710609570380224
1765408071.478863,-9.960581948901085,-0.10107750776509314,0.3462561963313793,-0.00970959554672455,-0.009855083566300413,-0.0026112054504936104
1765408071.478964,-9.956071973959647,-0.10302436013065017,0.3528367530060124,-0.009408395407014426,-0.009932581577754758,-0.0024794217457564916
1765408071.479164,-9.951762157984152,-0.10390374752743953,0.3589828787608373,-0.009116390293217634,-0.009946467852943133,-0.002316547513798106
1765408071.479364,-9.947696696816672,-0.10381578628145947,0.3645649619314946,-0.008836925811420822,-0.00990102214118387,-0.002124982965330531
1765408071.479564,-9.94389000619684,-0.10285339979078302,0.36946311324246767,-0.008571923237106364,-0.009802094888714726,-0.0019081850271398329
1765408071.479764,-9.940331922372515,-0.10109790020757112,0.37357355305424406,-0.008322092441638012,-0.009656680159929055,-0.0016705476945683636
1765408071.479926,-9.936994908292618,-0.09861712104454723,0.3768146797890039,-0.008087210490041347,-0.009472478350891336,-0.0014172349987560792
1765408071.480126,-9.933842568544431,-0.09546601272176125,0.3791323607269071,-0.00786644093817802,-0.009257477981766314,-0.0011539874115939896
1765408071.480326,-9.930838663021012,-0.09168933613569197,0.38050403232878544,-0.007658665824353747,-0.009019576803075429,-0.0008869188990589788
1765408071.480526,-9.927955759175367,-0.08732588620406576,0.3809412324082646,-0.0074628037489889495,-0.008766257015470751,-0.0006223161869505651
1765408071.480726,-9.925182801134271,-0.08241353907660529,0.38049035999352643,-0.007278090812893333,-0.008504328841362777,-0.0003664476612757893
1765408071.481,-9.922531108100346,-0.07699434666848672,0.3792316922011724,-0.007104304773519532,-0.008239755945478693,-0.00012538654337216823
1765408071.4812,-9.920038385914696,-0.07111893871408555,0.3772767129338187,-0.00694191711016539,-0.00797756911399468,9.514936728143644e-05
1765408071.4814,-9.917770238602978,-0.06484966647708655,0.37476364930970557,-0.006792163022494969,-0.007721862579555915,0.0002899404248045602
1765408071.4816,-9.915818703392617,-0.05826219006704818,0.37185109726837323,-0.006657024586108285,-0.007475857116669275,0.0004543894616290823
1765408071.4818,-9.914297647699607,-0.05144546534363892,0.3687098568937279,-0.006539126779068555,-0.0072420094060837124,0.0005846271102616915
1765408071.482027,-9.913335251040401,-0.044500261629506745,0.36551336599566325,-0.00644155117501896,-0.007022148473784246,0.0006775991326870718
1765408071.482227,-9.91306407655777,-0.037536473264514134,0.3624273152390892,-0.006367579413336916,-0.006817626274065404,0.0007311381807862127
1765408071.482427,-9.91360952440178,-0.030669616846453893,0.35959929125514345,-0.00632038783359857,-0.00662947653738979,0.0007440209559396925
1765408071.482627,-9.915077816811044,-0.02401698326544365,0.3571495919969316,-0.00630272350381938,-0.006458577052880436,0.0007160074548022169
1765408071.482827,-9.917544864543535,-0.01769387068945395,0.3551643866783229,-0.006316596934488846,-0.006305803674045837,0.0006478555327126845
1765408071.482923,-9.92104720681363,-0.011810180692101858,0.3536920435787915,-0.006363025140976824,-0.006172156778738675,0.0005413047193075923
1765408071.483123,-9.92557584450035,-0.006467498783993366,0.35274298418281674,-0.006441850108946748,-0.0060588413777898885,0.0003990273072412501
1765408071.483323,-9.93107342367824,-0.0017566669764468544,0.3522930195359986,-0.006551645520845107,-0.005967289931583908,0.00022454867406105112
1765408071.483523,-9.937434842266807,0.0022441874052995863,0.35228964194784207,-0.0066897134112124425,-0.005899124302100895,2.2140645937777195e-05
1765408071.483723,-9.944510870946768,0.005471183941935204,0.35266014584759997,-0.006852164957612054,-0.005856056478801826,-0.0002033076969077371
1765408071.484034,-9.952114020171594,0.007875767066465105,0.35332010414044246,-0.007034075887085796,-0.005839730279294977,-0.0004464368440890956
1765408071.484234,-9.96002593455452,0.009425330587781465,0.3541809692037747,-0.007229704819034413,-0.00585151108147934,-0.0007015753787461942
1765408071.484434,-9.968005935302127,0.010103460906578472,0.35515620741169396,-0.007432760146513029,-0.005892237115550655,-0.0009629021746873072
1765408071.484634,-9.975800548309438,0.009909925928220861,0.3561659297453129,-0.00763669842241796,-0.005961954248874017,-0.0012246014019183327
1765408071.484834,-9.983153806147232,0.0088605047702184,0.3571402624586365,-0.007835036841909723,-0.006059667183504323,-0.001480998529817846
1765408071.484978,-9.989818003016731,0.006986651701177971,0.358021821654143,-0.008021663998782064,-0.006183148441091873,-0.0017266691492027451
1765408071.485178,-9.99556449447828,0.004334910431713913,0.3587675885650318,-0.008191133938479233,-0.006328844391292978,-0.0019565202093878025
1765408071.485378,-10.000193928740295,0.0009660173753904817,0.3593501346578689,-0.008338927620143747,-0.006491904395033198,-0.0021658517943891633
1765408071.485578,-10.00354505116014,-0.0030462720469079966,0.3597577865499382,-0.008461664949976027,-0.006666342887592049,-0.0023504126342264943
1765408071.485778,-10.005501277816144,-0.007616536966103019,0.3599933806947592,-0.008557250962225161,-0.0068453307799605225,-0.0025064611159265468
1765408071.486023,-10.005994656149001,-0.012649157589580044,0.3600716843291336,-0.008624941601777894,-0.0070215995961869435,-0.0026308361654930716
1765408071.486223,-10.005007255848724,-0.018039897913573293,0.3600158745822359,-0.00866531878328927,-0.007187925495166213,-0.002721033884315903
1765408071.486423,-10.002570197661123,-0.023677638011197686,0.35985348866832256,-0.008680172523481166,-0.007337644096749879,-0.0027752817111889078
1765408071.486623,-9.998760608229658,-0.02944628091104758,0.35961228018528707,-0.00867229926659056,-0.0074651381549171525,-0.002792603536860319
1765408071.486823,-9.993696992582995,-0.03522686138769314,0.3593165863703142,-0.008645236313511651,-0.007566240046597583,-0.0027728732132495425
1765408071.487067,-9.987533656207557,-0.040899897937915174,0.358984793949053,-0.008602958949155982,-0.007638496917169921,-0.0027168552837886356
1765408071.487267,-9.98045461393104,-0.04634800202308826,0.358628041387536,-0.008549568912419682,-0.007681260644963915,-0.0026262285060037185
1765408071.487467,-9.972667038101203,-0.051458661467514044,0.35824976809978165,-0.008489001559308984,-0.007695591787145329,-0.0025035827788998355
1765408071.487667,-9.96439411009267,-0.05612699787103722,0.3578456081311814,-0.0084247752682474,-0.007683999711085056,-0.0023523779758766413
1765408071.487867,-9.95586724277973,-0.06025825306729253,0.3574033765257342,-0.00835980133219798,-0.007650065697494813,-0.0021768556242720647
1765408071.487935,-9.947317854176603,-0.06376982780998125,0.3569031546901664,-0.008296267435525133,-0.007598005482842528,-0.0019819002663570375
1765408071.488135,-9.938969133726967,-0.06659282944809962,0.35631770407286995,-0.008235602932800777,-0.007532227785839864,-0.001772855206487207
1765408071.488335,-9.931028579297456,-0.06867320063421906,0.355613736684441,-0.008178527402829868,-0.007456940824700751,-0.0015553056718495299
1765408071.488535,-9.923682263312973,-0.06997254422206854,0.35475469294628165,-0.008125173958675267,-0.007375847781031045,-0.0013348489309213695
1765408071.488735,-9.91709148462291,-0.07046873465718147,0.35370527109530464,-0.008075267378162667,-0.007291953726108267,-0.0011168731955154426
1765408071.489017,-9.911391784670606,-0.07015636003708658,0.35243722172850017,-0.008028328377948939,-0.007207487040462568,-0.0009063638777927553
1765408071.489267,-9.906693739798305,-0.069047010294511,0.3509354393520742,-0.007983872757028531,-0.00712392408408953,-0.0007077482432581
1765408071.489517,-9.903084726795223,-0.0671694105278195,0.3492033210966697,-0.007941578153731177,-0.007042095563483572,-0.0005247818522076031
1765408071.489767,-9.900630793781037,-0.06456936515100546,0.3472664153658,-0.007901399392692415,-0.006962344184539648,-0.000360476514649916
1765408071.490067,-9.89937770148105,-0.0613094206126684,0.34517342870608225,-0.007863622825925483,-0.006884699972201937,-0.00021706969017755044
1765408071.490267,-9.899350319882977,-0.057468103867296505,0.34299396294477175,-0.007828858732571496,-0.006809046939350591,-9.603535250758878e-05
1765408071.490467,-9.900550035473309,-0.05313859288262115,0.34081301283392756,-0.007797978029227704,-0.006735268020634732,1.8666191701016653e-06
1765408071.490667,-9.902950438570107,-0.04842673041157836,0.33872290036352426,-0.007772005524882465,-0.0066633640830869815,7.651045842510481e-05
1765408071.490867,-9.906491989821891,-0.04344836380045051,0.3368136045301695,-0.007751987026257245,-0.006593543937668851,0.00012830625962991502
1765408071.491048,-9.91107656740053,-0.038326040187855875,0.3351624816574532,-0.0077388508441450865,-0.00652628122117316,0.00015809797066857468
1765408071.491248,-9.916562964932401,-0.03318511423731619,0.33382448086578737,-0.007733283953650604,-0.006462335396244659,0.0001670716132260214
1765408071.491448,-9.922764607737433,-0.028149386493836283,0.33282416653018526,-0.0077356388606380925,-0.006402736014654928,0.00015668430314933905
1765408071.491648,-9.929450797625666,-0.023336515664184897,0.33215089708921325,-0.007745881206530508,-0.006348729596351806,0.00012861860715972256
1765408071.491848,-9.936352491920834,-0.018853588211641518,0.33175818480633185,-0.007763582889840625,-0.006301689783299985,8.475894609862196e-05
1765408071.492021,-9.943172988949305,-0.014793290196983729,0.3315676358526239,-0.007787961383985584,-0.00626299698532345,2.7179278627934552e-05
1765408071.492221,-9.949603119321784,-0.011231067247071697,0.33147714959031493,-0.00781796138832105,-0.006233900953753732,-4.187236886303888e-05
1765408071.492421,-9.955339817463818,-0.008223515558961144,0.33137242600151817,-0.007852369119366995,-0.0062153830304263824,-0.00012000471852170208
1765408071.492621,-9.960106366298582,-0.0058080762465980455,0.33114037759833387,-0.007889943953951484,-0.0062080329362078,-0.00020473522646610333
1765408071.492821,-9.963672216965332,-0.0040039381124225195,0.33068277132617185,-0.007929549162970215,-0.006211951484332866,-0.00029356244270089724
1765408071.493023,-9.96587016236451,-0.002813908866800604,0.3299283555432114,-0.007970263798182395,-0.0062266884355918544,-0.0003840533367138816
1765408071.493223,-9.966608884028256,-0.00222691981289554,0.32884194320041854,-0.008011460378119544,-0.006251223160026763,-0.00047393738546357795
1765408071.493423,-9.96587949327645,-0.0022208097037610583,0.32742945038644555,-0.008052837373343889,-0.006283992404228155,-0.000561197416990378
1765408071.493623,-9.963755475848096,-0.002765081812595512,0.32573853936376024,-0.008094401861644026,-0.006322963231111823,-0.0006441464459411039
1765408071.493823,-9.960386199087857,-0.0038233986779076163,0.3238550170391789,-0.008136405220014183,-0.0063657422295265685,-0.0007214807400046732
1765408071.494034,-9.955984767748685,-0.005355635335682507,0.3218954637541466,-0.008179241641842711,-0.006409707996941476,-0.0007923019159347507
1765408071.494234,-9.950811570638736,-0.007319363132820438,0.31999692910735156,-0.008223324604785238,-0.006452153690230828,-0.0008561040297520398
1765408071.494434,-9.945155334867712,-0.009670702107295944,0.3183050009151607,-0.00826895933506114,-0.006490427592290444,-0.0009127259183844892
1765408071.494634,-9.939313727703986,-0.012364549640306262,0.31696184192397575,-0.0083162289292201,-0.0065220597818549065,-0.0009622754353097887
1765408071.494834,-9.933575365171498,-0.015354252531673543,0.31609559515548385,-0.008364908424758753,-0.006544863217356485,-0.0010050384986936957
1765408071.494976,-9.928204590473204,-0.018590854832463744,0.31581200702756057,-0.008414415998005891,-0.006557001350404663,-0.0010413882524120688
1765408071.495176,-9.923429847626968,-0.02202213368682978,0.3161886234185021,-0.008463804339747055,-0.006557023120381777,-0.0010717077854608213
1765408071.495376,-9.91943605113698,-0.025591689275699683,0.31727164556733845,-0.008511788710946913,-0.006543875792570251,-0.0010963362205828626
1765408071.495576,-9.916360943447582,-0.02923833357129682,0.3190752705180053,-0.008556802967384312,-0.006516909881101345,-0.00111554326381105
1765408071.495776,-9.914294932578656,-0.032895941362842046,0.3215829423360962,-0.00859707357631319,-0.006475886020687718,-0.0011295304113203527
1765408071.495928,-9.91328345813192,-0.036493856459357266,0.3247496604336774,-0.008630705686867541,-0.006420985972466401,-0.0011384490712132368
1765408071.496128,-9.913330798331298,-0.039957926448519775,0.3285046272163568,-0.008655782070987949,-0.0063528251495296294,-0.0011424211282680776
1765408071.496328,-9.914404427279313,-0.04321223081562505,0.33275393659496744,-0.008670478669193791,-0.006272462823330314,-0.0011415490164483207
1765408071.496528,-9.91643934811474,-0.04618149543530893,0.3373833174660251,-0.008673194856617305,-0.006181405466714542,-0.0011359086506530923
1765408071.496728,-9.919342127358373,-0.04879403766719473,0.3422610383797833,-0.008662685926295634,-0.006081598293427348,-0.0011255261457173338
1765408071.496992,-9.922994676253293,-0.05098494633664892,0.3472411608596544,-0.008638178520644435,-0.005975402874446506,-0.0011103464573869965
1765408071.497192,-9.92725814267054,-0.05269917387227984,0.3521674761944544,-0.008599451540648055,-0.005865564418572748,-0.0010902078650881504
1765408071.497392,-9.931977399322122,-0.053894306626156664,0.3568784553773326,-0.00854687253773277,-0.005755175525487543,-0.0010648378595781586
1765408071.497592,-9.936986418963453,-0.05454289025654357,0.3612132534905824,-0.008481386958901424,-0.00564764012544445,-0.0010338811688998934
1765408071.497792,-9.942114470319542,-0.05463424791687201,0.36501846106985825,-0.008404461672587982,-0.005546634625693324,-0.0009969609669260929
1765408071.497947,-9.947192808251947,-0.05417574331865236,0.3681551570237663,-0.00831798658111151,-0.005456058257466335,-0.0009537648452991734
1765408071.498147,-9.952061411855674,-0.05319343103511127,0.37050581671707483,-0.008224142662112152,-0.005379962989934893,-0.0009041418908552157
1765408071.498347,-9.956575189455155,-0.051732004543790906,0.37198050694593526,-0.008125251608483527,-0.005322454344375465,-0.000848196029405948
1765408071.498547,-9.960608897297009,-0.0498539139574879,0.3725215944963576,-0.008023626785237927,-0.005287558719260426,-0.0007863615233539821
1765408071.498747,-9.964060027595458,-0.04763752895084638,0.37210625134311226,-0.007921444366540848,-0.0052790607672412275,-0.0007194486523867484
1765408071.499054,-9.966849256998266,-0.04517429713447194,0.3707464910542135,-0.007820649083928329,-0.005300321629910736,-0.0006486522545486597
1765408071.499254,-9.968918541572277,-0.04256496357883901,0.3684870128902493,-0.007722903884289837,-0.005354089604646406,-0.0005755229481644832
1765408071.499454,-9.970227327774316,-0.03991503138199624,0.3654014294591539,-0.007629587060562297,-0.005442309641119784,-0.0005019079822531569
1765408071.499654,-9.970747547474598,-0.03732974956498857,0.36158751560907115,-0.0075418329674593765,-0.005565934195776453,-0.0004298722681282078
1765408071.499854,-9.970458149049099,-0.03490900129733218,0.3571620870166585,-0.007460604048621815,-0.0057247402322838726,-0.00036160879066131834
1765408071.499977,-9.969339873274025,-0.03274248345741542,0.3522559799783436,-0.007386775363736641,-0.005917162432959291,-0.0002993430634566096
1765408071.500177,-9.96737076569088,-0.030905501963165983,0.34700930680669395,-0.007321210780030955,-0.006140155751028441,-0.0002452317392349671
1765408071.500377,-9.964522670048696,-0.02945562432416674,0.3415668864542435,-0.007264813686690552,-0.006389100803071599,-0.0002012537401907378
1765408071.500577,-9.960758926883633,-0.02843039112503401,0.3360737733929402,-0.0072185440961115895,-0.006657765218949046,-0.00016909505376851413
1765408071.500777,-9.956033722466566,-0.02784624845802068,0.33067109965403735,-0.007183405510103747,-0.006938332118183672,-0.00015003452818397166
1765408071.501053,-9.950293704763151,-0.027698752327247417,0.3254926581474883,-0.007160413554397611,-0.007221501317863521,-0.00014484325093359012
1765408071.501253,-9.943482384713123,-0.027963935157905937,0.3206625893993073,-0.007150559845895746,-0.007496661140752837,-0.00015371077757148188
1765408071.501453,-9.935547577255251,-0.028600601251783712,0.3162943794308985,-0.0071547802292720375,-0.007752122980598452,-0.00017620811955074844
1765408071.501653,-9.926451877782325,-0.029553275744966304,0.31249132858619977,-0.007173931280030671,-0.007975409307054345,-0.0002112921708356588
1765408071.501853,-9.916185834939082,-0.030755540781610018,0.3093485266529961,-0.0072087745465232835,-0.008153587756348248,-0.00025734985692191296
1765408071.501965,-9.904782909960488,-0.03213350862879351,0.3069559248111458,-0.007259962488410184,-0.008273648127422765,-0.00031227413522096255
1765408071.502165,-9.89233464545849,-0.03360919817315743,0.3054015392170219,-0.007328014093287683,-0.008322924387588608,-0.0003735616552361157
1765408071.502365,-9.879004074418017,-0.03510362461507315,0.3047736258877708,-0.0074132665384756494,-0.008289567440225683,-0.0004384250076470172
1765408071.502565,-9.865035447747143,-0.03653948688821622,0.30516093103793457,-0.0075157951523514895,-0.008163071919784791,-0.000503917994458643
1765408071.502765,-9.850758643403864,-0.03784340994279841,0.3066504891690563,-0.0076353045798785305,-0.007934849091966716,-0.0005670759198918494
1765408071.503127,-9.836586896876996,-0.03894775247165197,0.3093226613940648,-0.007771003779171415,-0.007598821276695982,-0.0006250725289017804
1765408071.503327,-9.823006792080385,-0.03979204459466177,0.31324333314718505,-0.007921483187134518,-0.00715199761714997,-0.0006753910305772824
1765408071.503527,-9.81055995238532,-0.04032417226741787,0.31845361935603084,-0.008084615002962196,-0.006594980135215974,-0.00071599980644614
1765408071.503727,-9.799816563688891,-0.04050143745729905,0.32495792272197954,-0.008257497860631737,-0.005932343276743919,-0.0007455161694595068
1765408071.503927,-9.791341556482124,-0.040291585962024666,0.3327115057429607,-0.008436463010229987,-0.005172831011416808,-0.0007633368853862051
1765408071.504038,-9.785654951191832,-0.039673842390572714,0.34160889118228455,-0.008617149111939374,-0.004329324921768549,-0.0007697140853978842
1765408071.504238,-9.783188748437148,-0.038639940860189716,0.3514745878202133,-0.0087946408223493,-0.0034185529384584265,-0.0007657596032989258
1765408071.504438,-9.784243918063899,-0.03719508148698102,0.36205781739973153,-0.008963659251624827,-0.0024605273769819753,-0.0007533686733918193
1765408071.504638,-9.788952254677614,-0.03535872743634868,0.37303289904635617,-0.009118792946128952,-0.0014777219542292934,-0.0007350647360772396
1765408071.504838,-9.797248642178724,-0.03316530279156521,0.3840066939473878,-0.009254762250347973,-0.0004940240828222154,-0.0007137801464575878
1765408071.504988,-9.808859021409237,-0.03066511617944902,0.39453397791381883,-0.0093667101514867,0.00046646897918170983,-0.0006926017038419472
1765408071.505188,-9.823307601028088,-0.027925824153175963,0.4041404724529061,-0.009450504879012044,0.0013807139401400374,-0.0006745225799921363
1765408071.505388,-9.839943749098426,-0.025034068999122742,0.4123515604817436,-0.009503026821819327,0.0022279395175763177,-0.0006622457168840567
1765408071.505588,-9.857985654142178,-0.022095851938074545,0.4187234621773148,-0.009522402994241475,0.002990722464650044,-0.0006580671565742605
1765408071.505788,-9.876575626295365,-0.01923366091036475,0.4228738746518503,-0.009508155124729719,0.0036558420951926813,-0.0006638316583447547
1765408071.506009,-9.894841270163061,-0.016579111125306654,0.4245102367970334,-0.009461245686688557,0.004214850076633623,-0.0006809178661857967
1765408071.506259,-9.911956910686113,-0.014261722982215667,0.423454173103936,-0.009384029981271996,0.004664311256924756,-0.000710201741166681
1765408071.506509,-9.927199726854575,-0.012396334973400473,0.4196597298142197,-0.009280133318555454,0.005005698020309473,-0.0007519748969560629
1765408071.506759,-9.939995290457942,-0.011072156923316364,0.4132222222228192,-0.009154264571297949,0.005244956527061455,-0.0008058439662493903
1765408071.506993,-9.949948461346267,-0.01034527971688616,0.4043754489351447,-0.009011967063796133,0.005391805150775217,-0.0008706710321301103
1765408071.507193,-9.956857886460975,-0.010234801323312111,0.39347733590465445,-0.008859312562646387,0.005458860345362812,-0.0009446000132369635
1765408071.507393,-9.960714728560777,-0.01072210695305749,0.38098613100595846,-0.008702561243975804,0.005460695003847024,-0.0010251607438615485
1765408071.507593,-9.96168786889113,-0.01175332304608438,0.3674302158880133,-0.008547823163202557,0.005412915611877588,-0.0011094057190346568
1765408071.507793,-9.960098618232738,-0.013245243390397237,0.3533747347117988,-0.00840075515965039,0.005331312477217004,-0.001194049693181279
1765408071.507954,-9.956388244041507,-0.015094167288201312,0.3393879807305627,-0.008266315301104638,0.005231108901384921,-0.001275621972891423
1765408071.508154,-9.951081539106188,-0.01718576402905531,0.3260099246969657,-0.00814858381839802,0.005126317093166832,-0.0013506529814552135
1765408071.508354,-9.944749276455157,-0.01940372240838621,0.3137245950345928,-0.008050650519999588,0.005029200223826989,-0.0014158895164959856
1765408071.508554,-9.93797189232754,-0.021636028345852994,0.30293753824717745,-0.007974564727985066,0.004949838050514165,-0.001468502519193948
1765408071.508754,-9.931306281620062,-0.023779292822258165,0.29395927552432805,-0.007921341992407151,0.0048957958942436154,-0.0015062500669893236
1765408071.509006,-9.925257167434161,-0.025742337189813308,0.2869952497268582,-0.007891018378270968,0.004871904118204186,-0.0015275843458957621
1765408071.509206,-9.920254091124148,-0.027449774004242904,0.28214225512616115,-0.007882738310047712,0.004880165807648776,-0.0015317175690093318
1765408071.509406,-9.916634759513526,-0.02884526143074601,0.27939105957378607,-0.007894861092206253,0.004919814459777807,-0.0015186653900281881
1765408071.509606,-9.914635309475308,-0.029893564801722738,0.27863486569872614,-0.00792507687049525,0.004987530627713685,-0.0014892678063493996
1765408071.509806,-9.914387776750788,-0.0305810145763139,0.27968305980211633,-0.007970529656806691,0.005077799433387859,-0.0014451680340140055
1765408071.510026,-9.915924403395438,-0.030914837185414514,0.28227917836221794,-0.008027946368727501,0.00518336648477081,-0.0013887305401009476
1765408071.510226,-9.919187468476279,-0.030922180507389804,0.28612142057248274,-0.008093766681664729,0.005295741080283694,-0.0013229012893680085
1765408071.510426,-9.924042595441938,-0.03064908003857885,0.29088371508437744,-0.008164264369121361,0.005405700353319333,-0.0012510361233415564
1765408071.510626,-9.930293437407883,-0.030158686335955583,0.29623544075771785,-0.008235651147930189,0.005503758965933035,-0.0011767250340883836
1765408071.510826,-9.93769620718663,-0.029527762799338064,0.3018583086525893,-0.008304159151085747,0.005580584535716058,-0.001103618788915801
1765408071.510943,-9.945973306088739,-0.028841183575235164,0.3074595533834941,-0.008366105404942524,0.0056273560507073385,-0.001035241216256527
1765408071.511143,-9.954826041005157,-0.028185341323559203,0.31278140629620443,-0.008417947883527607,0.005636072070831387,-0.0009747706933010623
1765408071.511343,-9.963946939668324,-0.02764197391786474,0.31760756023936937,-0.008456345728828966,0.005599814510234518,-0.0009248015985323989
1765408071.511543,-9.973032215095943,-0.027283442968468626,0.3217675480430544,-0.008478235554826219,0.005512969892576264,-0.0008871273776897283
1765408071.511743,-9.981794385224955,-0.027169458664374046,0.3251395646216527,-0.00848093214186256,0.005371408436068493,-0.0008625936558271792
1765408071.511977,-9.989974313239921,-0.0273446052881732,0.32765172417369526,-0.008462256223741553,0.005172618712114667,-0.0008510471656163212
1765408071.512177,-9.997351566081756,-0.027836219292980968,0.3292814892035132,-0.00842068442450489,0.004915790343891306,-0.0008513739093834976
1765408071.512377,-10.003752160194656,-0.028652782432189956,0.33005303398249736,-0.008355506831540557,0.004601835175183354,-0.0008616018194734966
1765408071.512577,-10.009053245698233,-0.02978330625303475,0.3300324936203978,-0.008266969498122577,0.004233342123809825,-0.0008790466447300389
1765408071.512777,-10.01318481999127,-0.031197958403183443,0.32932140097305923,-0.008156377591017096,0.0038144666885865388,-0.0009004933644846584
1765408071.512925,-10.016128949208104,-0.032849738562605764,0.32804894681042185,-0.00802614103281909,0.0033507559768255917,-0.0009224128004720137
1765408071.513125,-10.017916984887549,-0.03467677003206668,0.32636365036329085,-0.007879753232827028,0.0028489073686977307,-0.0009412083009227741
1765408071.513325,-10.018624909132148,-0.03660487572150208,0.3244246254180101,-0.007721699396746908,0.002316463006093109,-0.0009534768606307494
1765408071.513525,-10.018366658000277,-0.03855043343692427,0.3223924225463773,-0.007557294052330354,0.0017614548989256975,-0.000956262583626562
1765408071.513725,-10.017285478724126,-0.040423811546071935,0.3204197681436263,-0.007392451709397859,0.0011920274346333293,-0.0009472826244778492
1765408071.513956,-10.015543910736382,-0.042133733835201644,0.31864302769964103,-0.007233401653428723,0.0006160684483287954,-0.0009251137620439225
1765408071.514156,-10.013313267711009,-0.04359263890207114,0.31717527808995566,-0.007086365763406,4.0879552098018994e-05,-0.0008893339705788758
1765408071.514356,-10.010763292929232,-0.04472265850572721,0.3161014166002718,-0.006957224510291785,-0.0005270852122814901,-0.0008406120586790286
1765408071.514556,-10.00805233120547,-0.045461513523174076,0.3154752497928637,-0.006851199198941783,-0.0010823885617663907,-0.0007807313528409956
1765408071.514756,-10.005318329461518,-0.04576755989511929,0.3153183582268331,-0.006772576075105879,-0.001620673998602743,-0.000712528114944366
1765408071.51499,-10.002671190019862,-0.045623369728240215,0.3156206271847346,-0.006724489603463382,-0.002138625045018684,-0.0006397286527283715
1765408071.51519,-10.000187130243454,-0.045037490865947646,0.31634242879634245,-0.0067087717636589725,-0.0026338331842757127,-0.0005666823816942606
1765408071.51539,-9.997905610119604,-0.044044297364212844,0.3174184596782803,-0.006725867633160099,-0.003104600960190298,-0.0004980080351793912
1765408071.51559,-9.995829141616785,-0.042702041218989656,0.3187631632070646,-0.006774817165573152,-0.0035497170202557654,-0.0004381903838299926
1765408071.51579,-9.99392593795242,-0.041089271074499514,0.32027743345168325,-0.00685330524233072,-0.003968241261540851,-0.00039117784327579466
1765408071.515999,-9.99213495182266,-0.03929972569342599,0.32185597349174017,-0.006957781552176434,-0.004359328437158102,-0.0003600321495356891
1765408071.516199,-9.990372582598567,-0.03743582352380914,0.32339453667045565,-0.007083647073826527,-0.004722104725840294,-0.000346669756350316
1765408071.516399,-9.98854038233922,-0.035601135525494425,0.32479648982306514,-0.007225497049707066,-0.005055603106942492,-0.00035171584074028566
1765408071.516599,-9.986533347370662,-0.033892659424963695,0.3259784969871065,-0.007377404261447239,-0.005358761180962712,-0.00037447441731053847
1765408071.516799,-9.984248522221588,-0.032393955168523995,0.32687527252742526,-0.007533223215852473,-0.005630482879887458,-0.00041300943581226983
1765408071.516987,-9.981593519480485,-0.031169991124120684,0.327443244102689,-0.007686896214659611,-0.005869757390692835,-0.00046433071450024466
1765408071.51732,-9.978494354386312,-0.0302640148025484,0.32766286100521774,-0.007832744952995744,-0.006075814581625003,-0.0005246749016988844
1765408071.517654,-9.974901941162152,-0.029696283170550997,0.3275393412984,-0.007965733923458992,-0.006248281690758908,-0.0005898574496864422
1765408071.518008,-9.970796731235366,-0.029464343085876074,0.32710179527902045,-0.008081693541273001,-0.006387299267559686,-0.0006556523876330176
1765408071.519928,-9.966191198011385,-0.029544705670860306,0.32640082879196874,-0.008177492585802843,-0.006493562527840753,-0.0007181476238275518
1765408071.52298,-9.961130113557225,-0.029895917095410094,0.3255049140054491,-0.008251151457853894,-0.006568276794152925,-0.0007740336151368506
1765408071.523989,-9.955688729910154,-0.03046290959874483,0.3244958931594272,-0.008301888207219032,-0.006613041282668372,-0.000820805361573353
1765408071.526012,-9.949968991251072,-0.031182144967478925,0.32346383681460034,-0.008330089196420165,-0.006629690834763726,-0.0008568756956198352
1765408071.530022,-9.944093881806442,-0.031986781106035214,0.32250132374544743,-0.008337200868525909,-0.006620126887639291,-0.0008816030512291405
1765408071.531019,-9.938200210471022,-0.03281121238136337,0.32169737416611566,-0.008325550882398936,-0.006586163536461815,-0.0008952349145245289
1765408071.534979,-9.932430520728971,-0.03359479179611085,0.3211316342013417,-0.00829812039955984,-0.006529408241000139,-0.0008987704251344396
1765408071.537047,-9.926925021644374,-0.03428494509001596,0.3208695088395898,-0.008258296641039132,-0.006451191172479227,-0.0008937575152142336
1765408071.539959,-9.921814256627126,-0.03483990108985816,0.3209586582766963,-0.008209633137115438,-0.00635255272213777,-0.0008820566825181439
1765408071.543055,-9.917212894771646,-0.03523092727662476,0.3214269615889109,-0.008155637023246379,-0.006234294280900761,-0.0008656138215797941
1765408071.544993,-9.913214809950228,-0.035443620601549236,0.3222818997188609,-0.00809959323196109,-0.006097088379509122,-0.0008462793720245244
1765408071.547041,-9.909889462746952,-0.03547779964643285,0.3235111442011957,-0.008044429066822385,-0.005941628869509295,-0.0008256913886564505
1765408071.550037,-9.907279450515626,-0.03534593367459002,0.325083942475549,-0.007992620705112374,-0.005768788363624386,-0.0008052175711221024
1765408071.552863,-9.905399106705003,-0.03507055746178646,0.3269529337293093,-0.00794614242505973,-0.005579748646038861,-0.000785938295622032
1765408071.555041,-9.904234295602425,-0.034681381274244694,0.3290563398544221,-0.007906455755513561,-0.005376078904924815,-0.0007686522936347675
1765408071.555983,-9.903743784728816,-0.034212654649609174,0.3313207188737863,-0.007874529338135,-0.005159748246696995,-0.0007538925512744811
1765408071.559991,-9.903862476447857,-0.033700954404415395,0.3336644501208334,-0.00785087520786567,-0.004933070435059798,-0.0007419452477880403
1765408071.562962,-9.904506397003686,-0.033183257748715146,0.33600195870112204,-0.00783558781258352,-0.0046985910069749495,-0.0007328670518894955
1765408071.564995,-9.905578954443149,-0.03269513417432613,0.33824847216544207,-0.007828379603659036,-0.004458935493395213,-0.0007264973107090236
1765408071.566069,-9.906977774063934,-0.03226910598952882,0.3403248495206321,-0.007828617922134387,-0.004216637884998174,-0.000722463399980449
1765408071.567976,-9.908601439521,-0.03193343530139202,0.34216189108865214,-0.007835375130244395,-0.003973964938659089,-0.000720180946286016
1765408071.570961,-9.910355644102765,-0.03171154944015394,0.34370367500490184,-0.007847501849335789,-0.0037327516681319763,-0.0007188557315723184
1765408071.573028,-9.912158435009115,-0.0316220398322941,0.3449097305462004,-0.007863722864801833,-0.003494266631976496,-0.0007174982047550511
1765408071.577023,-9.91394431293692,-0.03167892704333462,0.34575603671932553,-0.007882743820228988,-0.0032591277468926954,-0.000714960781256095
1765408071.57998,-9.91566700781369,-0.03189188035047504,0.346234943300761,-0.007903350738823997,-0.0030272875294862877,-0.0007100018968449481
1765408071.58293,-9.917300866767748,-0.03226627126902167,0.3463542137474063,-0.007924485501927868,-0.002798100019118346,-0.0007013729482505103
1765408071.584962,-9.91884086515749,-0.03280315204139361,0.3461353975791552,-0.00794528719119177,-0.0025704697424118474,-0.0006879185325721758
1765408071.587949,-9.920301209511175,-0.033499349256318776,0.345611625261115,-0.007965098558714974,-0.00234306819445322,-0.0006686771322060215
1765408071.590031,-9.921712472107261,-0.03434781630906548,0.34482483262890956,-0.007983444640633924,-0.002114590340383313,-0.0006429679614164877
1765408071.593052,-9.92311732333667,-0.03533824748984116,0.3438224743505063,-0.007999993502185512,-0.0018840167854785549,-0.0006104512024800687
1765408071.594949,-9.924565173767874,-0.036457810641510595,0.3426539301474906,-0.008014507377206027,-0.0016508487735153227,-0.0005711542795998444
1765408071.596979,-9.926106288313276,-0.03769177388003561,0.341366960135531,-0.00802678874753213,-0.001415292685020307,-0.0005254640790395541
1765408071.599974,-9.92778610065027,-0.039023820183578535,0.34000465140316627,-0.008036623474150375,-0.0011783829373936858,-0.000474090077809668
1765408071.602998,-9.92964045445117,-0.04043597607960788,0.33860323754635,-0.008043724163171994,-0.0009420397213639773,-0.00041800412647569985
1765408071.604987,-9.931692303843297,-0.041908281817951205,0.3371909741232263,-0.0080476808949292,-0.0007090592062811809,-0.0003583613898163696
1765408071.607969,-9.933950094359389,-0.04341847169065972,0.33578801602286135,-0.008047929768421556,-0.00048303403442796186,-0.0002964078714854655
1765408071.609941,-9.936407691846597,-0.0449419095849588,0.3344070168518422,-0.008043749586786067,-0.0002682059402446698,-0.0002333836930752602
1765408071.613016,-9.939045381951873,-0.04645187733228865,0.33305398262979047,-0.00803429358904391,-6.926011148140546e-05,-0.0001704334176901742
1765408071.614986,-9.94183128484769,-0.047920180643044714,0.3317289176740952,-0.008018657468670668,0.00010892009983936726,-0.00010853150145989841
1765408071.61797,-9.94472270083718,-0.04931800952272996,0.33042611224931895,-0.007995977231840309,0.0002615125020595988,-4.8424906423549834e-05
1765408071.619992,-9.947667325581017,-0.05061705218711854,0.3291343103003741,-0.00796554203137034,0.00038400291120875855,9.408087243985643e-06
1765408071.623003,-9.950604596696165,-0.051790933106496045,0.3278371034735124,-0.007926901819531934,0.000472399928477061,6.478110605796687e-05
1765408071.624936,-9.953467465875855,-0.05281702353027178,0.3265137247624112,-0.00787995096622897,0.00052340782573634,0.00011779778689043497
1765408071.628098,-9.956184755984165,-0.053678493030551236,0.3251402533928012,-0.007824975900161324,0.0005345532060953374,0.00016881538430498668
1765408071.630093,-9.95868410159296,-0.05436620817714092,0.3236911987549857,-0.007762663109704264,0.0005042621595441045,0.0002183692304441645
1765408071.633045,-9.960895298469291,-0.05487994379989048,0.3221413874419626,-0.007694070876187815,0.0004318871244526043,0.00026706389057824163
1765408071.634986,-9.962753764407314,-0.05522849593328995,0.32046802456720935,-0.007620573875945629,0.00031768907350135785,0.00031544791504510615
1765408071.638101,-9.964203835975685,-0.05542860300072081,0.318652819747777,-0.007543793943412657,0.0001627874337812728,0.00036389462954140275
1765408071.640045,-9.965201711145934,-0.05550289469609133,0.3166840821086121,-0.007465531410388988,-3.090667360199494e-05,0.00041250823133831684
1765408071.642075,-9.96571783207061,-0.05547724741557875,0.3145585893649245,-0.007387708358297064,-0.0002607601654564983,0.00046106491528696445
1765408071.644972,-9.965738430816138,-0.055377906453285435,0.3122829481063585,-0.0073123278213643944,-0.0005234834533551486,0.0005089894307365415
1765408071.645992,-9.965266024996982,-0.05522863209643951,0.3098742694699355,-0.007241443858108665,-0.0008151927254678631,0.0005553637575715773
1765408071.649999,-9.964318876636503,-0.05504809347965619,0.3073602155460025,-0.007177131483053835,-0.0011314762582249284,0.0005989658732782147
1765408071.652044,-9.96292966131703,-0.054847838312781665,0.30477861374734283,-0.007121446476425949,-0.0014674736735940206,0.0006383373398205956
1765408071.655102,-9.961143727637685,-0.05463127220346383,0.3021768210547345,-0.0070763712885093,-0.001817975227011084,0.0006718744723461908
1765408071.658091,-9.959017336455034,-0.05439396348549022,0.29961090499111254,-0.007043748945779582,-0.0021775442288631867,0.0006979308849603806
1765408071.660071,-9.956616115385922,-0.05412520542810456,0.29714453425295145,-0.007025208524660323,-0.0025406605581310433,0.0007149151842662773
1765408071.661062,-9.954013658513661,-0.053810345311174894,0.2948473070674358,-0.007022084850729759,-0.0029018787794344247,0.0007213707749284566
1765408071.66398,-9.951289910876445,-0.0534332055458739,0.2927922088216026,-0.007035334846433487,-0.0032559924868485104,0.0007160333504518223
1765408071.667945,-9.948528878225893,-0.052978049125622144,0.29105201678935605,-0.007065454668858852,-0.0035981967732432825,0.0006978695392277938
1765408071.669968,-9.945815301594461,-0.05243085335783285,0.28969468140380555,-0.007112404804404793,-0.003924241536619082,0.000666103196702146
1765408071.673,-9.943230159484383,-0.051779982847665065,0.2887779565256459,-0.007175553212119699,-0.004230569184360561,0.0006202348457100214
1765408071.6735,-9.940845182622567,-0.05101655985456308,0.28834380292127265,-0.007253647468820158,-0.004514430678828389,0.0005600574251201306
1765408071.678021,-9.938716921806567,-0.05013483092507924,0.2884132522440821,-0.0073448245269621265,-0.004773972188702959,0.00048566882280250384
1765408071.680005,-9.936881139958562,-0.04913265227231359,0.2889823969363454,-0.007446662433626375,-0.005008281417210834,0.00039747904616765066
1765408071.683063,-9.935348323120818,-0.04801202570237628,0.29002002839689106,-0.007556273830548772,-0.005217382077652323,0.000296208844643379
1765408071.685061,-9.934100992121923,-0.04677956039304336,0.29146730036524116,-0.007670435645767961,-0.005402169402495409,0.00018287807159356181
1765408071.688119,-9.933093307413657,-0.045446798143236024,0.2932396224232546,-0.007785742877843295,-0.0055642859996366395,5.878430108143906e-05
1765408071.690071,-9.932253187577192,-0.04403040319816453,0.29523073401836636,-0.007898770092121114,-0.00570594224046531,-7.452742822415787e-05
1765408071.692933,-9.93148687386303,-0.042552219340123584,0.2973186791130096,-0.008006225284106801,-0.005829689853209807,-0.0002153043628053815
1765408071.694971,-9.93068568691045,-0.041039152316466064,0.2993733088360231,-0.008105085545388526,-0.005938163647364545,-0.0003616366011231483
1765408071.697985,-9.929734599778136,-0.039522780446051585,0.30126488594456013,-0.008192709188354009,-0.006033811961049769,-0.0005115180168730258
1765408071.700037,-9.92852203454688,-0.038038580239557036,0.3028732126327569,-0.008266923536494632,-0.006118638110369354,-0.0006629139271190222
1765408071.703057,-9.926949986045592,-0.03662472050710193,0.30409652343622157,-0.008326090985599487,-0.006193973923132467,-0.0008138294815286565
1765408071.705011,-9.924943397817426,-0.03532048930010588,0.30485932488013123,-0.008369156579771405,-0.006260305529832294,-0.0009623721524786785
1765408071.70796,-9.922457795823538,-0.03416447247140528,0.30511843474968264,-0.008395677666214942,-0.0063171711833442876,-0.0011068028156980911
1765408071.710026,-9.919484471332074,-0.03319257126265468,0.30486665904521854,-0.008405832633030394,-0.006363147992127578,-0.0012455718641651862
1765408071.712992,-9.916052907357217,-0.032435907039650796,0.3041338923294275,-0.008400404832694868,-0.006395935776320252,-0.0013773385864260148
1765408071.714934,-9.912230559451075,-0.03191868298620147,0.3029858374654429,-0.008380740609018484,-0.0064125320394582686,-0.0015009735161882944
1765408071.717978,-9.908120338739828,-0.03165615186954687,0.30152070924387075,-0.008348684428024762,-0.006409478270780677,-0.001615545552184195
1765408071.720046,-9.90385608970535,-0.03165295360900475,0.2998641001011452,-0.008306495929384717,-0.006383151781077078,-0.0017202990210819498
1765408071.722966,-9.89959617933378,-0.031902196780857865,0.29816194797051143,-0.00825675190223,-0.006330079754601181,-0.0018146298025599691
1765408071.724947,-9.895515292305788,-0.032385653993628645,0.29657158666322075,-0.008202233054179173,-0.006247256376578058,-0.0018980727507272113
1765408071.727993,-9.891794709266964,-0.03307522292062887,0.295251155828793,-0.008145795313172992,-0.006132444049160485,-0.0019703135598826875
1765408071.730109,-9.888611603555315,-0.03393545320799834,0.2943480237346654,-0.008090230472445696,-0.005984437893775844,-0.0020312353781256655
1765408071.732993,-9.886128171165735,-0.03492668213849264,0.2939872888760906,-0.008038128492839473,-0.0058032737331858795,-0.0020810030550507705
1765408071.733493,-9.884481685553522,-0.03600828440804205,0.2942618013417402,-0.007991757937215831,-0.005590362764888562,-0.0021201774588267947
1765408071.738073,-9.88377665675902,-0.037141626112551736,0.29522518322978986,-0.007952978130133239,-0.005348537587252186,-0.0021498417974922775
1765408071.738573,-9.88407997215433,-0.0382923654531426,0.29688880923328864,-0.007923188086536762,-0.005081995932689437,-0.0021717133525615833
1765408071.742054,-9.88541931430048,-0.03943174653213666,0.29922286943842513,-0.007903307793634367,-0.004796135434345264,-0.0021882085033944855
1765408071.744994,-9.887784621867365,-0.040536601952442054,0.302160946648193,-0.007893781607633077,-0.004497284291503489,-0.0022024282333287315
1765408071.746978,-9.891132012151092,-0.04158801994688329,0.3056071608050056,-0.007894593399539464,-0.004192343631598147,-0.0022180382029928897
1765408071.750098,-9.895389299065766,-0.04256902082490723,0.3094446974393042,-0.007905287573306035,-0.0038883673791958325,-0.0022390333399103287
1765408071.751037,-9.90046204272913,-0.043461961673888785,0.31354443310820024,-0.007924996082542341,-0.0035921174916978453,-0.002269399497188496
1765408071.755022,-9.906239184469266,-0.04424655731068651,0.3177726057945777,-0.007952475969019072,-0.0033096422219963235,-0.0023127080138956057
1765408071.75809,-9.91259775614642,-0.04489929873168463,0.3219970131224989,-0.007986162353597287,-0.0030459230701569704,-0.00237169609455507
1765408071.75859,-9.91940657577651,-0.04539472957045291,0.3260916914830357,-0.008024237339706572,-0.00280462127270591,-0.002447893321800426
1765408071.762028,-9.926529053061003,-0.045708600589771504,0.3299402522183449,-0.008064708463584013,-0.002587937252213073,-0.0025413524103378386
1765408071.764897,-9.933825367232213,-0.04582243757446446,0.33343820976230865,-0.008105486156136162,-0.002396584955128574,-0.002650530640259497
1765408071.76708,-9.94115444391405,-0.04572862631833079,0.33649482679746057,-0.00814445099879015,-0.002229875991754382,-0.002772346887876745
1765408071.768079,-9.948376175749548,-0.04543487460995722,0.3390349987952605,-0.008179506783642893,-0.002085901161196053,-0.002902410775989129
1765408071.772015,-9.955354091900675,-0.044966953841201154,0.34100138537473007,-0.008208621271686124,-0.001961790008900689,-0.003035392987877925
1765408071.776047,-9.961958399720237,-0.04436893800940714,0.34235664902177415,-0.008229860900082207,-0.0018540271676501623,-0.0031654867909001174
1765408071.777945,-9.968069259437796,-0.04370063596780175,0.34308556623438613,-0.008241427540077227,-0.0017588081455730794,-0.003286902078871859
1765408071.779969,-9.973580264518482,-0.043032432837185663,0.3431968230079988,-0.008241704723339469,-0.0016724213863527138,-0.003394332427714873
1765408071.78295,-9.978402154624243,-0.04243824333395893,0.3427242538426432,-0.00822931816223911,-0.0015916425037157964,-0.0034833423272298087
1765408071.78345,-9.982466700693895,-0.04198767710149681,0.34172715054031083,-0.008203211077459355,-0.0015141216985467582,-0.003550638014970381
1765408071.787988,-9.985730559423404,-0.04173872202074438,0.34028921441667465,-0.00816272881947096,-0.0014387406769285748,-0.003594209563726597
1765408071.78997,-9.988178719851557,-0.041732139273616534,0.3385157473838824,-0.00810770099817247,-0.0013659121393419164,-0.003613355486041324
1765408071.792984,-9.989826899511959,-0.0419883089096161,0.3365286835433882,-0.008038505450786708,-0.0012977930214379133,-0.003608614951129929
1765408071.794959,-9.990722017401733,-0.04250662155700547,0.3344591599523163,-0.0079560986252899,-0.0012383841777992898,-0.0035816349622103385
1765408071.795979,-9.990940000095312,-0.04326693234918944,0.3324377325336029,-0.007862001581662184,-0.0011934954320069174,-0.0035349953707377985
1765408071.800051,-9.99058076899916,-0.04423228081058535,0.3305830106044453,-0.007758239521522017,-0.001170562976502016,-0.0034720084531885153
1765408071.80108,-9.989760979731157,-0.04535211442345686,0.32899005251174246,-0.007647244457232736,-0.0011783123603764318,-0.0033965046002681553
1765408071.805097,-9.988605551007709,-0.04656556432491534,0.3277200877052435,-0.007531741423091655,-0.0012262663254984899,-0.0033126134625412096
1765408071.807979,-9.987239146650122,-0.047804703353790765,0.3267930581550065,-0.007414642308824322,-0.0013241080384636464,-0.0032245514445823544
1765408071.808479,-9.985778630101278,-0.048997948512987645,0.32618416412120826,-0.007298964784560111,-0.001480928907047482,-0.0031364287994615483
1765408071.812961,-9.984327127093735,-0.050073784912515164,0.325825027699313,-0.007187780427142955,-0.0017044123084434468,-0.003052087758463907
1765408071.814938,-9.982969847945549,-0.05096488705354599,0.32560941008924654,-0.007084182765986545,-0.002000024388257624,-0.0029749757489962786
1765408071.818019,-9.981771516947553,-0.051612608044598725,0.3254029237743592,-0.006991256965651225,-0.002370294827602897,-0.00290804955521659
1765408071.818967,-9.980775244000005,-0.05197170452475658,0.32505589189671963,-0.006912029552176777,-0.002814268285808894,-0.0028537038500042527
1765408071.823075,-9.980002773157663,-0.052014991711141656,0.32441822719225916,-0.0068493794360442875,-0.003327189865475149,-0.0028137225001978144
1765408071.825011,-9.979456060750815,-0.051737330086382094,0.32335491615629697,-0.006805901169125766,-0.003900462633301716,-0.002789258188981136
1765408071.827931,-9.979120045864393,-0.05115802084804979,0.3217605429234775,-0.0067837269410802046,-0.004521890921870593,-0.00278084818513701
1765408071.830058,-9.9789663070643,-0.05032058556103991,0.31957127400731106,-0.006784330167571222,-0.005176201000978011,-0.002788468748980735
1765408071.833064,-9.978957108101248,-0.049289272686536226,0.31677283085297026,-0.006808343221200065,-0.005845806339054278,-0.0028116202550858625
1765408071.834988,-9.979049293507702,-0.04814244394117993,0.3134034038285362,-0.006855421324852153,-0.006511758079645378,-0.002849424829646037
1765408071.83699,-9.979197714527372,-0.04696391870725775,0.3095513130374439,-0.0069241766135310755,-0.007154799829192859,-0.0029007133796257398
1765408071.839962,-9.97935814648601,-0.04583400645685267,0.3053481195815989,-0.007012195100663572,-0.007756437685362003,-0.002964082953504582
1765408071.843046,-9.979489708592473,-0.0448220763582265,0.30095836547609983,-0.007116136349861781,-0.008299944244846248,-0.0030379190149133904
1765408071.843546,-9.979556662511666,-0.04398199792763094,0.29656720790498015,-0.007231902417197921,-0.008771234018617938,-0.003120396414081414
1765408071.848011,-9.979529433405759,-0.04335075630838769,0.29236723180048396,-0.007354852886238465,-0.009159567713718982,-0.0032094884763133975
1765408071.849134,-9.979384836916257,-0.04294942028807184,0.28854568594412655,-0.007480040264037293,-0.009458057369405318,-0.003303015082551261
1765408071.85311,-9.979105623774275,-0.042784981992084026,0.28527310575062537,-0.007602444868755914,-0.009663954050126568,-0.0033987438632132614
1765408071.85361,-9.978679495686976,-0.04285172341722142,0.2826938745051649,-0.007717197453382899,-0.009778710039554547,-0.003494532261821512
1765408071.858048,-9.97809781311799,-0.04313153715058912,0.2809190510255058,-0.007819786461282757,-0.009807821028442715,-0.0035884791465953807
