time,acc_x_g,acc_y_g,acc_z_g,gyro_x_rad_s,gyro_y_rad_s,gyro_z_rad_s
1765408854.033869,-9.174275064941053,-2.308648119568809,-2.7372291034825156,-0.00861398508515987,-0.004488309840397928,-0.0032092040238246734
1765408854.034069,-9.197484195789144,-2.324529600850026,-2.710838643000253,-0.008536720269211361,-0.0042475586885882995,-0.0027356185519880677
1765408854.034269,-9.222288571140092,-2.34120375936194,-2.6843682546335166,-0.008506977971510656,-0.003942626623492476,-0.002266425081821823
1765408854.034469,-9.25010825748576,-2.359922378420129,-2.6575089425678957,-0.008502497822155083,-0.0036156388177381637,-0.001829162080430231
1765408854.034672,-9.282310235989009,-2.3818849766400176,-2.6299240515764137,-0.008496838296329173,-0.0033154044466668945,-0.0014514370440990825
1765408854.034922,-9.320128946419613,-2.4081723964974917,-2.6012648224673462,-0.008459528983066303,-0.0030969511087953253,-0.0011599436806449006
1765408854.035172,-9.364589301496816,-2.4396881320878427,-2.571191245612521,-0.008356323940346697,-0.0030206737100563897,-0.0009794849443104348
1765408854.035422,-9.416436386686764,-2.4771108650427216,-2.5393967483287536,-0.008149570447423114,-0.003151075717366742,-0.0009320189727931618
1765408854.035697,-9.476076114831812,-2.520861023289491,-2.505634475187086,-0.007798699501988857,-0.0035551229663063223,-0.0010357431115975355
1765408854.035947,-9.543530543080875,-2.5710832413325515,-2.469742846933202,-0.007260835327477751,-0.004300268207200036,-0.0013042358357347565
1765408854.036197,-9.618410652017868,-2.6276454238120186,-2.4316682225438124,-0.00649151436715155,-0.005452235579763729,-0.0017456864974347225
1765408854.036447,-9.699908374369208,-2.690153738712789,-2.3914825874727295,-0.005445500845241408,-0.007072673612941025,-0.002362254009817816
1765408854.036722,-9.78680840534738,-2.757981352927606,-2.349394596444524,-0.004077684730976111,-0.0092167901666705,-0.0031496005070610704
1765408854.036972,-9.877518842555913,-2.830307341768131,-2.3057531363458312,-0.002344049157167326,-0.011931078180782291,-0.004096637421808088
1765408854.037222,-9.970118593364083,-2.906161461853134,-2.2610432291947,-0.00020269900747180164,-0.015251235891203094,-0.005185498946011377
1765408854.037472,-10.062419257152442,-2.98447073218681,-2.2158740892764115,0.00238505294850563,-0.019200378854619348,-0.006391731962917783
1765408854.037685,-10.152039419389803,-3.0641048525092365,-2.1709589860262635,0.005453548651007364,-0.02378762493838954,-0.007684676112979615
1765408854.037935,-10.236489171561994,-3.1439188052446796,-2.1270869523264984,0.009031616441406633,-0.02900710797223282,-0.009028008136680608
1765408854.038185,-10.313262135194305,-3.2227919658850612,-2.0850870581540213,0.01314141469830518,-0.034837456014475104,-0.010380435230363305
1765408854.038435,-10.379931854961745,-3.299663462517195,-2.045786286432689,0.01779735404948659,-0.04124176535469578,-0.011696532413533797
1765408854.038689,-10.434249104059361,-3.3735634349699253,-2.0099623902472525,0.023005182144492573,-0.04816810134929488,-0.012927721037328256
1765408854.038939,-10.474235751164679,-3.4436393676742707,-1.9782945861292651,0.028761318779960816,-0.055550547504513374,-0.014023376709881272
1765408854.039189,-10.498269387376867,-3.509176055951423,-1.9513174593827172,0.035052516552245706,-0.0633108032849611,-0.014932035844820614
1765408854.039439,-10.505152188287125,-3.5696075735028288,-1.9293851631134427,0.041855898035434644,-0.07136030330680888,-0.015602645239859717
1765408854.039679,-10.494158745109416,-3.624520358085718,-1.9126520859655491,0.04913939328598555,-0.07960279258678492,-0.015985778655266115
1765408854.039929,-10.46506050036892,-3.67364799122341,-1.9010728446045793,0.05686257580050477,-0.08793724151363433,-0.01603474123711253
1765408854.040179,-10.418127371150927,-3.7168595174348047,-1.8944205996919836,0.06497787018031125,-0.09626093545368666,-0.015706502285166346
1765408854.040429,-10.3541090424852,-3.7541436197537825,-1.8923199162869204,0.07343207980809509,-0.10447255400179738,-0.014962430443483147
1765408854.040603,-10.274199447857308,-3.7855907738974635,-1.8942889847197952,0.08216816017100001,-0.11247507479421978,-0.013768838516378619
1765408854.040853,-10.179988622720247,-3.8113750234995942,-1.8997856187158602,0.09112714662708156,-0.120178380968179,-0.012097371212596363
1765408854.041103,-10.073406287493274,-3.831736428399916,-1.9082519221934697,0.10025013633375747,-0.12750149437507524,-0.009925287755978859
1765408854.041353,-9.956660789469531,-3.846964564953015,-1.9191538407709,0.10948022286384947,-0.13437438431764673,-0.007235697736629731
1765408854.041647,-9.83217557404215,-3.8573828019469536,-1.9320135195337516,0.11876428693076821,-0.1407393155041649,-0.004017795016864356
1765408854.041897,-9.702523907549441,-3.8633326898048335,-1.9464337070265214,0.12805455394797943,-0.14655170820727487,-0.0002671026097985448
1765408854.042147,-9.570361771546958,-3.865157900981976,-1.9621140562080936,0.1373098368288607,-0.15178049775941962,0.004014293622967927
1765408854.042397,-9.438358779944767,-3.8631876697411522,-1.9788594632993584,0.14649639358849698,-0.15640800471852942,0.008817566479600017
1765408854.042844,-9.309127350389648,-3.857720274879685,-1.9965810406136375,0.15558834864190882,-0.16042935688396234,0.014127071983051272
1765408854.043094,-9.185150951535556,-3.849007491109839,-2.015290857649021,0.1645676535185814,-0.16385152787917642,0.019920416219311912
1765408854.043344,-9.068713071268702,-3.8372410185171018,-2.0350916252839064,0.17342359173430763,-0.16669206642371082,0.02616869077981904
1765408854.043594,-8.961829680388593,-3.8225418745900988,-2.056161729855398,0.18215186189148488,-0.16897759023456088,0.03283689291733076
1765408854.043701,-8.866189122603991,-3.80495395802995,-2.078735086373749,0.19075330560461226,-0.17074212163203092,0.039884541096184355
1765408854.043951,-8.783103908562143,-3.7844435740988374,-2.103075362113506,0.1992323818382096,-0.17202535683123257,0.04726648851848173
1765408854.044201,-8.71347838044977,-3.760907139090924,-2.1294456058554285,0.20759551870991322,-0.17287097993793368,0.05493391461903636
1765408854.044451,-8.65779478791261,-3.734188767235544,-2.158076176322706,0.21584948955239155,-0.17332513477999856,0.0628354378642138
1765408854.04474,-8.616118451314426,-3.7041077299812284,-2.189134811624039,0.22399995858655594,-0.1734351388343396,0.07091826162010653
1765408854.045073,-8.588120793877662,-3.6704934973637475,-2.222702466845364,0.23205032234542988,-0.17324847378500766,0.0791292602070501
1765408854.045407,-8.573117466361813,-3.6332242829594543,-2.258757634564187,0.24000094038894745,-0.17281204094880356,0.08741593931405531
1765408854.045722,-8.570117953603507,-3.5922644391322525,-2.2971705439161734,0.24784881468456094,-0.17217164145800207,0.09572724920974282
1765408854.045972,-8.57788309689191,-3.5476966691664362,-2.33770704652221,0.2555877491795602,-0.17137162947803775,0.10401426860524096
1765408854.046222,-8.59498760038196,-3.499746285763725,-2.3800404982458825,0.2632089921162157,-0.17045468514296266,0.11223079493389222
1765408854.046472,-8.619885209358477,-3.448796032305305,-2.4237689997045284,0.2707023223983635,-0.169461657309908,0.12033386963792549
1765408854.046759,-8.650974363668702,-3.395390847452234,-2.46843517917337,0.2780574910585747,-0.16843143399113794,0.12828424344787384
1765408854.047009,-8.686661781687198,-3.340232222278742,-2.513546049747341,0.28526588345349285,-0.16740081233984547,0.1360467607969428
1765408854.047259,-8.725421077588566,-3.2841617505419154,-2.5585909549371926,0.2923222370941081,-0.16640435877863027,0.14359062812478043
1765408854.047509,-8.765843550356838,-3.2281337266881223,-2.603056175123352,0.2992262370296112,-0.16547426879693758,0.1508895351204397
1765408854.047838,-8.806678916875153,-3.173177568411971,-2.6464354869156006,0.30598381606496167,-0.1646402518554977,0.1579216167951837
1765408854.048171,-8.846865100711804,-3.1203521094352697,-2.6882366704627647,0.3126080114174948,-0.16392947402024086,0.1646692668969048
1765408854.048505,-8.885547908333217,-3.070694750755949,-2.727984544771559,0.3191192736971111,-0.16336658167610638,0.17111883384612092
1765408854.048707,-8.922092622035063,-3.0251687913437935,-2.765221779970555,0.32554518604220295,-0.16297380429409059,0.1772602518849681
1765408854.048957,-8.956089456041699,-2.9846123310186856,-2.799509411141919,0.3319196216682955,-0.16277110375617992,0.18308668428800462
1765408854.049207,-8.987353641963512,-2.9496923579530723,-2.8304291045767096,0.33828143298681895,-0.16277631670620035,0.18859427207594529
1765408854.049457,-9.01591956482762,-2.9208678429801282,-2.8575884962376055,0.34467281020242363,-0.16300523402519698,0.1937820727955716
1765408854.049632,-9.042027635615582,-2.8983653487810663,-2.880629847418394,0.3511374635900283,-0.16347157550990146,0.1986522343393853
1765408854.049882,-9.06610261362957,-2.88216965559164,-2.8992416538941717,0.3577187766132269,-0.16418684000162906,0.20321039509176658
1765408854.050132,-9.088722794220207,-2.8720305149686394,-2.913172671167632,0.3644580590160074,-0.16516003711513041,0.20746625483176312
1765408854.050382,-9.110580748012595,-2.8674852037654164,-2.9222472777060773,0.3713930052638635,-0.16639733427626216,0.21143422827922786
1765408854.050659,-9.132437623067734,-2.8678951997931916,-2.926380176498121,0.3785564313877982,-0.16790168011056772,0.21513407296723128
1765408854.050992,-9.155073581234344,-2.8724941225335976,-2.9255883159207627,0.3859753245544341,-0.16967248919982642,0.21859137498079922
1765408854.051326,-9.17923647412441,-2.8804432034612453,-2.9199992576944025,0.39367020809657355,-0.17170548335238286,0.22183778251783964
1765408854.05165,-9.205590034636915,-2.890890040016058,-2.909857043308355,0.4016548123477286,-0.17399276709432146,0.22491089657500954
1765408854.0519,-9.234662583600993,-2.903026123258534,-2.895527311355212,0.4099360435614951,-0.1765231652670962,0.2278537530520738
1765408854.05215,-9.266797793920752,-2.916138460016349,-2.877502476374127,0.41851424233592516,-0.17928277842787999,0.2307138581493805
1765408854.0524,-9.302109838420643,-2.929650674352152,-2.856406182824316,0.427383706494822,-0.18225564553588727,0.23354177561737424
1765408854.052648,-9.34044564715697,-2.9431495769558986,-2.8329952733359423,0.43653342252707134,-0.18542437838072426,0.23638931545973266
1765408854.052898,-9.38135718817887,-2.956394413799264,-2.8081573073192945,0.4459479204233643,-0.18877065893241127,0.23930743240439278
1765408854.053148,-9.42408739280557,-2.9693076937438043,-2.7829012787526306,0.4556081582727543,-0.19227554525787546,0.24234399261249923
1765408854.053398,-9.467574730268163,-2.9819484546169166,-2.758337922794094,0.46549235693291396,-0.19591958033840137,0.2455415917472675
1765408854.053653,-9.510482231858736,-2.994470775027582,-2.735644836137696,0.4755767221233381,-0.1996827222995172,0.2489355988469203
1765408854.053986,-9.551254990605392,-3.0070718678633535,-2.7160127543297525,0.4858359953706921,-0.20354411960717642,0.25255256609076693
1765408854.05432,-9.588205329618606,-3.019934944254172,-2.700573531914283,0.49624377518855217,-0.20748176380657685,0.2564091032718277
1765408854.054669,-9.619619059402146,-3.0331723985269603,-2.6903156145381812,0.5067725688002718,-0.21147208056282574,0.26051128381102084
1765408854.054919,-9.64387241279059,-3.046775144972313,-2.685996326756973,0.5173935801641649,-0.21548955521660354,0.26485462680610306
1765408854.055169,-9.65954841636055,-3.060574128595429,-2.688061317492371,0.5280762965578831,-0.21950650562241436,0.2694246721518536
1765408854.055419,-9.665542596921949,-3.074219532125588,-2.696580889147748,0.5387879872177418,-0.22349310091258223,0.2741981227621349
1765408854.055701,-9.661149619335967,-3.0871815297168568,-2.7112114343564397,0.5494932664908103,-0.22741769283313878,0.2791444780858044
1765408854.055951,-9.646124235330154,-3.0987739091781292,-2.7311877741942445,0.5601538899252749,-0.23124749382256474,0.28422804297980314
1765408854.056201,-9.62071198731885,-3.108199278804547,-2.7553488995298046,0.5707289324869641,-0.23494960440508675,0.2894101705873702
1765408854.056451,-9.585647413819972,-3.114612333155447,-2.782196341803762,0.5811754491142991,-0.238492352884734,0.2946515808882155
1765408854.056646,-9.542119713249303,-3.117195712855737,-2.809981902926169,0.5914496597496278,-0.241846858009667,0.29991458494321527
1765408854.056979,-9.491707907894735,-3.1152412623598478,-2.8368192475033798,0.6015086466348212,-0.24498866610946182,0.30516504511231113
1765408854.057313,-9.436289731168191,-3.108228174925237,-2.8608110020088096,0.6113124976928707,-0.24789926948149762,0.31037392250919454
1765408854.057687,-9.377930644310164,-3.0958890735237112,-2.880179988974624,0.6208267695277362,-0.2505673110011602,0.3155183065831109
1765408854.057937,-9.31876114384465,-3.078255993919121,-2.8933917627307597,0.63002507967601,-0.2529893311651053,0.32058188129824494
1765408854.058187,-9.260851636131516,-3.055680680472139,-2.8992567048134643,0.6388915820759213,-0.25516999626213366,0.3255548440326241
1765408854.058437,-9.206094836288544,-3.0288270765987426,-2.8970027138470353,0.6474230452304673,-0.25712182150368607,0.3304333390556659
1765408854.058625,-9.156105964566475,-2.9986373451637647,-2.886312487882819,0.6556302488990812,-0.2588644439501074,0.33521848674759586
1765408854.058958,-9.112150326588349,-2.9662753508151254,-2.8673223723944568,0.6635384501441182,-0.2604235105941611,0.33991509176901097
1765408854.059292,-9.075105296495842,-2.933053164867996,-2.840583598221638,0.6711867509673229,-0.2618292514233432,0.3445301207032732
1765408854.059668,-9.04545932429562,-2.9003470486504304,-2.806991305843864,0.6786263299263602,-0.263114821667312,0.3490710646023811
1765408854.059918,-9.023345593543862,-2.869509615713629,-2.767690396337537,0.6859176602895604,-0.2643145138420187,0.35354433219021203
1765408854.060168,-9.008603758147272,-2.841784541195253,-2.723968628051329,0.6931269840379123,-0.26546194015407726,0.35795383208614906
1765408854.060418,-9.000860533281852,-2.818229504722025,-2.677146856327912,0.7003224047516348,-0.26658826573389616,0.362299887506186
1765408854.060712,-8.999618967091589,-2.7996521678804602,-2.6284751791130456,0.7075699961372626,-0.26772055229713937,0.36657859299696055
1765408854.060962,-9.004346648713222,-2.786562946679721,-2.5790426768367514,0.7149303108716042,-0.26888026982062896,0.370781682478758
1765408854.061212,-9.014554095728066,-2.7791472971905957,-2.5297073107100916,0.722455622026858,-0.2700820480181655,0.37489693549205416
1765408854.061462,-9.029855439338903,-2.77725925976989,-2.481051248418027,0.7301881312857997,-0.2713327543754281,0.3789091001338988
1765408854.06168,-9.050004568209031,-2.7804368752823736,-2.4333653613371835,0.7381592419228278,-0.27263099223211607,0.38280125649231866
1765408854.062013,-9.074902065292346,-2.78793866936362,-2.3866645540934535,0.7463898502976402,-0.2739671063283648,0.3865564961292374
1765408854.062347,-9.104572043257777,-2.7987990325138856,-2.3407326702856017,0.7548914912283362,-0.27532375618091426,0.39015976512507156
1765408854.062731,-9.139112565609176,-2.811899280398579,-2.29519237786122,0.7636680946886918,-0.27667706589156316,0.3935997060532578
1765408854.062981,-9.178627114043735,-2.826050070044869,-2.2495927509213125,0.7727180687236702,-0.2779982963949533,0.39687032244356757
1765408854.063231,-9.223146275128776,-2.840079147961295,-2.2035060661737758,0.7820364069710734,-0.2792559368099668,0.3999722778441159
1765408854.063481,-9.272548417152146,-2.8529164831129323,-2.156625383479302,0.7916165251594176,-0.28041808312405925,0.40291365047625893
1765408854.063689,-9.326486454529714,-2.863667829759463,-2.1088549440942823,0.8014515598147947,-0.281454948749368,0.40571000752322267
1765408854.063939,-9.384325783573203,-2.8716684608886585,-2.0603859445267267,0.811534912443727,-0.28234132230401665,0.4083837325755614
1765408854.064189,-9.445096908813207,-2.8765111014749114,-2.011750997541846,0.8218598904302116,-0.2830587716951415,0.4109626223213993
1765408854.064439,-9.507465861451276,-2.878045352868294,-1.963851626928177,0.8324183842935055,-0.2835974131245481,0.41347785943158666
1765408854.064641,-9.569726331717039,-2.876349496134059,-1.9179543270863648,0.8431986384797575,-0.28395710932418405,0.4159615593916855
1765408854.064974,-9.629818547307515,-2.8716789795975908,-1.8756520507566332,0.854182323148066,-0.2841480011764454,0.4184441568067966
1765408854.065308,-9.68538003582617,-2.8643987245355107,-1.8387896947482631,0.8653412818951827,-0.28419030534135387,0.42095191862841674
1765408854.065662,-9.733831902931511,-2.854908286829481,-1.8093545955518728,0.8766344759316791,-0.2841133572700017,0.42350484363500446
1765408854.065912,-9.772501260353652,-2.8435695880797947,-1.7893365097584677,0.8880057218720292,-0.28395395532611567,0.426115142885286
1765408854.066162,-9.798776286112236,-2.830646182448034,-1.7805658463846425,0.8993827976717458,-0.28375413424824764,0.4287864154041712
1765408854.066412,-9.810285678387217,-2.8162609745435643,-1.7845430565854412,0.910678365280551,-0.28355853573790424,0.43151355567134364
1765408854.066657,-9.805089896468209,-2.8003763997971975,-1.8022747849060519,0.9217929438779839,-0.2834115618815969,0.43428336404612666
1765408854.06699,-9.781868213785815,-2.782797974004396,-1.8341331485177612,0.9326198902070321,-0.28335450985860194,0.4370757791945552
1765408854.067324,-9.740083346291726,-2.7631995724011476,-1.8797537275763605,0.9430520443489484,-0.28342288358076956,0.4398656129432601
1765408854.06765,-9.680104691678501,-2.741167307936903,-1.937985564264448,0.9529894392119839,-0.28364404848543684,0.44262464233276777
1765408854.0679,-9.603273146826625,-2.7162581612678216,-2.006901985214523,0.9623473032396823,-0.28403535604127894,0.44532389461928723
1765408854.06815,-9.511895705130184,-2.6880686571957217,-2.0838743470827152,0.9710635253449723,-0.28460284047766926,0.4479359389594299
1765408854.0684,-9.409165648578323,-2.656307272028031,-2.1657033353912243,0.9791047819402571,-0.28534058336296075,0.4504369733759639
1765408854.068655,-9.29901213312725,-2.6208623818353582,-2.248796137437386,0.986470630702621,-0.2862308261252112,0.45280848414192587
1765408854.068905,-9.185889552700814,-2.581856725999792,-2.3293737961022702,0.9931950542937946,-0.2872448663836351,0.4550382780252271
1765408854.069155,-9.074521648606064,-2.5396804513823485,-2.4036915439659228,0.9993451891877186,-0.28834471292331404,0.4571207497614867
1765408854.069405,-8.969618336389102,-2.4949974385688067,-2.4682555150466854,1.0050172784511602,-0.2894854194293,0.4590563333013741
1765408854.069632,-8.875585279225188,-2.448722678429054,-2.5200212228757017,1.0103302019215312,-0.2906179685988621,0.46085018240059833
1765408854.069965,-8.796247685836958,-2.4019712779491176,-2.5565615934342345,1.0154172113722204,-0.2916925195083915,0.46251022812609066
1765408854.070299,-8.734610522267142,-2.355982252769997,-2.576194158765065,1.0204166785553042,-0.2926617607302445,0.46404485757233016
1765408854.070665,-8.692676151978343,-2.312022731089426,-2.5780586125960374,1.0254627160401717,-0.2934840549876012,0.46546053086365263
1765408854.070915,-8.671335615251953,-2.271280418722463,-2.562139356799411,1.0306764577863219,-0.294126055398684,0.4667596851159857
1765408854.071165,-8.670341249125027,-2.2347540010193736,-2.5292338067746445,1.0361586233295679,-0.29456453586624537,0.4679392561928389
1765408854.071415,-8.688358861652212,-2.2031525277809445,-2.480873559186015,1.0419837836724362,-0.294787284912835,0.4689900826997823
1765408854.071733,-8.723090498397337,-2.176815553395461,-2.419208787893632,1.0481965415618606,-0.2947930218992617,0.46989734792961685
1765408854.071983,-8.771454892147906,-2.1556654369946027,-2.346866293133778,1.0548096628792751,-0.2945903884248852,0.4706420744759805
1765408854.072233,-8.829810492109212,-2.1392012567430037,-2.266791103752404,1.0618040698249023,-0.29419615227243456,0.4712035318114292
1765408854.072483,-8.894204126165667,-2.1265400152037888,-2.1820821442671905,1.0691305497052122,-0.29363284245852994,0.47156227596922473
1765408854.072756,-8.960627162407333,-2.116505385490361,-2.0958331482471557,1.0767130463026644,-0.2929260999084064,0.4717034340668198
1765408854.073089,-9.025261499538285,-2.1077577700398766,-2.0109887872028573,1.0844534463803093,-0.2921020540016325,0.47161978516664055
1765408854.073423,-9.084699776472545,-2.098952785602223,-1.9302228932043877,1.092237793118438,-0.29118500607344716,0.47131418207533504
1765408854.073653,-9.136126800886052,-2.0889095354052665,-1.855842531260229,1.0999438099906411,-0.29019563052739283,0.4708009195113626
1765408854.073903,-9.177451723255542,-2.076766482839932,-1.789719784103407,1.1074494950123903,-0.2891498217009289,0.47010578798442376
1765408854.074153,-9.207383411124903,-2.0621026077360574,-1.7332518364847316,1.1146423629864435,-0.2880582355562847,0.4692647420882381
1765408854.074403,-9.225445663419164,-2.0450053624452402,-1.6873481013992684,1.1214287076714258,-0.28692649434075423,0.46832131933862764
1765408854.074648,-9.231934378478064,-2.0260742650727614,-1.652440766522464,1.127742082149229,-0.2857559373238923,0.46732313194609437
1765408854.074981,-9.227824466382033,-2.0063583333861787,-1.6285134588478778,1.1335501121713178,-0.2845447314535368,0.4663178879988251
1765408854.075315,-9.21463883087608,-1.9872351075010646,-1.6151425542830886,1.1388587940618347,-0.28328912914830146,0.46534945658051263
1765408854.075693,-9.194294467364275,-1.9702470339581974,-1.6115465518999905,1.1437135861027286,-0.2819846813299105,0.4644544615578129
1765408854.075943,-9.168941593534562,-1.9569163375236274,-1.6166398532771526,1.1481968783586627,-0.2806272617804431,0.46365978295548116
1765408854.076193,-9.140810686787127,-1.9485616466576618,-1.6290879643908986,1.1524218201608287,-0.2792138137798462,0.46298119581833763
1765408854.076443,-9.112079278709677,-1.9461384868686809,-1.6473622450576535,1.1565229602450864,-0.27774278758199034,0.46242321854088103
1765408854.076611,-9.084765967707202,-1.9501216502052667,-1.6697941857683072,1.1606446168744602,-0.2762142958985609,0.4619800982987212
1765408854.076861,-9.060654541921782,-1.9604412421188457,-1.6946309544601905,1.1649282273987012,-0.2746300609540166,0.4616377437973504
1765408854.077111,-9.041247140763103,-1.9764771991487946,-1.720094416510957,1.169500050776827,-0.272993243976065,0.4613763345368674
1765408854.077361,-9.027742265199487,-1.99711051361455,-1.7444446239117564,1.1744605031054791,-0.2713082338637306,0.4611732961938128
1765408854.077656,-9.02103166964463,-2.020823927085598,-1.7660465596927073,1.1798761398506155,-0.2695804461437713,0.46100632959537624
1765408854.077989,-9.021710441712044,-2.0458404619820185,-1.783436520580666,1.1857749270338562,-0.26781616416178067,0.4608562008474261
1765408854.078323,-9.030096492292305,-2.070284776357043,-1.795382478922215,1.1921450364976791,-0.2660224286562681,0.4607090274329632
1765408854.078684,-9.046257246483973,-2.0923502817612074,-1.8009319362603695,1.1989370194925764,-0.2642069355446985,0.46055783248274595
1765408854.078934,-9.070040967604042,-2.1104547904467568,-1.7994419471356466,1.2060689076326592,-0.2623778692881504,0.4604032029154297
1765408854.079184,-9.101108645402851,-2.1233692881109505,-1.7905887140342591,1.213433593792272,-0.26054362799176956,0.46025298169348583
1765408854.079434,-9.138961551750675,-2.1303078494566083,-1.7743573571425697,1.2209077653315703,-0.258712475202583,0.4601210363261098
1765408854.079711,-9.182959909579454,-2.130971132534725,-1.751015692048179,1.228361667698183,-0.25689222642627274,0.46002525564857993
1765408854.079961,-9.23232941988622,-2.125540780102237,-1.7210784191906283,1.2356690077303554,-0.25509010912831126,0.459985019682375
1765408854.080211,-9.28615527245143,-2.1146269939718976,-1.6852683502691963,1.24271631408553,-0.2533129114060081,0.4600184519887383
1765408854.080461,-9.343367917197526,-2.09917620006438,-1.6444786074365583,1.2494110601684267,-0.2515674459816367,0.46013979174634234
1765408854.080655,-9.402729166487072,-2.0803497715407135,-1.5997363832890263,1.2556878712540256,-0.24986122124755916,0.46035720913585126
1765408854.080988,-9.462828373073751,-2.0593878008086244,-1.5521673528456634,1.2615122270468573,-0.2482031041871082,0.46067133456559634
1765408854.081322,-9.522096635791696,-2.0374734418251816,-1.50295953223061,1.26688124284053,-0.24660375395070577,0.4610746870037199
1765408854.081676,-9.57884494817329,-2.0156130935784318,-1.453324084098886,1.2718213628355377,-0.2450756922874262,0.46155207870886145
1765408854.081926,-9.631330521633156,-1.9945457115451823,-1.4044493079817406,1.2763831369466339,-0.2436329811139182,0.4620819568981417
1765408854.082176,-9.677851085973835,-1.9746911428522826,-1.3574466353919084,1.2806336645884118,-0.2422905370743109,0.4626385337732844
1765408854.082426,-9.716858302492742,-1.9561429325583253,-1.313294077434717,1.2846476875116668,-0.24106313577392635,0.4631944646932487
1765408854.082669,-9.747072851706898,-1.938705829102348,-1.2727877936624403,1.2884985587792905,-0.23996418895062718,0.4637237624745717
1765408854.083002,-9.767581432726583,-1.9219726438841402,-1.2365115470773416,1.2922503096776785,-0.239004430822861,0.4642045885310488
1765408854.083336,-9.777901179172277,-1.9054298156076095,-1.2048280364548196,1.2959517904482103,-0.23819069086906533,0.4646215516372504
1765408854.083646,-9.77800578715326,-1.8885767431097507,-1.1778900021874763,1.299633462299428,-0.23752491922538013,0.46496718688669875
1765408854.083896,-9.768315072857858,-1.8710414908111814,-1.1556654810546527,1.3033069697372814,-0.23700356882651863,0.46524238324472084
1765408854.084146,-9.74965355405304,-1.8526754694263439,-1.1379709016236377,1.3069672113883315,-0.23661736452286938,0.46545566398367705
1765408854.084396,-9.723184559083728,-1.8336122865222706,-1.124507030490601,1.310596325585733,-0.23635144277730863,0.4656213826219897
1765408854.084637,-9.690326153773732,-1.814280815618002,-1.1148948439628952,1.3141688551456514,-0.23618583763894688,0.4657570628164689
1765408854.084887,-9.652655726194611,-1.7953691078549263,-1.1087094358721836,1.3176573421570204,-0.2360962963514209,0.4658802580719364
1765408854.085137,-9.6118121300407,-1.7777432969613869,-1.1055089604665973,1.3210376729090751,-0.23605538877157323,0.46600539654805967
1765408854.085387,-9.569406432434615,-1.762332898297298,-1.104853824594626,1.32429359161112,-0.23603381205987625,0.4661410800458606
1765408854.085692,-9.526951746944306,-1.7499993240530411,-1.1063121307309771,1.3274199112354448,-0.23600172476973263,0.46628823015343523
1765408854.086025,-9.485818016485842,-1.7414067733315803,-1.1094519671321559,1.3304240791345268,-0.23592993071895513,0.46643934803091935
1765408854.086359,-9.44721075648441,-1.7369136507794314,-1.1138269335900464,1.3333259084429872,-0.23579079081590343,0.46657900521447354
1765408854.086685,-9.41216711250024,-1.7364992494519564,-1.1189642964789686,1.336155456776895,-0.23555884046841108,0.4666855238689345
1765408854.086935,-9.381560499519448,-1.7397358952221746,-1.1243635344329104,1.3389492288737725,-0.2352111895652928,0.4667336447363386
1765408854.087185,-9.35610686266858,-1.7458116480017973,-1.1295080658770307,1.3417451219198324,-0.2347278498086146,0.46669784046287804
1765408854.087435,-9.33636998111891,-1.7536028764875442,-1.1338874157561356,1.3445768001941356,-0.23409214586708849,0.4665558381404456
1765408854.087655,-9.322767979550342,-1.7617897241588112,-1.137023145798891,1.3474683830217313,-0.23329130717109922,0.4662918827039584
1765408854.087905,-9.315585579814634,-1.7690014452564302,-1.1384906792137417,1.350430352716073,-0.2323172204186078,0.46589930276891406
1765408854.088155,-9.314994716254816,-1.7739738606803208,-1.1379313543304537,1.3534574077850983,-0.23116720181548767,0.46538202793161954
1765408854.088405,-9.321080362931875,-1.775698733114335,-1.1350543977792242,1.356528648646908,-0.22984458472291347,0.46475484316129556
1765408854.088643,-9.333861594343292,-1.7735453202669307,-1.1296349262096885,1.3596100713506942,-0.22835894092234627,0.4640423345056445
1765408854.088976,-9.353293747075162,-1.767337778339318,-1.1215181434818413,1.3626589547032586,-0.22672584602279033,0.46327665405698937
1765408854.08931,-9.379238842010004,-1.7573778728461746,-1.110639033095682,1.3656294484301288,-0.22496622118245324,0.4624943825894669
1765408854.089653,-9.411398853113239,-1.7444096658614445,-1.0970611685751426,1.3684785567201128,-0.2231053887464918,0.4617328763909929
1765408854.089903,-9.449218457619493,-1.7295304563533496,-1.0810300788712557,1.3711717510069283,-0.2211720305652323,0.46102654190862963
1765408854.090153,-9.491777354971726,-1.7140592064219944,-1.0630284461460155,1.3736875766583734,-0.21919721693899802,0.46040348192566594
1765408854.090403,-9.537702833901742,-1.6993789404263255,-1.0438143019166077,1.3760207715285766,-0.217213592656924,0.45988289571537516
1765408854.090665,-9.585136754959958,-1.6867722799846716,-1.0244215689075875,1.3781835510437968,-0.21525470174589645,0.45947350097525014
1765408854.090915,-9.63178495611122,-1.677269053092487,-1.006106949353087,1.3802048392200246,-0.2133543503700932,0.45917310552784113
1765408854.091165,-9.675061957765255,-1.6715223975287945,-0.9902382349413862,1.3821273721375902,-0.2115458793452019,0.45896932772129084
1765408854.091415,-9.71232365918173,-1.6697262869995557,-0.9781331239745509,1.3840028038238912,-0.20986124658856892,0.4588413640917935
1765408854.091654,-9.74116075251745,-1.671583849062646,-0.9708699137814799,1.3858852134097885,-0.20832988300684377,0.45876262186304106
1765408854.091987,-9.759710276138435,-1.6763317974268128,-0.9690993769443406,1.3878237147167387,-0.20697735310006468,0.4587039546440201
1765408854.092321,-9.766935022151129,-1.6828207048051391,-0.9728901839957854,1.3898551244541109,-0.20582390363225458,0.45863716033115987
1765408854.092731,-9.762821918704455,-1.6896435480533611,-0.9816379274255304,1.3919977538009498,-0.20488301433199693,0.45853834147962325
1765408854.092981,-9.748460708190121,-1.6952973526026385,-0.9940597435694702,1.3942472894307893,-0.20416008190667445,0.45839072043648527
1765408854.093231,-9.72598125692589,-1.6983570144526898,-1.0082837731374388,1.3965754300260016,-0.20365139035567417,0.458186559918453
1765408854.093481,-9.698349232313786,-1.6976381653322077,-1.022027490743758,1.3989315074664828,-0.20334355575697907,0.4579279537112631
1765408854.093627,-9.669043011931082,-1.6923277532555223,-1.032843706319828,1.401246852362586,-0.2032136585447097,0.4576263972802539
1765408854.093877,-9.64165555140434,-1.6820662703321645,-1.0384005024661311,1.4034412744401996,-0.20323023879801122,0.45730120293530124
1765408854.094127,-9.619478519724808,-1.6669730307814397,-1.036754498882903,1.4054307956049008,-0.2033552001679722,0.45697697137955107
1765408854.094377,-9.605128765700302,-1.6476139963426621,-1.026577617663939,1.4071357055756615,-0.2035464829704623,0.45668045095066495
1765408854.097551,-9.60026892610382,-1.624918941476488,-1.0073057387115938,1.4084880611523931,-0.20376120532177244,0.45643718793605365
1765408854.097884,-9.605457399873911,-1.60006042524595,-0.9791910961300099,1.409437869332521,-0.20395888143192625,0.45626838693085303
1765408854.098218,-9.620141850171759,-1.5743108176933387,-0.9432559221344535,1.4099573574814361,-0.20410430354574757,0.4561883624767368
1765408854.097641,-9.642788750809373,-1.5488954022433097,-0.9011595762239357,1.4100429327180157,-0.204169702597389,0.4562028806802303
1765408854.097891,-9.671122682793289,-1.5248592613553602,-0.8550026841582591,1.4097146545358057,-0.20413588578738656,0.45630857393626356
1765408854.098141,-9.702435736639528,-1.5029634534778797,-0.8070983565724126,1.409013278186348,-0.20399219350316858,0.4564934787902008
1765408854.098391,-9.733921192709447,-1.4836222760356241,-0.7597420715453255,1.4079951806804976,-0.2037353076522317,0.4567386123413045
1765408854.097716,-9.762987096292058,-1.4668883291879293,-0.7150084705288989,1.4067257643730307,-0.20336713790151228,0.4570203813405479
1765408854.097966,-9.787513062945395,-1.4524858948435297,-0.6745961731718823,1.4052721991866928,-0.20289216363828114,0.4573135220581031
1765408854.098216,-9.806024934002625,-1.4398866697151376,-0.6397329152728412,1.4036965146718041,-0.20231468591486337,0.45759420212302376
1765408854.098466,-9.817774422323456,-1.4284161774310495,-0.6111447976121184,1.4020500090567662,-0.2016364407439504,0.45784288040884896
1765408854.098703,-9.822723715589225,-1.41737494226587,-0.5890855233290963,1.400369703018147,-0.2008549553080931,0.4580465308964662
1765408854.098953,-9.821447760073116,-1.406156353464035,-0.573413531146807,1.398677192235082,-0.19996290259108485,0.4581999083509369
1765408854.099203,-9.814978244008957,-1.3943437917301549,-0.5636974620545945,1.3969798319698044,-0.1989485384804725,0.45830566731629574
1765408854.099453,-9.804620327780684,-1.3817732131188172,-0.5593262985410082,1.395273814208156,-0.19779711863834884,0.45837331682366506
1765408854.099697,-9.7917734055741,-1.368553072572842,-0.5596027812022009,1.393548455657458,-0.1964930337566705,0.45841716730004267
1765408854.10003,-9.777780754185322,-1.3550398266781443,-0.5638069602501918,1.3917909373661497,-0.19502229697933104,0.4584535776875993
1765408854.100364,-9.76382271494513,-1.3417735055710491,-0.5712270463492848,1.3899907951703774,-0.19337496939933457,0.4584979216871413
1765408854.100653,-9.750857408128917,-1.329383629400073,-0.5811631615772467,1.3881435898892245,-0.19154712336668667,0.458561740182919
1765408854.100903,-9.739603824550027,-1.3184801890100966,-0.5929148470974547,1.3862533311251954,-0.1895420323562565,0.4586505129365913
1765408854.101153,-9.730555317506079,-1.3095463276361345,-0.6057655062789381,1.3843333667960642,-0.1873704395949075,0.45876237238599876
1765408854.101403,-9.724008174348704,-1.3028483482233444,-0.6189760215243625,1.3824055882163335,-0.18504995807241545,0.45888792810722495
1765408854.10172,-9.720091535963453,-1.2983754834335455,-0.6317948933444524,1.3804979545689953,-0.18260382760366117,0.45901120769728554
1765408854.10197,-9.718791229535054,-1.2958176957306033,-0.6434845829433977,1.3786405317864154,-0.18005934969732576,0.4591115715779687
1765408854.10222,-9.71996801563573,-1.2945853060361758,-0.6533568733218221,1.3768604797320148,-0.1774463282446832,0.4591663387072061
1765408854.10247,-9.723376363034058,-1.2938695070183737,-0.6608071883218749,1.3751766743070741,-0.17479577802300195,0.4591537765477353
1765408854.102743,-9.72869101496436,-1.292737893373866,-0.6653391927323433,1.3735948316776105,-0.1721390410905184,0.45905606821565836
1765408854.103076,-9.73554544799618,-1.2902545674871455,-0.6665750123617196,1.372104023141412,-0.1695073044435978,0.45886187487142016
1765408854.10341,-9.743580376075428,-1.2856106510787815,-0.6642516858633486,1.3706753006207366,-0.16693139272714833,0.45856815858546457
1765408854.10372,-9.752494008104986,-1.2782484055083256,-0.6582098721002423,1.3692628273067473,-0.16444165683100428,0.4581810131662013
1765408854.10397,-9.76208144292353,-1.267961143101632,-0.6483844187991593,1.36780749644457,-0.16206779317219122,0.45771536394303347
1765408854.10422,-9.772250785614121,-1.2549526034916023,-0.6348056393955052,1.3662426123408442,-0.1598384899952708,0.4571935384323471
1765408854.10447,-9.78300933705422,-1.2398440708457614,-0.6176142606518107,1.3645008919058998,-0.15778088575772256,0.4566428626547204
1765408854.104724,-9.794422497627906,-1.2236248320154062,-0.5970849467067173,1.3625218861125492,-0.15591990832897487,0.4560925756769546
1765408854.104974,-9.806556113059774,-1.2075503003118817,-0.5736481188107342,1.3602589268657421,-0.15427760300793683,0.4555704522764539
1765408854.105224,-9.819416205919838,-1.1930005036066877,-0.547899999381112,1.3576848309189995,-0.15287253806152526,0.45509956376549565
1765408854.105474,-9.832898501026309,-1.1813178778596598,-0.5205946205665789,1.3547957766558751,-0.15171932194682144,0.4546955827956951
1765408854.105714,-9.84675626229139,-1.1736459175453022,-0.492615980633297,1.3516129690667376,-0.15082821544215308,0.45436495551806566
1765408854.105964,-9.860590670133483,-1.1707886115853674,-0.4649324041985562,1.3481819072088275,-0.1502048022208555,0.45410414566863017
1765408854.106214,-9.87386430593406,-1.1731056874587087,-0.4385382614517832,1.3445692629130312,-0.14984969802736484,0.4539000283907796
1765408854.106464,-9.885935920407741,-1.1804527181911668,-0.4143897816794893,1.340857566056785,-0.14975831507673437,0.4537313938589244
1765408854.106708,-9.896113469476136,-1.1921701829176667,-0.3933411834407877,1.337138072830348,-0.14992072490533917,0.4535714109388705
1765408854.106958,-9.903721203071802,-1.2071221249601276,-0.37608577556266226,1.3335023820380847,-0.15032165487395868,0.4533907960065455
1765408854.107208,-9.908174206297982,-1.2237820752408977,-0.3631060027820343,1.3300335603848827,-0.15094061306972173,0.4531613427272047
1765408854.107458,-9.909050812759814,-1.2403601663569042,-0.3546370365196049,1.326797695291438,-0.1517520954938835,0.45285941480807906
1765408854.107711,-9.906151961387692,-1.254960743436368,-0.35064862998091423,1.3238368369745765,-0.15272582412687752,0.45246899857451917
1765408854.108044,-9.899538515760291,-1.265755336622726,-0.35084779777141284,1.3211641720145075,-0.1538270050960685,0.4519839559307944
1765408854.108378,-9.889542158009792,-1.2711528914131576,-0.3547010214441711,1.3187619996937572,-0.15501665942164514,0.4514092015696875
1765408854.10875,-9.876750056106165,-1.26994849946867,-0.36147170063430295,1.3165827122407692,-0.15625212422592807,0.4507606406858879
1765408854.109,-9.861965663616713,-1.261433837220903,-0.37026853438797186,1.314552581231757,-0.157487825066212,0.45006383826966634
1765408854.10925,-9.846148006314912,-1.2454569020575927,-0.3801026638978041,1.3125778087691016,-0.15867639038982975,0.4493515407873576
1765408854.1095,-9.830332311090128,-1.2224248188860614,-0.3899527122465207,1.3105520936367496,-0.1597701402425001,0.4486603218850049
1765408854.109686,-9.81553765241974,-1.1932506971094163,-0.39883542647373643,1.308364924285615,-0.16072293505828109,0.4480267539508594
1765408854.109936,-9.802671111876696,-1.159252820309795,-0.4058768051489131,1.3059099066828248,-0.16149229902401702,0.4474835855591858
1765408854.110186,-9.792439698130975,-1.1220204789336843,-0.4103773099916185,1.3030925847990948,-0.16204163441051825,0.44705640073084096
1765408854.110436,-9.785279277124404,-1.0832639356309495,-0.4118663159575718,1.2998373407051291,-0.16234225604758482,0.4467611463476129
1765408854.11072,-9.781305454360242,-1.0446656228244777,-0.41014353739566456,1.2960930344731574,-0.16237495523871248,0.4466027718493162
1765408854.11097,-9.780287984037345,-1.0077466436307807,-0.4053057838977011,1.2918370663893628,-0.16213087493130174,0.4465750751353433
1765408854.11122,-9.78164963049563,-0.9737588872566992,-0.39775562558402827,1.287077550170802,-0.16161160871361366,0.4466617168242753
1765408854.11147,-9.78449123295549,-0.9436098901115655,-0.3881872565602604,1.2818533227856785,-0.16082856092659104,0.4468382541349392
1765408854.111686,-9.787644822107987,-0.9178250305122306,-0.3775462795695936,1.2762316234610507,-0.15980168751174217,0.44707494913072254
1765408854.111936,-9.78975543101512,-0.8965491275097388,-0.3669629774798797,1.2703034695722677,-0.15855778716366212,0.4473400234844977
1765408854.112186,-9.789390329463226,-0.8795863720388221,-0.3576607591440368,1.2641770235001746,-0.1571285442991798,0.44760297126109305
1765408854.112436,-9.785171300444995,-0.8664733560263284,-0.3508438486908347,1.2579695236410564,-0.15554852513573328,0.4478375155555573
1765408854.112709,-9.775919912777637,-0.8565750956921906,-0.3475733939579778,1.2517985658045114,-0.15385328613984683,0.4480238225295073
1765408854.113042,-9.76079856906399,-0.8491896580788059,-0.3486479586546275,1.245773607692702,-0.15207770214530633,0.4481496827793515
1765408854.113376,-9.739425870212926,-0.8436449478323256,-0.3545078551450902,1.2399885068378977,-0.15025459296206295,0.44821052723381316
1765408854.113663,-9.71194702421394,-0.8393724132657708,-0.3651796818185235,1.2345157066216301,-0.14841370320662967,0.44820832970952307
1765408854.113913,-9.67904720331763,-0.835946874735815,-0.38026995853695983,1.2294024024765051,-0.14658103764469668,0.44814962354816373
1765408854.114163,-9.641904115008238,-0.8330884668379308,-0.39900897743567026,1.2246687177359643,-0.14477849599925008,0.44804299536365566
1765408854.114413,-9.6020841906231,-0.8306302682128196,-0.4203388375939718,1.2203076671798652,-0.14302373539720353,0.4478964893283567
1765408854.114642,-9.561395181855575,-0.8284617652725002,-0.4430323933638063,1.2162865446563667,-0.14133021416923802,0.44771534467165125
1765408854.114892,-9.52171530057878,-0.8264623135311288,-0.4658242387992583,1.2125493621853558,-0.13970739605699228,0.4475004007941642
1765408854.115142,-9.484822439320475,-0.8244393827804356,-0.4875338880166431,1.2090200670602407,-0.13816110432551867,0.44724736498793266
1765408854.115392,-9.4522452855265,-0.8220838861427631,-0.5071652215605648,1.2056064108106497,-0.13669403091875798,0.44694698731783017
1765408854.115734,-9.425152842942673,-0.8189506248294111,-0.5239724022174517,1.2022044670797942,-0.13530642924971362,0.4465860583526322
1765408854.115984,-9.404292210296907,-0.8144672860112944,-0.5374884808326281,1.1987038363552303,-0.13399701850156354,0.44614904899908703
1765408854.116234,-9.389977711610365,-0.8079712886023963,-0.5475180453570878,1.1949935169863553,-0.1327640785070399,0.44562014490764723
1765408854.116484,-9.382128248412812,-0.7987702245764244,-0.5540992277030606,1.190968291892116,-0.13160663239853898,0.44498538903149026
1765408854.11671,-9.380344557632927,-0.7862186139850572,-0.5574429113592384,1.1865353278293025,-0.13052553620231042,0.44423463837282423
1765408854.11696,-9.384014159116123,-0.7698011884991298,-0.5578583136006653,1.1816205503739454,-0.129524254069597,0.44336306808702236
1765408854.11721,-9.39242909603918,-0.7492112467404146,-0.5556749223279359,1.1761742635217147,-0.12860911604463576,0.4423720139961163
1765408854.11746,-9.404899903034048,-0.7244123519146611,-0.5511715678720048,1.1701754400378712,-0.12778893367600028,0.44126902196532464
1765408854.117728,-9.420848557370645,-0.6956731900707954,-0.5445239046275889,1.1636341402889663,-0.12707396732065168,0.44006705943260366
1765408854.117978,-9.439864392899173,-0.6635686550519959,-0.535780244901968,1.1565916511510885,-0.12647436800277528,0.4387829371794092
1765408854.118228,-9.461712021476503,-0.6289445469120123,-0.5248707561288283,1.1491181758673144,-0.12599832776287645,0.43743508785584445
1765408854.118478,-9.486290163115324,-0.5928479180190667,-0.5116467958024914,1.141308210369766,-0.12565024000960712,0.4360409466568226
1765408854.118699,-9.513552498093407,-0.5564295107388302,-0.49593893875133177,1.1332740384339446,-0.12542917782327162,0.4346142607193734
1765408854.118949,-9.543411138162822,-0.5208284252307082,-0.4776180359126356,1.1251379915919189,-0.12532794258801017,0.43316268755214604
1765408854.119199,-9.575646234976706,-0.4870515632234449,-0.45664472363705183,1.1170242086048174,-0.12533283346056853,0.4316860087335622
1765408854.119449,-9.609841705821992,-0.455861075387435,-0.4330973656567139,1.109050601438555,-0.1254241642270128,0.4301751943677907
1765408854.119733,-9.645359805308946,-0.4276820470179082,-0.4071741180915613,1.1013216251268894,-0.12557743330131185,0.4286124412039903
1765408854.119983,-9.681358837882588,-0.40254044182389265,-0.3791706953749965,1.0939222898568388,-0.12576495564401233,0.42697220068238634
1765408854.120233,-9.716850076531374,-0.38003837213142766,-0.3494411002199839,1.0869136706335074,-0.12595770608887497,0.4252231178613092
1765408854.120483,-9.750783034716399,-0.3593703888374531,-0.3183527794717649,1.0803299911453748,-0.12612711095073909,0.4233307133669898
1765408854.120661,-9.782143804394211,-0.3393808577259223,-0.28624862914244636,1.0741772136554038,-0.1262465620353057,0.42126056000484774
1765408854.120911,-9.810049802615932,-0.31865879608177133,-0.253425564582802,1.0684329783371733,-0.12629250610531914,0.4189816452119555
1765408854.121161,-9.833825765101501,-0.2956630915948301,-0.2201343793582934,1.0630477128550435,-0.12624506323597762,0.41646958310845744
1765408854.121411,-9.853049861270206,-0.26886811626814433,-0.186600146849666,1.0579467707505494,-0.12608822337827202,0.4137093496673908
1765408854.121683,-9.867565045012885,-0.2369174887495139,-0.15305752157320465,1.0530335334451688,-0.12580973812397228,0.41069725547133873
1765408854.121933,-9.877458016170703,-0.19877214162952486,-0.11979165704924907,1.0481934865776952,-0.12540085330344533,0.4074419341345513
1765408854.122183,-9.883014176153056,-0.15383809467340642,-0.08717409538318717,1.0432993094820802,-0.12485602577369953,0.4039642052320778
1765408854.122433,-9.884659774139722,-0.10205976076553434,-0.05568463456087868,1.0382169631901432,-0.12417274812745606,0.4002957658657883
1765408854.122741,-9.88290206443091,-0.0439665479493699,-0.025914007582656294,1.032812632616873,-0.12335156877338936,0.3964767753415971
1765408854.122991,-9.878276379294809,0.019335666322399827,0.0014540013495225029,1.0269602146382604,-0.12239633480178778,0.39255252397940393
1765408854.123241,-9.871306962002745,0.08623064805288741,0.025680159681814328,1.020548892900839,-0.12131460560117172,0.3885695092937652
1765408854.123491,-9.86248621357511,0.15471047641008154,0.0460250190842279,1.013490234150688,-0.12011810797272551,0.3845713472253653
1765408854.123693,-9.852274088866073,0.2225347074267113,0.06181792741456939,1.0057242012121688,-0.1188230572069748,0.38059497861582126
1765408854.123943,-9.841115766491333,0.2874135045673011,0.07253346267444222,0.997223517332258,-0.11745017308002556,0.3766675733103599
1765408854.124193,-9.829472009536664,0.34719680582099394,0.0778666748811212,0.9879959293045271,-0.11602427338512951,0.3728044156857537
1765408854.124443,-9.817853374634874,0.40005213553271113,0.07779728218112963,0.9780840806939153,-0.11457341293404495,0.369007927940611
1765408854.124707,-9.806847456060979,0.4446150254481903,0.07263302682543106,0.9675629011992282,-0.11312763703157874,0.3652678798487074
1765408854.124957,-9.797129006307788,0.4800981186185295,0.06302399245685233,0.956534630740504,-0.1117175179170544,0.3615627394400387
1765408854.125207,-9.789446554291667,0.5063484771963497,0.049942721193594934,0.9451218127714587,-0.1103727064925904,0.3578620232863511
1765408854.125457,-9.78458467073679,0.5238476777216298,0.0346289917711776,0.9334587895112492,-0.10912072740271261,0.35412940946803223
1765408854.125697,-9.783306164975548,0.5336554302973309,0.018502779232305602,0.9216823893634396,-0.10798617921884031,0.35032629805110865
1765408854.125947,-9.786282013622893,0.5373035937721018,0.0030535737019839293,0.9099225936868782,-0.10699040950545395,0.34641546043031046
1765408854.126197,-9.794018716162649,0.536652512873459,-0.010282308448115878,0.8982939885947951,-0.10615164127304132,0.34236441987248534
1765408854.126447,-9.80679352275472,0.5337249604261176,-0.020243135978499804,0.8868887351474186,-0.10548543731399034,0.3381482529448572
1765408854.126721,-9.824607662203809,0.5305343420439845,-0.025848396055971622,0.8757716308608443,-0.10500531486982365,0.333751587611418
1765408854.126971,-9.84716563696617,0.5289230613350134,-0.02647850332260512,0.8649776098478689,-0.10472329132872699,0.32916968023344234
1765408854.127221,-9.87388435820939,0.5304242489170705,-0.021919187970411366,0.8545117768967501,-0.10465016750224758,0.3244085579521325
1765408854.127471,-9.9039304456026,0.5361562251527807,-0.0123677912631049,0.8443518350224674,-0.10479542773245884,0.31948429682755786
1765408854.127698,-9.936279651932198,0.5467551547947547,0.0015961718668481603,0.8344525741168181,-0.10516672621822398,0.31442156097785107
1765408854.127948,-9.969790414160626,0.5623479955643912,0.019070879530618878,0.8247519454533065,-0.10576900801849812,0.30925155962906026
1765408854.128198,-10.003283370323851,0.5825649854232628,0.038915702758905164,0.8151781511937933,-0.10660337377557602,0.30400960418303163
1765408854.128448,-10.035618980937548,0.606588222350622,0.0598500049833218,0.8056571310455818,-0.1076658481704153,0.29873247362652566
1765408854.128703,-10.06576568595506,0.6332303831258091,0.08055729300205068,0.796119828003768,-0.1089462484094335,0.2934558108521915
1765408854.128953,-10.092851817275015,0.661035798069628,0.09978417483109876,0.786508658076148,-0.11042734663158663,0.2882117596038097
1765408854.129203,-10.116196350926256,0.6883953381946398,0.11642471527762575,0.7767826935747969,-0.11208447188058959,0.2830270141032827
1765408854.129453,-10.135316671059455,0.7136666945806855,0.12958357989337513,0.7669211894544381,-0.11388562882261764,0.27792140393865544
1765408854.129664,-10.149915436841495,0.7352921775846071,0.13861524258733626,0.756925225408855,-0.11579214661435028,0.27290708409860026
1765408854.129914,-10.159852341241821,0.7519068778755437,0.14314048508491406,0.7468173943558527,-0.11775981198777577,0.267988347306303
1765408854.130164,-10.165108758891394,0.7624308917837844,0.14304434662568868,0.7366396342236853,-0.11974038365023618,0.26316202683312434
1765408854.130414,-10.165753431573386,0.7661403882822097,0.1384610795676439,0.7264494626051423,-0.12168334964840771,0.2584184176987281
1765408854.130681,-10.161915797402232,0.7627136343975166,0.12975162540223328,0.716315011809746,-0.12353779425894724,0.2537426143968953
1765408854.130931,-10.153771033464798,0.7522496703638203,0.11747784576775062,0.7063093519905779,-0.12525427405749795,0.24911614177574085
1765408854.131181,-10.141537885499227,0.7352590601211789,0.10237552181909927,0.6965046203870352,-0.12678663190376674,0.24451874069662652
1765408854.131431,-10.125487224193733,0.7126279690063277,0.08532566676565764,0.6869664487084667,-0.1280936878478679,0.23993016286104485
1765408854.131687,-10.105956398305668,0.6855586948022522,0.06732181335380208,0.6777491102807369,-0.1291407500860024,0.23533183156067725
1765408854.131937,-10.08336262066617,0.6554916364617204,0.04943013047935959,0.6688917080106656,-0.1299009000088306,0.23070823908914717
1765408854.132187,-10.058208664281889,0.6240152784055812,0.0327396360914492,0.6604156069952677,-0.1303560152882145,0.22604798068674667
1765408854.132437,-10.031076259204728,0.5927716673406426,0.018301515155353592,0.6523231944520923,-0.13049748929480595,0.22134436907361313
1765408854.13265,-10.002606123853345,0.5633648254068234,0.0070597318420511646,0.6445979369530755,-0.13032658658422092,0.21659562333004578
1765408854.1329,-9.973467447046485,0.5372787142445673,-0.0002207658842199472,0.6372056092163508,-0.12985436356458457,0.21180466781717566
1765408854.13315,-9.944322605631253,0.5158098579570646,-0.0030186477791102192,0.6300964942323815,-0.12910110126536659,0.20697860468732995
1765408854.1334,-9.915793853304857,0.5000174579906714,-0.0011035381814987178,0.6232083084320585,-0.12809524581906723,0.20212793976457452
1765408854.133649,-9.888437467657333,0.4906910945662706,0.00544127680138052,0.6164695970152231,-0.12687191429119904,0.1972656500123387
1765408854.133849,-9.862728504016381,0.4883339754480848,0.016223974724490366,0.6098033699016779,-0.12547107880808522,0.192406180578446
1765408854.134049,-9.839057292335122,0.4931590598580295,0.03057660910166164,0.6031307877082739,-0.12393558348276419,0.18756444863081176
1765408854.134249,-9.817737493100203,0.5050959147730413,0.04761130815105729,0.5963747416004445,-0.12230917442955105,0.1827549136498881
1765408854.134449,-9.799024249249744,0.5238068170738802,0.06629409861555365,0.5894631999584535,-0.12063472429542128,0.17799075481329485
1765408854.134675,-9.783139400005062,0.5487109943730704,0.08552803858861809,0.5823322219532993,-0.11895280171383059,0.17328317550178637
1765408854.134925,-9.770299486235597,0.5790163155128426,0.10423664040747187,0.5749285544483673,-0.11730067940497299,0.16864083423601622
1765408854.135175,-9.760741988935203,0.6137582564373036,0.1214394620301879,0.5672117250781027,-0.11571180894104179,0.1640693911585339
1765408854.135425,-9.75474559522449,0.6518460707519715,0.13631319040651285,0.5591555322368708,-0.1142157301031387,0.1595711686739433
1765408854.135779,-9.752640692532726,0.6921153897642692,0.14823283140342813,0.5507488351417736,-0.11283833492813053,0.15514494730605932
1765408854.136029,-9.75480690507553,0.7333852333945915,0.15678934428084657,0.5419955742581596,-0.1116023704726551,0.15078593465770468
1765408854.136279,-9.761655922233848,0.7745163552745733,0.16178287182363754,0.5329139959639826,-0.11052803754087422,0.14648594341841328
1765408854.136529,-9.77360017628641,0.8144674833982763,0.16319405970996503,0.5235351024689371,-0.10963353043066743,0.14223379581250728
1765408854.136708,-9.79101045364185,0.8523462176901326,0.16113872095779863,0.5139003936734959,-0.10893538106214548,0.13801594860447502
1765408854.136958,-9.814167632229506,0.8874515844056754,0.1558129301440303,0.5040590165242336,-0.10844852766261213,0.13381731380775438
1765408854.137208,-9.843215062353341,0.9193052885835225,0.14743673926194506,0.49406449346880543,-0.10818610199174178,0.12962223483368573
1765408854.137458,-9.87811820342094,0.9476688919060607,0.13620477053469213,0.483971254897935,-0.10815898187136495,0.12541556079109328
1765408854.137723,-9.918636629980988,0.9725449313427965,0.12225020022702258,0.4738312291415672,-0.108375174050184,0.12118374382727158
1765408854.137973,-9.964310909930456,0.9941613852428327,0.10562526196997572,0.4636907323490532,-0.10883909965198518,0.11691587340280318
1765408854.138223,-10.014464424975653,1.0129404918699354,0.08629785730777365,0.4535878553043428,-0.10955087140023623,0.1126045624520337
1765408854.138473,-10.068218790343247,1.0294544211651242,0.06416155448117696,0.4435504866140379,-0.11050566404678004,0.1082466113132208
1765408854.138671,-10.124520815500524,1.0443716851554468,0.03905531723758543,0.43359505911398427,-0.11169326391926752,0.10384339141759032
1765408854.138921,-10.182178287889661,1.0583994213190366,0.010789171791784312,0.4237260592478458,-0.1130978488650644,0.09940091227401361
1765408854.139171,-10.239901232784257,1.0722273710569679,-0.020827708138210187,0.41393628987777775,-0.11469802457253414,0.09492956646653145
1765408854.139421,-10.296345092859946,1.0864789122360654,-0.055959535044305085,0.4042078250439244,-0.11646713322888887,0.09044358581895362
1765408854.139772,-10.35015266528057,1.1016728356430117,-0.09471945655134988,0.3945135492217663,-0.11837383308180137,0.08596027503359326
1765408854.139972,-10.399992519489093,1.1181973816995798,-0.13714954953002867,0.3848191416715685,-0.12038290975879241,0.08149910503693004
1765408854.140172,-10.444592849538253,1.136296246749491,-0.18320528319264737,0.3750853517789781,-0.12245624166805928,0.07708074541274337
1765408854.140372,-10.482771102450908,1.1560651434682943,-0.23274308713808226,0.365270417057385,-0.12455382734774631,0.07272610138873808
1765408854.140572,-10.513460777473986,1.1774567947054688,-0.28550926189310405,0.35533250268178623,-0.1266347912532562,0.06845540490870455
1765408854.140673,-10.535736918388109,1.2002918079297102,-0.3411295399050204,0.34523207722587773,-0.1286583005448749,0.06428739431680036
1765408854.140923,-10.548841006831283,1.224273038571288,-0.3991003497879436,0.3349341600447486,-0.1305843447949088,0.06023860266179089
1765408854.141173,-10.55220484077044,1.2490019819021578,-0.4587840255678064,0.32441037017133517,-0.13237435782732138,0.05632276501741213
1765408854.141423,-10.545472049307886,1.2739968928824248,-0.5194105384218387,0.3136406878234485,-0.13399169110443765,0.05255035531575622
1765408854.14167,-10.528515165025093,1.2987129197155367,-0.5800881946566626,0.30261482953579466,-0.13540196710694,0.04892826733860329
1765408854.14192,-10.501445707663633,1.3225643436752472,-0.6398250474847968,0.29133314708897506,-0.13657334402432592,0.045459652265726666
1765408854.14217,-10.46461488578568,1.3449485171807614,-0.6975611871445898,0.2798069856202701,-0.1374767202812124,0.042143915058420245
1765408854.14242,-10.418603430853077,1.3652707895341043,-0.7522101408886571,0.26805847024092266,-0.13808590919463395,0.038976861110509575
1765408854.142711,-10.364200360047404,1.3829696592616978,-0.8027063667143963,0.2561197289905884,-0.13837781649860068,0.035950980373543676
1765408854.142961,-10.302371662277334,1.3975413005507806,-0.8480554291271214,0.24403160010345099,-0.13833264644562324,0.033055860313636526
1765408854.143211,-10.234220923475425,1.4085622870284389,-0.8873831531010307,0.2318419064166549,-0.137934142902336,0.03027872412712889
1765408854.143461,-10.160944852444294,1.4157089166834778,-0.9199795109306279,0.21960340305856568,-0.13716984590672698,0.02760508650208384
1765408854.143657,-10.083787417137959,1.418771257797289,-0.9453328184282057,0.2073715205294969,-0.13603132189371944,0.025019506224088772
1765408854.143907,-10.003996566288736,1.4176600161795392,-0.9631506150353196,0.19520204302497682,-0.13451431892818544,0.022506401275323138
1765408854.144157,-9.922787233911754,1.4124047388406336,-0.9733650677898245,0.18314887877802338,-0.1326188105583432,0.020050880977959398
1765408854.144407,-9.84131365501421,1.403142885407907,-0.9761221834794598,0.17126208145519833,-0.1303489132417264,0.01763954202555914
1765408854.144667,-9.76065291863386,1.3901006855550062,-0.9717555128409219,0.1595862612192991,-0.12771267950687426,0.015261178264305723
1765408854.144917,-9.681799990830102,1.3735677951422924,-0.9607468085572358,0.14815948581799707,-0.12472178062264155,0.012907373368785521
1765408854.145167,-9.605672467256516,1.3538680924742459,-0.9436780068195436,0.13701272559894323,-0.12139110645468765,0.010572971120377597
1765408854.145417,-9.533121903175823,1.3313287618634122,-0.921179870949195,0.12616984904678838,-0.11773832725623765,0.008256429917914495
1765408854.145844,-9.464948264526845,1.3062497386509766,-0.8938820327178422,0.11564813224827078,-0.11378347097999844,0.005960057645113699
1765408854.146094,-9.401914467786934,1.2788758765589316,-0.8623677889463035,0.1054592095082049,-0.10954856457649127,0.0036901037728242422
1765408854.146344,-9.34475835819308,1.249374413396729,-0.827136245322772,0.09561036186270233,-0.10505738168041538,0.0014566796094833123
1765408854.146594,-9.294199639965449,1.217819945661553,-0.788574506883476,0.08610601306528373,-0.10033534200611965,-0.0007265092782943866
1765408854.146717,-9.250939598853696,1.184188216986348,-0.746942638531721,0.07694928449022782,-0.09540960144329151,-0.002842616330478517
1765408854.146967,-9.215652071511268,1.148359089566488,-0.7023734078474386,0.06814346390149685,-0.09030933271226707,-0.0048722811435036335
1765408854.147217,-9.188964863409444,1.1101285087758281,-0.6548875320037064,0.05969327146604653,-0.08506613561131107,-0.006794414988137192
1765408854.147467,-9.171431833325641,1.0692289936803498,-0.6044234222258058,0.05160584529106995,-0.07971446980874539,-0.008587119462750465
1765408854.147738,-9.163497312742743,1.0253577525292574,-0.5508783779981299,0.043891398748917225,-0.07429199151119607,-0.010228693471935689
1765408854.147988,-9.165455953243107,0.9782107061358885,-0.4941565714748857,0.036563516182592785,-0.0688396885620157,-0.011698666086239488
1765408854.148238,-9.177411790217633,0.9275198080989029,-0.4342187689984534,0.029639061161740355,-0.06340173045201719,-0.012978791804976315
1765408854.148488,-9.199240273295159,0.8730906052477583,-0.37112927627746917,0.023137685708649602,-0.058024976451538514,-0.014053959933027832
1765408854.148681,-9.230556887751016,0.814837182022358,-0.30509606956865437,0.017080954243353264,-0.05275811900572524,-0.014912986837836067
1765408854.148931,-9.270696047452905,0.7528121747959128,-0.23650027019919184,0.011491124427967904,-0.04765047818821298,-0.015549266209790857
1765408854.149181,-9.318703693604677,0.6872299353033906,-0.16591187705491747,0.006389649971709725,-0.04275050366632664,-0.015961246807394767
1765408854.149431,-9.373346126933209,0.6184809796072471,-0.09409037379177476,0.0017954906624599572,-0.038104082958879265,-0.016152697843959896
1765408854.149747,-9.433136444010215,0.5471358912667493,-0.021970511764786756,-0.0022766588789486387,-0.03375278789172932,-0.016132719551754784
1765408854.149947,-9.49637899448188,0.4739372879030494,0.04936572982901538,-0.005818079411068304,-0.029732196525917718,-0.01591546493915354
1765408854.150147,-9.561231255681744,0.3997793694768218,0.11872988976167798,-0.00882751320393852,-0.026070405575747503,-0.015519556772003734
1765408854.150347,-9.625780981863766,0.3256756346873899,0.18487887227266311,-0.011312266931077487,-0.02278682158756836,-0.014967210582257428
1765408854.150547,-9.68813458591625,0.25271628959486536,0.24657528620853367,-0.013288803416067809,-0.01989130480302955,-0.014283111182779367
1765408854.150687,-9.746510981690143,0.18201769461371775,0.3026526214699515,-0.014782745124279224,-0.017383731345277407,-0.0134931336323623
1765408854.150937,-9.799333863783211,0.1146671361186923,0.3520807949311347,-0.015828272038447284,-0.015254023569723012,-0.012623037723105338
1765408854.151187,-9.845314762518194,0.05166731482080324,0.3940270549587585,-0.016466956798710262,-0.013482672904328015,-0.011697279328961387
1765408854.151437,-9.883519433513518,-0.006114219844531252,0.4279071108843989,-0.01674613397372404,-0.012041750001083363,-0.010738059089225068
1765408854.151779,-9.913411433032369,-0.05798557602270075,0.4534218305568219,-0.016716941288763748,-0.010896364104270266,-0.00976467436319276
1765408854.151979,-9.934868952335444,-0.10345725933124193,0.47057595852699163,-0.016432193435013044,-0.010006493192081049,-0.008793178349217397
1765408854.152179,-9.948173752819315,-0.14225372058086447,0.47967701148108105,-0.015944252703729553,-0.009329062792901516,-0.00783630667109136
1765408854.152379,-9.95397399106342,-0.17431047756016615,0.48131466179486787,-0.015303047117165118,-0.008820119448231368,-0.006903616755905302
1765408854.152579,-9.953225434066368,-0.19975888029939964,0.47632308144393604,-0.014554360156185907,-0.008436937133079641,-0.00600179039568624
1765408854.152667,-9.947117503300646,-0.2189009491005949,0.4657303300677234,-0.01373848401648497,-0.008139910622151473,-0.005135057828289376
1765408854.152867,-9.936991353797916,-0.2321767255510551,0.4506996758885867,-0.012889297152631552,-0.007894119412610643,-0.004305700174882562
1765408854.153067,-9.924256761952456,-0.2401268346392521,0.4324677536229196,-0.012033796204022488,-0.007670482696265092,-0.003514577949617191
1765408854.153267,-9.910313250815863,-0.24335345967256242,0.4122837538132752,-0.011192077872475814,-0.007446467775031927,-0.0027616300683145057
1765408854.153467,-9.896479134491008,-0.24248312697522553,0.39135266142371444,-0.01037772957010437,-0.007206357734406138,-0.0020463004394355756
1765408854.153734,-9.88393062923864,-0.23813416217962083,0.37078447168546946,-0.009598557802370957,-0.006941121908696459,-0.0013678728359425734
1765408854.153934,-9.873652265537563,-0.23089064716228336,0.3515507268103102,-0.008857567256583734,-0.0066479557802178015,-0.0007257152234778815
1765408854.154134,-9.866399497488267,-0.22128376425340587,0.33444956670215276,-0.008154099134318091,-0.006329559904693441,-0.00011944393351874108
1765408854.154334,-9.862674325707937,-0.2097808183645643,0.32008047246349497,-0.007485037462110023,-0.005993214906860553,0.0004509807219664279
1765408854.154534,-9.862714662314303,-0.19678173671626709,0.30882981261197673,-0.006845993813142557,-0.005649696106380857,0.000985215140391009
1765408854.154788,-9.866497903724627,-0.18262217151493496,0.30086803233484355,-0.0062323862058334305,-0.00531207004336171,0.001482533783878097
1765408854.154988,-9.873758605666724,-0.16758153467766304,0.29615871437127583,-0.005640340238081421,-0.0049944279918019835,0.001941852327382358
1765408854.155188,-9.884019289664279,-0.1518937256168565,0.29447885429781445,-0.005067361294677549,-0.004710630863359237,0.0023617559361202253
1765408854.155388,-9.896632474432518,-0.1357582750748658,0.2954488234230749,-0.004512754255204174,-0.0044731548852603555,0.0027405254646578423
1765408854.155588,-9.910831240094968,-0.11935011484935844,0.29856984325538244,-0.003977796078104409,-0.004292127758704452,0.0030761666212964734
1765408854.155699,-9.925785036005502,-0.10282691336659826,0.3032663346917482,-0.0034656904346775184,-0.004174625365582429,0.0033664551618409065
1765408854.155899,-9.940657023779147,-0.08633358700232538,0.30893018222680807,-0.002981349031840305,-0.004124264317590295,0.0036090115227256315
1765408854.156099,-9.954659105701639,-0.07000408809560855,0.31496385183687264,-0.002531051783981792,-0.004141088143691778,0.003801413124540628
1765408854.156299,-9.967100998732036,-0.05396094458443376,0.3208194782395415,-0.002122038204176456,-0.004221715705168847,0.003941346222804987
1765408854.156499,-9.977430181488602,-0.03831338424564923,0.32603142126022083,-0.0017620752907330688,-0.004359704784775677,0.004026793882178127
1765408854.156669,-9.985260174026832,-0.02315520961760185,0.3302403287516413,-0.0014590344940359613,-0.004546082440403539,0.004056251792786236
1765408854.156869,-9.990385480978864,-0.008563722329067337,0.33320747184527894,-0.0012204962094817995,-0.004770001740545335,0.004028958011855975
1765408854.157069,-9.992782685210084,0.005399274701087352,0.3348190162377268,-0.001053388910364168,-0.005019491146463691,0.003945116083917373
1765408854.157269,-9.992598427790982,0.018684015502204346,0.3350808015754918,-0.0009636638955116801,-0.005282259590384067,0.0038060845633068304
1765408854.157469,-9.990126075917384,0.031247190785410054,0.33410496377500337,-0.0009560062171227064,-0.005546508991371665,0.003614502465269407
1765408854.157724,-9.9857736674746,0.04304508975602296,0.33209031534327244,-0.0010335860935638634,-0.005801694555891097,0.0033743226244509453
1765408854.157924,-9.980026249007603,0.054026523142880735,0.32929876777223743,-0.001197858779379111,-0.006039167548763762,0.003090734370451534
1765408854.158124,-9.973405937905005,0.06412663418204348,0.3260301145064044,-0.0014484202585420519,-0.006252638659891521,0.002769972055586276
1765408854.158324,-9.966432876737,0.07326265939175117,0.32259715226592905,-0.0017829216663774775,-0.006438416033524173,0.002419024296618354
1765408854.158524,-9.959589807321528,0.08133254396966347,0.31930262637324897,-0.002197042022672298,-0.0065953994708958545,0.002045276404474564
1765408854.158704,-9.953292453702943,0.08821698638324403,0.3164191101785918,-0.002684520134224779,-0.006724842307478749,0.0016561303978207544
1765408854.158904,-9.94786732681946,0.09378496624930245,0.31417267023944695,-0.0032372498593153617,-0.006829915577451895,0.0012586498917454216
1765408854.159104,-9.943537928926997,0.09790219826977607,0.31273090815724913,-0.0038454429778449453,-0.00691512430460214,0.0008592709409432635
1765408854.159304,-9.940419711529342,0.10044145484429026,0.3121957782268025,-0.004497858853833428,-0.006985637427096568,0.00046360678263444887
1765408854.159504,-9.938523622072218,0.10129348872928708,0.3126015591931292,-0.005182093184319931,-0.007046601437201499,7.635773753364385e-05
1765408854.159691,-9.93776757732904,0.10037739649813102,0.3139182798607346,-0.005884913925582916,-0.00710250880224517,-0.00029867872840071255
1765408854.159891,-9.93799453192287,0.09764956922912336,0.3160603833831616,-0.006592632234596262,-0.007156683742471688,-0.0006585151149733238
1765408854.160091,-9.938995016155662,0.09311068159226245,0.318899512953527,-0.007291496951737299,-0.007210934353778377,-0.0010008223324770818
1765408854.160291,-9.94053147609886,0.08681033648820763,0.3222795601123814,-0.007968099213604314,-0.007265405568592246,-0.0013237457214600576
1765408854.160491,-9.942361762228153,0.07884903138614589,0.32603195155291254,-0.008609769799667858,-0.007318649489418342,-0.0016257139431230853
1765408854.160778,-9.944259562140648,0.06937717848428372,0.32998942678421217,-0.009204950120045706,-0.00736790356975863,-0.0019052630887216098
1765408854.160978,-9.94603016576748,0.05859109266228048,0.33399696444130444,-0.00974352117648875,-0.007409536312619812,-0.0021608940224916513
1765408854.161178,-9.947520635840156,0.046726149699062934,0.3379190315895606,-0.01021708111873937,-0.007439595549164639,-0.0023909760611481676
1765408854.161378,-9.948624304827014,0.03404762552002123,0.3416430488975006,-0.010619165629317728,-0.00745438336880842,-0.0025937047428926515
1765408854.161578,-9.949280337972667,0.020839942291482064,0.34507966616986974,-0.010945403079198687,-0.007450983360711314,-0.002767115353036133
1765408854.16169,-9.949469528974467,0.007395097496013623,0.34816076721529293,-0.01119359172711827,-0.007427676658658065,-0.0029091480025078046
1765408854.16189,-9.949207481173076,-0.005999019148172475,0.350836072046986,-0.011363686477025473,-0.007384202025761891,-0.0030177554959264427
1765408854.16209,-9.948536181268485,-0.01906978199369098,0.3530690962212825,-0.011457690634448398,-0.007321839647830022,-0.0030910409781414495
1765408854.16229,-9.9475149068351,-0.031569822202390706,0.3548331869870213,-0.011479459298091053,-0.007243323518616966,-0.0031274078993957987
1765408854.16249,-9.946211354815446,-0.04328524320681229,0.3561082363802276,-0.011434429659919268,-0.007152608754128823,-0.0031257034286111362
1765408854.162752,-9.944693772727303,-0.05404157830031193,0.3568784553832021,-0.011329297717352747,-0.007054535517096215,-0.003085341202153499
1765408854.162952,-9.943024791076198,-0.06370719609491697,0.35713145736193547,-0.011171662567111983,-0.006954438513720495,-0.0030063977859395782
1765408854.163152,-9.941257568584911,-0.07219398809385635,0.356858839914448,-0.010969660650150231,-0.006857748647846864,-0.0028896836593275466
1765408854.163352,-9.93943458992606,-0.07945527408641709,0.35605825813329456,-0.010731612689163927,-0.006769622977660413,-0.0027367908996619064
1765408854.163552,-9.93758897046283,-0.08548107891251476,0.354736638215788,-0.010465703665309767,-0.006694625472988316,-0.0025501177165535385
1765408854.16373,-9.935747662740926,-0.09029129069269211,0.3529139378434293,-0.010179711145288234,-0.006636468645448954,-0.002332867977209931
1765408854.16393,-9.933935712946178,-0.09392752760826996,0.3506268002792321,-0.00988079254281954,-0.006597816982867332,-0.0020890233415016557
1765408854.16413,-9.932180626892915,-0.09644464796536918,0.34793139571118875,-0.00957533926359194,-0.0065801489430463425,-0.0018232853036022024
1765408854.16433,-9.930515923749255,-0.0979027637378502,0.34490468352814896,-0.009268903230700393,-0.006583676955713717,-0.0015409832003164888
1765408854.16453,-9.928983196836102,-0.09836050015342923,0.34164352280802757,-0.00896619597157769,-0.006607332353175491,-0.0012479435496908968
1765408854.164716,-9.927632461103876,-0.09787015076485635,0.33826157116580646,-0.008671151406276018,-0.0066488263151274025,-0.0009503184519768702
1765408854.164916,-9.926520944992143,-0.09647526646648047,0.33488439770681006,-0.00838703320567188,-0.006704792058559974,-0.0006543768929840977
1765408854.165116,-9.925710542172153,-0.09421100395158641,0.3316433898471814,-0.008116561373496102,-0.006771000692432887,-0.0003662710637783468
1765408854.165316,-9.925264031799193,-0.09110718469288892,0.32866896980220695,-0.007862034518647464,-0.006842632287127662,-9.179795986805677e-05
1765408854.165516,-9.925240185619858,-0.08719351939035083,0.3260835828413501,-0.007625431655957466,-0.006914578515486624,0.0001638183090806201
1765408854.165762,-9.925688019072954,-0.08250601150916448,0.32399484671405754,-0.007408483978856559,-0.006981751266302558,0.00039609940014260304
1765408854.165962,-9.926640570027413,-0.07709336626700841,0.3224890922499335,-0.00721271098046658,-0.007039372329459253,0.0006014256114935761
1765408854.166162,-9.928108714872682,-0.07102233907205711,0.3216254695806755,-0.007039419844656763,-0.007083224914713572,0.0007770858542347901
1765408854.166362,-9.93007573062219,-0.06438122790092199,0.3214310144620161,-0.0068896736438423326,-0.00710985718300116,0.0009212715223784606
1765408854.166562,-9.932493465770706,-0.05728100829783297,0.32189736021575843,-0.006764240276004523,-0.007116736188828141,0.001033026071918939
1765408854.166713,-9.935280903512673,-0.04985390026360592,0.32297980894241,-0.006663538220414979,-0.007102355215104139,0.0011121641480160399
1765408854.166913,-9.938325607942813,-0.042249469244998894,0.3245992084544663,-0.006587596153803616,-0.00706629952228161,0.0011591740443980595
1765408854.167113,-9.941488193907002,-0.034628670553085564,0.32664670542607854,-0.006536040171974075,-0.007009275020175597,0.0011751144155900178
1765408854.167313,-9.944609606328264,-0.027156481410964297,0.32899104397869067,-0.00650811512796962,-0.006933100005189783,0.0011615116518143966
1765408854.167513,-9.947520627118386,-0.01999390230153837,0.3314876721365716,-0.006502738281234504,-0.006840653974222442,0.0011202615901907099
1765408854.167744,-9.950052752124975,-0.01329015485957364,0.33398866374929265,-0.006518577451168399,-0.0067357749993419355,0.0010535396114190539
1765408854.167944,-9.952049506073163,-0.007175849008222728,0.3363525089147747,-0.006554143343021565,-0.006623101145363652,0.0009637239852958985
1765408854.168144,-9.9533773096114,-0.0017577478546021506,0.3384530470200732,-0.006607884950369541,-0.006507859953281068,0.0008533355742914505
1765408854.168344,-9.953935049850399,0.0028844285103403863,0.34018697954439414,-0.006678276131795618,-0.006395619079444658,0.0007249931519137117
1765408854.168544,-9.953661592245133,0.006698935836686727,0.3414795055606542,-0.0067638815705757605,-0.006292017130340407,0.0005813809306381789
1765408854.168702,-9.952540713408366,0.009660731653834041,0.34228780315858726,-0.006863393443621926,-0.006202494066724287,0.00042522587464963055
1765408854.168902,-9.95060322327832,0.01176838362131349,0.3426022762659206,-0.006975635804951722,-0.0061320357452682005,0.00025928560884846415
1765408854.169102,-9.947926200697136,0.013039825718777324,0.3424455620137066,-0.007099538840766992,-0.006084941293754328,8.634866206857638e-05
1765408854.169302,-9.944629342913364,0.01350772631432019,0.3418693367287573,-0.0072340873164316215,-0.006064618671935335,-9.07557219623175e-05
1765408854.169502,-9.940868613464065,0.013215125167735813,0.3409491366617768,-0.0073782471916010554,-0.0060734122642601565,-0.00026914841628887266
1765408854.169821,-9.936827658458379,0.012211767206918203,0.3397776504407943,-0.007530873973747412,-0.006112464874850512,-0.0004459059992585902
1765408854.170021,-9.932707677439723,0.01055132874108236,0.33845705840247997,-0.00769060787176787,-0.006181616676410986,-0.0006180916908287739
1765408854.170221,-9.928716521436565,0.008289558187446219,0.33709100884428056,-0.007855764569803593,-0.006279347502467669,-0.000782813600580284
1765408854.170421,-9.925057806260538,0.005483234838107052,0.3357768667393997,-0.008024235401235121,-0.0064027735739220805,-0.0009373033358245417
1765408854.170621,-9.921920753995005,0.002189781839692366,0.3345988983782807,-0.00819341480671276,-0.006547710686874386,-0.0010790017020716445
1765408854.170766,-9.919471251862106,-0.001532636056988366,0.3336229179144161,-0.008360174235446107,-0.0067088128287853405,-0.0012056360376421925
1765408854.170966,-9.917844350147025,-0.005624668449933776,0.3328926821538963,-0.008520899056638064,-0.006879790989368536,-0.001315276947958627
1765408854.171166,-9.917138306342338,-0.010025116642337673,0.3324281857204507,-0.008671598309670113,-0.007053711775693107,-0.0014063701285213393
1765408854.171366,-9.91741032389651,-0.014670202069616342,0.3322259748087585,-0.008808086873103645,-0.007223366687505076,-0.0014777477513235968
1765408854.171566,-9.918674115371578,-0.01949292495393339,0.33226145151171643,-0.008926227592193765,-0.007381690260975356,-0.0015286288452965623
1765408854.171788,-9.920899220427811,-0.024422643585626267,0.3324928492091959,-0.00902220901915298,-0.007522193706513009,-0.0015586175135964852
1765408854.171988,-9.924011781612748,-0.029384960620534403,0.33286635235733686,-0.009092825007331433,-0.007639376784304739,-0.001567704113472457
1765408854.172188,-9.927896421981876,-0.03430195668666152,0.3333218198995483,-0.00913571937640124,-0.007729085706145368,-0.0015562711723990437
1765408854.172388,-9.932398950922202,-0.0390927460143562,0.3337985736871359,-0.009149565834096214,-0.00778879278750584,-0.0015251044566052343
1765408854.172588,-9.937329704230208,-0.04367426126040676,0.33424061879882405,-0.009134168522990583,-0.007817778100814377,-0.001475409931690474
1765408854.172703,-9.94246738328392,-0.04796217637257904,0.3346006395470354,-0.009090483901896517,-0.007817194741353636,-0.0014088376570025969
1765408854.172903,-9.947563360132518,-0.051871966853826015,0.334842315643241,-0.009020572743881069,-0.007790001976077734,-0.0013275118460823775
1765408854.173103,-9.95234652524035,-0.05532019579661739,0.33494080771939655,-0.008927492055510626,-0.007740757196154809,-0.001234061981677122
1765408854.173303,-9.956528786306698,-0.05822612242932524,0.3348814886729166,-0.008815136767392942,-0.007675268776757137,-0.0011316445423963034
1765408854.173503,-9.959811327175744,-0.06051368929811894,0.3346571766657402,-0.008688043750020101,-0.007600127565334809,-0.0010239404793471326
1765408854.173694,-9.961891846923317,-0.06211390460049594,0.3342643822512643,-0.008551173066989735,-0.007522151148672245,-0.0009151117864751741
1765408854.173894,-9.962473207377045,-0.06296758197792648,0.3336993537830506,-0.00840967915931261,-0.007447785017853329,-0.0008097028329607782
1765408854.174094,-9.96127400421534,-0.06302832442116661,0.33295477888657965,-0.008268679736814107,-0.007382505096548272,-0.0007124788576870518
1765408854.174294,-9.958041398866225,-0.06226558839727837,0.33201783198383356,-0.00813302868955687,-0.007330261863281765,-0.0006282038639981679
1765408854.174494,-9.952566207514257,-0.060667657119508625,0.33087003134137444,-0.008007103265920136,-0.007293003756294689,-0.0005613710047369107
1765408854.174721,-9.944699875973377,-0.05824434370731136,0.32948916571456266,-0.007894620116741795,-0.007270317020551878,-0.00051590825120779
1765408854.174921,-9.934372549843104,-0.0550292049388736,0.32785324392992793,-0.007798494074687445,-0.007259216930163287,-0.0004948888012741768
1765408854.175121,-9.921610939811913,-0.0510809993812009,0.3259459993019521,-0.007720747906202618,-0.00725411914270039,-0.0005002776974405155
1765408854.175321,-9.906554191225785,-0.046484107148421355,0.3237631635833249,-0.007662474979366333,-0.0072470101950160935,-0.0005327424862241598
1765408854.175521,-9.889465616958649,-0.041347663350510454,0.32131861483679064,-0.007623852317517718,-0.007227823374690436,-0.0005915474295930032
1765408854.175732,-9.870737959459522,-0.03580325776800613,0.3186494483176248,-0.00760419824567874,-0.007185010086011817,-0.0006745413855056712
1765408854.175932,-9.850889881710492,-0.030001200433686395,0.31581896503826296,-0.007602066753296609,-0.007106277873289352,-0.0007782426154867311
1765408854.176132,-9.830551848777137,-0.024105467663631676,0.3129167044675931,-0.007615371321541221,-0.006979446141419181,-0.0008980195766591561
1765408854.176332,-9.810440529287739,-0.01828744967365728,0.3100550217553902,-0.007641533895872981,-0.0067933511298804644,-0.0010283623705504843
1765408854.176532,-9.791322128500344,-0.012718538723373005,0.3073621016222763,-0.007677656678178503,-0.006538717180568386,-0.0011632325901828832
1765408854.176684,-9.77396647269808,-0.007561541112258854,0.3049715914280718,-0.007720713118850235,-0.006208909960604546,-0.001296469707677165
1765408854.176934,-9.759095226425519,-0.002960993189847258,0.30300941882213916,-0.007767750465665658,-0.005800502705179349,-0.0014222213722947991
1765408854.177184,-9.747329302737034,0.0009671915226413944,0.30157903250668566,-0.007816091091232194,-0.005313609993309357,-0.0015353548148088916
1765408854.177434,-9.739141813456634,0.004145630549096477,0.30074719404183325,-0.00786351538776477,-0.004751963016103556,-0.0016317992165467046
1765408854.177706,-9.734822950605782,0.006542906324795613,0.30053317427075504,-0.00790840773757444,-0.004122716572201672,-0.0017087699897662054
1765408854.177906,-9.734461515885014,0.008176005372507416,0.30090409887657216,-0.0079498498644713,-0.0034360028098967647,-0.0017648432052167313
1765408854.178106,-9.737944904398443,0.009106070998262892,0.30177775570074344,-0.00798765017901849,-0.002704281665942669,-0.0017998810880430858
1765408854.178306,-9.744976367631253,0.009427943631289092,0.30303201873937347,-0.008022301252034982,-0.001941564225835678,-0.0018148411886635607
1765408854.178506,-9.755106252580765,0.009256149533507865,0.3045186436537598,-0.008054863426428688,-0.001162583694081497,-0.0018115137316449031
1765408854.178696,-9.767772714871048,0.00871067154449703,0.30607916599787344,-0.008086785811240544,-0.0003819680757288549,-0.0017922233916870772
1765408854.178896,-9.782346732796565,0.00790468478224714,0.3075609363112167,-0.008119692508896678,0.0003865401499591541,-0.001759521431199398
1765408854.179096,-9.798176098584927,0.0069346408462096,0.308831009248301,-0.008155168058968895,0.0011307575375755143,-0.0017158968993989166
1765408854.179296,-9.814623941360303,0.005872265213001216,0.30978547571645937,-0.00819456476896163,0.0018405570107944674,-0.0016635469160851634
1765408854.179496,-9.831099340244949,0.004758748208343313,0.3103531187235235,-0.00823883753263245,0.002508146254840443,-0.0016042453466328878
1765408854.179692,-9.84707981866921,0.003602476070892162,0.3104944407490221,-0.008288405277262177,0.0031281344757935745,-0.0015393207471267735
1765408854.179892,-9.862126850023408,0.0023813932041995595,0.31019838289802715,-0.008343043047012116,0.003697426728314485,-0.0014697107128009413
1765408854.180092,-9.87589568570887,0.0010494031486167079,0.30947873426647593,-0.008401812885980997,0.004214982396799531,-0.001396037585725902
1765408854.180292,-9.88814043949129,-0.00045516541528293114,0.30837118768522487,-0.00846303869658901,0.00468146007295187,-0.001318672140714758
1765408854.180492,-9.89871503123234,-0.002200616988771671,0.306931167726024,-0.008524325660290495,0.005098769737154189,-0.0012377945369275879
1765408854.180678,-9.907570390027827,-0.0042525620388019466,0.3052320316895386,-0.008582626055343448,0.005469565560969032,-0.001153480696867364
1765408854.180878,-9.914748107682444,-0.006663608400309072,0.3033628864871748,-0.008634359532664497,0.005796726172423441,-0.0010658214324418154
1765408854.181078,-9.920370611128803,-0.009462463374760725,0.3014252549369681,-0.008675599008039348,0.006082874958234756,-0.0009750487271101069
1765408854.181278,-9.92462807979194,-0.012644427823949403,0.29952828957197053,-0.008702326967609102,0.0063299895365798815,-0.000881634393393859
1765408854.181478,-9.927762722950765,-0.016165798894013372,0.29778287011323046,-0.00871075237568569,0.0065391395482245224,-0.0007863457205072427
1765408854.181714,-9.930051412217066,-0.01994363416681934,0.29629531623003147,-0.008697661581317814,0.006710378165131414,-0.0006902651470251676
1765408854.181914,-9.93178785991799,-0.02386056464454062,0.2951614826603775,-0.008660763830402686,0.0068427966881996205,-0.0005947834919153003
1765408854.182114,-9.933265501299509,-0.027773203367807444,0.29446181214947276,-0.008598987804804278,0.006934734160243862,-0.0005015624053954736
1765408854.182314,-9.934762024006865,-0.03152271154456823,0.29425764586826275,-0.008512691452957306,0.00698411557362745,-0.00041245245402134136
1765408854.182514,-9.936526212965546,-0.03494668784050942,0.2945888362666134,-0.008403759722967974,0.006988874415117753,-0.0003293622538116543
1765408854.182709,-9.938767531689425,-0.03789182806062645,0.29547255769818104,-0.008275577644302954,0.0069474023899561855,-0.00025409580765531434
1765408854.182909,-9.94164860287485,-0.04022639681528452,0.29690314729556894,-0.008132876912711102,0.006858965860163623,-0.0001881932187297313
1765408854.183109,-9.945280434642635,-0.04185088377085233,0.29885272391751355,-0.0079814652858629,0.006724034454533988,-0.00013281078584741768
1765408854.183309,-9.949719964192298,-0.04270510194603322,0.3012722028013008,-0.007827861735804902,0.006544478748492204,-8.86584714799211e-05
1765408854.183509,-9.954969430385276,-0.042770892662113855,0.3040922980012209,-0.007678872710146781,0.0063236091514902795,-5.598880362397981e-05
1765408854.183692,-9.960977299522812,-0.04207105021970992,0.3072243448872925,-0.007541150193627047,0.006066046947687945,-3.462114653442379e-05
1765408854.183892,-9.967640819254411,-0.04066592230098623,0.3105611935122605,-0.007420769633254514,0.005777438927265262,-2.39958645676585e-05
1765408854.184092,-9.974810511101763,-0.03864872933293744,0.3139787143666433,-0.007322859318260679,0.005464046724940644,-2.3267746895523507e-05
1765408854.184292,-9.982296870540653,-0.03613959516563385,0.3173384786132349,-0.0072513065373043355,0.005132259233201964,-3.144454052584302e-05
1765408854.184492,-9.98987931010109,-0.03327782310471585,0.32049208027437304,-0.007208560983734028,0.004788088309181207,-4.755311145157345e-05
1765408854.184718,-9.997317147907058,-0.030212567405518934,0.32328742444114755,-0.007195550604510233,0.004436709653005151,-7.079516286021563e-05
1765408854.184918,-10.004362253674184,-0.027093022845167933,0.32557693073535826,-0.007211715576971794,0.004082100558251509,-0.0001006572707860443
1765408854.185118,-10.010772739674266,-0.024059570895890243,0.3272270027430095,-0.00725515110093401,0.0037268090412735013,-0.00013696295804445873
1765408854.185318,-10.016326840728642,-0.021236748626843098,0.3281276721035762,-0.00732283445496268,0.0033718719464159563,-0.00017987697515189175
1765408854.185518,-10.02083595575709,-0.0187280546014901,0.32820127657614695,-0.007410903781719027,0.003016886357196636,-0.00022987834632131314
1765408854.185734,-10.024155759743586,-0.016612157909664745,0.3274091960155928,-0.007514957053579558,0.0026602267077848883,-0.0002877101158465648
1765408854.185934,-10.026194388810739,-0.01494021101314166,0.32575591961817874,-0.007630345244965014,0.0022993861021507913,-0.00035430193710624466
1765408854.186134,-10.02691705584991,-0.013734407399956877,0.3232901854366302,-0.007752439929456253,0.001931405956280865,-0.0004306577955078693
1765408854.186334,-10.026347001975246,-0.012988262995364892,0.32010351834813866,-0.007876861620160332,0.0015533479537003223,-0.0005177085469292089
1765408854.186534,-10.02456310948927,-0.012669062652551235,0.3163267268325169,-0.007999661413711143,0.0011627578159479448,-0.0006161424789296689
1765408854.186678,-10.021694582987761,-0.012722512362955407,0.31212464484262636,-0.008117454315401994,0.0007580690664088381,-0.000726237662609372
1765408854.186878,-10.017913024030944,-0.013079134050605658,0.30768908991447536,-0.008227506591625149,0.00033889827835286655,-0.0008477213324876051
1765408854.187078,-10.013422265891512,-0.013661606115081056,0.3032300835214822,-0.008327780126881196,-9.380171029583431e-05,-0.0009796748550138896
1765408854.187278,-10.00844650475306,-0.01439217301336027,0.2989657062873271,-0.008416934363461387,-0.0005377362451129345,-0.0011204931599497784
1765408854.187478,-10.003217403882894,-0.015199337657253419,0.2951112068683306,-0.008494283635749701,-0.0009893877824433642,-0.0012678986537032718
1765408854.187658,-9.99796092808426,-0.016023214194456122,0.2918680913230723,-0.008559707612567486,-0.0014442207220304326,-0.001419002947437166
1765408854.187858,-9.99288471181256,-0.016819122499324927,0.2894139242728017,-0.00861351678613604,-0.0018969343944908895,-0.0015704061821370208
1765408854.188058,-9.988166683757397,-0.017559238520613408,0.28789336683013894,-0.00865628364647953,-0.0023417361393687007,-0.0017183240913507777
1765408854.188258,-9.983945445340092,-0.018232341163977924,0.28741060587922085,-0.008688661531164701,-0.0027726171128871564,-0.0018587358133624495
1765408854.188458,-9.980312774650725,-0.01884188024105886,0.2880231868281111,-0.008711221939255779,-0.0031836206701840674,-0.0019875473023481228
1765408854.18867,-9.977308787081968,-0.019402739916093228,0.28973757886202167,-0.00872434041310286,-0.0035690952005253233,-0.002100763441985336
1765408854.191669,-9.974920478852683,-0.01993721795629311,0.29250720121467755,-0.00872814894712482,-0.003923922439518556,-0.0021946577899590544
1765408854.194046,-9.97308419237408,-0.020470851017118555,0.29623358344018325,-0.008722556016582554,-0.004243714137439095,-0.0022659262674694525
1765408854.196677,-9.971691951024605,-0.02102867984397673,0.3007708102350376,-0.00870732256607306,-0.004524976820707262,-0.002311813218565225
1765408854.19872,-9.970600990665933,-0.021632291764756353,0.3059328374164334,-0.008682175864707823,-0.004765250339658988,-0.0023302041796978636
1765408854.2017,-9.969645468799685,-0.022297609443319943,0.31150298459553755,-0.00864693995761305,-0.004963223730549453,-0.0023196848892555327
1765408854.203706,-9.968649276672265,-0.02303319035996976,0.31724495083523047,-0.008601660440935834,-0.0051188233989073574,-0.0022795676328302614
1765408854.206697,-9.967438996355277,-0.023838951595953544,0.3229148959438964,-0.008546704666490065,-0.005233261804776248,-0.002209887119510662
1765408854.208704,-9.96585619217412,-0.024705592418533866,0.32827417384981644,-0.008482826826163234,-0.005309033322014517,-0.002111373745287097
1765408854.211702,-9.963768279455545,-0.025615165378688843,0.3331020071510216,-0.00841119681190591,-0.005349845194703698,-0.0019854207353193648
1765408854.214652,-9.961077196737895,-0.026543002643184644,0.3372070083206626,-0.008333396966469921,-0.005360473251569018,-0.0018340651980575514
1765408854.21673,-9.957725210175859,-0.027460676445457355,0.3404364587803354,-0.008251390220069488,-0.005346535807601777,-0.0016599956557158844
1765408854.218699,-9.95369750032957,-0.028339253636352445,0.34268272199599364,-0.008167460268691662,-0.005314188523676908,-0.0014665814916388431
1765408854.221648,-9.94902157220596,-0.029152120876189725,0.3438866693653618,-0.008084123952200163,-0.005269758769087818,-0.0012579002902870684
1765408854.223668,-9.943763815997384,-0.02987708654993791,0.3440382391564521,-0.008004018222276435,-0.0052193544537791035,-0.0010387275367500328
1765408854.226653,-9.938023741996393,-0.030497920724627908,0.3431743576804429,-0.00792976618741855,-0.005168489524023342,-0.0008144574640417453
1765408854.228715,-9.931926566650535,-0.031005577565097545,0.3413745736495905,-0.007863827491700025,-0.005121761145914666,-0.0005909425126088564
1765408854.231666,-9.925614860397149,-0.03139904776362342,0.3387548032428571,-0.007808339319777597,-0.005082597222300216,-0.0003742610201785536
1765408854.233686,-9.919239844812243,-0.03168548984642239,0.3354595483004085,-0.007764957223312115,-0.005053078945295522,-0.00017043715438109697
1765408854.236686,-9.912952802403066,-0.03187935555121163,0.3316530275437699,-0.007734709487778973,-0.005033838829242513,1.4859391131620325e-05
1765408854.238681,-9.906897071683156,-0.03200063991349533,0.3275098636473446,-0.0077178822985688456,-0.005024036525598701,0.00017660932954361382
1765408854.24192,-9.901201126960027,-0.03207277539434073,0.32320601847925606,-0.007713951810561823,-0.005021415300843658,0.0003107146176532735
1765408854.24242,-9.895973127048164,-0.032120716573184625,0.3189104617122069,-0.007721572638217445,-0.005022440774897746,0.00041422637425219674
1765408854.246671,-9.891297153038323,-0.03216946495116997,0.31477787140012836,-0.007738624410654345,-0.005022523944789085,0.00048551501628016705
1765408854.247665,-9.887231314206248,-0.03224295475647285,0.3109426842844425,-0.007762313280155561,-0.005016330461431217,0.0005243718572922303
1765408854.251694,-9.883807900776011,-0.032363077600102354,0.307514830829428,-0.007789322977124438,-0.004998170962879095,0.0005320360637183569
1765408854.253754,-9.881035598829582,-0.032548699128285216,0.3045773059799589,-0.007816006486967203,-0.004962452257522741,0.0005111449343066788
1765408854.256716,-9.878903496849471,-0.03281472907306705,0.302185498535776,-0.007838604143801376,-0.004904153373173335,0.0004656088596997575
1765408854.25867,-9.877386418083177,-0.033171481157495346,0.3003681244693336,-0.007853470080972843,-0.0048192805882941465,0.000400415385469599
1765408854.261683,-9.87645101373156,-0.03362455192959104,0.299129549430398,-0.007857288562404585,-0.0047052535521289185,0.00032136991817503774
1765408854.263816,-9.87606188445823,-0.034175273625801805,0.29845306406507544,-0.007847263760956163,-0.0045611811979364685,0.00023478467557069886
1765408854.266707,-9.876186838554588,-0.034821593893219475,0.2983044926260538,-0.007821269562252965,-0.004388001139733603,0.00014713288308784326
1765408854.268696,-9.876800543287366,-0.03555909439227239,0.29863569276241203,-0.007777949245268777,-0.004188474768492465,6.469039824800668e-05
1765408854.271729,-9.877886300895964,-0.03638181303183447,0.2993879172840569,-0.007716758099404693,-0.003967045066309192,-6.810373302909506e-06
1765408854.273716,-9.879436114200615,-0.037282639928723105,0.3004951996000177,-0.007637945808510851,-0.003729573144321707,-6.248966814969992e-05
1765408854.277693,-9.881449348893902,-0.03825332633167077,0.30188776435742715,-0.007542481408606207,-0.003482976709881785,-9.85701475812166e-05
1765408854.278666,-9.88393029303854,-0.03928441839946116,0.30349527116019237,-0.0074319318933335305,-0.0032348016941290076,-0.00011254894263554478
1765408854.28173,-9.88688494390985,-0.04036546889771075,0.305249675465263,-0.007308312611114828,-0.002992764523048704,-0.00010328193515706263
1765408854.284682,-9.89031737471208,-0.04148561708712764,0.3070875193259198,-0.00717392919402305,-0.00276430402345599,-7.098196922261259e-05
1765408854.28667,-9.894226022576715,-0.042634240661598426,0.30895152218303007,-0.007031226520300477,-0.0025561792575689007,-1.7141722537354526e-05
1765408854.289747,-9.898600332871903,-0.04380117948834891,0.3107915889253941,-0.006882654166524534,-0.0023741439132565485,5.56076176582253e-05
1765408854.290247,-9.903418379545197,-0.04497621920980401,0.3125656808924425,-0.006730554461806118,-0.0022227183610570894,0.00014369678320743585
1765408854.293638,-9.908646060935418,-0.0461480247260032,0.314240994180937,-0.006577079561523484,-0.002105067038647915,0.0002428760926685273
1765408854.296716,-9.914238070069754,-0.047303152496681086,0.31579543061480464,-0.006424144212348974,-0.00202297550136954,0.00034852210930652627
1765408854.298675,-9.920140276717117,-0.04842575118911526,0.3172188228928652,-0.006273416069153024,-0.0019769131234312867,0.00045597231214696704
1765408854.299693,-9.92629277621856,-0.04949804423366047,0.31851322133424287,-0.006126335138108479,-0.001966164312351922,0.0005608583034995055
1765408854.30468,-9.932632796682991,-0.05050109412427984,0.31969180100169853,-0.005984144634684078,-0.0019890104490378688,0.0006594108199480639
1765408854.3067,-9.939096873928197,-0.051415211351517484,0.32077635991628667,-0.005847914873590772,-0.002042945069657642,0.0007487194494909589
1765408854.309684,-9.945622109713838,-0.05221982066568528,0.32179374256764376,-0.005718550012261626,-0.0021249049937363024,0.0008269357113767671
1765408854.311685,-9.952146759320794,-0.0528932070977302,0.32277174869409636,-0.005596776956880861,-0.002231498833375169,0.0008934051630482159
1765408854.313721,-9.958610635644767,-0.05341278212999349,0.32373514586043217,-0.005483119732396265,-0.0023592130759014637,0.0009487081893666908
1765408854.316712,-9.964955774117048,-0.05375618090110743,0.3247023195901658,-0.005377861860003736,-0.00250457795018883,0.000994589621591411
1765408854.318702,-9.971127578661651,-0.05390292477668935,0.32568293938884785,-0.005280999598524888,-0.0026642805555258955,0.0010337695733593731
1765408854.321768,-9.977076418218694,-0.053836009237714824,0.32667685871422614,-0.005192194396676784,-0.0028352194279529608,0.0010696500053276959
1765408854.323845,-9.982759439841521,-0.053542890996202096,0.3276743238174583,-0.005110741422922488,-0.0030145041845003277,0.0011059549220369465
1765408854.326748,-9.988142228223209,-0.05301588097494231,0.32865741783182273,-0.005035574768762499,-0.003199417761369438,0.0011463550403139717
1765408854.329758,-9.993199874972024,-0.05225247475260789,0.32960247008083515,-0.0049653221366392,-0.003387372207754226,0.001194123595935807
1765408854.331688,-9.997917005431145,-0.05125619355970674,0.3304829317498521,-0.004898404996179237,-0.003575893174687595,0.0012518534006237833
1765408854.33761,-10.002286368925578,-0.050037982530510124,0.3312720863061331,-0.004833165440236512,-0.0037626598742376413,0.0013212487215058485
1765408854.33811,-10.006305821727675,-0.048617549367005394,0.33194506603884544,-0.004767997381297544,-0.0039456107772045685,0.0014029980855706009
1765408854.338691,-10.009973949580337,-0.0470237977856059,0.3324799694977355,-0.004701465806971433,-0.004123106421413127,0.0014967342113015461
1765408854.341703,-10.013285050816698,-0.045293912899909645,0.33285825433687966,-0.004632405286270514,-0.004294124062501205,0.0016010860785474672
1765408854.344727,-10.016224526198434,-0.04347135809483581,0.33306484449686474,-0.0045599925828234186,-0.004458449811576135,0.0017138192049479916
1765408854.345705,-10.018765759472167,-0.04160351025873895,0.3330884180697223,-0.004483789099970576,-0.004616835123612109,0.001832045870787615
1765408854.348668,-10.020869287521808,-0.03973959992093275,0.3329220889498397,-0.004403749851755023,-0.0047710917560409545,0.0019524756061793259
1765408854.351685,-10.022484537424543,-0.03792913816871338,0.3325643120080019,-0.004320198227039905,-0.004924105546670904,0.0020716735445621996
1765408854.353676,-10.023553846944745,-0.036220440791365494,0.3320196274999072,-0.004233770335750358,-0.005079753068112218,0.0021862991886465026
1765408854.356801,-10.024018051610314,-0.03465855755172816,0.33129893250236775,-0.0041453384444917005,-0.005242710660776888,0.002293306762259741
1765408854.358699,-10.023822655162029,-0.03328210926873086,0.33041912917837757,-0.0040559279013622955,-0.005418155728416736,0.00239009882893987
1765408854.361711,-10.022923538948579,-0.03211919926681964,0.3294020989203547,-0.003966643726028071,-0.005611374415649054,0.0024746355020607504
1765408854.363697,-10.021291409687255,-0.031183350172323782,0.3282731038125883,-0.003878619394994173,-0.005827303931203069,0.002545507846384221
1765408854.366705,-10.018914669464346,-0.03047080920778207,0.32705896354040986,-0.0037929895852356695,-0.0060700468563441275,0.0026019830150476753
1765408854.368718,-10.015800801848089,-0.029960244923162356,0.325786444988054,-0.0037108740423123353,-0.006342396490058787,0.0026440229498132534
1765408854.371689,-10.011976491755469,-0.02961500530305919,0.32448109230486577,-0.003633351257631342,-0.006645410341796899,0.0026722736577983455
1765408854.37376,-10.007486670506951,-0.029387334982638878,0.3231664521638425,-0.003561405801026845,-0.006978068996461999,0.002688021714032543
1765408854.376745,-10.002392705905997,-0.029223764178627355,0.32186354632576253,-0.0034958475333221155,-0.00733705936457446,0.002693117586005867
1765408854.379689,-9.996770004958558,-0.029071146383922445,0.3205904482144189,-0.003437213051822287,-0.0077167175308740475,0.002689867260032971
1765408854.381692,-9.990705232384055,-0.028882936680501892,0.31936182393772683,-0.0033856637735138868,-0.008109152438969477,0.0026808926843252165
1765408854.383702,-9.984293233265863,-0.02862497841322776,0.31818838877446504,-0.003340894329118219,-0.008504552901923066,0.0026689623259092622
1765408854.386713,-9.977633780920307,-0.028279687717498173,0.3170764914539876,-0.0033020646583379496,-0.008891665170588346,0.0026568017118475513
1765408854.388662,-9.970828463147726,-0.027847657284173297,0.316028292639119,-0.003267770208172833,-0.00925841665557289,0.0026469083250393057
1765408854.389663,-9.96397812534947,-0.027346438757414472,0.3150429642066705,-0.0032360640887799594,-0.009592648213915518,0.002641404640396928
1765408854.393695,-9.95718113126931,-0.02680718091608442,0.3141189727700362,-0.0032045403507065546,-0.00988290256969194,0.0026419581481893963
1765408854.396752,-9.950532413471526,-0.026270356215344386,0.31325709081611547,-0.0031704788305081384,-0.010119205468827153,0.0026497801442209577
1765408854.398809,-9.944123093528022,-0.025781703251840003,0.312463538821385,-0.003131041976220375,-0.010293772213881877,0.0026656957584320572
1765408854.401803,-9.938040372403737,-0.025388840476942086,0.3117526039929766,-0.003083506058121941,-0.010401574074245181,0.0026902637708968017
1765408854.40375,-9.932367316193778,-0.025138217324472398,0.31114812638410505,-0.003025504916033302,-0.010440707855280833,0.002723918950922855
1765408854.406702,-9.927182141570102,-0.025071700673117966,0.3106834197835385,-0.002955263256271566,-0.010412532325993477,0.0027671121671121574
1765408854.408757,-9.922556793586251,-0.025222381270691766,0.3103995376092835,-0.002871796539758347,-0.010321566123581769,0.0028204316327571912
1765408854.409753,-9.918554947503212,-0.025609900309028627,0.3103421600116193,-0.0027750543954891643,-0.010175172600843102,0.0028846964954737375
1765408854.413541,-9.915229787929956,-0.026236260243614765,0.31055756737352314,-0.0026659854965031845,-0.009983078225655946,0.002961016786058428
1765408854.416743,-9.912621912477357,-0.02708328878313543,0.3110881870300535,-0.002546507685061224,-0.009756781453638223,0.00305081168380041
1765408854.418755,-9.910757638028464,-0.028112571752455667,0.3119682203284942,-0.002419380709962206,-0.00950891037042975,0.0031557754256077665
1765408854.421687,-9.909647978300649,-0.029268012764354045,0.3132198930060169,-0.0022879978135200442,-0.009252580082798952,0.0032777819569571195
1765408854.422735,-9.909288502274029,-0.030480601959234924,0.314850750824494,-0.002156128212962669,-0.00900078732570172,0.0034187273024815844
1765408854.426667,-9.909660053122225,-0.03167469095329286,0.3168520769407834,-0.002027646615536649,-0.008765866224185846,0.003580319233285891
1765408854.428686,-9.91072999433559,-0.032775024778437266,0.31919813077543635,-0.0019062768383897074,-0.008559019694143544,0.0037638319668347937
1765408854.431728,-9.912453467375624,-0.03371381089221239,0.3218457640142343,-0.0017953617728121893,-0.008389933843846124,0.003969847333629043
1765408854.433688,-9.914774229104028,-0.034437087174648905,0.32473414950894886,-0.0016976615976127662,-0.008266474121225937,0.004198005101073019
1765408854.436708,-9.917624953165344,-0.034909593262034355,0.32778473988013346,-0.0016151815683759804,-0.008194452115299757,0.00444678773143665
1765408854.43773,-9.92092726787094,-0.035117405555781286,0.3309019259727111,-0.001549037077172107,-0.008177446461397446,0.004713370623571513
1765408854.44171,-9.924592079265572,-0.03506791637267152,0.3339749926157364,-0.0014993694882718537,-0.008216665407608816,0.0049935741704587545
1765408854.443744,-9.928520765157364,-0.03478727890780381,0.3368818081540082,-0.0014653255340725088,-0.008310850848269585,0.005281951080391192
1765408854.446755,-9.932607609991573,-0.0343159608754833,0.3394943403849292,-0.0014451055300419991,-0.008456237509949147,0.005572026708996433
1765408854.448719,-9.93674349582896,-0.0337032916846817,0.34168575008643426,-0.0014360760962844614,-0.008646591359890326,0.005856684950312023
1765408854.451734,-9.940820535724022,-0.03300176824146838,0.34333858774808934,-0.0014349361466316096,-0.008873356106753126,0.006128667030661261
1765408854.45374,-9.944737125407462,-0.032261572313386694,0.34435348433612994,-0.0014379210970256128,-0.009125934202702593,0.006381134470339099
1765408854.455732,-9.948402808111359,-0.03152555225708983,0.3446576166391197,-0.0014410281358029052,-0.009392118205716105,0.00660824279078484
1765408854.458699,-9.951742408308832,-0.030825026879890367,0.34421216501361773,-0.001440245814855997,-0.0096586715333476,0.006805673905819407
1765408854.461701,-9.95469909645666,-0.030177086149276094,0.3430180296044476,-0.0014317749675471724,-0.009912037358982733,0.006971076284606655
1765408854.463698,-9.957236290209167,-0.029584251487237385,0.3411191867796154,-0.0014122317764176868,-0.01013913323647836,0.007104362478053252
1765408854.466695,-9.959338394898676,-0.029037077352437636,0.33860315174337946,-0.001378823738221581,-0.01032817156773241,0.00720781798803703
1765408854.468728,-9.961010281031609,-0.028519510600486,0.3355980953509113,-0.0013294866307863417,-0.010469438726378219,0.0072859884319353115
1765408854.471692,-9.962275253555992,-0.028015975526934155,0.33226637184659347,-0.001262970427337596,-0.010555970631864541,0.007345335851879753
1765408854.473781,-9.963171314292811,-0.027518702467495482,0.32879458753450364,-0.001178866652788235,-0.010584073559824696,0.007393687464652253
1765408854.476731,-9.963745825461881,-0.02703390840708508,0.325380794560755,-0.0010775761684965403,-0.010553648296993255,0.007439531956439037
1765408854.478735,-9.96404912439599,-0.026585838231054617,0.3222198436957348,-0.0009602208250835707,-0.010468284126766828,0.00749123829096703
1765408854.481694,-9.964128035047292,-0.026218066771789908,0.31948832563458646,-0.0008285040391376106,-0.01033510299371944,0.0075562762170919
1765408854.483692,-9.964020418281226,-0.025991687031770086,0.3173307711718428,-0.0006845273727249397,-0.01016435457240066,0.007640512713344347
1765408854.486696,-9.963751764431432,-0.02598015728919719,0.315848684528498,-0.0005305764743413293,-0.009968784373982627,0.0077476525538377125
1765408854.487762,-9.963334326626288,-0.026260894651321955,0.3150934787488282,-0.00036889957038273026,-0.009762816127945086,0.007878884975163007
1765408854.491752,-9.962768636957803,-0.026904338105272985,0.31506370801103206,-0.00020150874348266398,-0.009561606489337474,0.008032786399584263
1765408854.494826,-9.962046761700694,-0.027962021246180045,0.3157064924117905,-3.003241293043454e-05,-0.009380041777051302,0.008205505313322778
1765408854.496803,-9.96115644667565,-0.02945581366613483,0.3169227428538339,0.00014436297977313967,-0.009231748805152696,0.008391219185996598
1765408854.498744,-9.96008528372538,-0.031370520255790076,0.3185755292125985,0.000320977572299749,-0.00912818692178737,0.00858281190927802
1765408854.501791,-9.95882417119834,-0.03365131720975753,0.3205007104665833,0.0004995155765363448,-0.009077882473425645,0.008772685216480298
1765408854.503736,-9.957369694027356,-0.03620629732293245,0.3225189476405324,0.0006799685108909758,-0.0090858615515793,0.008953598996982493
1765408854.505728,-9.955725479962874,-0.03891325577643939,0.3244483973220206,0.0008624588304912698,-0.009153327046069169,0.00911943768710495
1765408854.508767,-9.95390283932066,-0.041629271495862506,0.32611747344328923,0.0010470578928989261,-0.009277608642292975,0.00926581965612301
1765408854.509724,-9.951921009799355,-0.04420169973352438,0.32737700870859276,0.0012335905690192396,-0.009452393059121674,0.009390494347896095
1765408854.514681,-9.94980726479884,-0.046479542463451456,0.3281111164792999,0.0014214379931213898,-0.00966822048906102,0.009493499034536433
1765408854.516736,-9.94759707407684,-0.04832438674842758,0.328246105301426,0.0016093516668867734,-0.009913210841182891,0.009577070782032633
1765408854.518679,-9.945334349801321,-0.04962004650469175,0.3277568131820895,0.0017952954183722302,-0.010173960328448669,0.009645332178423041
1765408854.521765,-9.943071580045041,-0.05027992024470078,0.3266696872913727,0.001976333630909624,-0.010436533200667822,0.009703793516019422
1765408854.522712,-9.940869512296667,-0.05025124724697465,0.32506199130536423,0.0021485846399971207,-0.010687472986668264,0.00975873653080503
1765408854.526719,-9.938796087239407,-0.049516041618250704,0.3230567725239615,0.0023072591539767787,-0.010914769081787528,0.009816558379836308
1765408854.528724,-9.936924418211646,-0.04808922740245674,0.3208135796077502,0.002446803242276263,-0.011108726096421646,0.009883153079263891
1765408854.531716,-9.935329665262271,-0.04601491309912553,0.3185153289872333,0.0025611589326049672,-0.011262687571311705,0.009963391176283693
1765408854.53375,-9.934084778626739,-0.043361596664331536,0.3163522714357433,0.0026441402452782536,-0.011373564363656337,0.010060734896047162
1765408854.536703,-9.933255393643757,-0.04021664125059868,0.31450468432920103,0.00268990166348956,-0.011442117896466757,0.010177006762246777
1765408854.538739,-9.932894484313913,-0.03668014598325238,0.313126343660895,0.0026934574139770647,-0.011472956377695588,0.01031232012558346
1765408854.541776,-9.93303748218723,-0.03285861504040288,0.3123306900906167,0.0026512012213073984,-0.011474222292897848,0.0104651737905502
1765408854.543761,-9.933698465701266,-0.028859266413200267,0.3121810564681021,0.0025613792472619005,-0.011456980506397898,0.01063269882552909
1765408854.546734,-9.934867927966092,-0.02478583269831178,0.31268576213866767,0.0024244787869037274,-0.011434350450096532,0.01081102145439669
1765408854.548702,-9.936512562732247,-0.020736099222087533,0.3137984008164003,0.002243504446730682,-0.011420453575866643,0.010995683383782687
1765408854.551768,-9.938577289480177,-0.016800631581707807,0.31542309855420225,0.0020241175270083274,-0.011429263474508455,0.011182055500790662
1765408854.553758,-9.940989318237655,-0.013061808467150743,0.31742389284096756,0.0017746149781369428,-0.011473452267155104,0.011365696831900701
1765408854.555747,-9.943663628561644,-0.0095926361278067,0.31963688978492744,0.001505727435534337,-0.011563325593361448,0.011542636854115955
1765408854.558801,-9.9465089998722,-0.006455497556510814,0.3218836613394238,0.0012302257711785578,-0.011705928795802739,0.011709579275444795
1765408854.561775,-9.949433718244018,-0.0037013644082477194,0.3239844947387198,0.0009623413917928269,-0.01190438866166488,0.01186403120936059
1765408854.563806,-9.952350278893919,-0.001369799966317454,0.3257705571801654,0.0007170220574656887,-0.012157534446020178,0.012004358857311099
1765408854.566738,-9.955178778377572,0.0005104267698520687,0.3270945970204254,0.0005090586233495028,-0.012459825862548912,0.012129771221361245
1765408854.568792,-9.957849127045346,0.0019206277536283648,0.3278401933466167,0.0003521307828435322,-0.01280160296643034,0.012240242159209103
1765408854.569753,-9.960302515009518,0.0028517846376562997,0.32792965814262115,0.0002578359084000926,-0.01316965578151697,0.012336392359123871
1765408854.573717,-9.962492603761188,0.003304414630705365,0.32733053684618374,0.00023478417779589414,-0.01354808712008823,0.01241935779239944
1765408854.576735,-9.964386701625862,0.003288311302277964,0.3260603149915964,0.00028785834240487317,-0.013919415382829323,0.01249066745391762
1765408854.578803,-9.965966831242785,0.002821706058224193,0.3241885155472107,0.0004177379827902566,-0.0142658417708139,0.012552144145880925
1765408854.581689,-9.967230279652533,0.0019296567490631655,0.3218350999285485,0.0006207688542389101,-0.014570591181693559,0.012605831077950332
1765408854.583708,-9.968189092099585,0.0006418509656203563,0.31916424936571786,0.0008892169773278508,-0.014819227409405122,0.012653935974772844
1765408854.586723,-9.968868071448117,-0.0010096586331069034,0.3163732431848995,0.0012118909621589213,-0.015000838992084082,0.012698776478185245
1765408854.588785,-9.969301072224818,-0.0029921115340798654,0.313676976503891,0.001575058272849379,-0.015108992848703599,0.012742710987403368
1765408854.591791,-9.969525619609668,-0.0052725330547112245,0.31128934017054083,0.001963538217060928,-0.01514236400503502,0.012788049959823846
1765408854.593748,-9.96957615877315,-0.007816921780515145,0.30940314323265233,0.002361838028822996,-0.015104974639792238,0.012836958938537302
1765408854.594801,-9.969476611607758,-0.010588532873729179,0.30817058471984193,0.002755210348625116,-0.0150060100079975,0.01289137514025674
1765408854.598752,-9.969233313800636,-0.01354604158702455,0.3076864782818985,0.003130543506421197,-0.014859215483165655,0.012952955775066378
1765408854.601701,-9.96882963432946,-0.016642339187748764,0.30797639397886295,0.0034770367469022343,-0.014681915507353982,0.01302306055971695
1765408854.603766,-9.968223502717684,-0.019824264467104984,0.3089915351213672,0.003786645914055205,-0.014493731436385405,0.013102755586398653
1765408854.606815,-9.967348701593432,-0.023033027877918846,0.3106114950585352,0.004054303624635991,-0.014315108005703155,0.013192822730893986
1765408854.608765,-9.96612023914838,-0.026204857034938238,0.31265505497807067,0.004277925515911319,-0.014165782182191599,0.013293767918340667
1765408854.61173,-9.964443492065875,-0.02927162588952964,0.3148980137914828,0.00445821861800756,-0.014063338579453768,0.01340583163128547
1765408854.614727,-9.962226158496252,-0.032161688500136836,0.31709592701993894,0.004598313179160865,-0.014021987743788567,0.013529006599210408
1765408854.616751,-9.959391495701055,-0.03480142135363532,0.3190088428388184,0.004703246299759504,-0.014051674767869435,0.013663061019016957
1765408854.618745,-9.955891004353772,-0.03711781995785815,0.3204248733945181,0.004779335671308521,-0.014157579552482464,0.013807558142909411
1765408854.621714,-9.951714746840286,-0.039041978067727134,0.3211797845226676,0.004833494140004948,-0.014340018280006512,0.013961862734011322
1765408854.623755,-9.946897831136045,-0.04051281930119289,0.3211705732672319,0.004872546201750282,-0.014594712537055089,0.014125134949103092
1765408854.626775,-9.9415222056405,-0.041480457709788504,0.3203619850373153,0.004902610371289926,-0.014913365390461194,0.014296325942767791
1765408854.629555,-9.935713694989966,-0.04190900848319116,0.31878592613812595,0.004928605428365432,-0.015284469324453953,0.01447419389803026
1765408854.631742,-9.92963496944045,-0.0417790728700237,0.31653466382087375,0.004953926732080301,-0.015694262408636615,0.014657348245571127
1765408854.633778,-9.92347565431263,-0.041090034144398394,0.31374945353565853,0.004980323584596918,-0.01612774465601311,0.014844312192205346
1765408854.636781,-9.91744090793859,-0.03986179640464779,0.31060657436435746,0.005007989986517882,-0.01656967011609338,0.015033584227859078
1765408854.639739,-9.911739570202439,-0.03813520571392393,0.3073025618163329,0.005035858353968151,-0.017005444511753818,0.015223684614190578
1765408854.641594,-9.906572637579355,-0.035970562677362976,0.30403990864692326,0.005062059858948537,-0.01742187939237004,0.015413187266913075
1765408854.643722,-9.90212260230107,-0.0334443213213864,0.30101406551144116,0.005084489654312962,-0.017807774309953357,0.015600750117998188
1765408854.646747,-9.898544180613396,-0.030644792977488223,0.2984024068375429,0.005101396278438551,-0.018154313569763342,0.01578515927975007
1765408854.648765,-9.895957001312814,-0.027667901973019587,0.29635574421814453,0.005111908612253906,-0.018455273905587034,0.015965391215771167
1765408854.651735,-9.894440698606363,-0.024613573228963962,0.2949926775917636,0.005116424420527565,-0.018707048100413314,0.016140678718249986
1765408854.653746,-9.894032491694649,-0.021582494629377037,0.2943965648230915,0.005116808321850433,-0.01890850199839405,0.01631055482409681
1765408854.656732,-9.894726917123883,-0.01867245803446226,0.29461443186010255,0.005116375783729522,-0.019060698729504506,0.016474855467985595
1765408854.659747,-9.896477125311893,-0.0159737145506215,0.2956569565496204,0.005119667715521016,-0.01916653739135602,0.01663368345304712
1765408854.661716,-9.899197178241607,-0.013563608838778213,0.29749881639601494,0.0051320463347525064,-0.01923035632645429,0.01678735616255737
1765408854.663714,-9.902765117596031,-0.01150153457658892,0.30007921666651627,0.005159166062118574,-0.01925754343027872,0.016936362249353173
1765408854.666805,-9.907027073426802,-0.00982543269032242,0.30330313798307457,0.005206389687883707,-0.019254182688618136,0.01708133844739048
1765408854.668787,-9.911803035850676,-0.008550553878273899,0.3070443298211653,0.005278226724330556,-0.019226749800708095,0.017223060235582087
1765408854.669735,-9.916894836524182,-0.007670406498370502,0.3111509567668724,0.005377867482496744,-0.0191818525676209,0.017362434296191262
1765408854.673782,-9.92209635395684,-0.007159288760473804,0.3154540872344515,0.005506874329724586,-0.019126001162265385,0.017500490037878895
1765408854.675711,-9.92720518237006,-0.006975864971825652,0.3197782667841788,0.005665070463304831,-0.01906539420859888,0.017638380263165165
1765408854.677738,-9.932034316250894,-0.007067625181430226,0.32395271297762407,0.0058506357632411845,-0.019005713615224858,0.017777401693775258
1765408854.68174,-9.936422131067122,-0.007376214100276205,0.32782154002620806,0.006060383562408619,-0.01895192769640401,0.01791903080317513
1765408854.68374,-9.940239268249076,-0.007843258078731832,0.3312518997638793,0.006290161792627372,-0.018908107910207396,0.018064951749912395
1765408854.686766,-9.943391815968804,-0.008415732755874428,0.33413966683584506,0.006535305964193659,-0.018877271003217136,0.0182170484216309
1765408854.688735,-9.945820999787188,-0.009049669797474635,0.3364127995833086,0.006791072897304319,-0.018861264603310175,0.018377347854855355
1765408854.691743,-9.947500129489235,-0.009711461266657215,0.3380325698044019,0.007053000745480207,-0.018860719498164747,0.018547927291363592
1765408854.693712,-9.948429794033876,-0.010377004013556177,0.3389927247522735,0.007317165591602267,-0.018875095293870017,0.018730813403392693
1765408854.695722,-9.948632422651512,-0.01102980827785447,0.3393166820868375,0.00758032791478771,-0.018902842720416275,0.018927896941391843
1765408854.697757,-9.948147375762032,-0.011659362541339377,0.33905316304008026,0.007839977226802176,-0.018941688195221434,0.019140862634728268
1765408854.701803,-9.947027608268666,-0.012260386847126225,0.3382710932442326,0.008094290990812174,-0.01898901679772259,0.01937111142641787
1765408854.702807,-9.945338619287552,-0.012832635607130292,0.3370549023941566,0.008342028387992521,-0.019042302806722547,0.01961964940839954
1765408854.706712,-9.94315986422037,-0.013380396700228179,0.3355012261811794,0.008582382937657732,-0.019099524271779352,0.019886938552174428
1765408854.709722,-9.940588069623441,-0.013911150213594667,0.33371728962441827,0.008814821129637091,-0.01915950057629083,0.020172733679546088
1765408854.711751,-9.937741142555465,-0.014433638230561196,0.3318202731988098,0.009038936666498245,-0.019222104638687242,0.020475947591348093
1765408854.713721,-9.934760944606769,-0.014956112508144314,0.3299363957193387,0.009254349375698655,-0.019288318946219452,0.020794581018780598
1765408854.716824,-9.93181330244271,-0.015485329237935738,0.3281985812162579,0.009460670360019432,-0.019360123457718054,0.021125732064316057
1765408854.719717,-9.929084168907082,-0.01602615058542666,0.3267421431379454,0.009657538281378117,-0.019440224184579247,0.021465678623295605
1765408854.721715,-9.92677163105445,-0.01658099635595257,0.32569855245161067,0.00984471038229811,-0.01953165675546251,0.02181002139394019
1765408854.724735,-9.925074287596862,-0.01714838333748994,0.32518787627514445,0.010022175744244815,-0.019637326948526188,0.02215388355571452
1765408854.725235,-9.924177193246674,-0.017720457933938324,0.3253107680053817,0.010190253605438864,-0.019759569444742858,0.022492171807732945
1765408854.728752,-9.924236949260175,-0.018280322329677832,0.32614087353540344,0.010349644869537737,-0.019899806297975994,0.02281989888435834
1765408854.731739,-9.925367610030642,-0.018800416381902364,0.32771829537315594,0.010501415988248023,-0.020058366327595105,0.023132549062192056
1765408854.733741,-9.927628973165925,-0.019242885071591057,0.330044596221397,0.01064690838521517,-0.020234492420685916,0.02342644687119632
1765408854.737734,-9.931018567600807,-0.019561989970254354,0.333079834208313,0.01078758132306128,-0.020426524424765974,0.023699079566642287
1765408854.738798,-9.935468224002088,-0.01970786809867497,0.3367421030924167,0.01092480970384988,-0.02063221080923582,0.023949332575272216
1765408854.739795,-9.940845556689402,-0.019630782507938108,0.3409098056512137,0.011059669907651445,-0.020849081520617378,0.02417761776808927
1765408854.743778,-9.946960171870678,-0.019285398055503014,0.3454265194864281,0.011192755188906476,-0.021074808408415205,0.02438589323073082
1765408854.745801,-9.95357405944969,-0.01863512871112826,0.3501080857385942,0.011324064485645767,-0.02130748165589371,0.024577581218486307
1765408854.748785,-9.960415401486491,-0.017656805187966182,0.35475161609164696,0.011453001733105468,-0.02154573874427872,0.02475739004157196
1765408854.751767,-9.967194871833078,-0.016345605543386342,0.3591464075312756,0.011578505600477062,-0.02178870413158376,0.024931043221420084
1765408854.754747,-9.973623374974125,-0.014719518916682996,0.36308695862050067,0.011699303669505381,-0.022035738342696554,0.025104921744715715
