time,acc_x_g,acc_y_g,acc_z_g,gyro_x_rad_s,gyro_y_rad_s,gyro_z_rad_s
0.0,0.013152,-5.370636,8.065517,0.078954,0.006414,0.007941
0.0025,-6.258176738931298,8.213139151145038,0.359391280038168,-0.016421492595419848,-0.014467685076335876,0.019511712824427478
0.005,-6.943664856167779,9.39549613986654,0.8828116140324116,-0.1366147362821735,-0.04734780068636797,0.01491192232602479
0.0075,-6.197948636758818,7.898605070162059,0.28505355119161135,-0.19761525315538608,-0.068111,-0.003191998093422305
0.01,-5.4747125612213745,7.797593827748092,-0.13578998549618315,-0.2222706222519084,-0.06546682778625955,-0.055017128664122145
0.0125,-5.828118192175573,7.933435475572519,0.189722714122139,-0.25133338015267176,-0.035657700190839615,-0.13449025591603056
0.015,-5.616441439580552,7.805534620857959,-0.00285757742611997,-0.29201445872259296,-0.014767249647283117,-0.19574378249761676
0.0175,-6.290135452213743,7.337210552061072,0.4625241923664146,-0.31595269282442745,0.001602453435114442,-0.2724022170992368
0.02,-5.756416993237822,8.288038863954156,-0.16065966338108953,-0.3663194288252149,0.028532346418338114,-0.36191582332378225
0.0225,-5.480731527709923,7.8975162971755735,-0.3391874270229031,-0.40727340931297706,0.060476,-0.44611834893129765
0.025,-6.551700529456622,7.184743024213534,1.4564659254528063,-0.42151380781696857,0.12945849037178267,-0.5373736495710201
0.0275,-6.030685653778626,8.449208501717557,0.684619775305343,-0.4622162516412214,0.0972684427480916,-0.6344143210687023
0.03,-5.362312457099238,7.355314967251911,-0.24303484450381369,-0.48429493900763354,0.15724691221374035,-0.7024724664122138
0.0325,-4.503554486488546,8.095836163473287,-1.1511362229007702,-0.5197502714885497,0.14914187610687035,-0.8410112958778626
0.035,-6.768710005109621,6.807545319694938,1.4449587933651038,-0.538487598474738,0.1824261888274547,-0.8805407588179222
0.0375,-6.184449069950037,8.777187523197714,0.28351973633119093,-0.5263212692362598,0.19932480770877944,-0.9782765149179159
0.04,-6.8282958892770225,5.789168796392268,1.5009342353328574,-0.552609179413028,0.24528688621331424,-1.0389638605010738
0.0425,-6.137630119847312,7.527712653740445,0.6779511285496023,-0.5463850334351148,0.18707263389312964,-1.0566615001526714
0.045,-7.687845177121066,4.858678450791228,2.5437825472640596,-0.5348869081029552,0.2347756178836987,-1.1502536680648234
0.0475,-7.963488319007635,6.418538676450382,1.698766702862597,-0.551492533091603,0.2510905803435115,-1.178327810572519
0.05,-7.767681932999286,4.381503822906238,0.9204281967072317,-0.5173934380816034,0.19137521374373673,-1.2874668916249108
0.0525,-9.417869212621548,5.494912816625361,2.4639425731935223,-0.5125254390848428,0.22358307203050506,-1.2506447263679696
0.055,-9.023844408244276,5.004504733740459,3.096594146564885,-0.5004863520610686,0.2548824720610687,-1.3915176216793892
0.0575,-8.12975062061384,4.3818882503354715,0.6908195561741606,-0.4765839979157745,0.2394796446538185,-1.3267704757744472
0.06,-8.360464166499641,5.227298827229777,1.9910296156907714,-0.4672321403006443,0.23085890307802398,-1.440405507258411
0.0625,-9.828700633587786,4.157041421755725,2.550255072519084,-0.4280054923664122,0.22744161641221375,-1.3842957824427482
0.065,-9.352949003053435,4.921206374045805,1.5204452458015274,-0.39498407877862596,0.323453,-1.4285936622900763
0.0675,-9.294510205452799,3.1331553394852323,1.503843849761672,-0.3719708817921828,0.309251,-1.446581594051478
0.07,-9.746720925681593,3.7057176529647213,0.8643680028217319,-0.3494948404194466,0.26448030451858867,-1.3932057703336513
0.0725,-9.220544442369734,3.8522596689222,1.5024958149892989,-0.31787228476802276,0.29528069467523255,-1.4167990167309066
0.075,-9.337946026902173,3.5367265277173896,1.691706662907608,-0.25579369279891323,0.3367148281250001,-1.3309407112771743
0.0775,-9.686290331908394,3.600743342900764,1.4087211761832035,-0.2669587154198474,0.3195335667175572,-1.3593003548091602
0.08,-9.396888095300863,2.215034953123211,0.5962514294842436,-0.216704,0.3538024373065904,-1.298843310286533
0.0825,-8.564706797938934,2.746262135648856,0.581558155114518,-0.19945927503816796,0.34143901816793865,-1.2547968245801526
0.085,-9.608823006374015,2.451198605725181,1.2561936187022822,-0.14721334576335854,0.4055537532824435,-1.1970615544274803
0.08750000000000001,-10.195164215824589,1.585900543755916,1.492423720114362,-0.15289578284080088,0.4102197824594855,-1.1443891546234508
0.09,-9.811265799025776,2.4002142450429695,-0.15415505169056032,-0.09723502624641844,0.3626201383954154,-1.1307640016618912
0.0925,-9.928632107645377,0.24045904415633995,0.5645897349094379,-0.06999294268827462,0.39400121940896093,-1.0089509470734033
0.095,-10.085195316259542,2.2486725589312955,1.6766269729007646,-0.05292142541984741,0.41878529595419844,-0.9668580201526717
0.0975,-9.907909752748083,0.6815017195038133,0.8472085487022751,-0.027885294656488528,0.37558188748091575,-0.8603077760687022
0.1,-9.99552382726406,1.882042471687305,0.6266788398474572,-0.03204892907530995,0.30775560705433713,-0.7787767811248802
0.10250000000000001,-9.60095534352715,-0.05206991256433868,0.4360520064442226,-0.005802940514775689,0.3011732681410855,-0.685934269475691
0.105,-9.906722806367968,0.7609311110009416,0.34637211828407766,-0.02474136758817932,0.21074380072449905,-0.5722280918970448
0.1075,-10.618351858778627,0.4091500790839709,1.2162958792366396,-0.031098553587786276,0.21199088961832077,-0.4492768549618322
0.11,-10.380564870076336,0.4555741038167932,0.954095966335878,-0.029438417671755757,0.114385,-0.3682879886641221
0.1125,-10.97754176011449,0.19388513568702087,1.4979382217557065,-0.0594878883587787,0.09545389503816802,-0.25898941011450377
0.115,-9.967550963431849,0.5301883119161098,0.47477656221164066,-0.06317486703527164,0.007794901658722401,-0.181163902802669
0.11750000000000001,-10.090934876263118,0.3446434587607318,0.6938626631840084,-0.08068237124880863,-0.03906909281220216,-0.122452977693041
0.12,-10.252637587912297,-0.28486217254528146,0.565565059866533,-0.10791562745471882,-0.08331094074356532,-0.05541043180171587
0.1225,-8.781214768922787,-0.12921726646329773,0.11529575927550333,-0.059615039656816034,-0.08328603965681604,-0.020370813536701664
0.125,-9.094720400476758,-0.08576126340882002,0.5056350929678188,-0.007113087008343266,-0.019360013110846248,6.198331346841479e-05
0.1275,-10.071903005721095,-0.08371901525626271,0.3321763078426673,-0.008201696448152536,-0.007902320524433907,0.013022951132300342
0.13,-10.048740427794996,0.024956071418353105,0.2894399089868888,-0.00972795046483909,-0.000458,0.002291
0.1325,-9.988229948796189,-0.11298216257449722,0.33286375051251826,-0.009223282240762925,-0.01107390317044094,-0.0012001733969011492
0.135,-9.886582791121725,-0.022206708639621802,0.3277289126491753,-0.00901,-0.01222224606205252,-0.0018543502625296769
0.1375,-9.80367226801909,0.026773096897372676,0.270414924105005,-0.0066586916467781115,-0.006872782100238706,-0.0022596167064437784
0.14,-10.008363310369484,-0.024506665458876514,0.35688571747318115,-0.008628423551847366,-0.005650368915375325,-0.002290368915375325
0.14250000000000002,-9.967228858711227,-0.04240610577565311,0.3651537597136165,-0.006720946205250514,-0.00861411775656346,-0.0011779330787589737
0.145,-9.914877141263407,-0.05845365110846302,0.3128222330393311,-0.00672,-0.007094220071513684,-0.000305
0.1475,-10.044201451394512,-0.009473455589988196,0.5003225934684115,-0.008547416829558927,-0.006338772872467241,-0.002772547985697229
0.15,-9.973496153479505,-0.07250231344137392,0.35477936816015265,-0.007094221925643467,-0.005159627454718872,-5.42133460438411e-05
0.1525,-9.903015351847438,-0.032839720715137806,0.3210479340643624,-0.010079,-0.008728740882002328,-0.001527
0.155,-9.847871000381407,-0.02354876953516105,0.25856181578069143,-0.008718399761620994,-0.005494448963051247,0.00023254679380213013
0.1575,-10.10422281511323,-0.03526518879618604,0.4551629556615011,-0.007019542169249122,-0.0074400719904648485,-0.0015185429320619566
0.16,-9.945002,-0.04065,0.364658,-0.009468,-0.004709637711561392,0.000916
0.1625,-9.920213786889155,-0.006354155423122947,0.38711076948748807,-0.008494900119189524,-0.004924374493444535,-0.0008018002383790481
0.165,-9.774182142932093,0.36235832948748425,0.2926451892729825,-0.010036901787842693,-0.009208229177591624,-0.012929180071512971
0.1675,-9.884832227699635,0.43277613435044615,0.3134989066507632,-0.008828590512514991,0.01540593940405307,-0.013875778879618297
0.17,-9.896825864505358,0.1307524416686533,0.3634635673897368,-0.007982260929678254,0.008933034994040188,-0.00513137320619737
0.17250000000000001,-9.9374420667303,0.0663763176133639,0.26014538119330466,-0.007860323627685087,0.006435281241050109,-0.002910352744629829
0.17500000000000002,-9.97089737282479,-0.019387203337302733,0.3066149842669807,-0.009452020977353981,-0.00011990488677018031,-0.0022985580452918996
0.1775,-10.061630607398563,-0.027482794510742328,0.4126162011933106,-0.0075145333174223665,-0.004417802863961739,-0.00247525403341282
0.18,-9.829626,-0.006576,0.151841,-0.010232,-0.007150847402640636,0.000458
0.1825,-9.971578342201825,-0.08066821105084347,0.38839636378136744,-0.0076158819765154645,-0.0086447878381117,-0.0019251813816534543
0.185,-9.964650169150122,-0.050215,0.3453778064443225,-0.00941578065447697,-0.008458747679510322,-0.0018628221800204025
0.1875,-9.841181024013185,-0.050215,0.23961752428784427,-0.007656496743310053,-0.005317051714666877,-0.00286753951188888
0.19,-9.802725,0.002391,0.167384,-0.006872,-0.004719656175469158,-0.002596
0.1925,-9.802725,0.002391,0.167384,-0.006872,-0.003959108534325757,-0.002596
0.195,-10.006342408130106,-0.037701150220216494,0.3945258963567039,-0.0087839969963427,-0.006531075175472724,0.002399927828184575
0.1975,-10.012683147446891,-0.10062386970975043,0.425255349890281,-0.010154791238035955,-0.005907690175083649,0.0016525185868803958
0.2,-9.98269845481258,-0.05562677495235047,0.3599692471569249,-0.009736828541931378,-0.0026045765883100395,-0.0010890182814485428
0.2025,-9.90454240297014,-0.0038550004161369555,0.33756792649618794,-0.008083855733799229,-0.002985967795425669,-0.001979208675349433
0.20500000000000002,-9.871058866238736,0.04039361395415047,0.27372378969802325,-0.006332908762055325,-0.003990447826086964,-0.003489890134387362
0.20750000000000002,-9.882635679297659,0.05264541825131386,0.25721193294314393,-0.006121038079311998,-0.005723531103678944,-0.0007109858767319244
0.21,-9.887372053269461,-0.008731355557684546,0.28259869532614745,-0.007653846566067863,-0.006001920603592824,0.0009383155097804372
0.2125,-9.931914557125749,-0.03625720809580832,0.36367517767664653,-0.008165367473053893,-0.002932795161676653,0.0015779259401197592
0.215,-9.987545597047633,-0.043216050716956646,0.4167142664997562,-0.010802865316208748,-0.0035747243310030935,-0.0019615935750284517
0.2175,-9.968182484552104,-0.003472105238172672,0.39531400830434077,-0.009240485371484313,-6.0434908145018656e-05,-0.0010504183644935788
0.22,-9.918974855489415,0.00919510530001592,0.2871205361960846,-0.008467236555785454,-0.003018389189877449,-0.0010248372306223142
0.2225,-9.857937075552433,0.03307056085205997,0.27233352349250944,-0.008124180252808989,-0.0035708672565543053,-0.00082416324906367
0.225,-9.857573495500535,0.020457200678490564,0.2904579576359958,-0.008337550672538985,-0.002331414522080705,-0.00019553784073324308
0.2275,-9.881076900295202,-0.021326699409594224,0.3169457038376385,-0.008909206199261995,-0.0024262743911439115,0.0011387411070110745
0.23,-9.945911591054557,-0.07723864842373127,0.34514345813901703,-0.009657179723238433,-0.0024140704374105253,-0.0010726250803244797
0.2325,-9.956878525185303,-0.01841281764911694,0.3526212543788771,-0.010930581625576592,-0.0013958492699220563,-0.0012002154477493247
0.23500000000000001,-9.906144,0.049617,0.375418,-0.007789,5.3211137254916445e-06,0.00168
0.23750000000000002,-9.906144,0.049617,0.375418,-0.007789,0.00025615694117647227,0.00168
0.24,-9.89145796715877,-0.022553940246051223,0.36115170847880307,-0.007895690101413133,0.0005197840199501237,-0.0001421546267664092
0.2425,-9.91349843402364,-0.0449161803026005,0.3580184486572104,-0.007567469059101656,-0.0003856262222222183,-0.0019126262222222182
0.245,-9.956134253399952,-0.051373098358966335,0.39200439343586535,-0.008441118120071821,0.0017302922788664174,-0.0013931067124677977
0.2475,-9.967526983290641,-0.01076624433497543,0.38997807290640396,-0.00910599054187192,0.0017554116650246318,-0.0019381865221674865
0.25,-9.9529483310816,-0.00839654279573194,0.3231622069547862,-0.011017094649573962,0.002492236201734858,-0.00043690535042603825
0.2525,-9.935145801418592,-0.008877888038688877,0.31883170961848467,-0.011385750370768406,0.0033527011929070398,-6.824962923159558e-05
0.255,-9.951451571544611,-0.02080964460505279,0.3441656564342821,-0.010410869040614005,0.0014257380812280093,0.0006257419507515205
0.2575,-9.998060669028273,-0.04760926962698988,0.41696526411974366,-0.010163314492753624,0.005546122209550984,-3.0032772630082458e-05
0.26,-9.962744550874984,-0.08505781324700466,0.35426860685223266,-0.009927,0.007297718550163382,-0.00126678391625318
0.2625,-9.92064161667675,-0.06912740199685337,0.3076143985114363,-0.009927,0.007975999891080724,-0.002139222497882129
0.265,-9.88479911790549,0.003492346398467891,0.2685001517720304,-0.010771170239463607,0.007144049214559381,-0.0038742513090676985
0.2675,-9.858900376577134,0.06853327542667018,0.29134539279296445,-0.008865774266698339,0.00672,-0.0030193943189921403
0.27,-9.925764410782664,0.02014435149242906,0.37237618788432275,-0.008710357144917087,0.006092963579267801,0.0007158557237843385
0.2725,-9.95187591039013,-0.07024335330930137,0.3854315176864537,-0.00883887763518385,0.00570824211167187,-0.0004391486822078117
0.275,-9.952702930507144,-0.08874705360339136,0.3544693074265972,-0.010946172711571665,0.007041597016800129,0.0006422402260951238
0.2775,-9.910381224342911,-0.08136553296278844,0.31313295647668354,-0.009814290155440403,0.007418616806406033,-0.0021236691474329048
0.28,-9.879457964631868,-0.007829664153178928,0.2456461863323448,-0.010378131488488727,0.005212596544335507,-0.003201506988830644
0.28250000000000003,-9.902132009801324,0.05182895099337816,0.27459905006622554,-0.011684264635761605,0.005062669139072847,-0.0037268760264900728
0.28500000000000003,-9.939052032980598,0.08291694337662249,0.40022416532627747,-0.011787374224787572,0.004254730941157599,-0.001022909299342612
0.28750000000000003,-9.896840838624339,0.011559303896102949,0.3027361867724855,-0.012814598749398762,0.0034847328523328423,0.0006457000962001188
0.29,-9.868095257610955,-0.01653435394397214,0.2402347266949957,-0.012452719370475297,0.0027259249512118413,-3.407537299338092e-05
0.2925,-9.837854582401164,-0.08768630470531094,0.18607798152801397,-0.010393853407712851,0.0028084254523405247,-9.337068154257027e-05
0.295,-9.828195377277027,-0.08027827179742006,0.1948998264508372,-0.006480400262841563,0.00638301707508615,-0.0016711311739722751
0.2975,-9.873404556320219,-0.015982303876913545,0.2300618677169643,-0.008405464463498666,0.005484765817773865,-0.0014140078019072055
0.3,-9.929076435241011,0.08873895876188893,0.3131838915041105,-0.010666969675963233,0.004472854876672582,-0.0032274868128324904
0.3025,-9.989128047455988,0.10002497009320001,0.3328865008491544,-0.01096652450120815,0.006681647994477031,-0.0001932643424232168
0.305,-9.953901947029065,0.016605399051060746,0.2906354491688925,-0.009272104672427343,0.007539818406912804,0.0030672027085624433
0.3075,-9.921022045269817,-0.11567049180002453,0.26201718596203943,-0.010640290544597438,0.005301555022950013,0.004123
0.31,-9.89066514172908,-0.14586429725381422,0.20495611618122975,-0.01153851183541378,0.005549916588072122,-0.0008989763291724429
0.3125,-9.92061152858684,-0.07486363106796116,0.2170311418554477,-0.009934702804746494,0.006783677993527509,-0.004106594390507013
0.315,-10.019758553754576,0.1079112010249881,0.3584866788667835,-0.010374875651758713,0.006567,-0.006205415342989017
0.3175,-10.11104624852459,0.14582298950819678,0.47421639147541006,-0.010119532459016393,0.006567,-0.004803531147540981
0.32,-10.06387840946392,0.09621192396792932,0.3873914698569404,-0.012212229479641566,0.006085021858198395,0.001980229479641565
0.3225,-9.998839003584342,0.0011164165194148534,0.26224068506209675,-0.012086947643452287,0.005455315786825969,0.001854947643452287
0.325,-9.919879109620394,-0.13820093538000158,0.19386918601531092,-0.012037155694104644,0.0032292681556309708,0.001710543366742944
0.3275,-10.001011136327046,-0.14067445259569097,0.27945337820219446,-0.011404915094309838,0.0037348951274563994,-0.0010699912082708695
0.33,-10.055854969230769,-0.0016314760839152252,0.3488610735664337,-0.009032901818181822,0.003760764195804188,-0.004774068811188817
0.3325,-10.048298917595048,0.1364230236122508,0.3700222323414518,-0.009547876447230933,0.0024737490426814477,-0.005675063702274743
0.335,-10.015836861100404,0.2247422454367414,0.38615339651849506,-0.012427554491762523,0.0030709589959589424,-0.000153302803854494
0.3375,-9.99440249437364,0.11026672304942389,0.3286723963319858,-0.013796537768106944,-0.00016489373640040219,0.003454945974510445
0.34,-9.964897726679016,-0.06850999707128524,0.24550260236165888,-0.012847032293193728,-0.00021223703906559724,0.0013383339186467792
0.3425,-9.941672802919049,-0.12051565041321038,0.20258573382521097,-0.013879138513089017,0.004818225027789018,-0.0005958094885219697
0.34500000000000003,-9.940068231214315,-0.0842505440445315,0.231040045550697,-0.011505332421471195,0.0039093786783299935,-0.0036992290862823208
0.34750000000000003,-9.978950179766203,0.028406126594037184,0.3307360666719694,-0.013414866449304199,0.0016171039872763136,-0.004972529724055682
0.35000000000000003,-10.031085,0.12494,0.441176,-0.014355,0.0053942508945687105,-0.003971
0.3525,-10.031085,0.12494,0.441176,-0.014355,0.006929426460063885,-0.003971
0.355,-9.919953963133834,-0.10964735945723257,0.23586549262256634,-0.01384572796381554,0.002083874336483339,0.000859039360310171
0.3575,-10.031339649563039,-0.14812478844681343,0.3052268343946365,-0.011517535229787592,-0.00037389769485500447,-0.0017274650448267344
0.36,-10.069512492978635,-0.17427805128126692,0.4404572440185987,-0.010657629742805017,0.003207,-0.0032339987734683042
0.3625,-9.96805839874051,-0.10676520996998441,0.32350871294214634,-0.010092333046907188,0.003207,-0.003705490777470423
0.365,-9.802120476827355,0.15541448487026457,0.13209863328193064,-0.011759,0.0010943775501173357,-0.006363768659738524
0.3675,-9.834901570845457,0.23106381232852813,0.21531331530673797,-0.011759,-8.601742406972516e-05,-0.004859977802212542
0.37,-9.911606435020271,0.14444132443596494,0.3070551883520151,-0.013106710692423877,0.0003169158661260818,-0.0011597837888544472
0.3725,-9.965692008111274,-0.10677425030746675,0.31398203951683756,-0.01254281216691069,0.0018121878330893103,0.003821640585651533
0.375,-9.876867227103618,-0.2515079472809309,0.16633910448824507,-0.010251292012981873,0.0022344095622575796,-0.0004245650281010053
0.3775,-9.779117167899944,-0.24604967468059843,0.07305543288530032,-0.010885434389297871,0.005403461385260828,-0.004354753708541126
0.38,-9.855901016988824,0.021841026061801688,0.2141629210782382,-0.008570408678500988,0.002165551584483889,-0.005999387218934912
0.3825,-9.939075135757577,0.15334515393939432,0.32019124606060634,-0.009623309090909093,0.0005379430303030261,-0.006095276363636363
0.385,-9.961589938190437,0.18871963157645205,0.36507662693322807,-0.011617157948636912,0.006268993362307413,-0.002747153741604095
0.3875,-9.953638486907108,0.0546714568015762,0.36917895171054155,-0.010197132761219977,0.008101118381073868,0.0016430368317291173
0.39,-9.907875832438565,-0.17781161534971668,0.30849156442344083,-0.01111707805292998,0.005875035595463078,-0.0011847640453686381
0.3925,-9.944798305213338,-0.14634665400058966,0.32404051757568597,-0.005564646177633518,0.00168,-0.003456101271171447
0.395,-9.942875472491222,-0.07015114257205739,0.3083161853547813,-0.005192,0.0017120244696660566,-0.00504
0.3975,-9.96130068317139,0.08135083719768228,0.38099644949130457,-0.005192,0.003934693936474257,-0.00504
0.4,-10.033115011629576,0.19475929477546558,0.465796091106326,-0.007894962495014785,0.005141117906995303,-0.004823366547020817
0.4025,-10.035335282881197,0.16706989289055096,0.46230436297474226,-0.012787656716557587,0.00878808843311511,0.00038427000000007625
0.405,-9.877978578346285,-0.07174625137706042,0.27404956100093214,-0.014949322029841491,0.006818988632266077,0.004001249704693819
0.40750000000000003,-9.896490817674852,-0.17014681359030268,0.23897588351258894,-0.017189402402859835,0.005947891535592156,0.004498321013366496
0.41000000000000003,-9.89957,-0.186514,0.233142,-0.017562,0.0039001756782009378,0.004581
0.41250000000000003,-9.893931853042753,-0.14564509615338728,0.1969706351792299,-0.014561798594736152,0.005334404525425796,-0.004659274574252905
0.41500000000000004,-9.847209399984267,0.1333487367136017,0.2155399951293953,-0.011475203416974764,0.007387560632423538,-0.009063032533626936
0.4175,-9.807763048061041,0.2344278999512303,0.2293455996979469,-0.012356921142137963,0.00978114794619679,-0.004906009769527285
0.42,-9.79615286830388,0.06666158006923026,0.2413465930964958,-0.01475053974615899,0.01090546025384101,0.00504
0.4225,-9.817470156669701,-0.07608726598651774,0.27789042504159817,-0.01387497528390114,0.01178102471609886,0.00504
0.425,-9.963662882250137,-0.25349127085901535,0.4534717108527736,-0.01181280605445893,0.010110008254661774,0.000528434672700341
0.4275,-9.978334928738395,-0.2539805026979792,0.46031932037138173,-0.009813336799563088,0.010735046925177497,-0.004219895750955745
0.43,-9.807036553496038,-0.06681265768621295,0.3331025112836768,-0.007528125014263073,0.011148,-0.007681125014263072
0.4325,-9.774254843904913,0.14776321553090294,0.3003199708082409,-0.008416340342313786,0.011148,-0.008569340342313785
0.435,-9.822965730680124,0.321788426810863,0.33757399421292955,-0.009286382167748134,0.008149304215332855,0.0008474965152607493
0.4375,-9.910340343987825,0.1023476697108067,0.3777463074581431,-0.01236499391171994,0.00571161491628615,0.006748519025875191
0.44,-9.990681305981473,-0.1921452949174386,0.33265826072976235,-0.010973164604107938,0.004183749164720098,0.0020165016705598034
0.4425,-9.944735687113974,-0.21739051170358442,0.2877219437712444,-0.01484229602255337,0.005989512747482887,-0.001595025494965774
0.445,-9.849740256863786,-0.1754802398002807,0.1945408405554686,-0.016698045111561872,0.007959726815415825,-0.0053227652488687886
0.4475,-9.77763225947234,0.031001697225532976,0.12698613853373844,-0.011883418382978694,0.008338764824316109,-0.008795865755623113
0.45,-9.926489990527243,0.17324270576846199,0.35119535108408795,-0.009673654628370264,0.008138816673333866,-0.006724549723977904
0.4525,-10.009084781459473,0.13135783844069343,0.41709235663418087,-0.009563384216781556,0.011809629826479708,0.0014095888756834422
0.455,-9.915475463593674,-0.14585922074748617,0.2440106451173917,-0.008247,0.011912,0.003160956339242861
0.4575,-9.849660426230257,-0.24594735978860124,0.15133789047144328,-0.007830142002282141,0.012209532883310316,-0.0034848877088463417
0.46,-9.819257059990989,-0.21805193186119365,0.1704310356737277,-0.007448737629562936,0.0128555410004507,-0.007329570599369163
0.4625,-9.909276822916667,0.1946178208333357,0.24770310625000058,-0.012211308333333353,0.015601808333333342,-0.01098723958333333
0.465,-9.984263416394286,0.34384522823226416,0.3029356301943343,-0.013652107881058305,0.016290785244673384,-0.007179441217513384
0.4675,-10.040401268588154,0.34934896330133464,0.34733254917349615,-0.014121033228752054,0.016853618417232503,0.0008819010817139698
0.47000000000000003,-10.023338961150987,0.10141292287746434,0.39561166156182614,-0.015259106447126544,0.019380975666213766,0.005987718375829323
0.47250000000000003,-9.932603372652759,-0.3129133026110489,0.32811801382576516,-0.01560557927361963,0.01959468133006133,0.0030405651975459217
0.47500000000000003,-9.874213102442427,-0.3294120789951143,0.23451086876017563,-0.012817159618515891,0.017272473551988802,-0.0038522952314492664
0.47750000000000004,-9.842616297340191,-0.11804803011510714,0.21164914535390666,-0.013321468782757815,0.014747491579720757,-0.008129468782757816
0.48,-9.855139273899614,0.20839164135135124,0.2699437216988418,-0.008127502702702693,0.01547273845559844,-0.0072508299227799465
0.4825,-9.847072526100385,0.22351805864864854,0.2588506783011584,-0.009544497297297288,0.017534128211068197,-0.0039023367438867644
0.485,-9.817393643309318,0.028761121298470724,0.25095280408969534,-0.010102662864081595,0.013073149473002522,0.0031190998753339453
0.4875,-9.78390253501174,-0.10621767951104935,0.15453949620335186,-0.011010076240589327,0.010739679527240358,-0.0002516564559216241
0.49,-9.814449084471299,-0.08241237770392729,0.1503093562537756,-0.012041352024169186,0.013545184048338356,-0.002902402719033214
0.4925,-9.824794582271338,-0.07310143027510005,0.18528883249784484,-0.011187532825456543,0.013588809326749749,-0.005713887119680221
0.495,-9.85961025051486,-0.00252212063624966,0.16758868060276255,-0.01069,0.013519622268731683,-0.006400850966931771
0.4975,-9.913585924276743,0.10055785994139799,0.22044009629611905,-0.01069,0.01581767347963882,-0.006017737927405371
0.5,-9.90476318311647,0.16472839416058394,0.26108082386543957,-0.010477148524278007,0.01714687845128531,-0.0051031983497302445
0.5025000000000001,-9.854951972308976,0.13725903956576027,0.22137306889352626,-0.011804198263048068,0.017420266054279744,-0.002605202605427898
0.505,-9.82005648572871,0.05614937990342388,0.17344984535996497,-0.014164665258999128,0.016531334741000873,-0.0002699587225636531
0.5075000000000001,-9.871651557335383,-0.04050442476734219,0.2253878445873586,-0.016888523239684,0.013807476760315998,-0.0007089751229148485
0.51,-9.910828093384676,-0.13093630289420316,0.2794734542278066,-0.012381367344953383,0.01631941426834213,-0.005465046923388748
0.5125,-9.79394679358195,-0.03734653822456592,0.1664033548574537,-0.011840148547493592,0.020321883123902103,-0.010008734576408513
0.515,-10.069651725820197,0.2510174969984353,0.42547287310627113,-0.01441037197255988,0.01928499377542423,-0.007823607895053514
0.5175,-10.30050060975809,0.22499050045974286,0.5861621918497988,-0.015277349601636766,0.017550407529185248,0.00017416608496798047
0.52,-10.386749222617384,-0.0495251903109148,0.5268832133185267,-0.014663407829949213,0.014327809032360453,0.000812068204314729
0.5225,-10.17296463622145,-0.20364956147842422,0.34740273088198226,-0.011107164987309695,0.02093214121510143,0.001954789828680187
0.525,-9.695402659787042,-0.35519318470899186,-0.03069238592587037,-0.009891334032503396,0.020483976158834342,-0.0009838936354175341
0.5275,-9.822433193360853,-0.1738253575982114,0.2229475339624791,-0.012806119565884096,0.010176524945145876,-0.009395156130706482
0.53,-10.133879875201405,0.093607247412835,0.5337113506161466,-0.01112878350899535,0.009930378640343922,-0.009970031396274464
0.5325,-10.061120532855924,0.1730911992814373,0.3255869417915239,-0.007440708522546786,0.01838109317365257,-0.0050708475375779785
0.535,-9.782588635708727,0.185796351691956,0.03021261202897113,-0.009607536060998897,0.020006,-0.001282754424704496
0.5375,-9.762603367978183,0.008517866199197588,0.13172497254901658,-0.0149078214257888,0.017719485962862,0.0010164132969744041
0.54,-9.869246420661831,-0.2665163292369026,0.08206346588629426,-0.013987816362331536,0.006261,0.0022655504824175433
0.5425,-9.960715257813572,-0.24252474982218342,0.17353313915636648,-0.012838153656008301,0.006261,-0.0066725544852881905
0.545,-9.962334553838367,0.09901559382571866,0.34174350097738543,-0.014780138155938625,0.028711,-0.01356278500079064
0.5475,-9.948456634724025,0.2873745361505604,0.42006083479993633,-0.014020612917918713,0.028711,-0.005838181160841414
0.55,-9.947682340213872,0.3115245180168439,0.4326970573882047,-0.013920404763447851,0.020492940959170324,-0.004482690797148315
0.5525,-10.029946797090085,-0.04901947119896177,0.4266038658392742,-0.015217533370058323,0.013617394828256666,0.0009657590278677698
0.555,-10.18995255289271,-0.15508638702781483,0.5146449837742275,-0.017877349425026362,0.014252870404671195,-0.004765171554618467
0.5575,-10.18385208721758,-0.09103489886951596,0.5121032648025302,-0.018266813221960908,0.016330294107533855,-0.0060636676636120325
0.56,-10.016738,-0.126734,0.38857,-0.011759,0.017728030710209265,-0.003665
0.5625,-10.016738,-0.126734,0.38857,-0.011759,0.017982361921369688,-0.003665
0.5650000000000001,-9.9576559263003,0.10797458970797598,0.2299359422304038,-0.017648979839043243,0.021228,-0.00796517110140211
0.5675,-9.959622172646098,-0.05420886675862101,0.34752401042468245,-0.015294038686025411,0.022076541546279495,-0.0015738567259528183
0.5700000000000001,-9.948469102128755,-0.2268083245832096,0.37148223569796407,-0.016919639880499073,0.0233059371987581,-0.004493659752797174
0.5725,-9.861076302906683,-0.15887723351180338,0.242963955292601,-0.016262398758127815,0.022086048536113873,-0.005806913509460493
0.5750000000000001,-9.76474406630872,-0.028057593654661678,0.15826964197681448,-0.016952380085418006,0.022121073825503403,-0.008954066162294234
0.5775,-9.778419903958433,0.14081812044949327,0.22309537783470337,-0.014773574664088907,0.021764589376510383,-0.003816738704688195
0.58,-9.79206330425008,0.019856805383868418,0.21848338211208182,-0.017257,0.021504761036605154,0.001611893624878608
0.5825,-9.939787010424363,-0.016693048532556137,0.2875231273145453,-0.017257,0.01930027181081955,-0.003704865636540368
0.585,-9.940059780178697,-0.11235903943184337,0.31534467550057577,-0.01632300793585342,0.02406021650400922,-0.0025516626620847756
0.5875,-9.779222875418096,-0.17123704226040526,0.1028084497289023,-0.013510790362733843,0.020391201435662434,-0.001818179946544476
0.59,-9.808028480116176,-0.13981449380687963,0.15479753955872472,-0.0123188181034395,0.02109071207745221,-0.005057257767133706
0.5925,-9.880853352293503,-0.08743164414369371,0.2681874759378356,-0.011502932471847126,0.022804232195668808,-0.009218434780127432
0.595,-9.97432212083791,-0.07219351060724936,0.299526154407657,-0.009509022231288237,0.023345488884355885,-0.0012843163596421845
0.5975,-10.004320805790051,-0.06875063397144197,0.3295256620304413,-0.01051432575553116,0.022842837122234422,-0.006560925855954875
0.6,-10.07442852090414,0.0009832567398111586,0.4734601150800183,-0.013197787015343975,0.022755,-0.007701440884342515
0.6025,-10.100429,0.028694,0.15063068821182135,-0.014203,0.025211488610729076,-0.007789
0.605,-9.916678168428327,0.10285375095619344,0.0940160188506827,-0.015676491204270674,0.02033613112576547,-0.007367904057151833
0.6075,-9.984076256236708,0.16682872219097766,0.3313379480034291,-0.014512827377429958,0.021402254275583902,-0.004984352448954584
0.61,-9.954481397002388,-0.04809387978997473,0.25798413208591964,-0.013834961603818616,0.022511335656324582,0.0008296023484486541
0.6125,-9.727413120765684,-0.1349437881754299,0.025323823261444084,-0.011995782214683741,0.025849040610613126,-0.002065547031742327
0.615,-9.68847614056479,-0.12597460136840472,0.0005536391996114453,-0.011713706374051952,0.028857641123124094,-0.0031585585735033122
0.6175,-9.815927956036795,0.05002948091657597,0.3581253311021532,-0.014298343843795436,0.028729043776020653,-0.0019961062385024783
0.62,-9.862097567202323,0.05409300288480183,0.19702709899322285,-0.01555877773475313,0.02416359742497579,-0.0027159158180058104
0.6225,-9.870917141612809,-0.06955414303193241,0.29637098766516246,-0.01938806989740148,0.027790674384888334,-0.002096133826829028
0.625,-9.772043935468405,-0.17353650532169912,0.20380894419407422,-0.01961831623357944,0.02971006414804871,-0.001788971138172404
0.6275000000000001,-9.741254877111556,-0.22281302343267803,-0.00198028419366858,-0.015805045456472943,0.023696173283071973,-0.0030189653433856057
0.63,-9.811643018057676,-0.038813474682303346,0.24422646821752747,-0.013217369318017515,0.02324757640613705,-0.010016473011486863
0.6325000000000001,-9.888178368881036,0.2164733824018057,0.20595837165716027,-0.014760458105871996,0.029551329947787128,-0.008859156420596002
0.635,-9.980883361904763,0.2283665358217612,0.31543649828508696,-0.016364406567819883,0.027487387808896195,-0.0015581815454616657
0.6375000000000001,-10.013339285714286,0.004126579854077328,0.39018342447634935,-0.016992055024711714,0.023341453047775837,0.0017083872911274113
0.64,-9.925677315346558,-0.19238427970896835,0.15890612274182345,-0.018952403455617658,0.023818486047330934,-0.00012219308876468003
0.6425,-9.81477897959409,-0.1899838863077277,-0.0033601499517474376,-0.015886260261928516,0.02369561545837482,-0.006254479476142967
0.645,-9.873817925184612,0.031219277960036422,0.1492854766525516,-0.01358517979838951,0.0300307829740531,-0.005748782974053101
0.6475,-10.042071060397253,0.12058122010140045,0.37848423822487,-0.014635319436922143,0.03203661848374587,-0.007754618483745871
0.65,-10.118607885753445,0.1721555017495756,0.5169820333145161,-0.013354806611303767,0.03244123308876886,-0.005382552221236772
0.6525,-9.786564455228577,0.04883981918245739,0.006535270331377796,-0.019035192118035886,0.03411939430782873,-0.002412587303071874
0.655,-9.515134912951488,-0.12467352527073611,-0.3651183295273828,-0.015360778854460081,0.027560077621283204,-0.0009030699593114535
0.6575,-9.739287314278558,-0.1786267808325503,-0.018836361552429348,-0.014107902835680764,0.022924354303599424,-0.0036590690078246962
0.66,-9.790447535276185,-0.16543516781804,0.08961079353162946,-0.013392539235191077,0.034171434071482314,-0.004526647888028093
0.6625,-9.783703949702348,0.06749248948289835,0.24165385461655425,-0.012266850064199808,0.034567299871600385,-0.007615570012839962
0.665,-9.654116592697033,0.19484348578217917,-0.007672858601185395,-0.015538855474059452,0.02804538665504942,-0.008171914426930663
0.6675,-9.867116638700988,0.2623676274059401,0.1839785953203947,-0.018836990361980173,0.022083661088316872,-0.006015793004356451
0.67,-10.071561782267503,0.02337872132685543,0.31471605623030285,-0.0197,0.022629128183864526,-0.001069
0.6725,-9.996929779879162,-0.07501735981992604,0.21409201505982758,-0.0197,0.026138460253524443,-0.001069
0.675,-9.725009556276882,-0.14301398287754424,-0.05809949797938761,-0.02193764776434304,0.03824449562606499,-0.003520538034569513
0.6775,-9.79774957036436,-0.042296058476020804,-0.028596757516838538,-0.01868887460196382,0.032916099203116146,-0.004040443849711919
0.68,-10.15519602689374,0.08586535666107266,0.4420855605756835,-0.01589532217158393,0.028880216480371215,-0.007637904946030226
0.6825,-10.260445994022547,0.23221326535859893,0.7448043459726548,-0.016792400863516427,0.040274792650515694,-0.007766178815063564
0.685,-9.894299547844742,0.0771956020826709,0.4628278783969612,-0.0201971764846955,0.045447921464183944,0.0003433704764909662
0.6875,-9.708364258125592,-0.15868436509940043,0.020242941621962662,-0.020828340485957716,0.02927754938466393,-0.001551775954559798
0.6900000000000001,-9.93673961166735,-0.18576177545596126,0.004394913632122088,-0.019328868270380904,0.017913395188857283,-0.0053780658648095465
0.6925,-10.009156220467021,-0.2104138358770996,0.18209697236870168,-0.015655200940598107,0.028934397178205673,-0.007214899529700946
0.6950000000000001,-9.872245443309339,0.016604932596850225,0.24018193259685022,-0.014413189276182809,0.0422187534007279,-0.010832401238980988
0.6975,-9.818001033753335,0.1889665736417313,0.41254357364173133,-0.015837861884350997,0.04390207192883139,-0.010572907299636069
0.7000000000000001,-10.03297310119697,0.3005832385310558,0.6504830056509974,-0.02105412660206821,0.03764140512987514,-0.003961987802296042
0.7025,-10.011026519074994,-0.017914570728769674,0.34015198202752056,-0.020141393319762228,0.02747070460711663,0.0030786096213663754
0.705,-9.893685222990813,-0.31575799445280683,0.13178643996658765,-0.01816716053467004,0.033292,-0.002355215004176796
0.7075,-9.7648985519891,-0.08650684593684826,0.04483115757974044,-0.017053341779131266,0.03201979914409359,-0.00943425205321366
0.71,-9.703825868135496,0.006711257373183843,0.0436080806945633,-0.016517273969826364,0.030915276333617993,-0.009902726030173637
0.7125,-9.7045392460575,0.10984600491887367,0.025764678109877436,-0.01624386218047253,0.03073320079703957,-0.010176137819527472
0.715,-9.971599939615352,0.34243662114745027,0.33719542057615737,-0.017241636952040822,0.03705449675241412,-0.007910496580378259
0.7175,-9.957864555543294,0.14812288637506893,0.4201089108106801,-0.023479655824068878,0.041473270726284234,0.00040629464253843194
0.72,-9.75913317274308,-0.16340553187524873,0.06759413310999669,-0.020617,0.031918,0.0
0.7225,-9.677134813914012,-0.2149051080290347,-0.144902047347853,-0.020617,0.031918,0.0
0.725,-9.721937084682283,-0.1807118659876222,0.03442301002898788,-0.017817376823630816,0.040317,-0.009745065705555124
0.7275,-9.896782182693727,0.013287428422787378,0.2790099551672839,-0.016939113293112894,0.040317,-0.00924308346313562
0.73,-9.885294399645733,0.13142136356199596,0.20605945339774576,-0.020672760141706912,0.04047,-0.008605424592592614
0.7325,-9.906996208083736,0.24447423508534805,0.18082439974235065,-0.022477796766505666,0.04047,-0.0053820242962962445
0.735,-9.910329,0.261836,0.176949,-0.022755,0.04432109061005443,-0.004887
0.7375,-9.816510035768202,-0.19797209945419936,0.25869281751248635,-0.017889823783532557,0.04193336887701765,0.0022320689350832324
0.74,-9.863204261437723,-0.23630550368683348,0.24135618041281134,-0.017156833708185052,0.04063913483274022,-0.009504698875444828
0.7425,-9.975237288980628,-0.02859872683589948,0.24879198981731923,-0.018043292975879813,0.03835954968129691,-0.012670743294582901
0.745,-9.88409077857364,0.14436704379568996,-0.05494673826884171,-0.017842833570663175,0.04275968835813787,-0.009087122571734736
0.7475,-9.892299983821884,0.1544426868579595,0.04729972147160595,-0.016412730215501815,0.04619168671984768,-0.006513435913799207
0.75,-10.023810017467937,0.06805946903768983,0.5166958085608624,-0.01938863152096939,0.052993,-0.005116598866944685
0.7525000000000001,-10.05734893823275,-0.12331122015579951,0.5679909682870419,-0.019262396468644263,0.052993,0.002443478155637912
0.755,-10.01116120214036,-0.22895974456017773,0.2936579653477291,-0.018607447373769452,0.0390478947475389,-0.004200399790409659
0.7575000000000001,-9.936016862832643,-0.16127930840901705,0.09559397977770229,-0.017717539669736403,0.0372680793394728,-0.007124857942203947
0.76,-9.802389584496623,-0.10931343135413259,0.10759594723705385,-0.015075650685107748,0.043723429559343864,-0.010393658507558702
0.7625000000000001,-9.774665896108074,0.0529915633322655,0.14287956841428207,-0.013788118076551913,0.04964675410099726,-0.01065082775812159
0.765,-9.809617351480178,0.230195658709828,0.15323227890218213,-0.020018303823598444,0.04670220213933847,-0.00705898807412618
0.7675000000000001,-9.983615867054503,0.09001574839940177,0.2595927640441034,-0.02740564431933714,0.04144333399953069,-0.002802043362264325
0.77,-9.949358318982801,-0.15137637351373462,0.1299678535430769,-0.020464,0.047037,0.000898084163338451
0.7725,-9.84615447606162,-0.2658214912967626,0.24849907602575433,-0.020464,0.047037,-0.005366535675279069
0.775,-9.826353402317332,-0.2730688036415209,0.2558523220146587,-0.02026247073382198,0.050236096555529214,-0.006329970725939953
0.7775,-9.705798155932847,-0.05666146218018711,0.028081481362026983,-0.015466312045400863,0.04278936386852693,-0.007971392603452332
0.78,-9.793279896329125,0.09334909143356461,-0.030867690328010764,-0.014754471676594418,0.03901465016599172,-0.008091202538320984
0.7825,-9.942633062292112,0.18345950391231736,0.0916027552156289,-0.017043833461996637,0.05198714508458409,-0.004275321963307164
0.785,-9.849353,-0.01913,0.39933,-0.02306,0.053996443226111614,-0.00168
0.7875,-9.849353,-0.01913,0.39933,-0.02306,0.05248111698202461,-0.00168
0.79,-9.92110338476829,-0.08148479873150903,0.29939071380465704,-0.01880480188312212,0.044809551973845396,-0.007571977647732017
0.7925,-10.003825064161202,0.007994767394684864,0.26415170799377985,-0.016702356551490983,0.04503411154236253,-0.007889950070998714
0.795,-9.989231177984642,0.06277472299849736,0.168470213004036,-0.015386420505026551,0.049938,-0.008079715000395785
0.7975,-9.936139184583235,0.14762280694371838,0.10297343188791297,-0.01741418205651863,0.049938,-0.007826556067442415
0.8,-9.863009931959771,0.11523692960509298,0.12547984302183246,-0.019908629531518292,0.05559035952906497,-0.0020580454255578057
0.8025,-9.851389166693934,-0.09427958778587921,0.20092561939889725,-0.021810971154188147,0.045662,-0.0004797795340565408
0.805,-9.938685249976277,-0.14942870674679645,0.2304868419041574,-0.023950882239443295,0.04583807138383686,-0.004063248167009427
0.8075,-10.004115530033213,-0.10085225855448372,0.128872149334177,-0.023445084864779378,0.0493836280626285,-0.009001820566186928
0.81,-9.690536061502806,-0.03473103860005649,-0.004439331939699309,-0.017077350410877868,0.05848567524445762,-0.008341425532367712
0.8125,-9.64532486148389,0.08867237765297073,-0.042609606030150765,-0.014616311853384571,0.060189804966006503,-0.007868434998522023
0.8150000000000001,-9.974846351325617,0.29933391140282795,0.5705206164864906,-0.01881908667953683,0.05468215023166017,-0.00876510195624185
0.8175,-10.268297497374517,0.14907850362934336,0.7444744154054057,-0.02525882104247105,0.051977208764478755,-0.004127818455598447
0.8200000000000001,-10.068343044799994,-0.07327344189091489,0.2862881764363498,-0.026114,0.05052033687272724,-0.003512
0.8225,-9.709086894067207,-0.25802446246427113,-0.2616565471533407,-0.02168667437620704,0.04836053261490927,-0.007593856122054873
0.8250000000000001,-9.770180818865484,-0.022463350880234788,-0.08639549641379397,-0.023759133710062892,0.05677579113236234,-0.013833133710062891
0.8275,-10.043322090052001,0.15218360502841988,0.3429489332446489,-0.022205485338009437,0.058253533486515935,-0.009647376613858973
0.8300000000000001,-10.077712,0.234935,0.383788,-0.022755,0.06427307015296821,-0.006261
0.8325,-10.077712,0.234935,0.383788,-0.022755,0.06389160357295712,-0.006261
0.835,-9.800601777384626,-0.10830453754138879,0.19586726285211353,-0.02750252017915704,0.06172408601455658,0.002581264896424942
0.8375,-9.904382538558746,-0.19804697698152524,0.33474173171239024,-0.024940415340318302,0.05660071499640082,-0.0033103182436215834
0.84,-9.894224191216363,-0.182771161597896,0.2944530005908405,-0.020689527893792584,0.05449245179284774,-0.0064327053916995265
0.8425,-9.76977210320775,-0.10030224566917743,0.1268909069465357,-0.022604580581270205,0.054779646989594546,-0.008922775536419115
0.845,-9.672010574980522,0.1970812462103513,-0.2479949449972168,-0.022937025754034494,0.04589001526989425,-0.009140986199220972
0.8475,-9.69244276063598,0.13130329598855153,-0.32174620743779403,-0.023701430072342804,0.04779977567692188,-0.004685434311153454
0.85,-9.715461769640351,0.013395513404955896,-0.208723082578242,-0.019076405184493075,0.05620150761326458,-0.0028142665576833125
0.8525,-9.872525421018606,-0.19358403708293923,0.13559172395458924,-0.024468727152317862,0.066432,-0.004963845998107889
0.855,-9.9668414658658,-0.16793693007862892,0.28441672235057447,-0.023671,0.06663331291516406,-0.00822713545610402
0.8575,-10.141755596954185,-0.0990086332911606,0.5593884983884171,-0.023671,0.06710630344900977,-0.012487149805498147
0.86,-9.942042237151833,0.017296557235601737,0.31034204862827347,-0.01912328293193716,0.06783248125654455,-0.008339076188481695
0.8625,-9.839546150237615,0.08444849604510792,0.07202686432540856,-0.021057426339105956,0.06048020249697933,-0.004856773451469934
0.865,-10.017422032639386,0.16438753286432134,0.21850292233548615,-0.022976584139746344,0.05957317744915051,-0.0071492939363483965
0.8675,-10.332113453451205,0.06699805593121433,0.6252175670477214,-0.022063933615887574,0.059712,-0.00370086084281894
0.87,-9.95335982363849,-0.2890643718239191,0.11592816566887507,-0.023522578025710946,0.06169791740397351,-0.0003434620116867753
0.8725,-9.624678018948181,-0.2153184751601075,-0.38515227809272584,-0.024770085273081447,0.06194790903311259,-0.010824320215037231
0.875,-9.580029750657895,-0.005666517105263158,-0.35609569802631574,-0.026725,0.061992146710526316,-0.010079
0.8775000000000001,-9.882624122026323,0.039696467315790525,0.19445068007896016,-0.026725,0.06041152186842102,-0.010079
0.88,-10.039123698487815,0.08740532658465887,0.39924136325628795,-0.021623048922667074,0.06633549558567736,-0.006890454585912397
0.8825000000000001,-9.942949865872334,0.10916684617772231,0.18354674647308078,-0.02368784177221544,0.07306866212265348,-0.004108944881101322
0.885,-9.85128997166915,0.014011472740101533,0.1908939956032931,-0.026331052196001577,0.0704276092136417,-0.0055613385903567295
0.8875000000000001,-9.688591296666662,-0.10629719250000334,0.05235590583332664,-0.02256200083333315,0.060452994166666316,-0.0015507966666664739
0.89,-9.783529505804658,-0.23732992721536647,0.01787183385696777,-0.027988047810380102,0.05385174924070287,-0.003988511408255031
0.8925000000000001,-9.682366694289371,-0.11119353118339009,-0.3909266362038186,-0.02785867088259286,0.05627140151101802,-0.01351717107613419
0.895,-9.812706238546754,0.09489626013103125,-0.17778443925908013,-0.020933455907087534,0.06889463316259682,-0.011604637355568775
0.8975,-9.907908695628349,0.21884556252531093,0.20003579209767186,-0.018167438572960135,0.07452159549731975,-0.009506236307325819
0.9,-10.14841960002521,0.10537250289507832,0.5788303047943191,-0.029332916013277865,0.07737669085255681,-0.0031520472120677165
0.9025,-10.094688836883902,-0.042388637831839826,0.5706651674221608,-0.02899674075885542,0.0761654906239758,-0.0012006445884281095
0.905,-9.99161624879351,-0.22403893466857813,0.17446594573197038,-0.023326233495469337,0.06597109440152533,-0.0057287051216027285
0.9075,-10.070771142146969,-0.15518287270133316,0.13747748730210468,-0.02244827715685431,0.05925789137258276,-0.011319110119467086
0.91,-10.120216169773755,0.0611369658917172,0.24857437271337376,-0.0219654508129193,0.071013,-0.017153903479481904
0.9125,-10.077181851583711,0.25674899048213273,0.40506399238570623,-0.019341965688875043,0.071013,-0.01115759978155724
0.915,-9.615866388124422,0.23467341933081398,-0.13130308059376736,-0.0293485885202638,0.06991029802073492,-0.0019833274929310844
0.9175,-9.953928647217104,-0.19491386210298406,0.16111904502923063,-0.024122831982061374,0.06375406496035878,0.005469660914551083
0.92,-10.12759894560979,-0.3962903489663594,0.2409310623412879,-0.022011968205504592,0.07071563628134582,-0.0019922976685019435
0.9225,-10.09659484661986,-0.24387622944834603,0.15344229464393308,-0.022708097973921763,0.076053,-0.01382497243731191
0.925,-9.851495972479672,-0.0521279886287563,-0.1432000003822511,-0.022741248160534827,0.07536651036789271,-0.01711556368848497
0.9275,-9.53556109781735,0.12892003198171065,-0.3971640155649152,-0.018262999682348686,0.0691262275875346,-0.009092681703766087
0.93,-9.728567528716352,0.2170456953162196,-0.021042734627414746,-0.020159,0.06776080667501574,-0.010537
0.9325,-10.184860595015655,0.30339809566687526,0.5765536626174066,-0.020159,0.07189650991859736,-0.010537
0.935,-10.238564102704599,0.0017552804462427352,0.5953005108677963,-0.027054568373575758,0.07781980539644606,-0.0027792209897201
0.9375,-9.89748265165563,-0.3599571159542444,-0.06332321613485847,-0.02668573028296207,0.07203161613485852,-0.0024137630343166764
0.9400000000000001,-9.816103780552906,-0.19324622005719494,-0.13656907794089343,-0.02477428055290746,0.07078255910390863,-0.01469428055290746
0.9425,-9.791205515030187,-0.08966976868128358,-0.02054266080711767,-0.02172134836352081,0.07663435954877662,-0.011641348363520808
0.9450000000000001,-9.87036754932127,0.19248978501482347,0.10490675621157966,-0.01943895330940874,0.08027772288344505,-0.009614634588859413
0.9475,-9.977953344796381,0.21596290074582625,0.19293216727726664,-0.02331160019971916,0.07628073245124042,-0.00948947299734748
0.9500000000000001,-10.138109630656931,0.16983962294509147,0.523371548286255,-0.029567120247540307,0.08177900977467464,-0.0051140293240239465
0.9525,-10.021235502773722,-0.02959114630910925,0.3975465879815925,-0.023595461624880958,0.07961929595683909,0.0013651121294827378
0.9550000000000001,-9.664335716566635,-0.27135273310950786,-0.05872760296461337,-0.02226832302161707,0.05849,0.001041527826430873
0.9575,-9.740773245378099,-0.19987869097790747,-0.3436315723303528,-0.02772085179824218,0.05849,-0.011511659713358234
0.96,-9.752509,-0.188905,-0.387374,-0.028558,0.0639034116805111,-0.013439
0.9625,-9.95654467144527,0.33340205021254016,0.09940588231668443,-0.02135453228480343,0.07989106590860791,-0.00849543342189156
0.965,-9.84729720412115,0.36737490972369774,0.10506774698831024,-0.024672980029755535,0.0853367523188097,-0.0036453515515409733
0.9675,-9.865423824432893,0.1588530500236259,0.212698979059548,-0.0296660690075615,0.07612679595463119,-0.0004923615500944938
0.97,-9.899885184266006,-0.2730056313830912,-0.10912551108595676,-0.02841143081712064,0.07218286725857803,-0.0012736593420586634
0.9725,-9.966405035642024,-0.3143960084046698,-0.11614692731517517,-0.026806606329442262,0.06916176661478596,-0.006560430920882038
0.975,-9.907399424470478,-0.13029790064396232,-0.025193389696642532,-0.028915040965164132,0.08698911242144458,-0.018144593901776734
0.9775,-9.877733566886493,0.1362140135029908,0.19852126395221054,-0.024566651858173576,0.09382287640623797,-0.015038485462021835
0.98,-9.676155544033714,0.29817362319325647,-0.059992738049368916,-0.027175087792895816,0.08523597689102953,-0.007370611966285369
0.9825,-9.878434124358824,0.3845956031282374,0.09020740933173027,-0.03151332636724872,0.07983716776881387,-0.0074671996411800135
0.985,-9.992885820576223,-0.09383162189646777,0.17062742916574405,-0.031915180981478566,0.08343070522083268,0.0029858585404464216
0.9875,-9.871826501329743,-0.48479925053032197,0.01682023653632783,-0.028747209957258137,0.08127611974038305,0.00159151970872247
0.99,-9.81480522810828,-0.4474895341630631,-0.01946159463078643,-0.02673689680922634,0.08094,-0.012047659663623202
0.9925,-9.757826425885177,-0.08890428772038445,-0.016148997794859225,-0.026239871626231086,0.08558820057650747,-0.020326239634878777
0.995,-9.75697094521046,0.16311609103860483,-0.09885771756413433,-0.025838965551681196,0.08256322245080946,-0.015267793965130772
0.9975,-10.060882433958733,0.30726234688399356,0.14543511292526956,-0.02972206286804235,0.07586399909138232,-0.00814060446679381
1.0,-10.165324848874599,0.20106345881770962,0.35057589042790005,-0.031305287162997776,0.09140317561216918,-0.0065413405886717785
1.0025,-9.875656,-0.229555,-0.017336,-0.027336,0.09466551974827708,0.003665
1.0050000000000001,-9.880723663619921,-0.22654449180208963,-0.015404282419568765,-0.02754109024148528,0.08612477193738678,0.002748535769683743
1.0075,-9.980323124706995,-0.16737620112640456,0.022561542547000078,-0.03157191767167476,0.0829756622323605,-0.015263579929206775
1.01,-10.110187863870967,0.03798064281866654,0.2826562178202309,-0.030091203827121816,0.08731996725963047,-0.018200800645161275
1.0125,-9.90749135806452,0.238223191794547,0.0539472770122183,-0.025827771969934306,0.09521876908863125,-0.014564609677419418
1.0150000000000001,-9.795551,0.356887,0.0,-0.027031,0.09571297243657978,-0.007025
1.0175,-9.795551,0.356887,0.0,-0.027031,0.09069750830880036,-0.007025
1.02,-9.927606423934876,-0.26388403930039483,-0.25423002899653285,-0.03200685363423872,0.091783,-0.002185460943016106
1.0225,-10.037240804423307,-0.24771634454743313,-0.0652733715225303,-0.02903869137744826,0.091783,-0.011608023870395608
1.025,-10.023289617976637,-0.05025719772709669,0.4250635451641103,-0.029974238989112268,0.10436479782245903,-0.01799713472144969
1.0275,-9.990410681252483,0.07876689992847904,0.42556187501231824,-0.030738400311531456,0.0999106623062861,-0.014815490305968269
1.03,-9.782505720536074,0.18000881230398813,-0.13885550130166413,-0.030527028228874126,0.08056027528769755,-0.009473047858117327
1.0325,-9.81570656001926,0.15133601026241905,-0.4175397547773022,-0.03399647598427089,0.07477758186662392,-0.009601795252387448
1.035,-9.9359408656374,-0.18713205647360728,-0.24280166815648424,-0.03281671350630585,0.08219621181781635,-0.004739559832918195
1.0375,-9.973202416836696,-0.3447351602859724,-0.061532535046985276,-0.029086178440035214,0.09300120252229133,-0.008213194200337498
1.04,-10.092799167647664,-0.12045894108593386,0.2516095349964198,-0.028059714155338294,0.10437181448445819,-0.018937
1.0425,-9.92337065935925,0.09182622457746883,0.0552709937705714,-0.030223720273471644,0.10271713338103189,-0.018937
1.045,-9.987851032839483,0.20495505951359266,0.08084241909895361,-0.0286926839741648,0.09322070711426551,-0.011970517397336967
1.0475,-10.095298348559377,0.20223032572031202,0.16986836775993835,-0.02634535559723352,0.0907240962231861,-0.008300451956394275
1.05,-10.21008010920585,0.12104195461082422,0.33538110141446387,-0.029481216894508173,0.09389848625839596,-0.006067255124456694
1.0525,-9.961784580242048,-0.16997595207984886,-0.10891739226949188,-0.03583027558827196,0.09793772122270741,-0.004683611408608861
1.055,-9.844098082304344,-0.2321009352732954,-0.2421061090683298,-0.03195453395652172,0.09051769763354033,-0.011586185118012302
1.0575,-9.968200471173919,-0.09242458764595679,0.032379825838521004,-0.032575701260869595,0.09238282777018642,-0.016435035006211386
1.06,-10.134660545887296,0.06532727349588588,0.44624853628936834,-0.03160741026320036,0.09624177582431788,-0.01188834824479237
1.0625,-9.934777716157205,0.028767454148471622,-0.013433331877729215,-0.033117737991266376,0.0984748034934498,-0.008762065502183407
1.065,-9.657284458570073,0.15601935477165574,-0.559811166818909,-0.031224254415748002,0.09403138698582665,-0.011694609700787431
1.0675000000000001,-9.885315886903948,0.052862594582672395,-0.024777326944857125,-0.032737671587401644,0.09970525649133884,-0.010307517039370015
1.07,-10.045219877372256,-0.1123033399902812,0.5213113045449845,-0.0307960032895381,0.10553499604866123,-0.003988000681265866
1.0725,-9.87800203670487,-0.21106994805157528,-0.07486227418338207,-0.03698115283667622,0.09435509106017191,-0.017609518939828102
1.075,-9.802853967887689,-0.030183208229790814,-0.3404326095852848,-0.03714100600290476,0.09059099099564286,-0.0229576060674521
1.0775000000000001,-9.775036331224785,0.09423387905761471,-0.25091278133289857,-0.029905713157979307,0.10144393026303103,-0.016884765557527534
1.08,-9.863020783254967,0.20914721166857203,-0.03902991307006862,-0.023980150285322827,0.103236,-0.009473621949326421
1.0825,-10.023620626572788,0.15384390200098208,0.20474077357131337,-0.033016282220402884,0.09917482178483705,-0.010123416171606357
1.085,-10.17908192607826,-0.09010773428780414,0.36083531446840295,-0.03708309426828288,0.10490212595786226,-0.013876400901326049
1.0875000000000001,-9.914436117400133,-0.22574534320345632,-0.08279089356546748,-0.028746006637923576,0.10060307524607477,-0.007493504775074906
1.09,-9.636316561030926,-0.23729565994763255,-0.4390995419931276,-0.029602577414498645,0.09783979556864687,-0.014012177722140582
1.0925,-9.56707811484536,-0.14805516756340928,-0.45448586336769775,-0.03589214594338085,0.10281928755359193,-0.019646279008345667
1.095,-9.816130449221355,0.18395585124674937,-0.027611780042832712,-0.03159078360715926,0.11083662390393148,-0.016707031415022233
1.0975,-9.767225775689155,0.17532599216766126,-0.06453009261434792,-0.030488792308398384,0.1089991697078171,-0.011930131724032584
1.1,-9.77710321623643,0.005174676692843161,-0.057149272053879874,-0.036032369846614176,0.11270384668911373,-0.009267004863449167
1.1025,-9.669896535104108,-0.17682349710185868,-0.14367428433502186,-0.034972,0.11360829733821041,-0.007941
1.105,-9.641088724006753,-0.2911740438660656,-0.16366380927218144,-0.034972,0.10970342863815422,-0.007941
1.1075,-9.908946696321939,-0.22773041370244373,0.1219667829609625,-0.029644176882927066,0.10356801194634167,-0.013640399634146086
1.11,-10.121454736212225,-0.10016390806430395,0.29834278394212715,-0.03158734330868182,0.1032411022797428,-0.019574613678456802
1.1125,-9.772205982352041,0.18996358254575263,-0.42952145993781066,-0.03127125629810876,0.10682870137125958,-0.014164101931997762
1.115,-9.69903176606209,0.27432164735892306,-0.5199511844257529,-0.029883631637865123,0.10470610602232758,-0.01440891398684814
1.1175,-10.1293346611035,0.16916690284485525,0.29576347581368234,-0.034870195555555324,0.11108477276132595,-0.012336589182485537
1.12,-10.065988868265313,-0.18513823396521842,0.205569220894144,-0.031151901775321275,0.11245649008616454,-0.0006866568297842523
1.1225,-9.844847752739387,-0.40780763494716776,-0.2525089867728923,-0.03557821877093165,0.10516708840188571,-0.011881582194765317
1.125,-9.639667368302646,-0.13072300307856255,-0.5180374375703036,-0.03523854662246166,0.11297385234740394,-0.024958902610857852
1.1275,-9.823737122126573,0.028111025817295743,-0.08532586123735453,-0.028033660555325475,0.1174298813143093,-0.019270605951098335
1.1300000000000001,-9.911914542504979,0.18552558399013025,0.2370543940000053,-0.029515987356436797,0.11734456171287055,-0.013997549069307351
1.1325,-9.97292923188096,0.22108402604065897,0.022409611365216575,-0.0393401076507203,0.11575834545497674,-0.011284556016361153
1.135,-9.741667756141807,-0.07839098005110319,-0.35717730086873306,-0.0408395148834238,0.12059253184286166,-0.002785876480357705
1.1375,-9.514937895113386,-0.447267190130942,-0.6354610322261208,-0.033040500638773694,0.10742253784733335,-0.00048426723091668077
1.1400000000000001,-9.958708386627737,-0.31635189616919795,0.0004295959024686463,-0.029114624938836795,0.1139536222429173,-0.020600584361139724
1.1425,-10.06754314411807,-0.1689306011301355,0.28636785502013284,-0.030757291942230338,0.1220419987120198,-0.02287549196432806
1.145,-9.716954235271821,0.22242805031860913,-0.5735015869051323,-0.028445519530972418,0.11036832921473401,-0.016949642487267567
1.1475,-9.772773220161632,0.2540114947468519,-0.4535570102305748,-0.03221495630615634,0.11207192629427133,-0.015172038250534871
1.1500000000000001,-9.952793169393775,0.145840731888777,0.0017636743089393166,-0.03644819979287797,0.12105494672189977,-0.01165882676650972
1.1525,-10.0396822213686,-0.12630704902095988,0.17404070993069937,-0.032238191794789955,0.13266337552138968,-0.006428894211742046
1.155,-9.978478,-0.462697,0.050215,-0.038332,0.12186195450391234,-0.008552
1.1575,-9.978478,-0.462697,0.050215,-0.038332,0.11898042170892022,-0.008552
1.16,-9.85303966863883,0.1015786853062796,-0.4952911551089173,-0.03427707962569794,0.13042,-0.020478470623574923
1.1625,-9.820014100872845,0.20558370404970094,-0.24489117332703364,-0.03264035448612088,0.13042,-0.014812185908626046
1.165,-9.92238161861302,0.3157320376552233,0.20426597638501362,-0.03537349594319531,0.13344661603786975,-0.013737601776725769
1.1675,-10.105364955663903,0.06647952468323653,0.4688487945688343,-0.03827972670295856,0.12801387553136098,-0.008936902346351118
1.17,-9.887477024502788,-0.32257021625457677,-0.4077018086364211,-0.03656332134287998,0.11053007935719936,-0.008470208324582075
1.1725,-9.757322632776447,-0.23779489041845334,-0.930815270046162,-0.03286869675735865,0.12174074989339742,-0.017769751083532584
1.175,-9.617153059868528,-0.14194785860188752,-0.4345068128587395,-0.03469671580888242,0.12391400567580578,-0.02087615594035592
1.1775,-9.746299224037196,0.10730035462882709,-0.05560891050825856,-0.03161588284431619,0.1293056735161135,-0.019721158807118812
1.18,-9.895015093892495,0.3138446269601475,0.048868238591293287,-0.035413693873957236,0.12593493569972206,-0.01831970825764604
1.1825,-9.854711364958293,0.3472485508897141,-0.15446221227062962,-0.04079323374420783,0.12203921833178853,-0.01535145587581081
1.185,-10.038944330602254,0.11277918922177685,-0.2515699881692378,-0.04059554903943052,0.12240281957290254,-0.0020014562041110215
1.1875,-9.971262829880828,-0.35247472838518756,-0.17937566056146526,-0.03995481316484044,0.12419587363032873,-0.0023855622650563865
1.19,-10.001875819068326,-0.22143668211180423,-0.013727428913038575,-0.042127321739130454,0.12057652459627342,-0.021838139844720512
1.1925000000000001,-9.86598051976588,-0.08067549919731792,-0.24396262998328822,-0.041075238795986575,0.11474247418060174,-0.021168689448160503
1.195,-9.578434763026927,0.0703454874896956,-0.6728066278146941,-0.03654180747999039,0.11407105137036146,-0.015387993616298863
1.1975,-9.75783544351524,0.21629923006548682,-0.5177311472164277,-0.04003790855849302,0.11666091286280218,-0.01745903506508207
1.2,-10.163488665306613,0.10428023319017313,0.27554689606299526,-0.04014389766165592,0.1343755125745644,-0.014740651646385255
1.2025000000000001,-10.008312677752318,-0.1054887591839761,0.10017875244093616,-0.04043037332856122,0.1423042583249825,-0.006621130615604463
1.205,-9.824728793857208,-0.24829671619696375,-0.36690095709050746,-0.04249760562663589,0.118355,-0.019369531331182823
1.2075,-9.962847998132572,-0.0712597627122758,-0.2547271317036939,-0.04473912909854527,0.118355,-0.025022485030129687
1.21,-9.960902594734282,-0.034072687469530516,-0.23943583116528513,-0.04351794416382295,0.12079914991711331,-0.024598644095563473
1.2125000000000001,-9.788755549195772,0.14279326951556867,-0.27263994721614415,-0.03555886686970608,0.12913239592652528,-0.017904301170648243
1.215,-9.738641061315311,0.2856768439402349,-0.31977097839916396,-0.03875938388883612,0.13111338323022753,-0.019809442109070204
1.2175,-9.801612398487908,0.16086538331063346,-0.3325822370039915,-0.048250782249354446,0.13241136366283165,-0.011949391472176428
1.22,-9.844734803181929,-0.12248607326561814,-0.4207732427561539,-0.04409362007312919,0.12651693459007077,-0.00630236075404246
1.2225,-10.03604529085274,-0.31044158553281637,-0.1573109573980036,-0.04016801063039629,0.12796755771496138,-0.012758866531046343
1.225,-9.95886692566399,-0.41067956624234186,-0.07088167512179683,-0.03975007015558698,0.1314582623919536,-0.017508269809838255
1.2275,-9.73730886168489,-0.24169749320513922,-0.3489737957745526,-0.03620125247446213,0.132558,-0.023791133450306562
1.23,-9.678665999382618,0.22771171047332509,-0.47148622351116204,-0.03281478192813041,0.12470896866867182,-0.02427165785024539
1.2325,-9.817589454946964,0.34926900787398735,-0.23432578750673458,-0.03813816839639054,0.1292721084882063,-0.021229011328162187
1.235,-10.00770179540789,0.09945235491472217,-0.031870356483872736,-0.0392258004355137,0.13189373650788547,-0.008262086023536962
1.2375,-9.899306688992072,-0.32158478150669234,-0.1432766246257325,-0.04255931680409901,0.12663700533183883,-0.008646561091986237
1.24,-9.871989142047925,-0.36684111185942575,-0.3232078052971234,-0.04420445892651758,0.12372611513099041,-0.024665311210862614
1.2425,-9.635673444974447,-0.14204048780831233,-0.6551524610415254,-0.042157558172524014,0.1243659809968051,-0.02658407128753989
1.245,-9.451881971092888,0.01012760106397248,-0.8326908585728126,-0.0383568560945032,0.12533596436515593,-0.024698802642237113
1.2475,-9.552491835368187,0.3183346915863721,-0.7359140182772679,-0.03743755427727274,0.1318112974000002,-0.02262300755909087
1.25,-10.00111745331462,0.36028307000743004,0.05940553199042353,-0.042559676298192024,0.13803152480805747,-0.015026561297779245
1.2525,-10.090050476273712,-0.015136037157251203,0.2999285108283335,-0.041138312067227,0.14372728695318115,-0.004642825440576468
1.2550000000000001,-9.862885874582375,-0.29406588009412127,-0.2638459651729568,-0.0400322458850286,0.13134024237157801,-0.008021578809505393
1.2575,-9.845750573806594,-0.3364506898273557,-0.5309151215694815,-0.046192630095376316,0.12323016520101401,-0.022213545652541817
1.26,-9.88064348936454,-0.07002366671211036,-0.32981470493675624,-0.03810671066575778,0.13572163586760583,-0.0239482529940165
1.2625,-9.864026541967736,0.07905472528970424,-0.16649400936151165,-0.03689397450579416,0.1349941530106794,-0.020916015496478126
1.2650000000000001,-9.83119946921906,0.32589829375237295,-0.3186727534476126,-0.05116002400000021,0.13466351912380928,-0.022449
1.2675,-10.054571955517467,0.16471135747301127,-0.18882742092698043,-0.05535432800000012,0.12957958993015858,-0.022449
1.27,-10.11115673285464,-0.2122222548861664,-0.13040946140742046,-0.04243948697022765,0.13432476293583828,-0.005522533364114041
1.2725,-9.88710854567426,-0.45922525817863047,-0.30855135524597743,-0.03912481152364278,0.1390409342461391,-0.012024172007642001
1.2750000000000001,-9.732435224092496,-0.3203041008003731,-0.4961041006063545,-0.04314310755922052,0.13834313779610313,-0.027066724407793733
1.2775,-9.878389814413458,-0.039546160116411155,-0.4940771419063788,-0.04094236109952293,0.137825165497615,-0.02810266900477002
1.28,-10.203056321895371,0.19260569059627872,0.11301763531245006,-0.03492808577516301,0.13876702606455726,-0.019432842881221154
1.2825,-10.148735116489108,0.14476284748608734,0.08859810264270976,-0.03721981373191284,0.14729702259182692,-0.01701356513277153
1.285,-10.02334780180981,-0.04104084323033472,-0.11482823090240178,-0.04361676034054993,0.14810950626125127,-0.014656723531987487
1.2875,-9.796564865457354,-0.252208887746752,-0.6172487406959452,-0.04037651409093597,0.13536478314067213,-0.016804523220108093
1.29,-9.980687440451522,-0.1880133396774845,-0.445602605079618,-0.03867444616811128,0.13263785014311646,-0.02232290686555131
1.2925,-10.00911693347309,-0.1965423989477927,-0.23459280157226517,-0.039723867623463,0.14345122409191688,-0.023048941648861114
1.295,-10.008376929268485,-0.1531370988740047,-0.055177150088088586,-0.039041951237074234,0.1537702242206049,-0.023231883692072092
1.2975,-9.856094788131015,0.06309060007707679,-0.3206120005395149,-0.03860874535645493,0.15103172971098233,-0.02152155344894023
1.3,-9.928611380092846,0.17925970367455707,-0.37259055384373074,-0.04804718640333614,0.14162852682351112,-0.020952664049098894
1.3025,-9.90986836255252,-0.060446634573923186,-0.2571754131277052,-0.04338556519002283,0.15309446487685888,-0.011503186570147175
1.305,-9.76043305765968,-0.3466476080998806,-0.3725285066623939,-0.04324853429806305,0.15052186136705634,-0.013023381956138854
1.3075,-9.885248166313016,-0.33640983669432645,-0.2591315460026351,-0.04414237588355592,0.148593,-0.028570360789126413
1.31,-9.887283757990012,-0.1711519834001709,-0.3052527998541672,-0.04191753424744386,0.1507475840500912,-0.029762710454149112
1.3125,-9.920694124390534,0.08133748269711026,-0.3456753830419788,-0.03637843762635272,0.15189335747413485,-0.024067885242002617
1.315,-9.83325361412941,0.18473810557525813,-0.3220188310354085,-0.03883672426021734,0.15294083898145452,-0.020058993263182417
1.3175000000000001,-9.95934303408407,0.14319374513109512,-0.1540211183814817,-0.04311917667577486,0.15405762941921985,-0.017917462254519987
1.32,-9.765171114490357,-0.21389035563636566,-0.50288151414089,-0.040565740643840914,0.15379513590240051,-0.010454239965368128
1.3225,-9.777505603526171,-0.29529798327272755,-0.5260706836584023,-0.036910374170798885,0.1486269478567493,-0.01700897478787881
1.325,-9.730272335326152,-0.13995106266489288,-0.6664783711242906,-0.043329640106498854,0.15074252721771747,-0.02622450366694903
1.3275000000000001,-9.795512975209975,-0.07319333140021453,-0.570135137180196,-0.04323319598692968,0.15326212984146206,-0.02719338636814721
1.33,-9.805116,-0.063367,-0.555954,-0.043219,0.16089530797999865,-0.027336
1.3325,-9.822565750843031,0.2701300109190252,-0.3000151311992373,-0.03888494246022318,0.17005593158394688,-0.022506505761101823
1.335,-9.972137968596801,0.19254730927176103,0.09875637236233889,-0.04061522905861452,0.1715,-0.01721359030195389
1.3375000000000001,-9.892267764198525,-0.15710695847962322,-0.21022073425552754,-0.044670946762757416,0.15846659990700815,-0.009742653516214807
1.34,-9.93434645447144,-0.3250286276834645,-0.47407526234886277,-0.0408275150963725,0.14965888876331876,-0.023688395953549657
1.3425,-9.714469369256554,-0.24773365062612152,-0.6650609592721197,-0.038910000622530805,0.15541017685621938,-0.02474287199808453
1.345,-9.618862371328456,-0.09247831334664393,-0.5304296866533561,-0.03582518268352168,0.158672,-0.018984686697715487
1.3475,-9.741211203641473,0.115728082119299,-0.5502490510468095,-0.043892173846436115,0.15680486058366483,-0.025419685530743374
1.35,-9.982100167118903,0.20949841815548115,-0.3643727509756092,-0.046783997149390084,0.15447816623475644,-0.024012673231706954
1.3525,-10.004077904484758,0.022211715326216852,-0.34860574843902414,-0.042267607685975546,0.16412074964939039,-0.013760285329268148
1.355,-9.926022553579639,-0.37625978890968775,-0.27409615232840656,-0.03857139240722492,0.15968420690968801,-0.017660078091953947
1.3575,-9.871582467534875,-0.3758988651717294,-0.3691713221779363,-0.0417650539936702,0.15900082060485296,-0.02652665862384235
1.36,-9.799574144158948,-0.2811121917407066,-0.4735096121791156,-0.03979413427030821,0.15684184305943022,-0.030280440248505597
1.3625,-9.743416665562913,0.026598911754974447,-0.6607192776490107,-0.033841112913907144,0.16035288493377495,-0.02782401622516546
1.365,-9.852164928994544,0.20201792322369402,-0.6010987435011695,-0.03650740653780201,0.16026922971161342,-0.02656400548090413
1.3675,-10.350273414212328,0.29202530579259095,0.13339334378268808,-0.04526560772839478,0.16764794128888857,-0.023987462607407507
1.37,-10.210286466089912,-0.22064325385727498,-0.25669719627865545,-0.04672223729750697,0.16980940935621608,-0.02316927975149478
1.3725,-9.849089206951922,-0.4577100258569593,-0.7045434602966625,-0.04174766963112515,0.15998567644948336,-0.020060276747689613
1.375,-9.907047400448322,-0.17671909502842048,-0.5493070314626531,-0.0390720947081899,0.16113553758706267,-0.03242761300136098
1.3775,-10.113300645901845,0.1840981647330001,0.006722827245204677,-0.03125163676567145,0.16523800409254655,-0.026402771153630742
1.3800000000000001,-9.871471,0.131516,-0.405308,-0.036346,0.16555981226923347,-0.013744
1.3825,-9.871471,0.131516,-0.405308,-0.036346,0.15946828660507711,-0.013744
1.385,-9.788969066328583,0.07960456589551568,-0.6262111461128546,-0.04754734754568138,0.17510901852048621,-0.021276713611848953
1.3875,-9.743052190855671,-0.11617266784190267,-0.43598445232230876,-0.04110210377525569,0.17755848125251544,-0.01083568880302683
1.3900000000000001,-9.771119185602634,-0.25798208855367927,-0.39928369485755744,-0.0448352043316293,0.169362,-0.02253441559532542
1.3925,-9.86555708818846,-0.06567198634769358,-0.34262114479181727,-0.052292617100073255,0.169362,-0.029844384331629135
1.395,-9.82853327481551,-0.05855627833490936,-0.4291927712772136,-0.05165807678334899,0.1670640832923366,-0.029342785808893
1.3975,-9.709475459755097,0.08618922008163032,-0.8007216119183747,-0.047417663183673436,0.16417153387755087,-0.027977171428571354
1.4000000000000001,-9.993244419143581,0.2374311601385337,-0.30350266945843263,-0.0496604537783374,0.17456819489924433,-0.032161129093198154
1.4025,-10.081072563828718,0.13677397202770458,-0.19741771389168428,-0.047265170755667434,0.17481993897984885,-0.016404425818639295
1.405,-10.063473046032351,-0.36779147307326304,-0.10031012808753723,-0.04550940050428161,0.17462746063748805,-0.011817144215033454
1.4075,-10.190710576866476,-0.31808970231525585,-0.24444526328575808,-0.04284306429115131,0.1705643533491913,-0.026164809955597695
1.41,-10.076729105035506,-0.26209064245666264,-0.3509959946177852,-0.03717282066369498,0.176845,-0.022892420148588277
1.4125,-9.733661074789488,-0.23311327845467952,-0.7401177528479584,-0.03439687280832086,0.176845,-0.027122559583952602
1.415,-9.67567469463526,0.2161191125523948,-0.8709267536246865,-0.034999967226645105,0.17125974320714873,-0.030218080110479238
1.4175,-10.021428788750606,0.10103725769618277,-0.250198723106422,-0.0417641768253452,0.17568318363606822,-0.026705222739236416
1.42,-10.152400146022952,-0.13657358639395473,-0.3865349913906919,-0.03562718960937035,0.17794865191747433,-0.018834688856650177
1.4225,-10.127803280021404,-0.2945969010928179,-0.28665250077887705,-0.03572257704500862,0.17604402044116765,-0.02026300660205725
1.425,-9.986044302974243,-0.37352763543577183,-0.391137780527871,-0.041660416649390124,0.18115295054620856,-0.027815277123036594
1.4275,-9.953135706064696,-0.0662841296346306,-0.4646814871957178,-0.03730866975098909,0.17522626856876894,-0.030696
1.43,-9.842369199072765,0.0918101742176409,-0.611113194900189,-0.036931560437862165,0.16887474871860927,-0.03124001916291048
1.4325,-9.944662421735476,0.4111333003827361,-0.514157570456122,-0.04249430007461821,0.1715160757732582,-0.03171359085329163
1.435,-9.900108338425257,0.2780199628835911,-0.5079497935047882,-0.04462182080240566,0.18120028535886704,-0.022542442532246347
1.4375,-9.634669463077103,-0.1737111724619142,-0.9124935268054425,-0.044066418769624374,0.17625981811838584,-0.01265616199558088
1.44,-9.861858963713777,-0.09777626035653209,-0.5274022194800929,-0.042286789398366005,0.1785571612131712,-0.022635908967565663
1.4425000000000001,-9.997088604851955,-0.04300772227277525,-0.26322632333866736,-0.04103107963342419,0.1827438540163548,-0.027875150598740222
1.445,-9.866288629455774,-0.15672139864085252,-0.43055595055926726,-0.04095568150954037,0.17965795171726656,-0.022231132867750587
1.4475,-9.723166415198168,-0.02403751959040981,-0.8145696144560914,-0.0443463480351765,0.17547278933622454,-0.032855492865919836
1.45,-9.904553913998706,0.2771078136098516,-0.5238070040181452,-0.05063008003888538,0.17506574996759544,-0.04066392469215858
1.4525000000000001,-9.7791248906416,0.24156122312378306,-0.5994702910175022,-0.045180780751781974,0.1837574460401819,-0.01575599738172267
1.455,-9.647539151190472,-0.07378990889725331,-0.8218588859649193,-0.04780001058897254,0.17475252650375908,-0.014212151528822116
1.4575,-9.89607647204016,-0.22894867655790638,-0.7130087095876636,-0.05449409564718543,0.16996589613481533,-0.0305538827967015
1.46,-9.979311801420865,-0.2046920665710837,-0.6978346329536848,-0.046894786886830596,0.186314,-0.03161431445831665
1.4625000000000001,-9.733423052082145,-0.18247644472009547,-0.7165155866129692,-0.03644703407168692,0.186314,-0.024519639951670988
1.465,-9.639277321418149,0.0811398036022538,-0.8369322635699286,-0.04407769854956561,0.17686901639929248,-0.036154024991155866
1.4675,-10.123760882934713,0.336638171966472,-0.31195478231176854,-0.0478952474105976,0.17723915896946857,-0.0355379271183573
1.47,-9.650525340320788,-0.09119801850890388,-1.1802075921302488,-0.04686477189973403,0.1858001879551867,-0.015967202546949253
1.4725,-9.559077714844848,-0.3145099708970671,-1.1832391405400176,-0.046477693792214086,0.17237669105182601,-0.020742292737970347
1.475,-9.881734583669562,-0.3376706242074829,-0.44870822100142077,-0.05303019696205555,0.18632563400576366,-0.037263
1.4775,-10.28141226958694,-0.058423050259362064,0.11844258937320695,-0.04841497682756958,0.1852679925072046,-0.037263
1.48,-9.64875320765308,0.07900597145595271,-1.0360028968277812,-0.05173286383718865,0.172417,-0.03418598764479676
1.4825,-9.608702232256997,0.3393391725776415,-1.1457730409584066,-0.05372232324202798,0.172417,-0.037596666724250036
1.485,-9.962459990535509,0.22255899350788616,-0.4945653838829846,-0.05383228617126671,0.19302398033498405,-0.027528866930879387
1.4875,-10.084209253613276,-0.20331853690336532,-0.32401697524573103,-0.05131412064166072,0.17766102678304602,-0.013803463065188086
1.49,-10.217270023991688,-0.3299251201023106,-0.4117673558276708,-0.055029761876748476,0.18027880359044038,-0.031897366742866265
1.4925,-9.99030289498202,-0.1510570463751943,-0.6437439475117839,-0.05170157444488858,0.187702061229318,-0.03624890266485482
1.495,-9.6942740071036,-0.27178721879979584,-0.9959803827353945,-0.04876318873963224,0.1826083865539108,-0.022840750424459752
1.4975,-9.825778295306556,-0.06076748043583871,-0.7686505042641032,-0.0436848681541713,0.17336406959830847,-0.03429937204098252
1.5,-10.12207268963085,0.19269643451681168,-0.4121895678344698,-0.05412655137549965,0.1926084126498942,-0.037750315306842225
1.5025,-10.01202275232542,0.016814432077752767,-0.642605083131902,-0.049608116664315485,0.1932362926279489,-0.02394435228152706
1.5050000000000001,-9.976797909101114,-0.33147400209796235,-0.7231787077882043,-0.04511847709054937,0.18190681787893817,-0.026451015649019003
1.5075,-10.16186214750454,-0.1381385865215192,-0.30445911883225085,-0.04802398208807528,0.18943432412996886,-0.03437456990268864
1.51,-9.980473863888445,-0.29254655994262924,-0.4309106234294842,-0.05298807501832666,0.19522108209083663,-0.03210086840159363
1.5125,-9.538939816015944,-0.21712595566534,-1.0322760613386346,-0.04533221694023918,0.1884583935298806,-0.032611370342629474
1.5150000000000001,-9.712587157245396,0.08906761650886764,-0.9773783171304662,-0.05364309367766668,0.1748449144715459,-0.03859818521281649
1.5175,-10.122072503943889,0.15801406945831634,-0.4137330822766733,-0.05548504730581482,0.18523655933652444,-0.031795605353300595
1.52,-10.115834020884318,0.046317195732902855,-0.5533540502004655,-0.05298051053504571,0.1882718193753851,-0.02504130698260741
1.5225,-10.024514179518516,-0.26122164281558735,-0.6478218701796398,-0.051826318196260546,0.18649297542710502,-0.023227432452645715
1.5250000000000001,-9.80317962243779,-0.37675637756220914,-0.7360612970416327,-0.04914286962704084,0.1914677105018975,-0.031133731782852305
1.5275,-9.820175310198229,-0.3597606898017709,-0.7111341619690297,-0.04566930762908948,0.18355584857022328,-0.030747710251250216
1.53,-9.720988542929208,-0.11035304779311526,-1.0062450861936256,-0.04679554345917473,0.181122,-0.040623
1.5325,-10.11823472708436,0.3309209419586512,-0.507935893453593,-0.04794630728709393,0.181122,-0.040623
1.5350000000000001,-9.948409973951117,-0.05886556600181746,-0.7677717111964014,-0.05406079540271472,0.18881472112217138,-0.026905156604524832
1.5375,-9.692001352542977,-0.19085139286878297,-1.1421731262624568,-0.05029351330316728,0.17867057864253358,-0.025939138171945667
1.54,-9.799993196205584,-0.22773601336294222,-0.804812636218272,-0.05099311776649738,0.19205186407360414,-0.03710968383248723
1.5425,-9.752264192347717,-0.0915101226015238,-0.661626456319798,-0.04540426091370563,0.19624267503807102,-0.03177531956852796
1.545,-9.681547814907688,-0.24122420938385344,-0.8489911735650878,-0.04801381949172848,0.1828501549988015,-0.0275174229009824
1.5475,-9.93226506809088,0.11891414183818683,-0.9020893394595356,-0.05194537768353933,0.1812943771829422,-0.04205647402152241
1.55,-10.049940424067005,0.18380591591773304,-0.6908504968773905,-0.053468152322924505,0.200364,-0.03674352063975542
1.5525,-9.738162,-0.043639,-0.879962,-0.051771,0.19549470005500985,-0.021075
1.555,-9.82426434986591,-0.076227495356385,-0.7231939559633112,-0.055802170077628575,0.19034435079745948,-0.030802026901904915
1.5575,-9.785693279942326,-0.206889750105131,-0.889673325435232,-0.05747396159307975,0.18596870823091227,-0.03380800904907764
1.56,-9.638165508530296,-0.3470078651922127,-1.2833584853124476,-0.055199329773769845,0.1822994419775356,-0.02850561271634258
1.5625,-9.617836803274798,-0.1724724646416706,-1.1385742100142382,-0.04937252515424775,0.19990593046986235,-0.039146477693402945
1.565,-9.635341,0.31803,-0.942133,-0.052534,0.20257662247244088,-0.043982
1.5675000000000001,-9.635341,0.31803,-0.942133,-0.052534,0.20560263116535446,-0.043982
1.57,-9.681301858376964,-0.15607046973823419,-0.9848463916055835,-0.05921830539267028,0.19348158165794024,-0.023639027260035167
1.5725,-9.693672536398784,-0.3989703751489363,-0.9424926248510637,-0.059161599241337376,0.19050663241337387,-0.0318536910395137
1.575,-9.709980307718379,-0.43210428599599554,-0.9063125717146818,-0.05593248374672633,0.19594008140502228,-0.0382954951779387
1.5775000000000001,-9.768887792124483,-0.36933349931905407,-0.9072777914959175,-0.050504636943459906,0.19914751885379772,-0.0375548202495763
1.58,-9.77034642266171,-0.2671666277868618,-1.0129004215910817,-0.05055304011895914,0.199753,-0.04020546647831484
1.5825,-9.795377574164092,0.2173137345132272,-0.8351401648663872,-0.0507514168336243,0.215483,-0.04299246596481797
1.585,-9.780666962675069,0.25817966873758574,-0.5750979056942065,-0.05383137492609641,0.21509678060576706,-0.03248659389386966
1.5875000000000001,-9.733075789774652,-0.022811767094756963,-0.7396424401906234,-0.05590125598901554,0.20449075746708612,-0.03132207406509969
1.59,-9.88415383764423,-0.17725128090017658,-0.8642883021977976,-0.06213280055542254,0.1974106736317929,-0.03592515440746941
1.5925,-9.781896344892369,-0.2565523560861054,-1.3234211046575335,-0.05906789909980426,0.20068369072407055,-0.03755437056751471
1.595,-9.808225607281752,-0.2323176431502079,-1.2501188806414976,-0.054634561212352675,0.20993173966111395,-0.04099423637248815
1.5975000000000001,-9.840424315814126,0.002747279897567928,-0.9752162534943072,-0.055220459465788685,0.213039,-0.04668900607391184
1.6,-10.079423429044606,0.44676787954065317,-0.26710416126865727,-0.05587006329193048,0.21657076658073598,-0.046503508085305276
1.6025,-10.106846464219984,0.22984018701663625,-0.44730671014452256,-0.06037367304741824,0.21932306355753461,-0.030616365268338188
1.605,-10.050090015819935,-0.4131363516527326,-0.7646567309967836,-0.06190473116077172,0.19319678139871382,-0.022940717668810184
1.6075,-10.132728593826364,-0.48922385837941906,-0.9067539513183239,-0.06035968308360133,0.19577186152733111,-0.037872810787780924
1.61,-9.830223,-0.466882,-1.152558,-0.059712,0.20495104942785905,-0.04444
1.6125,-9.830223,-0.466882,-1.152558,-0.059712,0.21422934804860402,-0.04444
1.615,-10.019679199791304,0.22464070665612676,-0.8528386221723329,-0.052497987990513806,0.203876,-0.04444999064031622
1.6175,-10.128694631582606,0.14684299876680035,-0.6303482021628514,-0.060598962890118374,0.203876,-0.04027226491699615
1.62,-9.97059938620192,0.011307127140273893,-1.067014870293727,-0.059827645401425614,0.20907013077778655,-0.040150828595597765
1.6225,-9.821339721729455,-0.21503564481867798,-1.089599457783348,-0.06133312030390855,0.21107660933030473,-0.03400408873188677
1.625,-9.758603458466455,-0.5570696054313099,-1.076430463258786,-0.06275400958466454,0.2111395071884984,-0.03588661821086262
1.6275,-10.015938743555655,-0.4483114710453626,-0.7003856340140793,-0.057540170118845685,0.21014967215134614,-0.04910155621634693
1.6300000000000001,-10.039996057292495,-0.22789269992984798,-0.7734689607294907,-0.059905067935468966,0.21492062882394228,-0.05197089231704469
1.6325,-10.025938816164482,0.2159979158975734,-0.9441033767945216,-0.06098705393771792,0.21610033576049054,-0.05172428182277261
1.635,-9.86246435646921,0.0644870189393576,-0.9647305678318894,-0.05758236728400841,0.21688548875439007,-0.037076590833528426
1.6375,-9.837881374760011,-0.1754757073167834,-0.9361107772067436,-0.05298947673846882,0.21332374295247022,-0.03173366524233211
1.6400000000000001,-9.979662354803585,-0.3104406422307938,-0.7610695250914358,-0.0562833766095303,0.21459686047404258,-0.03676623708357289
1.6425,-9.866986357277858,-0.3388082523121314,-0.8393191462979501,-0.05800855091499339,0.21364922505711187,-0.039741907836960466
1.645,-9.512592292401706,-0.3371811106946299,-1.5888168306806103,-0.053845259912367806,0.2086771462873167,-0.04633567352222938
1.6475,-9.464618883678215,-0.1753168007524706,-1.6309307842191967,-0.05206812666705617,0.20783483046094525,-0.04876828162879006
1.6500000000000001,-9.953947567583409,0.18943960009511213,-0.760889009098842,-0.05655720732345231,0.22162697585796995,-0.051461628025679024
1.6525,-9.766149658755642,0.23365648010145185,-0.8945336230387615,-0.053384967811682546,0.23165314758183433,-0.039912083227391246
1.655,-9.944714152378516,-0.09987866140665315,-0.5693141884910529,-0.05844819470588239,0.2222148341687978,-0.031317098554987266
1.6575,-9.901628003631714,-0.4310332426854185,-0.9746149598465429,-0.06164789352941173,0.20928865432225077,-0.03605295451406644
1.6600000000000001,-9.878816980677541,-0.5133266912819783,-1.2374303197465415,-0.05884406962466455,0.20704449030465563,-0.04659852677796776
1.6625,-9.67180563982451,-0.32885027858883087,-1.4956207563246497,-0.05298975455764054,0.2157285294174997,-0.05401433328052671
1.665,-9.966858931106234,0.1282439581102349,-0.8418562992125949,-0.0571411655970053,0.2300518457932103,-0.05279906571317921
1.6675,-9.913456269699239,0.03519315874015813,-0.5890008661417341,-0.05755466755647347,0.2335655973047631,-0.04711493648638187
1.67,-9.624382407284573,-0.12512827921342476,-1.2028514588451829,-0.059334072259519,0.21958533732715455,-0.037455024852204394
1.6725,-9.488164714939874,-0.1989291699549127,-1.4682216949975053,-0.06073803987474956,0.21156275905060087,-0.03795606661573148
1.675,-9.574963,-0.432807,-1.626016,-0.05849,0.21109540895844583,-0.039095
1.6775,-9.574963,-0.432807,-1.626016,-0.05849,0.21503204884331711,-0.039095
1.68,-9.816276817908184,-0.2664255041813987,-0.7528050417161534,-0.04944644388573996,0.22769373279537589,-0.05582602294542576
1.6825,-9.939370979563497,0.23487339119049766,-0.5906195971031681,-0.05377834892857162,0.23400499908730185,-0.05578470214285713
1.685,-9.828753189965086,0.16740479149150939,-1.0948970393258772,-0.06252223624894661,0.2201031009606355,-0.0389784025279884
1.6875,-9.658214112194536,-0.011055724449259646,-1.4397449941013603,-0.05972691717828338,0.2161515334055616,-0.03685777211989888
1.69,-9.803718202211456,-0.2532616096134458,-1.114808893729336,-0.06115028475189613,0.2191342513204787,-0.037815927127844186
1.6925000000000001,-9.932603073709226,-0.520196690669847,-0.5855218797550701,-0.06407667706113511,0.22557346426025798,-0.04220551559170266
1.695,-9.759976064607429,-0.37565419346496626,-1.2506592590691108,-0.06010844796426897,0.22261118042313147,-0.04681877986835963
1.6975,-9.71661177108534,-0.08276713404462832,-1.2979463894873233,-0.05666707522674556,0.226784,-0.05133532565304326
1.7,-9.642468288315877,0.04406533330805433,-1.2967097696354952,-0.05410141981324355,0.22832107131819684,-0.04736072871024326
1.7025000000000001,-9.581260516003221,-0.014764666058684248,-1.1879629402663832,-0.05622670349149179,0.23173663479736473,-0.04197147451865167
1.705,-9.64752953108423,-0.0622984334443522,-1.069941946797648,-0.05935418954834085,0.23172281045165916,-0.04154810086018946
1.7075,-9.835885048286766,-0.31425874755702893,-1.036638677132328,-0.05552172617768041,0.22858761106683048,-0.0395263191238848
1.71,-9.594445368782525,-0.49776598947379413,-1.3748549921747908,-0.05329730430899089,0.22644889469950322,-0.0370453409177841
1.7125000000000001,-9.458243671904814,-0.34344353841440106,-1.5520267583696599,-0.052410673907409576,0.22583832609259044,-0.05019556828837432
1.715,-9.841178549746356,0.055767647587192236,-0.8874917988712732,-0.055832112561826,0.24189715019974636,-0.0572659179930243
1.7175,-9.884406544166138,0.09849778450539044,-0.8432714140393147,-0.04783480892200372,0.24176998459416613,-0.04393846383956866
1.72,-9.697281253961066,0.07748325396106548,-1.0856415355249653,-0.055868989443675084,0.24113481350818608,-0.040883337111672156
1.7225000000000001,-9.691153955578725,0.0713559555787241,-1.1024911790274508,-0.06330391172110493,0.23696083703836418,-0.047796405568135934
1.725,-9.6329421675959,-0.1538658872528088,-1.3420866588515703,-0.06186842744817717,0.23408987762687625,-0.03890498151060241
1.7275,-9.504704749456689,-0.5843454064811542,-1.8047143091579407,-0.06054865542946632,0.22304694706661826,-0.03910801571376951
1.73,-9.79127605952625,-0.2973494308213306,-1.2458193571672798,-0.05941701643956047,0.23759724066096855,-0.061787884008140025
1.7325,-9.841279947506713,0.2399405701619709,-0.859561856019547,-0.05524575806593418,0.25467319626210777,-0.05996301181603587
1.735,-9.758087023401817,0.30075957155278615,-0.8416776654180702,-0.06296697316770199,0.253221732632584,-0.044113541949354795
1.7375,-9.797520929081065,0.07414341055900214,-1.0962466682274292,-0.06602803354037273,0.23256416754260195,-0.03914119756330617
1.74,-9.744994509526814,-0.43202425135161393,-1.640365567595244,-0.06460663273962636,0.23377240546469294,-0.04210729651540886
1.7425,-9.652575079433896,-0.36245815414602917,-1.4724342829559487,-0.054680960971373475,0.255494,-0.04861148963010605
1.745,-9.848936491014953,-0.299516485451488,-0.9299553063776648,-0.05322127677197488,0.2551923714308564,-0.052334970391106204
1.7475,-9.804816290896584,-0.21528990968567363,-0.8231671121586795,-0.05680738488682724,0.25045394513316793,-0.053999709541710024
1.75,-9.925964356036904,0.27010049899719213,-1.1304660096269554,-0.06333036606498195,0.23998339791415965,-0.06554429298034498
1.7525,-9.699165737338152,0.3445271027677481,-1.558918453429594,-0.06744138966064973,0.24589294175691925,-0.053853911374248144
1.7550000000000001,-9.607976220177076,-0.028669532078290275,-1.4417121782339168,-0.06434341011649584,0.245262,-0.03571466547530316
1.7575,-9.649233972273999,-0.1389361424790335,-1.2971243707409097,-0.06499632702236721,0.245262,-0.0414980800512583
1.76,-9.845602655730803,-0.3560702522797228,-0.9321494017638167,-0.07113480643010923,0.24038177238178776,-0.05146263931105973
1.7625,-9.53620793656009,-0.42504667018578934,-1.4744666213539495,-0.07049601202455946,0.24676637196395812,-0.054527012997368576
1.7650000000000001,-9.490674,-0.435198,-1.55428,-0.070402,0.23588151830687762,-0.054978
1.7675,-9.749949585658062,-0.13747411136825854,-1.3245788268911451,-0.06775764331989555,0.24934567387242193,-0.05686706178800103
1.77,-9.99227045756352,0.10527003888861965,-0.973500697744005,-0.06177937074329145,0.2529618536499643,-0.050708049850391755
1.7725,-9.788809396290999,-0.28659541366626384,-1.3120448748888296,-0.06747162486050415,0.2460837502789917,-0.04708115833085234
1.7750000000000001,-9.636502284677062,-0.4726150618967686,-1.7418774509195907,-0.07123944921008422,0.23854810157983153,-0.04738880775990398
1.7775,-9.661876184677064,-0.4805296674340613,-1.7762105902660827,-0.06258373775641729,0.23447167027546587,-0.0564677090938933
1.78,-9.91347162701987,0.007231400529806198,-1.1485504619867462,-0.06355846913907291,0.257174,-0.06120397298013244
1.7825,-9.943866223894169,0.09833383791701852,-0.973016260435356,-0.06658944115935056,0.26039773736139504,-0.05745737991581485
1.7850000000000001,-9.777893801160449,-0.033048689827773044,-1.191386997443385,-0.06782990830462353,0.2614603195648204,-0.050999965929282534
1.7875,-9.621953386956521,-0.33100378168211575,-1.6243082903777692,-0.06760584012829658,0.24101313178902337,-0.04621354632929452
1.79,-9.591701,-0.492587,-1.819703,-0.069333,0.2369236410111658,-0.050396
1.7925,-9.591701,-0.492587,-1.819703,-0.069333,0.24521952098615446,-0.050396
1.795,-9.670929500647755,-0.4295493548252584,-1.3914951465129632,-0.05664297372369608,0.26068314016224475,-0.05566002720097555
1.7975,-9.773778209390672,-0.19020732588471162,-1.3165572987886522,-0.06260057387008258,0.2560923023897528,-0.0681617137346757
1.8,-10.038572809821204,0.19023539467680317,-1.1168826798964644,-0.06998915074832124,0.259007,-0.06716223509424778
1.8025,-9.627308086203383,0.025931908136882703,-2.014467468389286,-0.06390009765552951,0.259007,-0.052134709942561336
1.805,-9.586243844055735,-0.2626875199038876,-1.8217854148005912,-0.06240898468044201,0.25493314814031687,-0.04628546879384889
1.8075,-9.916079194291221,-0.4529579588082734,-1.2318963301937917,-0.06599997537081548,0.26647537827326656,-0.05513529571039602
1.81,-9.994809999714075,-0.3526145598801035,-1.2320817458612208,-0.06281082685727478,0.2545524975236333,-0.05611818347244651
1.8125,-9.761433336591178,-0.2525926592133492,-1.732821068081049,-0.06656200977353993,0.24511,-0.06247864143027414
1.815,-9.716605775246723,-0.049374381118478694,-1.8457868226193064,-0.06839420574016683,0.24511,-0.0692735138936828
1.8175000000000001,-10.11453653722843,0.2508794249050147,-0.9689086503476256,-0.06879701440076193,0.25684190766707193,-0.05471208080639138
1.82,-10.219346421721788,0.1056045714545707,-0.713184605316677,-0.06828823394042012,0.2490465254775383,-0.04403601361130192
1.8225,-10.007031843815911,-0.23109669986314396,-1.2543874503958174,-0.07161140879109086,0.246331,-0.044237311155239524
1.825,-9.868043359130715,-0.3480685010826266,-1.7879666159528729,-0.07829104569336111,0.23651706142334009,-0.05512376126412997
1.8275000000000001,-9.767745837691445,-0.5461702335710973,-1.8328762529151432,-0.06847473160324741,0.24454874290081235,-0.05206451031682838
1.83,-9.70363755548766,-0.4200904841736167,-1.5835532011416962,-0.05894031164564477,0.25310037410078784,-0.0558030823331559
1.8325,-9.93823431461361,-0.14058012332326442,-1.2168117736673154,-0.0656731295339611,0.26068635917332866,-0.06357907407117908
1.835,-10.178144,-0.055595,-0.905069,-0.069791,0.2568130449988093,-0.055894
1.8375000000000001,-10.178144,-0.055595,-0.905069,-0.069791,0.239903456165144,-0.055894
1.84,-9.945754079934563,-0.2749530237212809,-1.5674867944058481,-0.07056775479185413,0.23554587188353637,-0.05911219174286428
1.8425,-9.9905030819802,-0.2923651166951168,-1.1485148350972922,-0.06999098949812221,0.2623140191191537,-0.055233313608740106
1.845,-9.65364997652096,-0.4409592062979143,-1.4020404333026317,-0.0655400637182323,0.2546646863935898,-0.05474756215750751
1.8475000000000001,-9.5775584598505,-0.3243849937666621,-1.9005727030054698,-0.07214703932787217,0.2445143854380189,-0.06595064018896195
1.85,-9.579504253178646,-0.29365017527998016,-1.95214793936022,-0.0727863386350814,0.24898487804367148,-0.06724387341874102
1.8525,-9.971436463611319,0.08413965044235494,-1.2506099568092721,-0.06220595248730949,0.2639527069180568,-0.055373361131254364
1.855,-9.892872394362897,-0.2714743587046369,-0.8893984141578511,-0.06253102778844581,0.2658805735329537,-0.04724039773474362
1.8575,-9.953057585262814,-0.42346583384214376,-0.9995671497152125,-0.07360634516517461,0.2594952661415787,-0.0579249520455652
1.86,-9.54178762194568,-0.5212019614690651,-1.9303940656944252,-0.06447753363760593,0.2521232662744397,-0.061656899047958555
1.8625,-9.475479382207167,-0.4567563197361372,-2.0741867563558594,-0.0568644992333748,0.24650867676947755,-0.059467769976822925
1.865,-9.81888628711509,-0.03386265615292456,-1.251795398729908,-0.05482671599776051,0.25788202520035186,-0.06894287979524916
1.8675,-10.358840446980711,0.3200910790082292,-0.37042043159563887,-0.06174314107334223,0.2731229846884744,-0.06766224670559069
1.87,-9.924288129694245,-0.21220866347036632,-1.2007364556752838,-0.06814038174529284,0.24117574625227614,-0.04766225451710776
1.8725,-9.434664393303047,-0.524428507448041,-2.1734947837589726,-0.06713602242794757,0.238543,-0.053159293474235966
1.875,-9.506739878477307,-0.46657991947291366,-1.6434175856515374,-0.06439278477306003,0.2561343557833089,-0.06687355636896047
1.8775,-9.692129957577741,-0.35938382611537567,-1.1107422058518415,-0.05979747337745252,0.2680448281229865,-0.061715729239238765
1.8800000000000001,-9.655970976367295,-0.32000461481111436,-1.1323924309303317,-0.05953883920418851,0.2670044034699958,-0.06356031863068883
1.8825,-9.555022125632433,0.008125023735717163,-1.6241725200508428,-0.06954441997920795,0.25715239528243006,-0.07025282257132977
1.885,-9.743448049085742,0.15414972126953982,-1.421035364026527,-0.06476746648981524,0.2602795329606821,-0.06433790490762666
1.8875,-9.733549246597189,-0.0349019251539521,-1.2255503652455426,-0.05844587614084963,0.26318700091583763,-0.047523103758092836
1.8900000000000001,-9.457519413286247,-0.592682927569225,-1.7320540033897844,-0.07118941563277412,0.2562749682272689,-0.0502872419902101
1.8925,-9.345341724510067,-0.7757894912671587,-1.9025845552748624,-0.06861867517855703,0.2535763218650188,-0.0632663257106175
1.895,-9.427683359966805,-0.456687510016594,-1.9300044923974327,-0.061307483893763226,0.25761581559876684,-0.06802614306378947
1.8975,-9.758099352633522,-0.007611829788152086,-1.311971886203981,-0.060345867539535615,0.26474282130214216,-0.07347191169302375
1.9000000000000001,-9.990115240031614,0.2537124293438774,-0.8833521898498229,-0.0671500226719367,0.2807675556047428,-0.07731850997628371
1.9025,-9.861773682200786,0.3265548903335992,-1.2693657575462574,-0.06613708996679839,0.27557772609011844,-0.0611149023494066
1.905,-9.285763728076743,-0.7287516902526955,-2.2631473705896106,-0.06660202257370139,0.2549688015442208,-0.05085308449695855
1.9075,-9.445990788621485,-0.7996126514233668,-1.7322111291078643,-0.0599288967636135,0.2655116606601722,-0.05929127172191461
1.9100000000000001,-9.635810429432869,-0.6898788290964037,-1.1807412196017613,-0.055211096279161515,0.27932526713806927,-0.06164682311362301
1.9125,-9.600796108418216,-0.6618669588355118,-1.183212956548597,-0.056053154419399384,0.2787988085299336,-0.06312008031806537
1.915,-9.590919993777563,-0.17850843227339236,-1.9534156956712396,-0.05927894889514943,0.25870877204556586,-0.07679468386330232
1.9175,-9.706091245516903,0.03532580647231598,-1.955719249145027,-0.05898418138902499,0.2580222655879471,-0.07885420323615873
1.92,-9.623262131149458,0.052272049739988516,-1.7280575918347747,-0.052967968874847934,0.2769805334629406,-0.05707326549696279
1.9225,-9.597835878970521,-0.21344272428638972,-1.482718991183904,-0.054978,0.275348,-0.051924
1.925,-9.616372652581859,-0.39096088242735083,-1.5335918062765255,-0.0554103708269956,0.2751617993755503,-0.05226627882475395
1.9275,-9.594292199032903,-0.5696133510783757,-1.8959142271683598,-0.06464029086542307,0.2711869315827396,-0.05957298405572009
1.93,-9.617663740553994,-0.2897202801064626,-1.842454766493316,-0.05361102817950881,0.27441456748518184,-0.06981073093504256
1.9325,-10.053990718553068,0.05761052661737222,-1.061283970781326,-0.058904627434083874,0.28596731607395554,-0.07193646390353678
1.935,-10.222381,0.167384,-0.758608,-0.062308,0.28302039064085566,-0.069486
1.9375,-9.923976800071276,-0.07497426086956518,-1.422568652173913,-0.06224380898075552,0.2705885848182466,-0.06522954419101924
1.94,-9.520858367451966,-0.41136772029606156,-2.313906332453548,-0.06197323883464573,0.262825,-0.0596993580409448
1.9425000000000001,-9.590947003722837,-0.4784939229543338,-2.0804462527810914,-0.05945087688188965,0.262825,-0.06373431151496083
1.945,-10.19544001778666,-0.39358949571802554,-0.9732943096259982,-0.05107319327689714,0.27752457608126824,-0.06348437696167475
1.9475,-9.81626851271048,-0.46788070990303243,-1.6530054173495485,-0.05550991087578884,0.27616886753886405,-0.06841334587655844
1.95,-9.716221272027804,-0.08241991714217267,-2.0363821231390875,-0.05805784052372097,0.273444619445567,-0.07540977725693028
1.9525000000000001,-9.650098887920933,-0.22553175218157454,-2.0679289968228343,-0.058796,0.2781579369985363,-0.06464272546119959
1.955,-9.84912899693693,-0.19012661874155973,-1.4572300763100126,-0.052324710280083585,0.27828803609899916,-0.06011451289626807
1.9575,-10.052463901200996,-0.2321047220371914,-1.2473638882150897,-0.05685196142603348,0.2717450476276204,-0.06520453966599557
1.96,-9.784288095332656,-0.46674838836398264,-2.068544538584159,-0.06473876643990226,0.2700610944550549,-0.06949471293189168
1.9625000000000001,-9.381105616715313,-0.33317845871674767,-2.7240266007418867,-0.0570294033146551,0.26778618685186634,-0.07341228753847388
1.965,-9.706698576079457,0.10977281065719632,-1.7427736761536954,-0.05352638414338792,0.27547153538511276,-0.07406744634264482
1.9675,-10.112073181369292,0.19479500319715898,-0.9102613917551987,-0.06063766978847093,0.2920205129791702,-0.07122293208461164
1.97,-9.830419536469483,-0.15608467174168764,-1.7343226998161592,-0.05943689218006125,0.28686185337732756,-0.057410231440018805
1.9725000000000001,-9.445817280631607,-0.5825459431063169,-2.558682688025815,-0.06232997012176936,0.2684942682787326,-0.062064528242595916
1.975,-9.618235531232283,-0.4436038327135156,-2.201860247951432,-0.060476,0.266289353971006,-0.076053
1.9775,-9.951112971837382,-0.3107489560920246,-1.2689109845414301,-0.060476,0.2843320984273561,-0.076053
1.98,-9.87660078335562,-0.1466226203287993,-1.5243922865035764,-0.0668523685046802,0.2895304472429797,-0.0777933379784472
1.9825000000000002,-9.8337026178872,0.1383709831700007,-1.9006036714607322,-0.07566954575631296,0.27630468136553055,-0.08547723164320034
1.985,-9.737475348729015,0.03647656419029281,-2.128335273925455,-0.07210645460198375,0.281914,-0.07185907962502877
1.9875,-9.964197450464813,-0.08692217928287072,-1.6366963968127402,-0.06034693811420962,0.281914,-0.05859890597609538
1.99,-10.011169645537112,-0.1261036612777939,-1.5399810192734118,-0.059124931481365446,0.28962385191982465,-0.05741298375822105
1.9925,-10.216320108174125,-0.48781722650171355,-1.1895561480676566,-0.07078553665518292,0.2853604200626371,-0.07408823206388934
1.995,-9.678911336425871,-0.5023439833295269,-2.116592650426231,-0.06292530855224496,0.28611661287692586,-0.07504502776572168
1.9975,-9.661250050354294,-0.27537294748276,-2.050455232592769,-0.060333570138480855,0.2863083374018344,-0.08003740867334103
2.0,-9.974528772324971,0.13271962802905451,-1.6730570721479583,-0.06879191295855461,0.28696710626869315,-0.07802888799365196
2.0025,-10.049521509518403,0.11588468050540231,-1.7189709145064997,-0.06859670104376489,0.2884334357663431,-0.06796107350302165
2.005,-9.639511054007414,-0.5131871861442435,-2.1496810931543004,-0.0716738210221976,0.280387,-0.06354198033651907
2.0075,-9.88511672679673,-0.5537916537325197,-1.612419046319649,-0.07243256627537714,0.280387,-0.07302960929931213
2.0100000000000002,-9.735037202952228,-0.7313826350075366,-1.8020313722317125,-0.07225736941924163,0.283486675951378,-0.07482672850083491
2.0125,-9.477070179248413,-0.6133551470405891,-2.287087951267215,-0.06742310666560704,0.27903395590688773,-0.08258754046238237
2.015,-9.43066406513077,-0.09092828913202895,-2.4520776421626356,-0.06916656130916071,0.2827036837092899,-0.09264208562169036
2.0175,-9.720298487745877,0.11423040822718374,-1.5047296854163055,-0.06505586749237915,0.29464967789507496,-0.07992475805551062
2.02,-9.429945640877813,-0.20151657680385962,-1.8651317420482352,-0.060376535559485606,0.29573181097749185,-0.060546466739549915
2.0225,-9.402735768003216,-0.3577223703472647,-2.3801064653408286,-0.0706743273536976,0.2759083299742768,-0.07135927455948538
2.025,-9.547794703842367,-0.6467949352785133,-2.4810763252141106,-0.07471659645320237,0.27772462376657797,-0.07777890335733251
2.0275,-9.518341598660099,-0.6824242683289103,-2.0758523618583027,-0.0631874258522174,0.28561258540053003,-0.07256026099886351
2.0300000000000002,-9.378375948740342,-0.30004478316115735,-1.7871428275603478,-0.07017081712355308,0.295506,-0.08787400406370738
2.0325,-9.311818953527988,0.09778024479250214,-1.9852987676375635,-0.0798316838416996,0.295506,-0.0959888284652516
2.035,-9.456304056842148,0.18602055449389426,-2.383750965748923,-0.08044840331983631,0.2848262989473704,-0.09465709967610898
2.0375,-9.84126457157984,-0.2385917579954394,-1.765597412224752,-0.07022087248225253,0.298102,-0.06581333032126105
2.04,-9.962384781604086,-0.5746702997569632,-1.5156034079935357,-0.07296194148528226,0.2983571168241967,-0.06796476594112906
2.0425,-9.441706092636105,-0.7891603902148997,-2.229583903280799,-0.077142147722063,0.29721192540114616,-0.07908277898280797
2.045,-9.32880306150407,-0.7634658326022609,-2.654668986418324,-0.08094,0.2910804573410944,-0.08659
2.0475,-9.503452610542482,-0.4029794824711084,-2.361804191695785,-0.08094,0.2871034368428407,-0.08659
2.05,-9.777990605074741,-0.14858772319892927,-1.8221522118260498,-0.07151370412324502,0.29776662949705385,-0.08341390856366135
2.0525,-9.785878192125203,-0.07701083520173098,-1.6416705976359558,-0.07219356705437939,0.3049363440291461,-0.0775628724436642
2.055,-9.660034525257258,-0.32451814317119504,-2.217031228561733,-0.0822293409237602,0.29350591092376005,-0.07417135499999974
2.0575,-9.759717907857816,-0.43446413231992986,-2.11184932038587,-0.07717344389850306,0.28582857389850297,-0.07023919499999984
2.06,-9.737298022239367,-0.7505833207370058,-1.9092582387212633,-0.07272165911496067,0.29190313740157475,-0.07620050835590567
2.0625,-9.606994702755905,-0.6577917755905511,-2.072137594488189,-0.07499137204724408,0.29076786811023625,-0.08376594291338582
2.065,-9.511411323391423,-0.04664028738892079,-2.4109649632626815,-0.07968088964358622,0.29174596588789453,-0.09979319496938314
2.0675,-9.73827022238341,0.22204722856648246,-2.29286145620035,-0.07515582898100191,0.2904889588601037,-0.09061630279792786
2.07,-9.776723879893112,-0.030373120855185794,-1.873130959427752,-0.07235238931614511,0.30070491855368653,-0.06851474200911814
2.0725000000000002,-9.575201452601773,-0.43144725918569965,-2.0406566768684327,-0.07449207120264129,0.3008310246124823,-0.06750754198396469
2.075,-9.244876035517084,-0.8449011237248553,-2.6530614169396287,-0.07811463481516119,0.29100200945250276,-0.07874795484323924
2.0775,-9.439043870796645,-0.7360056356411803,-2.274919231534947,-0.07360435044041426,0.29122401551165833,-0.08637024229922297
2.08,-9.61493053705048,-0.5127835862060883,-1.946746874166083,-0.07064727226331705,0.29742465567806486,-0.08827
2.0825,-9.682732475882764,-0.29807734494068233,-1.8742063425819953,-0.07018201087229589,0.3032919493928821,-0.08827
2.085,-9.547808993612218,-0.26675414097636246,-2.1085522265940986,-0.075837143013565,0.3017062427812526,-0.09135308190723739
2.0875,-9.380566065534687,-0.235246814884395,-2.472036058020217,-0.07350628359826616,0.29533647875722574,-0.08327166712427797
2.09,-9.587140836768475,-0.41001626887354903,-2.2861407107389335,-0.06840077890311991,0.2945353871789815,-0.07732672520197034
2.0925000000000002,-9.536191923586202,-0.6596195409655421,-1.9809560234482455,-0.06787476910344822,0.30268724772413874,-0.07903647227586223
2.095,-9.437378433696509,-0.6837587021058367,-2.246390917219262,-0.06607054276050175,0.30548845723949825,-0.08359899828852038
2.0975,-9.605473366954424,-0.4913592571185244,-2.196698953016398,-0.0622205701495438,0.29689463809847944,-0.0897672371793317
2.1,-9.93211087488819,-0.225234168562291,-1.7453212368050948,-0.06253603591054317,0.30304616217252434,-0.09335720498402567
2.1025,-9.838679164334462,-0.14741091465697218,-1.9846147887228889,-0.06392161610413982,0.30782463581564445,-0.08247560029553158
2.105,-9.49415302211551,-0.3236780550287158,-2.501994030095721,-0.07035929759093805,0.3015269572590939,-0.0831433746426292
2.1075,-9.751892881075312,-0.4027867367676503,-2.098289334361005,-0.06834243257947524,0.29753389788777457,-0.08440568730104565
2.11,-9.815753777000209,-0.5746423474695882,-1.8635762122786548,-0.06518238649455958,0.30129239517815215,-0.07697482494986169
2.1125,-9.655589388902253,-0.8564012966370167,-2.2248655464328144,-0.06246493141964947,0.2972444179437911,-0.07800732531827971
2.115,-9.549212407719933,-0.5257447100475993,-2.3421653932962507,-0.07350130807240308,0.2979148424102895,-0.09941437439187026
2.1175,-9.79604649884727,-0.11717468040010087,-1.9460365896887648,-0.06358495580819244,0.3037629262464278,-0.09725328889171152
2.12,-9.522668117337512,-0.10575945641083072,-2.179615695187787,-0.06294557038651531,0.3059732855068594,-0.07667273390199932
2.1225,-9.43469871550921,-0.37408886278009196,-2.588497856335563,-0.06809267688279118,0.2906561016323007,-0.07918339725284207
2.125,-9.35171600135469,-0.4636022304566101,-2.7094328016575027,-0.07498113283927006,0.29312787018885966,-0.08623410733923022
2.1275,-9.423146846789384,-0.5455230138178324,-2.4297055800717247,-0.06936683517093008,0.2998910976524024,-0.08253413560602446
2.13,-9.546783179901263,-0.4714023258417037,-2.1397084177894543,-0.06688147857302089,0.3136456951966874,-0.0844320376142694
2.1325,-9.453941035101137,-0.2567657156298911,-2.206595008393052,-0.07376677694537302,0.31313551846790894,-0.09348579583054568
2.1350000000000002,-9.433018329918212,-0.2251706950773804,-2.4118744501606386,-0.0764599857322736,0.3073960156987345,-0.08965681449132036
2.1375,-9.44998496211827,-0.2760699746866762,-2.4476519003000905,-0.06995875283318577,0.30287347255074987,-0.08296678238305336
2.14,-9.677354262390205,-0.5090305200997873,-2.2930948332753722,-0.06542901959634133,0.3058220767344476,-0.08472330227530432
2.1425,-9.712892816729912,-0.6402828444175712,-2.144309436828176,-0.0644612130380225,0.3170790699705196,-0.08605492800665208
2.145,-9.24891164446073,-0.6751531819404164,-2.8499091944878123,-0.06461601554882904,0.309098,-0.09024050487812654
2.1475,-9.145053841714196,-0.5443325929456766,-2.8169543067388885,-0.061809567118050066,0.309098,-0.09623594738887996
2.15,-9.555061766477383,0.008652073858316265,-2.2680256571217585,-0.06459935527030318,0.31895954223648376,-0.0975603593680582
2.1525,-9.726806364000943,-0.12846379206118944,-1.9437389719840983,-0.07155867162676609,0.32773647168749276,-0.08704312220483494
2.1550000000000002,-9.583885736864275,-0.20354441102361143,-2.2722502021146114,-0.07562185649593034,0.3261547247718478,-0.0841283880753107
2.1575,-9.729218215285712,-0.35712290559238224,-2.287195621448657,-0.07627964116089785,0.3137792347776032,-0.08741989770944694
2.16,-9.435676,-0.712578,-2.518532,-0.069333,0.31204075319557883,-0.083994
2.1625,-9.435676,-0.712578,-2.518532,-0.069333,0.307808154252763,-0.083994
2.165,-9.495626513475965,-0.2175469072203306,-2.651925091156539,-0.06571176290202888,0.3144883866140366,-0.10611527092444928
2.1675,-9.822728087266121,0.18427946876766121,-1.988813145193026,-0.06444771020446832,0.32561320927449267,-0.10055244569353443
2.17,-9.811624498812643,-0.11034748922345052,-2.0367622270054384,-0.0655647457326048,0.32150786065067727,-0.08389174776537624
2.1725,-9.604386291909869,-0.42359670321888293,-2.6311755867811195,-0.07368711180257494,0.311008111802575,-0.08991499137339017
2.1750000000000003,-9.64822607993824,-0.44649569123719357,-2.5550206685741825,-0.07662775446268795,0.31422486873679123,-0.0976150067793848
2.1775,-9.820451832524807,-0.41235687970085877,-2.2462388174800583,-0.0668656499853674,0.3187815971516831,-0.09123678030564082
2.18,-9.690437990684122,-0.48208439856131924,-2.3898372169617677,-0.07221703781690296,0.3198643246378258,-0.09432200285714559
2.1825,-9.81357065388379,-0.13294072066812232,-2.3134872663578707,-0.08001593899425453,0.3167373319575907,-0.1070905116294496
2.185,-9.846620824026399,-0.01980702072607663,-2.2367051133993465,-0.0788227750495048,0.32084910072607253,-0.1033564731353132
2.1875,-9.665980966111245,-0.20851947049826933,-2.5465165697496577,-0.07199095170248733,0.31698161683973275,-0.08788822571037591
2.19,-9.590746161444537,-0.42645251363714437,-2.4017691986586476,-0.07479571645743767,0.319788,-0.09090703061049006
2.1925,-9.755381527610405,-0.47202167747361645,-2.119047109816318,-0.07429491137966077,0.319788,-0.09366104871414044
2.195,-9.683690790783755,-0.8353872420334477,-2.188507196422559,-0.07118206655683637,0.31717113139091707,-0.0919931370957854
2.1975000000000002,-9.556972955013181,-0.5305596401857404,-2.7469405116215566,-0.07601755206779362,0.30935412908890714,-0.10743427087470746
2.2,-9.722933815062014,-0.30367725251111516,-2.4630368150907063,-0.07885448555560895,0.31096411770958027,-0.11502436066452872
2.2025,-9.651388466875813,-0.23056971724583947,-2.1455271514980074,-0.07224164607352354,0.31658641285115596,-0.10433200026823031
2.205,-9.510040325685889,-0.32370981190108955,-2.4330936540015533,-0.069639,0.3133633301263395,-0.092393
2.2075,-9.607250057740256,-0.5271389554302153,-2.306982628352792,-0.069639,0.30339115324591337,-0.092393
2.21,-9.49860639141547,-0.607208883934839,-2.5515976029384753,-0.06970181042859408,0.30564777805155774,-0.10090916792661711
2.2125,-9.289924344741427,-0.7569050066107808,-2.7905155533291075,-0.06628311768148043,0.3108392491380672,-0.1004033705519532
2.215,-9.323881340593518,-0.6696314894678431,-2.718493196713364,-0.06789563087564199,0.316095641324504,-0.10208844153053556
2.2175000000000002,-9.646101,-0.112386,-2.177786,-0.078649,0.3112484901947449,-0.111177
2.22,-9.451547140491147,-0.13814890430791987,-2.5102595401627132,-0.08074807577099642,0.3127809179998393,-0.10834046132538801
2.2225,-9.173184224519392,-0.22819465224079194,-2.961583569416931,-0.08384743930664976,0.316428,-0.10250983109990522
2.225,-9.362743,-0.401722,-2.546628,-0.082161,0.31657619662902975,-0.098655
2.2275,-9.362743,-0.401722,-2.546628,-0.082161,0.3198518169595811,-0.098655
2.23,-9.350571526056179,-0.6124285747430904,-2.6196617585932853,-0.08237585266955925,0.3213181569490751,-0.1043380637497145
2.2325,-9.14207626625888,-0.32495734756546846,-2.9020455874724624,-0.08136136811842432,0.3226325785319305,-0.11399390418399771
2.235,-9.434881121453513,-0.0372996488221715,-2.4299658381546676,-0.08011845919898862,0.3222360195370885,-0.1109153196998187
2.2375000000000003,-9.397247853890509,-0.24527205404852517,-2.5299901646259686,-0.08479849269294623,0.31654377348921653,-0.10307274321826285
2.24,-9.29757420891268,-0.5429588600780493,-2.7353132452462745,-0.09428474453437162,0.3176328780302311,-0.1065895108727445
2.2425,-8.999590730461625,-0.7378988204671828,-3.0405327843946566,-0.08580436519756106,0.3210046588740197,-0.10620557832924236
2.245,-9.092716321657752,-0.6794388092223327,-2.9158039752911566,-0.08451741267595567,0.3212497233726334,-0.1105664093843042
2.2475,-9.50329245450519,-0.47638944069548217,-2.4749937137977756,-0.08365952091461235,0.3294502695105397,-0.11724098211265943
2.25,-9.726552318648928,-0.2171830595076874,-2.1285496819087073,-0.08473728096869275,0.330631,-0.12027706986377759
2.2525,-9.582834497062642,-0.2429877489848774,-2.4444475951187767,-0.08825422958963274,0.3321497003023758,-0.11110229740820766
2.255,-9.412550228255007,-0.4446858206141669,-3.012857630199102,-0.08615148830176525,0.3104149562440556,-0.10800817593616503
2.2575,-9.67122742826145,-0.5037980565841825,-2.5263215777641963,-0.08344109640041929,0.31544866193922755,-0.10878317729991129
2.2600000000000002,-9.40898238317925,-0.8312381224446668,-2.6999509433620186,-0.07568594150596335,0.33051327527680513,-0.10681767061532144
2.2625,-9.338312852987594,-0.8118967389900894,-2.7654127472616197,-0.07587570930991516,0.32899264408710605,-0.11460872779920545
2.265,-9.583418601009638,-0.3595020263775092,-2.568135424173432,-0.07929225776039807,0.3228472466832561,-0.12159001107714196
2.2675,-9.74261140539488,-0.29476315402124625,-2.375175989093935,-0.07815851189936507,0.32715171284400424,-0.11505854309381089
2.27,-9.602462,-0.417264,-2.538857,-0.077274,0.3340689528630705,-0.105069
2.2725,-9.602462,-0.417264,-2.538857,-0.077274,0.32422997649537194,-0.105069
2.275,-9.329688196661339,-0.9028970107348271,-3.0115502182268385,-0.08110874543131036,0.3206231470127794,-0.11381881961661339
2.2775,-9.39827863489776,-0.8247931741086307,-2.9780049989552735,-0.06831812828115089,0.3244598296453672,-0.11458598863897759
2.2800000000000002,-9.658959526408609,-0.6876604765391834,-2.4490907759677185,-0.06303042271827769,0.344986,-0.1190260054840498
2.2825,-9.619264205721521,-0.29269186969679495,-2.5979482285443005,-0.06467803085569554,0.344986,-0.11991330679331916
2.285,-9.593583591326484,-0.2609026479372661,-2.6516333638241965,-0.06570001218701527,0.3358701875427148,-0.11922189397949606
2.2875,-9.2995392969245,-0.5861037217614281,-3.1350524708760656,-0.07726643415657078,0.3299008942218078,-0.10740709077353174
2.29,-9.406816964499608,-0.8320555219041641,-3.0499856682922224,-0.0758623019450117,0.32374063468342507,-0.10987441285781616
2.2925,-9.431930071402986,-0.8768642303283579,-2.994835348179105,-0.07057906041791048,0.3305337268059701,-0.10861661588059703
2.295,-9.2904055350012,-0.9112234473181555,-2.8238953160816322,-0.07308943349819931,0.3330305820600238,-0.11990101443457349
2.2975,-9.285029,-0.4403665432088263,-2.857098284027404,-0.07027110002978867,0.33554892144891274,-0.12201158047065849
2.3000000000000003,-9.287393325511465,-0.2754164102653239,-2.894044594766144,-0.0670215020313746,0.3357548090363621,-0.11853050824839081
2.3025,-9.343584961674262,-0.42767407233139443,-2.9389060310648487,-0.07014683915853422,0.33413415155931453,-0.11181668071134186
2.305,-9.644233613734976,-0.6208545109193253,-2.7745264175557978,-0.0614996937318564,0.327729,-0.10630951409708157
2.3075,-9.62857943948806,-0.9075157463930199,-2.76376407047292,-0.07112214197908578,0.327729,-0.11030857052910896
2.31,-9.330935453440576,-0.8355588504552585,-3.225217282663583,-0.06488828221577225,0.32326014440335005,-0.11266022571025794
2.3125,-9.264250757290798,-0.5008067543149626,-3.3910259301273658,-0.07358890596357576,0.3261986392096179,-0.12354506534936317
2.315,-9.818964680148177,-0.17517509788286928,-2.4445555802569583,-0.06853774908173718,0.3281984204555843,-0.11289791010640826
2.3175,-10.047721531022296,-0.3135173735855541,-2.3328934352833657,-0.07017834446283591,0.336655131760069,-0.10721740025537976
2.32,-9.870649153987408,-0.6263884641894077,-2.7416255177824156,-0.06649010274769708,0.32517868307095615,-0.1043198168514629
2.3225000000000002,-9.73966781978419,-0.9125804495231706,-2.913345902554823,-0.0681050179371161,0.32690169084580667,-0.11294054043856723
2.325,-9.628741705309285,-0.7138106715051449,-2.7622310733561077,-0.05373937408670269,0.3334586162688749,-0.1116694234778367
2.3275,-9.557864222198416,-0.7309019156404195,-2.994332418858875,-0.05853221575221264,0.3289246745039587,-0.1149337891010717
2.33,-9.582793246981929,-0.5407247227036266,-3.042121108908145,-0.06340684166377819,0.32231364874473906,-0.12349236079227528
2.3325,-9.647976822639267,-0.08806821432697542,-3.024014848573079,-0.06420039138070481,0.3326220066815219,-0.12203939462573243
2.335,-9.440597175512645,-0.4361300527960777,-2.7304138092162353,-0.06043883609015364,0.3340798176194178,-0.10658760220242722
2.3375,-9.39487908638728,-0.47135611315836545,-2.860076277838221,-0.061013681664374944,0.32871877143540407,-0.1059174714294255
2.34,-9.747163133972489,-0.7931180571998193,-2.3872712343995963,-0.0691856441955393,0.32186520865685775,-0.11597325966777428
2.3425000000000002,-9.445693801499733,-0.6314746173896374,-2.810220941446016,-0.05854560865685703,0.3274382051320999,-0.1125534852270207
2.345,-9.045094172253814,-0.4984949204503809,-3.403656998684502,-0.060070082044682886,0.3245456974941913,-0.11773462588739961
2.3475,-9.243396542379516,-0.2266223091617361,-2.922651417263005,-0.06178741026869238,0.32588132781173673,-0.11964249070956222
2.35,-9.612127725870403,-0.14599266880563488,-2.455397668259181,-0.07202781861046069,0.329256,-0.11395498334113952
2.3525,-9.288187319512875,-0.5482259312693266,-2.692236688974242,-0.07552798330679161,0.329256,-0.10795411631850108
2.355,-9.02193804784201,-0.656700290081223,-3.415315299120883,-0.07825602033763343,0.32505847357859535,-0.11457112925306576
2.3575,-9.330415446663473,-0.6846531318967981,-2.897192004175839,-0.07098746317885035,0.3208501418060202,-0.11801377843924182
2.36,-9.25187228087463,-0.6987073585714375,-2.839708538571418,-0.07018097367346929,0.32743974291545186,-0.12093546151603482
2.3625000000000003,-9.333603124489805,-0.5184937611110919,-3.0503807722222445,-0.07225553730158751,0.327828670521542,-0.12430673356009107
2.365,-9.106850370238938,-0.3217328690172325,-3.436635214549806,-0.07461763727805053,0.327882,-0.12925217182465626
2.3675,-9.20910973492532,-0.18989510807710225,-3.114055768197545,-0.0684631990361439,0.32877013550361456,-0.11745473969638423
2.37,-9.316701570955374,-0.46380272190920746,-2.8142397660566587,-0.07243061337989942,0.33624920113620477,-0.10979377254481983
2.3725,-9.324971364755918,-0.7158027561816119,-2.9042398945533585,-0.07951470657353527,0.3336393577275902,-0.11613161491036102
2.375,-9.402329905633803,-0.7981524389671362,-3.144231168544601,-0.07972338497652581,0.329715,-0.12300602253521127
2.3775,-9.336114546535212,-0.6922077003129913,-3.0824300026228495,-0.07233084212832566,0.329715,-0.12413336480751172
2.38,-9.541406245168657,-0.475311289330164,-2.635403460826579,-0.07243542511163868,0.3386065519334916,-0.12743865292161524
2.3825,-9.287791991664308,-0.5289123690704637,-3.208145136608039,-0.07864800959936619,0.34190338114647645,-0.12604387249406185
2.3850000000000002,-9.324127368353057,-0.6723894961176845,-3.130284742628709,-0.07476217430124656,0.33709278511032975,-0.12531771082826978
2.3875,-9.350688834601856,-0.6698837448672847,-3.0345648771985863,-0.06784935235049519,0.3408057233130799,-0.12416585327790207
2.39,-9.646431806696548,-0.6068296633626923,-2.5723114708791255,-0.06748845460048072,0.34148968773418775,-0.1275625210728585
2.3925,-9.43664860457005,-0.6489867841313063,-3.019982062622911,-0.07415518159487608,0.3487978175020018,-0.13204982188951173
2.395,-8.965376418874552,-0.5293426989223413,-3.4503534096248503,-0.07435318551971325,0.339183,-0.12943314420788532
