time,acc_x_g,acc_y_g,acc_z_g,gyro_x_rad_s,gyro_y_rad_s,gyro_z_rad_s
0.0,-5.362266,-3.977164,7.403156,-0.008399,-0.002749,-0.002596
0.0025,-4.45419273034565,-4.839394370250298,7.0573325233373065,-0.0020495481287246707,0.007258831275327774,-0.0027823032657926104
0.005,-3.6252609771374047,-5.580800555076336,7.589631132900763,0.07358752427480916,0.09342664454198474,-0.07149596916030534
0.0075,-3.650585038752784,-5.557672085879733,6.381604892917595,0.12511018209354122,0.19459896899777282,-0.13331169585746103
0.01,-3.9398301052049565,-4.90663837006673,6.110573748408007,0.16706045605338418,0.32940522345090567,-0.14676131641563392
0.0125,-4.0967631908396935,-5.175238582442748,5.969760416030533,0.22887217709923666,0.42315210534351144,-0.1367831610687023
0.015,-4.584031174371826,-5.422844197277345,6.537646907714189,0.27364001355909245,0.5039645991872671,-0.1500210298137487
0.0175,-4.989561615403729,-5.225976501614908,6.497520693788822,0.34869401739130435,0.5896434698136648,-0.16458912062111797
0.02,-6.271415996530028,-4.935910994356529,7.164164363431837,0.40847269609151576,0.678519,-0.16318327980934222
0.0225,-6.020486471999999,-4.868210264,6.785613744,0.443702008,0.711125376,-0.156112872
0.025,-6.430198978646331,-5.110984652812201,6.423024389513822,0.48502413841754066,0.763922740705434,-0.14920304613918023
0.0275,-6.819229268511749,-5.077609950496083,6.930632535456919,0.5515633089295039,0.8012716379112271,-0.15620509932114882
0.03,-6.806126305540445,-4.802845445411595,6.6302781376377995,0.6006157342018611,0.8611525405583392,-0.13466046840372228
0.0325,-5.872301174122136,-5.531746520076337,5.4386492313740415,0.6777157362213742,0.9008892332824427,-0.1346368177480916
0.035,-6.293535083469962,-3.81688495588179,5.857943152755,0.7312799733841755,0.9883444230314589,-0.12381385906577676
0.0375,-7.934231797521451,-5.014928550810295,6.393374519542424,0.7876496076263108,1.0216637729265967,-0.11966388045757866
0.04,-6.002297906387033,-3.638022583107723,4.886512667416581,0.8195669077597713,1.0736129792564346,-0.09502054612011436
0.0425,-7.625117848244291,-3.459329438473286,6.311223933435126,0.8801969749618322,1.115778589923664,-0.08590543725190813
0.045,-6.389826555386092,-3.9386378963584328,5.598764425395622,0.931111,1.2168711399046712,-0.029771218188751267
0.0475,-8.472252134833177,-3.252528762059105,6.190093533612965,0.9187027365872259,1.206917,-0.006949830085795987
0.05,-7.378047,-1.716882,4.941415,0.981508,1.2793657530981883,0.001222
0.0525,-7.885306733282446,-2.3045725090076306,4.7358178335878,0.9745569705343511,1.2744484778625957,0.015626908854961815
0.055,-8.435583300438513,-2.7389276392754995,4.062062542421357,0.9781207264823641,1.3290435583603433,0.04396232949475691
0.0575,-7.374819456488549,-2.6107341891603095,3.618513494656481,0.9540098896183207,1.3510138027480916,0.10067429099236644
0.06,-7.996505595347945,-1.0488418386653953,4.738848275271684,0.9615865290753095,1.407613415519542,0.11635320213536662
0.0625,-7.909085337786259,-1.4989352614503817,3.138989570610687,0.9493778263358779,1.394453,0.124579893129771
0.065,-8.025222741984724,-0.9676830458015241,2.851325744122126,0.9751657282442748,1.3609984210687023,0.1444696503816794
0.0675,-8.731995516228952,-2.0506938729517326,4.084660853512905,0.9807051332884398,1.428521914657688,0.2171586558922555
0.07,-8.952068023298397,-0.8300791796759013,3.494168026234542,0.9478022503717828,1.4108060974642525,0.24466825773117304
0.0725,-9.01229775632224,-1.9356479009970908,2.938707007521395,0.9576027350780905,1.3671241741851232,0.20382916824494846
0.075,-9.255642416015244,-0.6467941872259391,3.6607809109628073,0.9566375363203049,1.3750630234509054,0.2423078087702574
0.0775,-9.805914091650214,-1.509287011537377,3.5682144534555738,0.91424313977433,1.2893759537658676,0.2810123201692524
0.08,-8.764862632716872,-0.03445145166825733,1.1321498925834028,0.8896969328503338,1.2365561594280268,0.30115951172545297
0.0825,-9.504815860896088,0.12032932163965859,2.329127291477597,0.8793843703717825,1.1824957521830322,0.27000713822688277
0.085,-10.0017484906387,0.7736597935557802,2.435614291973316,0.850880409647283,1.192267475843661,0.2715632575023828
0.08750000000000001,-10.357811718511476,-0.32865678167939955,2.6983617242366624,0.7936093713740449,1.073016424236641,0.2827255309160293
0.09,-10.107644107938933,1.095047115534351,1.5572714414885591,0.738842,1.035264,0.28846031076335876
0.0925,-10.785688196335881,1.8458636641221409,2.8146474332824463,0.6835240925190841,0.9861779654961833,0.24420173984732815
0.095,-8.324564131325072,0.43801547466158297,0.7736230533079159,0.6473130440038132,0.9528894702001907,0.22694566409914202
0.0975,-10.405218724003822,1.5461799502383258,1.9694422690943962,0.5774548356911343,0.876667714470925,0.18915603389895141
0.1,-10.736266749094385,0.6434412055290762,2.7906466238322514,0.5436140402287892,0.8061136224976169,0.158908379027645
0.10250000000000001,-10.219064107220095,1.4427476507335861,1.1835572906950016,0.4821569839768339,0.752128,0.11575499907335915
0.105,-9.380696410562436,0.7607016796568132,0.5067791657578657,0.446513020171592,0.6935793367778841,0.09000189517635866
0.1075,-10.470702747310547,0.9177955445170866,1.4781475054977709,0.3987380598216939,0.6434741163744429,0.04458083396731043
0.11,-10.544660919666269,1.2532557549463652,0.4080688155423089,0.3552070010965435,0.5975133283909416,0.031220391227651956
0.1125,-11.365626824976172,0.9100213689227796,1.295823019256441,0.3007663857006672,0.4628600913250713,-0.019912653574833197
0.115,-11.194452475386091,0.4834010815633952,0.5614964956339438,0.2613417977502383,0.357466136892278,-0.05378109807435667
0.11750000000000001,-11.072655815833338,0.41026889951149176,0.45383640890805654,0.23233933833333323,0.261025481149425,-0.08143195212643682
0.12,-11.420454709236635,0.46331804496183093,1.1437697831297597,0.21336664137404582,0.17735451229007634,-0.09343028893129753
0.1225,-11.15651518512515,1.390706344648393,0.298150689296786,0.11429179728247928,0.09382384185935669,-0.04263284948748519
0.125,-10.767945339690108,0.6963901740166866,-0.2521885482717521,0.003996849821215733,0.0164930357568534,-0.004367163289630513
0.1275,-10.205618114851015,0.14287690970202405,0.7935227082717548,-0.011130418116805724,-0.017487746889153825,-0.0038591804529201214
0.13,-9.553673298320614,-0.05848074015267329,0.122516856488556,-0.015889093740457976,-0.012207160152671873,-0.003973212824427283
0.1325,-9.89114336572109,-0.010585302407625202,0.25605236309891516,-0.00041184853396899037,0.0037305470798570184,0.0022828146364720207
0.135,-9.753101552991655,-0.028217130011921342,0.15473166855780693,-0.009198722479142031,0.0003301583790226392,0.002749
0.1375,-10.024598835756859,0.02922211990465227,0.3261258205006043,-0.007759442669845138,-0.004809883432658061,-0.001412441716329031
0.14,-10.018933681620988,-0.08549614703217791,0.49635929077474195,-0.009457761096543322,-0.01241722212157323,-0.0017262221215732303
0.14250000000000002,-9.940872089010732,-0.08396494092967256,0.4082361812157325,-0.005124049439809356,-0.008858,-0.001231894445768737
0.145,-9.950898373301555,0.008804411871275416,0.3072967351609117,-0.008468937687723527,-0.0022349362574492914,0.001235532586412472
0.1475,-9.968744114231239,-0.001843276042909965,0.29537005868892713,-0.010079801716328916,-0.004447496162097753,-0.0016243660548270265
0.15,-9.853025979737785,-0.050348683671035906,0.2448043659118028,-0.007668316567342049,-0.0026100512514897374,-1.0760429082232299e-05
0.1525,-10.015761054827177,-0.043042,0.43994095642431846,-0.007876719952324206,-0.008038812872467339,0.0004817955184743946
0.155,-9.966483811966627,-0.0549589308700831,0.40655659499403973,-0.007159807771156137,-0.00583798831942788,-0.0011584461025029738
0.1575,-9.875029869797379,-0.02655773821215752,0.25613505406436315,-0.007922065649582841,-0.006796699547079883,-0.0012608687008343164
0.16,-10.01481809663886,-0.07886806235995181,0.4541752629797422,-0.008068452777115629,-0.008367899880810582,-0.0012848237425506631
0.1625,-10.007610500857963,-0.10443471916112296,0.40462357292659235,-0.008136622306958911,-0.003704036606292274,0.013605012202097425
0.165,-9.809706675995246,-0.3461557257687717,0.1693864795232599,-0.005833641239570971,0.0015172380452919965,0.005156664028605063
0.1675,-9.904874892205008,-0.36190411022646046,0.21315400143027807,-0.008610181883194363,0.005323454350416911,0.0010278708939208542
0.17,-9.924101380691312,-0.032189142026224395,0.1906492893921524,-0.008357194564958433,0.002047961382598313,0.0009136385220499012
0.17250000000000001,-10.06217,0.092061,0.252869,-0.007178,-0.004427024076281816,-0.002596
0.17500000000000002,-9.89220881487841,0.06191782250834269,0.24571097062471883,-0.009005517978063876,-0.007549224988078074,-0.001922793991416141
0.1775,-10.107112914515529,-0.039782685828799444,0.49220499051855954,-0.008066437540114319,-0.005192,0.00116636704634667
0.18,-10.027256228181384,-0.10293014857279219,0.37054023811933223,-0.008674427952267298,-0.004938961422434368,-0.0008652576610978409
0.1825,-9.942481604257676,-0.12009662922576778,0.25057102480915106,-0.009869494107164358,-0.006762465372667056,-0.004334425468994579
0.185,-9.985406748703197,-0.038653283436254265,0.3362254699601343,-0.009520762398186508,-0.010385,-0.004559113227546315
0.1875,-10.012218693540726,0.02208045701733555,0.414975425670862,-0.007533566373782949,-0.008375412609831394,-0.0032848462360484444
0.19,-9.80586936677058,0.033724363166098364,0.18410238454943983,-0.010088797067705796,-0.0027363997661958143,0.0001271057476863142
0.1925,-9.768212396067543,0.005226897057963899,0.15204241595713586,-0.010219039094008767,-0.00663685051469395,0.0018168470693294394
0.195,-9.844335349082044,-0.07513000652556502,0.255233711464923,-0.007917462518430432,-0.009511317367419746,0.003528212111771705
0.1975,-9.96942281398678,-0.15221817450649666,0.41162383719170365,-0.007948177533622086,-0.010372172537041245,0.0004066901481649815
0.2,-9.977140053594452,-0.07064327094027445,0.41532950804038427,-0.00887578664396059,-0.007190494003162618,-0.002486073032477806
0.2025,-9.922746848498237,0.025748506810811277,0.3381475372596935,-0.008485173978848405,-0.004748175341950642,-0.002834792009400696
0.20500000000000002,-9.858213212473085,0.05633197659096251,0.24959184717642438,-0.007636,-0.00634599236149315,-0.001985
0.20750000000000002,-9.914330226796164,0.0036101277271103696,0.33320183438114614,-0.007095757057917788,-0.009316,-0.0012285891223498568
0.21,-10.021563269377554,-0.09375178061042995,0.4783560895105343,-0.006600983869262193,-0.007408101866538504,0.00033754431787230514
0.2125,-9.95446557569494,-0.12195812881919713,0.3895604248039921,-0.007550113875029696,-0.003810781563316708,6.0895438346404685e-05
0.215,-9.783922165820991,-0.03161885038225141,0.18298616357314273,-0.007118654636773402,-0.008051586662764152,-0.0014503329040566634
0.2175,-9.86684947059884,0.002138999100860489,0.28939793698062394,-0.006462489007785518,-0.007582633865246151,-0.0022943251770766258
0.22,-9.930711817237194,0.018920946543659462,0.39726718442987785,-0.006168497107712228,-0.006134577848992472,-0.0019720147446791285
0.2225,-9.91090151728398,-0.0011588408364380104,0.3948867785170048,-0.007567578084364866,-0.004276,-0.0004917071313544032
0.225,-9.821257,-0.033477,0.248685,-0.009927,-0.003714492145929582,0.0
0.2275,-9.854333972534562,-0.02282108425903457,0.2975235925976236,-0.008452365345622104,-0.004603158738782458,0.0001132620422022811
0.23,-9.990744606364945,-0.05633912509723885,0.5121075213853535,-0.005869759603841534,-0.007147760060023997,0.0009447258919567839
0.2325,-9.915869608352942,-0.0458036427058823,0.3480607643529404,-0.005004338235294114,-0.003783631176470572,0.0012329898823529425
0.23500000000000001,-9.827427929189318,-0.04575494991151859,0.20706526684416032,-0.004907211252291753,-0.0012904485133519235,0.0005264485133519236
0.23750000000000002,-9.773321521803084,-0.06195862709371312,0.19194196526690532,-0.006181229371293019,-0.002303415848161374,0.00034491421115067267
0.24,-9.87883283528741,-0.03874896207125901,0.35307951098337237,-0.0063270701971496444,-0.002815070197149644,-8.330208551068615e-05
0.2425,-9.968011006971308,-0.010509610669500607,0.44562275485653574,-0.0057976687778958595,-0.002749,2.6507332624861623e-05
0.245,-9.908541775477229,-0.010034619954059357,0.32504749205544586,-0.00611551097663366,-0.00034484352950495904,0.0009426398891089114
0.2475,-9.794154739395829,-0.026855174989211226,0.21322668397027084,-0.007466281956365381,0.0006208806233517217,0.00019777910333253592
0.25,-9.861383057988165,-0.029135534911242603,0.3205980887573964,-0.008628518343195266,-0.0040798994082840235,-0.0001329088757396449
0.2525,-9.97801086645496,-0.03942136097343015,0.4339092225676215,-0.010207606829968881,-0.0048498180579270725,0.000467030501875049
0.255,-10.01521931906419,-0.04163848423230658,0.4509731183823179,-0.008561549325182221,-0.003837609367505274,-0.0006552153303550471
0.2575,-9.848931101085633,-0.015672669321478563,0.202375469012634,-0.006418930379036022,0.00205046556855404,-0.0016056167711745388
0.26,-9.860835015554212,-0.005978820669648241,0.2927618638607523,-0.005956,-0.0008649512438051597,-0.001374
0.2625,-9.941546994122527,-0.025757807441640336,0.43664120386301775,-0.00680567079037802,-0.0033548363313188833,-0.001374
0.265,-9.983123349633985,-0.07246573711446831,0.46199088973334623,-0.00812681017540302,-0.0031210682307614207,-0.0008129392030822204
0.2675,-9.900502939032748,-0.09089635004765297,0.3358348538659629,-0.007883350879042886,-0.0010915320004055437,0.00032355856027578545
0.27,-9.841957029265055,-0.07422072223170528,0.19928902913229107,-0.00675405394657816,0.0011145358116010423,-0.0008819460534218403
0.2725,-9.954663185074116,-0.04177654728408611,0.3564370768835005,-0.00623930136959449,-0.002587075643758435,0.00017469863040551028
0.275,-10.013825105690158,-0.011120383979165153,0.4136218169678784,-0.005336045805382377,-0.0007295745245047289,0.0007574472259490039
0.2775,-9.922251566922984,-0.03804134214022194,0.2962254759861908,-0.006640535279133459,0.0023313672086656165,-0.00019109751220092473
0.28,-9.893782376762687,-0.09236604288848609,0.2615833982069299,-0.007851644009154763,0.0003041062646988958,0.0011329498760950444
0.28250000000000003,-9.956971969711585,-0.11787381756973946,0.34546656074704646,-0.007941,-0.002373214439716358,0.0016527078581559846
0.28500000000000003,-10.005604569875059,-0.08535738152775554,0.37299352643997996,-0.007024232199905085,-0.002533812766091996,-0.0015280242922663606
0.28750000000000003,-9.947571248609254,-0.050976046908780825,0.2484071941698014,-0.005327727705575109,0.0008972545852059073,-0.0024984105915218826
0.29,-9.885422945079391,-0.018872939792052828,0.17870979246554286,-0.005495619108567731,0.000525749422100451,-0.000916
0.2925,-9.937016591304348,-0.022716,0.32161436589791886,-0.00703390102079394,-0.0016439162948960276,-0.00021603054820417496
0.295,-10.020233897373993,-0.025942982537525635,0.41582406179175263,-0.005886525220413991,-0.00024774275240956305,0.0011061644367198586
0.2975,-9.964680795966858,-0.04145869888201637,0.3163583927506137,-0.0044711060473800685,0.001875249830785391,0.001539165008752477
0.3,-9.883615319822486,-0.06638014449375405,0.24903485011505555,-0.00672,0.0007385586620644401,0.0020212060815253106
0.3025,-9.932955422762024,-0.08414563183101814,0.323776506389622,-0.00520747340603836,-0.0017742475995867163,0.001825548602915859
0.305,-9.97365391497688,-0.056469089011114054,0.3274438176523081,-0.002054932538330498,-0.002781716527946788,5.9710232822265735e-05
0.3075,-9.933146663418267,0.02949722781617206,0.2185004511832464,-0.002166823730075619,-0.0003137950715532355,-0.0006809562117510219
0.31,-9.990565082472553,0.02457362455369933,0.3311603074176609,-0.0028278559713603812,-0.0019794257279236263,0.0005190692505966565
0.3125,-10.113738977804296,-0.02878446237072394,0.5066954334128878,-0.003719604375497216,-0.003635291567223548,0.002939886714399364
0.315,-10.106576028773109,-0.056764810672268934,0.46581118541176464,-0.003818,-0.0027065000840336122,0.001924155512605041
0.3175,-10.027406640392156,-0.0528116136470587,0.3327629343529407,-0.005095817098039223,-0.001833,0.0011939761568627468
0.32,-9.903933274439993,0.002071987691075248,0.18863991517064577,-0.006539581333119687,-0.001042183137317733,0.001558152084601826
0.3225,-9.924890093155955,0.01615574481166838,0.24685738174066418,-0.005745415707645461,-0.0009026197435486591,0.0015560938099054358
0.325,-10.057598368953155,-0.026296689890057474,0.4027831032504779,-0.0073654856118547,-0.004293951171128108,0.002191736185468454
0.3275,-9.925495259166283,-0.06121287693999114,0.21445305957855856,-0.007216482345396195,-0.004211761026110853,0.002379470957398072
0.33,-9.849029957443902,-0.06411667180731705,0.1694612177707319,-0.00739633187804879,-0.004123,0.00134658185365853
0.3325,-9.925015751107052,-0.052398197833885336,0.29101218164286763,-0.008399,-0.005737591806237898,0.000611
0.335,-10.109719826592288,-0.02851974621392174,0.4827064466262434,-0.007777059529468823,-0.006035463293718127,0.0016060232937181828
0.3375,-10.122866050042395,-0.012893350204270366,0.4623909529021799,-0.006649259415709544,-0.0027817792646265375,0.003054
0.34,-10.01040602543174,-0.008946380684997677,0.29000602010612525,-0.005980547129763631,-0.0034214080656054125,0.003041766676314518
0.3425,-9.93138831950781,-0.03132722898248996,0.2639793433790843,-0.005950921211547551,-0.003967960605773775,0.002126464514907684
0.34500000000000003,-10.051894214094597,-0.05794158469445103,0.41975972111137966,-0.005044695790572545,-0.005105595454910499,0.0010311900521962683
0.34750000000000003,-10.027337461651069,-0.04975247789648222,0.3851527074120534,-0.004528293464408383,-0.0065886409664810755,0.0017330532891152459
0.35000000000000003,-9.730979560488068,-0.021394951265027898,0.062437861474969936,-0.005415911107123645,-0.0053125999641127075,0.0008278060649560496
0.3525,-9.811588644495483,-0.027768943661702204,0.16291777113463646,-0.006373609266104424,-0.006941376728273209,0.0016895462551587946
0.355,-9.960896523458025,-0.012869014607740432,0.34248392334491207,-0.005941139878807479,-0.009526388859982199,0.0005867019019148653
0.3575,-10.122844842223007,0.0325215107547388,0.5037196780831278,-0.004919779295890727,-0.009187407921818026,-0.0013977454939361888
0.36,-10.044003140656429,0.039934528095423985,0.3606002802151722,-0.005192421442270215,-0.005436718553052143,-6.427067904637464e-08
0.3625,-9.909520013528425,0.002588918061885351,0.24842464926840904,-0.004121165459342779,-0.007178,0.0004547481890141674
0.365,-9.999108773668304,0.01230096338612776,0.3933402028909516,-0.005843204405607129,-0.008697041449117052,-0.00042217085017294564
0.3675,-10.065459795976507,0.0069063558902685025,0.47754760108244754,-0.006917660994721587,-0.00964421479146532,-0.00012784898669244505
0.37,-10.037377489089081,-0.03770042910025707,0.4153103922655644,-0.0050727202190678404,-0.008586679731753675,0.001964873356432326
0.3725,-9.828714300626258,-0.026732139971272696,0.16167279680551563,-0.0069140695317437524,-0.0021189521057167447,0.0007269424418270614
0.375,-9.991263815252093,0.023615346726100838,0.38121863116679716,-0.008191817601349316,-0.010757036744774412,-0.0001437929040419252
0.3775,-10.050166866200831,0.033055120426480344,0.4295500198590447,-0.007612609004276851,-0.008248817182097462,-4.715286549003065e-05
0.38,-10.02675913644164,0.02424439888328071,0.3873138805552048,-0.007588736334384859,-0.005602161892744474,0.00045268271924290383
0.3825,-9.907106820805243,-0.028679898754681948,0.25038288838014944,-0.008338281638576783,-0.003665,0.0008419288295880131
0.385,-9.824843,-0.087279,0.170373,-0.00901,-0.003542994277673545,0.000458
0.3875,-9.905045240506627,-0.06717915939955402,0.2752069068840172,-0.007751452515538856,-0.00532330770493729,0.00035746124076462834
0.39,-10.081081013333334,-0.026303,0.5065081333333336,-0.004471413333333325,-0.009435966666666667,0.0002729666666666681
0.3925,-10.033746433664403,-0.05147768436822727,0.4444288077265672,-0.00307527920924139,-0.007401370379897536,-0.0003957897010837382
0.395,-9.85723039103547,-0.1154377822999844,0.25570987707968773,-0.001962310787338944,-0.004362182630825523,-0.001135817369174477
0.3975,-9.768052,-0.145863,0.203252,-0.001069,-0.005743641601334456,-0.000153
0.4,-9.861922736985441,-0.09966487929161665,0.29564865248327593,-0.001069,-0.005786301440377793,-0.0006549122077922168
0.4025,-9.955207759415387,-0.044320148979345705,0.3950616819954089,-0.001013496427104721,-0.004499200526633638,-0.0005432602488222932
0.405,-9.84291889263724,-0.03577339341243415,0.29576900224647906,-0.0005384909096661839,-0.003440490909666184,0.00022362524916942031
0.40750000000000003,-9.809716408405345,0.0009502765531350498,0.2485935204332656,-0.0007295645444698808,-0.002902,-0.0008760993380671606
0.41000000000000003,-9.874638528345645,0.010320246071003444,0.2794405384099756,-0.0028100378079580855,-0.003853327583194369,-0.0007516138543403939
0.41250000000000003,-9.94298413881386,0.024184997980034977,0.3362464833587805,-0.003914841902524954,-0.003846774985319963,0.00031127088667060884
0.41500000000000004,-9.984320697224199,0.010974144085409154,0.4093770092811388,-0.005172139786476908,-0.001527,0.00014318365836295342
0.4175,-9.918026851824267,0.004695934521114794,0.36094789686260315,-0.007396383609589869,-0.0011996032956066774,0.0005034786759157287
0.42,-9.855722391348815,-0.03216170608804399,0.28476353180076613,-0.007975425947298458,-0.0006732776636171702,0.0032477596090390326
0.4225,-9.907422151684363,-0.09296341452702683,0.3648726505019293,-0.008086609372586876,-0.0012451718822393731,0.0011526384700772272
0.425,-10.019539267322907,-0.09513966169454685,0.4387580315236433,-0.006728667093423516,-0.0012608146023310642,0.0003921270970469188
0.4275,-9.92452405923546,-0.07621222849205876,0.31232290437828414,-0.006824919012017633,-3.840533848667059e-06,0.0013597121734404216
0.43,-9.851959233329072,-0.08050966771245999,0.21952967855591068,-0.005826755035143775,-0.0010225428881789052,0.0015061202811501614
0.4325,-9.859746121945246,-0.09657220360401989,0.2570683475938542,-0.003960007212660277,-0.003324056301259096,0.000951943698740904
0.435,-9.988773029807463,-0.06812567508438322,0.43673381691466595,-0.003393931932493463,-0.003263029522224864,-0.0006698250629902518
0.4375,-10.056782846163,-0.006585430458060683,0.47210952409280194,-0.0034457524092801903,-0.001422168471148126,-0.001598219274241523
0.44,-9.969013091051462,0.02882238447903429,0.33183623906289694,-0.0037339997458703954,0.0007273811372299863,0.00033454766518424377
0.4425,-9.891797,0.014945,0.234338,-0.004734,-0.0013192411892152226,0.000153
0.445,-10.046612460892577,-0.04664345859693085,0.424982394910742,-0.0019904242687128052,-0.0029856766583150583,0.0018698738051988735
0.4475,-10.02207207159098,-0.07118302690259952,0.3390939058409017,-0.00048553873160037033,-0.0007287588506107029,0.002245889940494834
0.45,-9.91748523561051,-0.12066830565687789,0.2341250084080376,-0.0017834349922720145,0.0005512165687789694,0.0006333635239567244
0.4525,-9.983366439146831,-0.11969914267697063,0.3440885414652247,0.0004441812550231958,-0.0018003812302936758,0.0008805162905718715
0.455,-10.047712476895788,-0.05640571707317027,0.46105449324464226,0.000764,-0.002306699039172211,0.000916
0.4575,-10.058226732330334,0.02642276173344309,0.4724303248405544,0.0004180143254292643,-0.001521251905151246,0.00028213311529025527
0.46,-9.93217232454782,0.05607068130883823,0.27416556659465297,-0.0008358140976109864,0.00031051783962785336,0.0012844422928329595
0.4625,-9.864091941639424,0.011370117835088636,0.1979037805061159,-0.00155940678048189,-0.001368881172054795,0.00372917166727205
0.465,-9.991605219858092,-0.020553196163882122,0.3636722010345634,-0.0014313158434424425,-0.005010842078278779,0.0026279643579766514
0.4675,-10.071439574119328,-0.018369408574490022,0.4716411224484924,-0.0029175153745385663,-0.003708385709181806,0.002443
0.47000000000000003,-9.9279097251982,0.014854778991417749,0.2923889029701644,-0.0056205819991826875,-9.687168614626838e-05,0.0027334811050265706
0.47250000000000003,-9.765089432827347,-0.019986202413921454,0.1166338400296196,-0.006676256472911272,7.032508947294835e-05,0.003207
0.47500000000000003,-9.88381163098592,-0.06082370474178439,0.2758698151173741,-0.0052301347417839945,-0.0036755524413145625,0.0032702759154929597
0.47750000000000004,-10.097888764612925,-0.08494681370092332,0.46419560107323155,-0.002170868460307656,-0.004123,0.0024602590719999553
0.48,-10.075597558375087,-0.0880779355060511,0.4016226488861494,-0.0005381106359361804,-0.0035561659539042707,0.00028604687890234433
0.4825,-9.927921434204588,-0.08215776104841642,0.22765991075355035,0.0007963817352262894,-0.00354538173522629,0.0003445885596407986
0.485,-9.857722,-0.084888,0.141081,0.002291,-0.007263975903080188,0.002138
0.4875,-9.947752639095315,-0.060334189337641744,0.2607808269789965,0.0005135390491576557,-0.009962311585506586,0.0014062049849988575
0.49,-10.075213949205777,0.023937619287823796,0.3952534685100106,-0.0018822151197899653,-0.007538601772234995,0.0007197788546110872
0.4925,-9.90914632901133,0.08877584901610011,0.1450385171138948,-0.0014844263613595597,-0.005498,0.002226142120453187
0.495,-9.75976818063439,0.0902921884474124,-0.0076793855091820545,-0.003071407813021704,-0.005875532687813021,0.003908891218697827
0.4975,-9.874754304654147,0.048691788335471914,0.14900195416773554,-0.002608505559314125,-0.007790688944360196,0.004849565057739416
0.5,-10.06401017140808,-0.03622209490796079,0.41699116925651447,-0.003449891943581162,-0.007309112120487689,0.004214241692565145
0.5025000000000001,-9.992429027091122,-0.11034378190036569,0.33417675500363225,-0.004276,-0.0013740911591736285,0.0028351247436207553
0.505,-9.94781300550593,-0.07984656586465272,0.25497989357484213,-0.0030173598253584255,-0.0020220907900171128,0.0012990896784471043
0.5075000000000001,-10.035642357292273,-0.03273255932664597,0.3275000835243632,-0.002764060348615162,-0.00528712497134691,0.0009224881184336484
0.51,-10.198236006369427,-0.025807589299363262,0.4778919092993629,-0.003665589044585983,-0.009193672356687894,0.0020766496815286667
0.5125,-10.104225110463126,-0.05187960137221358,0.38097279519725996,-0.0018384737564323028,-0.006901950600343155,0.0027879979416809675
0.515,-9.89041187740926,-0.023485231508135126,0.18017464590112559,-0.000305,-0.0036106308072590687,0.001891020275344173
0.5175,-9.832077740551878,-0.016679850645382053,0.1382605687753669,-0.0010525247616875303,-0.005945243931584783,0.0012366174960091044
0.52,-9.990771659515259,0.010973880637732898,0.32269613827844523,-0.002619743274015624,-0.011371112424510827,0.0019504437877445868
0.5225,-10.061922813910307,0.028185445255705387,0.41294222439024403,-0.0027876877734067723,-0.007914799853134176,0.001111431376868661
0.525,-9.934429932758817,0.023595143904400814,0.2859834596805687,-0.00341747036654028,-0.0046165963001263705,0.002434628886590847
0.5275,-9.870718281595197,-0.0028586391048866476,0.2038937806775836,-0.0036233498137267332,-0.005431012241530057,0.003370835354419325
0.53,-10.001013268477001,-0.0768996124763648,0.3025604549551136,-0.002902,-0.012292385226026882,0.002443
0.5325,-10.055091787157181,-0.08923190083208365,0.37061548970711333,-0.0022537854961711774,-0.012510426806663047,0.002443
0.535,-9.969171243776692,-0.06444176273260895,0.324031645000622,-0.0004448898014238015,-0.007025,0.002212587161233883
0.5375,-9.821855,-0.063367,0.185318,-0.003054,-0.007641788732394348,0.000153
0.54,-9.934375348198575,-0.01740091694504258,0.31747018842437735,-0.0029931273186119853,-0.010111479322596756,3.045368088991818e-05
0.5425,-10.090725337821167,0.038711655292112485,0.48748607466914673,-0.002052257926545812,-0.011830822575546266,0.0006580484611808275
0.545,-10.031305362397548,-0.010834412388993218,0.37668180859693623,9.163645259031177e-07,-0.010768846669113166,0.0030697899743119296
0.5475,-9.840260269668322,-0.11341372793250899,0.17434771652374817,-0.003581297427481805,-0.011454,0.0024275948549636103
0.55,-9.947453161698055,-0.07050371433131036,0.3468520502393906,-0.002111656942227867,-0.012608473922757784,-0.0007540420683052069
0.5525,-10.022371850816162,-0.0046884935374698605,0.4068889799562575,-8.892905721193654e-05,-0.013010967399562581,-0.0022197651295038723
0.555,-9.84993085012923,0.013662911611320418,0.17304915623097966,-0.00019001454932119299,-0.010740110708326533,0.0009562947488958239
0.5575,-9.726207,0.023912,0.046031,-0.002902,-0.010976079981078527,0.001985
0.56,-9.895232628343315,-0.043793054491341576,0.26192914514331667,-0.0019947567842519285,-0.012924964201574917,0.002468915848818919
0.5625,-10.13958162992126,-0.12259663294972743,0.5567729012719563,-0.0011838891580860085,-0.014559617201695942,0.002113395517867959
0.5650000000000001,-10.002821318433288,-0.011820535529984716,0.3762367589914266,-0.002165010399020802,-0.00966628198776007,-0.0005657180122399292
0.5675,-9.868627117543662,0.07449601993014082,0.25336122428394386,-0.0023796591414084528,-0.008858,-0.000641167076056334
0.5700000000000001,-9.925712853402016,0.04404658767561531,0.3522478856871968,-0.0032921593800428624,-0.010456942816246609,0.0013254781401285881
0.5725,-9.96000224937047,-0.00510173774353849,0.41796922796006775,-0.003803135240005472,-0.013887507593563398,0.0028584057200164163
0.5750000000000001,-9.97233276368825,-0.018181116750824042,0.36626862709110236,-0.00244148785949485,-0.01578952057080121,0.002137261339187612
0.5775,-9.86067998004673,-0.04898798004672916,0.23327078286915948,0.0022546077943925093,-0.012981,-0.0005906574579439302
0.58,-9.994727282839644,0.06317095458469672,0.42174982561864666,-0.0014284794220821857,-0.013529072667816196,0.0006826619917949816
0.5825,-9.983174181076164,0.010248384329626832,0.35503722471728355,-0.0003810879719364929,-0.011244138343540027,0.0014445145823176225
0.585,-9.873146965165914,-0.016738,0.23961702648842442,-0.00028413057690776164,-0.008767608269276715,0.0010208939890188826
0.5875,-9.753408633024913,-0.016738,0.1869984476868347,-0.000749881281138785,-0.008478418790035636,-9.750619217081681e-05
0.59,-9.86501200282503,-0.03330740592746072,0.37049153359904163,-0.0012051334300517945,-0.010678592609007588,0.0008090888481466512
0.5925,-9.891793059875088,-0.049275370372327355,0.4096666699399449,-0.001674747105452776,-0.009774,0.0017608746913283606
0.595,-9.793758,-0.03527,0.303682,-0.000611,-0.009525060351644922,0.001374
0.5975,-9.756529543946764,-0.02113511563102277,0.2746163031298748,-0.0011195281413492657,-0.010993967728315823,0.0014249527214318517
0.6,-9.76191361149887,0.011615302134069708,0.287933286333583,-0.002138,-0.014661,0.0019450095070717129
0.6025,-9.904601625068397,-0.00011378179985687895,0.3926544543124547,-0.0009620011231100966,-0.01207334038876878,0.0035371071562275455
0.605,-9.866034277283351,-0.07362200655948492,0.30734809753588055,0.0007877684416908496,-0.006528350701905753,0.0049756740051760655
0.6075,-9.770123681684776,-0.12351411704065382,0.22252244760346818,0.0017652188646075583,-0.006081786873397713,0.004078971207422738
0.61,-9.903366204974075,-0.13830305986802793,0.4107339982466598,0.0021778652568735426,-0.011138818378633123,0.001778890177533396
0.6125,-10.066455809132417,-0.09087795349675021,0.5722532397981223,0.0022890285988946225,-0.01240928560442188,0.0004001571016582518
0.615,-9.982493987684009,0.012006873867386116,0.43115807755710694,0.005803,-0.00921965506979695,0.000305
0.6175,-9.867364637222813,-0.02704554974871818,0.319253354526614,0.0029041754293198086,-0.010622474936286814,0.00024729683934738227
0.62,-9.831371767355737,-0.0875099803677866,0.23761798199112244,-0.001833,-0.01559130708941026,0.001302733950538994
0.6225,-9.933272397205867,-0.15011354751221284,0.27581726762189,0.0005725290690191242,-0.017600239637620457,0.0014127022243412936
0.625,-9.980968081353778,-0.0005536235004369588,0.2991221936124573,0.00426317931198856,-0.009965633987447365,-0.00030548057519663155
0.6275000000000001,-9.960653716641003,0.060560203287933476,0.24625481309961325,0.003704133061707915,-0.005376906308184167,0.0029803120407439826
0.63,-9.973936053061419,0.0666277973889762,0.30033410070236205,0.0022652658204724363,-0.00552627437480316,0.005472857590551177
0.6325000000000001,-10.10663349522224,-0.03141512865924042,0.3704377482600817,-0.00015300408962904837,-0.008163204099424372,0.0043316491049345505
0.635,-10.088313230795004,-0.15818927521416215,0.3695687197976909,0.0002463418302513145,-0.004387422108424207,0.00517866804488699
0.6375000000000001,-9.891609744571026,-0.18878615191815054,0.14374078679377533,0.00423016252034428,-0.003054,0.00229635117414533
0.64,-9.88397819750121,-0.03639794257949965,0.2837276021436644,0.004613471954802227,-0.0036093890234059787,-0.0023553939887005692
0.6425,-10.079049083604184,0.034946399934803626,0.41889768711524406,0.0030190816204887856,-0.005476034728754309,-0.0015239997951106681
0.645,-10.259948907520076,0.08090591851058511,0.5434380259333159,0.0058036740423460355,-0.006092226955463598,0.002958690289608208
0.6475,-10.147966131172772,-0.07211943269759781,0.41231813357426045,0.0021623817999533823,-0.0038265695406854957,0.005169680587549583
0.65,-9.991055606451093,-0.11618589547940832,0.3866438486325611,0.00211532170205921,-0.0036139320302445406,0.0027608483268983077
0.6525,-9.996081617313505,-0.0793662113506233,0.3830624817057885,0.003217009330219963,-0.0065346589996312255,0.001046592247757166
0.655,-10.023828125838307,-0.0024248712130847984,0.35773292800558054,0.0022888054786450317,-0.010638257769165195,0.00031115035423609646
0.6575,-9.931200195765667,0.11597828133001019,0.297447498746891,0.0013693761140013067,-0.004968837484732204,-0.0002001409726306304
0.66,-9.97584879148977,0.04937658543017634,0.3808303147588862,0.0014854780280004714,-0.005066657929879187,0.002428590628215904
0.6625,-10.092649853919694,-0.03654006080306015,0.5014834588910121,0.002965442065009499,-0.01016435946462707,0.0037383284894837747
0.665,-10.19274820359579,-0.043638111972780114,0.4948458691239985,0.005599193792830548,-0.015570680883121012,0.0016540968964152741
0.6675,-10.103302504927738,-0.08247294655286352,0.2860123603368635,0.005164233007852482,-0.01411313160350524,0.000916
0.67,-9.853113227125828,0.017977887046357374,0.10796784450331118,0.005488604291390661,-0.010198808635761628,0.001434092715231807
0.6725,-9.919577054382927,0.022684168735032307,0.2385479383947811,0.002175480531120337,-0.011965644139893301,0.0018089039715471344
0.675,-10.030166957292257,0.004809364037290514,0.3761732163113052,0.001369804231860548,-0.012746699862180811,0.00048196953384676135
0.6775,-9.973019951657655,-0.0635890853609217,0.18663652902892108,0.0012565556454267536,-0.012949989127674592,0.0007546532142017291
0.68,-9.864282015752156,-0.07058740025550968,0.15719291989779693,0.002521910162887284,-0.010164991964228624,0.002541699290961364
0.6825,-9.920317301108986,-0.045994903288719136,0.3282275419885269,0.004417541720841295,-0.00882947476099426,0.0021661547227533507
0.685,-9.987667461526543,-0.026301269310958546,0.4537685511053684,0.006341663049862853,-0.009436087907051771,0.0011088315249314267
0.6875,-9.869052914763364,-0.006227949140569802,0.18467692441723568,0.007050476571697668,-0.0110514513774429,0.001195523428302331
0.6900000000000001,-9.757005770998248,0.10255800075147246,0.10045237309982834,0.007265848788409486,-0.01290345413787604,0.0016250397070530494
0.6925,-9.824021510346753,0.06558280572492418,0.3574665336839664,0.007521795243192928,-0.010365746250872703,0.004372775852920652
0.6950000000000001,-9.976946877116028,-0.037040859621202744,0.49188603321342694,0.007409849880630238,-0.010843,0.006210518643959835
0.6975,-10.004400023609987,-0.10192460544114136,0.33583120882758644,0.006800039923900124,-0.0132144912818074,0.003422880228299629
0.7000000000000001,-10.021469551575562,-0.09849957144694628,0.3134219602572317,0.005850931768488657,-0.016656642893890634,0.0009346444372990113
0.7025,-10.016509874470046,-0.042087380092164464,0.31076688700460964,0.0034537776958525335,-0.01569382764976959,-0.0002799043317972453
0.705,-9.957519460185159,0.05935754738427832,0.3297109225670832,0.002389691580103592,-0.013877006521261635,-0.0003808683885140698
0.7075,-9.822927297549334,0.005091507572280515,0.16594730470858146,0.002773413804497517,-0.011148,0.0025234994217531396
0.71,-9.842265004144142,-0.04688259963963885,0.24149038288287955,0.006767829549549521,-0.013198065405405343,0.004746570990991019
0.7125,-10.03607402857143,0.024418774280963784,0.4908905158545307,0.010504630425481411,-0.012470575279296289,0.0029298745899690856
0.715,-9.957556224852114,-0.009891359715003045,0.3935676960028758,0.009257049361753115,-0.009068731378278076,0.002326317983475039
0.7175,-9.822548733606185,-0.04348968447352648,0.22882262058298417,0.006164332563949981,-0.008514991690660353,0.001985
0.72,-9.863438729713277,0.0043531755181805565,0.2792979626205316,0.0036928924171071627,-0.011390176530514147,0.0016730487393881214
0.7225,-10.03766,-0.008369,0.503348,0.003512,-0.013398508270961633,0.001222
0.725,-10.044604941625401,-0.012625685930672804,0.46929376300611775,0.0054582026798717966,-0.012905038799883497,0.0020802330323332206
0.7275,-9.96116120623397,-0.03965265567939706,0.33017361205774554,0.007217126773714631,-0.011289280242882166,0.0035904575576845292
0.73,-9.702290767067524,-0.0955286151575563,0.07042516708038617,0.003757014385852077,-0.013102710588424389,0.003818
0.7325,-9.888994210344007,-0.06007969093095802,0.21044136109695444,0.0064823983160934165,-0.016980034890546017,0.002597229636757209
0.735,-9.99535106182603,-0.016998479880103293,0.369474457358671,0.007880859653497987,-0.011766983442239705,0.0031653678748276423
0.7375,-9.958037850175025,-0.0010401698483085368,0.3719876574562385,0.007315347491248469,-0.008690597899649986,0.004120674212368737
0.74,-9.740092774287076,-0.05449829903671778,0.15810682996661868,0.0032836616118264296,-0.010996,0.004924256232713384
0.7425,-9.892956447257163,-0.13588193759685646,0.29867581473329885,0.0038851745115104095,-0.013552124957888883,0.004317804270072966
0.745,-10.053227409101218,-0.12341752093529101,0.5103587909547109,0.005520292012739839,-0.013104161662394165,0.0029587709624796107
0.7475,-10.077277361752703,-0.049977141195662614,0.5658567906630827,0.007617089872975221,-0.00838433039039723,0.0021464149772753875
0.75,-9.823904269514685,0.01047079692162714,0.24836098610020418,0.00817277328412125,-0.008862158237788598,0.0040985153918643
0.7525000000000001,-9.764745391530447,-0.026750282182880634,0.22551472809120304,0.006535785025466821,-0.015882,0.006322729963618688
0.755,-9.937828,-0.120756,0.393352,0.004887,-0.01558284806693227,0.005498
0.7575000000000001,-9.948648055367206,-0.1076168534253694,0.3732571958945325,0.005479459119610782,-0.014477411700803381,0.004066466207989006
0.76,-9.932418152719945,-0.042574976124915745,0.26019069162525127,0.00689321258562794,-0.013134,0.0014732887642713265
0.7625000000000001,-9.868484,0.01913,0.143472,0.007178,-0.01585022606377094,0.002138
0.765,-10.007127320343042,-0.017841841994706648,0.33179603673478264,0.006144978159872937,-0.018713738197988324,0.0023592927983059845
0.7675000000000001,-10.155428,-0.057389,0.533238,0.00504,-0.011258054569345432,0.002596
0.77,-10.04899548238492,-0.02271428568562362,0.3827397583528818,0.005408969927999358,-0.009982051989321306,0.003211084148531681
0.7725,-9.9224412295302,0.03874374639820981,0.21532314550335302,0.005732704787472047,-0.015272,0.003564944697986604
0.775,-10.058832046915754,0.03571730042403355,0.3920048870149626,0.006715075686054909,-0.015272,0.004962234882790666
0.7775,-10.072556202596553,-0.049628528184056823,0.4449506180443741,0.009036536302382894,-0.013171304913722356,0.008288608545603949
0.78,-9.770779339769387,-0.0935339282798914,0.19647651759595336,0.010291052250829267,-0.00855465496761963,0.00687594072974251
0.7825,-9.658710899934583,-0.012372373165354314,0.04436378148031285,0.010450498626287132,-0.010633618761962314,0.00504
0.785,-9.888993635848006,-0.03989229452083236,0.3047150061754203,0.009851438661674525,-0.017104,0.00628189998884732
0.7875,-10.091415031749285,-0.08056525319658114,0.5194887236923083,0.010825400273504288,-0.015200908809116868,0.006930961367521403
0.79,-10.049168283564482,-0.07434115154669713,0.41769978054356555,0.010165542052380176,-0.010949422777137188,0.004853662078734973
0.7925,-9.829294417916918,-0.030847372561108463,0.23589749102950203,0.010025465011438904,-0.009472054034918735,0.005153550343166765
0.795,-9.903335963165198,0.033507082438441804,0.2815938251972321,0.009484007850824776,-0.012747430016734528,0.004831555505617961
0.7975,-10.180118916885496,0.031113961893130187,0.5620508989312968,0.008142302595419879,-0.018498627541984728,0.004641259541984724
0.8,-10.230898364847992,-0.040503878297528516,0.5505474031455173,0.006538810004053554,-0.016731658094851973,0.006972897640859397
0.8025,-9.87880455430568,-0.1431470722270736,0.21210681923144328,0.00873282328384279,-0.014563191999999992,0.007121971144104825
0.805,-9.753122235992524,-0.13503616056181741,0.20020614685394078,0.012173731364157045,-0.014813,0.005733592992947119
0.8075,-9.827386458919637,-0.08289501293051377,0.2836729013703926,0.01614326166042295,-0.015969831589123858,0.004671709786102722
0.81,-10.064492713353024,-0.002012444740075993,0.4001621093147437,0.016188,-0.02009423416587889,0.004887
0.8125,-9.995246929761343,-0.019786452150283552,0.34943179430529303,0.016188,-0.014134670309546314,0.004887
0.8150000000000001,-9.860527462895426,0.010713812357025034,0.18433414950306445,0.01574198560740207,-0.010829656705750963,0.0053968499417723775
0.8175,-9.685929114026928,0.039701502805385404,0.01994863698408831,0.014999913938800489,-0.01668488613953492,0.007178439529987766
0.8200000000000001,-9.675991,0.032281,0.028694,0.014966,-0.019162905629092626,0.007483
0.8225,-9.821713801602872,0.006440744110047521,0.2066119796746434,0.013396756559808593,-0.017481658799043034,0.006887757511961715
0.8250000000000001,-10.049328084379747,-0.03627147260657418,0.48949170400703607,0.010972004254978828,-0.010642602207470053,0.00443572750539863
0.8275,-9.941843300869358,-0.015975922653085145,0.353126991732795,0.01221698434205852,-0.007122341125192477,0.002498643216866044
0.8300000000000001,-9.840077703761827,0.010363862117455255,0.24018552863295387,0.013158792610114184,-0.011342167712887628,0.0034877029494290897
0.8325,-9.825441,0.013152,0.268412,0.012981,-0.01630347169989384,0.004734
0.835,-9.960602366177405,0.021312404543713876,0.3543541265603039,0.012850460829610725,-0.01636542693044035,0.005971989125717898
0.8375,-10.106280216988328,0.004714999953772479,0.46508675518317333,0.010114434369582731,-0.016158929411764722,0.007461459285796829
0.84,-9.93768280493593,-0.020402446929283842,0.32655653353583625,0.007257460569530105,-0.014501078860939792,0.007178
0.8425,-9.796609942802581,0.008369,0.19704375002838942,0.008459956407741909,-0.014909796583225967,0.0075295217961290455
0.845,-9.882016798818967,-0.036061621194153966,0.32038896115478555,0.007985152398449153,-0.01557683168983001,0.009382031823441673
0.8475,-10.023668546483707,-0.07815777197941716,0.46110054201029405,0.008885587951972598,-0.01586933680960552,0.0095934120480274
0.85,-9.999583571273998,-0.06500056435103263,0.39137179008953044,0.010024278709244973,-0.014416465658064816,0.006163721290755028
0.8525,-9.957568239923397,0.03583633129506533,0.2722286159735704,0.011480648209891342,-0.015336674308421519,0.004707351790108659
0.855,-9.923824276504005,0.1227455955717413,0.1764144947268741,0.012682506817188653,-0.016188,0.003447276853605236
0.8575,-10.007011934481858,0.04987646837358647,0.40599685422011217,0.011741920280785271,-0.016683764701963144,0.004716920280785271
0.86,-10.112694944157772,-0.0010987922706712564,0.44303820994391246,0.013699557047222718,-0.015152106980278631,0.007899656913334543
0.8625,-9.969793658609248,3.572636149812053e-05,0.30429492885832937,0.014954863337555056,-0.015538501007176898,0.007417138676798737
0.865,-9.92058062902541,0.018140539568993124,0.24316022809906718,0.014083366394339027,-0.015859714763589577,0.0055542263364425975
0.8675,-10.035353578059674,-0.040195020004424924,0.4118145578342639,0.013303831133701732,-0.014908320344751312,0.010683786678453489
0.87,-10.124676920286642,-0.04222833008792008,0.5581312020546788,0.013915362211248946,-0.01587665766108635,0.00909546592556908
0.8725,-10.039628589806766,0.04388319477154355,0.4508846959399738,0.013939424023641728,-0.01441308885655813,0.003485240809274672
0.875,-9.890499568123394,0.01404751031266814,0.2748437879476296,0.011625026065642375,-0.01846170712022479,0.006866348119806302
0.8775000000000001,-9.878881669511568,-0.042164488204700284,0.18790231282357664,0.013156484885514474,-0.021046945013451366,0.009546871211813298
0.88,-10.006600415620932,-0.05613821764179803,0.347517727744568,0.013637418708715775,-0.022491579756805526,0.009545518390209456
0.8825000000000001,-10.163344125377522,-0.008331806829265823,0.5791463055105579,0.01216181151592942,-0.018932243809078923,0.007001994440424722
0.885,-10.007468770534873,0.018153424717931854,0.38418054212973407,0.010546930463339297,-0.014699413675825087,0.006028586785888476
0.8875000000000001,-9.808654331204504,-0.033325711293732296,0.19944214435313387,0.01222142188307125,-0.018021,0.004933104155905001
0.89,-9.947460746409323,0.09228742917698418,0.43650017223597937,0.012943410721048786,-0.019267992469045876,0.005263483976693377
0.8925000000000001,-9.940994018601602,-0.007391569881041921,0.39388888460305777,0.010610271842680196,-0.01771320297645055,0.006138570162660865
0.895,-9.866342370347908,-0.06538404003191842,0.301031445075007,0.010837623408873304,-0.0178650822725822,0.005784175020746877
0.8975,-9.74635224317887,-0.05238765415644406,0.165994909313122,0.01366130125185586,-0.018142964801125306,0.0052863080346956075
0.9,-9.703990432104952,0.019899522337507414,0.08885141113894168,0.01627569443053069,-0.01627542979129406,0.0075060056052475245
0.9025,-9.982128156527624,-0.019057549906902126,0.41717500415427056,0.013117623789142854,-0.021459063300689203,0.010216673654939027
0.905,-10.119229161880668,-0.06123241197136001,0.5484195034844869,0.011891777632458262,-0.017676995904534566,0.006420407455847246
0.9075,-10.02656033312162,-0.0892328008374482,0.4333309808609777,0.014323762954598898,-0.013322797233592159,0.006498487889908233
0.91,-9.826800016863341,-0.15211871961572276,0.21761279060763655,0.016864378954447243,-0.015671381154431323,0.008018037486190066
0.9125,-9.841319752337892,-0.06514545846520091,0.22971959250445975,0.01815822681737064,-0.02306,0.006688834883997675
0.915,-10.003758163818395,0.04178178766007032,0.42353243652619577,0.015831794132712435,-0.020804834328288644,0.004918097694994215
0.9175,-10.002334886965803,0.024751407654621478,0.42250357528013915,0.015035126665049713,-0.015156950007276317,0.007788833334950252
0.92,-9.771069727499997,-0.05998148500000028,0.17052095999999958,0.01512587374999998,-0.012803947500000069,0.00856574749999996
0.9225,-9.808773502480484,-0.04699811838874457,0.2686833866396827,0.014585310043365133,-0.016277744265201875,0.006404300657222714
0.925,-9.991673508848082,-0.020872319532554088,0.4627648464106874,0.014790773511407907,-0.017562,0.004783181969949892
0.9275,-10.041286191962975,0.006484390903287342,0.5208881473795091,0.015283782406639001,-0.01633091823811045,0.005327076354931359
0.93,-9.903774378138275,0.065758,0.32090026963727475,0.01614443945063974,-0.01271938333607229,0.00951238333607229
0.9325,-9.752274983880314,0.03190571175492777,0.18718872740441642,0.013345437886487784,-0.01442865759677035,0.008684717962479221
0.935,-9.900918423546743,-0.08704225681260207,0.3592751188213434,0.012301109198059549,-0.02181816289393298,0.010084843317961282
0.9375,-9.853239835479428,-0.13396975372821465,0.27743318739893397,0.013068528418278732,-0.01884519841887764,0.00874217368389531
0.9400000000000001,-9.781018406683703,-0.10871426440255377,0.1863887494313076,0.013439,-0.015888141463258718,0.008094
0.9425,-9.742178516691109,-0.06297821164986261,0.21205651825847896,0.014447156956920263,-0.016387877781851527,0.008627593088909261
0.9450000000000001,-9.934647378918271,-0.05160825930632842,0.4255992175794358,0.017496912413291366,-0.020311,0.009659009905408694
0.9475,-10.148253,0.001793,0.519488,0.019548,-0.01791576389592121,0.009927
0.9500000000000001,-9.820284096944349,-0.12984172266759378,0.18803113995585236,0.015255752224933236,-0.012024369094922866,0.00958894200069705
0.9525,-9.85742710273963,-0.04135479769954642,0.28161596927152366,0.016837083290345077,-0.01686217006622519,0.007449028274660149
0.9550000000000001,-10.23619989816137,-0.02704184161216138,0.7012483544825318,0.017960714948135267,-0.016035,0.006547753145933915
0.9575,-10.070916954130967,0.011673852666086264,0.403935668417133,0.01884829729353077,-0.016035,0.004898792867210377
0.96,-9.905944433145697,0.0358930634720905,0.21676085418164864,0.019277972105014186,-0.015609203410596033,0.005756916315042557
0.9625,-9.833911025610805,0.06195559933701688,0.15837166224677923,0.01813630094536521,-0.016118723634131395,0.006905689453652558
0.965,-10.189555879081324,0.02019751920918813,0.6123121787853592,0.017374930337397853,-0.01765894697288978,0.008160361529537098
0.9675,-10.228495097325894,-0.059869588800000706,0.6904233790661336,0.018685838591235064,-0.015646664267729052,0.009451302011155393
0.97,-10.001024257713174,-0.08013080044957316,0.4174361433298407,0.02003422711823765,-0.014203,0.009103908748688766
0.9725,-9.77772402589619,-0.04331958869854158,0.13604027564305826,0.021686,-0.015406992779340385,0.006865293254921974
0.975,-9.879211421960157,-0.007767495681274803,0.2893134807649376,0.021560908175298807,-0.02033070199203183,0.006440874262948185
0.9775,-10.044791174870344,-0.022300836234484783,0.47311957317930325,0.02264610514931799,-0.02211738347302438,0.00864981738232766
0.98,-10.029889,-0.033477,0.434003,0.02474,-0.016654907248134367,0.009316
0.9825,-9.876062381471627,0.013489908886781608,0.27672921268453915,0.024299598509375717,-0.012289738794208381,0.009756041096605769
0.985,-9.717672009487826,0.024404917391092726,0.15935592098363147,0.021616950277664707,-0.016739373731780742,0.011171098226528777
0.9875,-10.042565381904545,-0.04444016176679936,0.5453071395868054,0.017619969365946255,-0.01900773711707405,0.010508473616718032
0.99,-10.194224106277742,-0.0009610415979707746,0.6377631594166149,0.016356484121750153,-0.011301,0.009197950234622694
0.9925,-10.05679,-0.011956,0.431612,0.01741,-0.012932914213464052,0.01069
0.995,-10.000497057518606,-0.0022920865494398014,0.3654138695477225,0.019508320451459876,-0.018939314850740154,0.008900042126441488
0.9975,-10.036662739970755,0.019418285616772828,0.396069352218439,0.021708320107264686,-0.022538979463676178,0.007274045255972767
1.0,-10.169662963625202,0.010966963241501034,0.5040565991865551,0.020889447548154402,-0.017813658890338424,0.009564337042437265
1.0025,-10.05391173216768,-0.007620498662050898,0.38660014606652576,0.02235128308643497,-0.014853410387040845,0.009594273530357435
1.0050000000000001,-9.979673,0.008369,0.404113,0.023518,-0.017310533456770798,0.007941
1.0075,-9.926076053485298,-0.012143320527896158,0.34125221062506966,0.0219403278608277,-0.019880188472705618,0.007884918109178159
1.01,-9.859711781313203,-0.02192262963592024,0.2570782116568375,0.02037169913973422,-0.023875734009593464,0.005717816418966723
1.0125,-9.925713249076711,0.05472799392737387,0.3080588751766007,0.022330972338579728,-0.023344767158260116,0.00478957632916086
1.0150000000000001,-9.939829118318787,0.1174490705211747,0.32636157427907986,0.020790205335041025,-0.020464,0.007849721918181052
1.0175,-9.901022549762969,0.10113458947440664,0.31028813598076255,0.018318609316386146,-0.019749035547921616,0.00870025102026807
1.02,-9.91475821197182,0.02819930511834,0.3524084532035152,0.020031196257421058,-0.01919252418269612,0.010718035345523626
1.0225,-9.884327004208028,-0.060809594823082236,0.35834766931370504,0.021619854381382104,-0.020552079278081187,0.009881847912609864
1.025,-9.831461194611066,-0.05430122521251095,0.24784981087409833,0.02035778085004016,-0.020165396471531778,0.007958923432237424
1.0275,-9.840878186220213,0.0009430973677175478,0.21669550281314692,0.02157049245509009,-0.018288600166198227,0.006987600166198228
1.03,-9.892229015009459,0.07733022443884018,0.2897430663461561,0.024422681737074375,-0.01906313626103406,0.007632469914880212
1.0325,-9.989841423364219,0.12651722624376238,0.45732962521739057,0.02252332517462581,-0.02020032265146114,0.007146639372772669
1.035,-10.038969892320114,0.1711705278841131,0.47616025289321723,0.02068139291379729,-0.018607355823636644,0.005980753208264029
1.0375,-10.01315,0.169775,0.453132,0.018631,-0.019014476988737816,0.006872
1.04,-10.047868815437264,0.10547230843155708,0.4898066322243356,0.0170694549366286,-0.02545495990494298,0.00799632880544997
1.0425,-10.082976206161275,-0.03568770459681195,0.5327610475422504,0.01637475553355863,-0.024817346161274782,0.010178587257363578
1.045,-9.890395376304582,-0.12090489623081725,0.32062693513860807,0.023850849660916162,-0.016874090203450303,0.010578686467578959
1.0475,-9.82662997890779,-0.04073218501605874,0.31615192965139777,0.02242239098155854,-0.017731165411064877,0.005815494120166381
1.05,-9.793758,0.000598,0.313845,0.021686,-0.021725344846975792,0.00336
1.0525,-9.818822835801106,-0.015739272928176597,0.2724428912707187,0.020771052817679568,-0.02853606099447512,0.004903505414364622
1.055,-9.881732244481379,-0.03117093136809153,0.22452063597961477,0.019873717086632662,-0.027642461720109944,0.0061562700086241345
1.0575,-9.855469660983678,0.010855864120849669,0.2520556693027186,0.021157519168580118,-0.01811968256676673,0.004997431758308264
1.06,-9.751407969394444,0.026429725742104428,0.30421625385419254,0.02093351402042267,-0.020192541648064666,0.008880028040845343
1.0625,-9.860817450011874,0.04578082106388032,0.3578048122773688,0.019507316195677984,-0.0236151674186654,0.006027632391355972
1.065,-9.974919459148566,0.06697865760250833,0.39854639486632637,0.018845988810662483,-0.024855899825950628,0.005261661450411573
1.0675000000000001,-9.988851735048586,0.03930868180216526,0.3752655887478487,0.018430877639794084,-0.02159805675014252,0.006615318797026932
1.07,-9.817375571128942,-0.05043540910780966,0.2826316151902754,0.018704442787002534,-0.015930182763168318,0.007442784593628353
1.0725,-9.799500258507388,-0.04347039726948537,0.3182174118033629,0.020675371813550683,-0.014966,0.007882628186449317
1.075,-9.924233434503765,-0.04371149092512369,0.39166254056437466,0.019525481449414805,-0.0190817975468974,0.0068160328362995605
1.0775000000000001,-10.021291701463063,-0.026437879120714276,0.4061588277621694,0.01968224401681699,-0.02279051196636602,0.00463950867027028
1.08,-9.967272077691577,0.039330827625354906,0.3531197359318758,0.0230531547398298,-0.0174003602270576,0.006342689195837366
1.0825,-9.891774778648648,0.035409352972972805,0.2605339760810829,0.02459750472972971,-0.016631855135135182,0.00797235905405404
1.085,-9.929054268371651,0.04529283007244035,0.44246141645354176,0.020923823042519753,-0.019853,0.005932668611023652
1.0875000000000001,-10.031905347246385,0.043769551884052446,0.5537670915942092,0.01964008463768153,-0.0199686591304348,0.007257357101449781
1.09,-10.005066699624019,-0.027647006804219533,0.4790693979092076,0.021565927959651444,-0.02249337289316842,0.010324357340669318
1.0925,-9.938425,-0.04065,0.394548,0.020617,-0.024954591726854908,0.009316
1.095,-9.89848449525589,-0.07852923175728466,0.2873527526706609,0.020156209363672663,-0.023878787845109817,0.008855209363672664
1.0975,-9.882767456834545,-0.12155933412609234,0.200644142763483,0.02077546028950819,-0.02233080899629134,0.007080631381744345
1.1,-10.002382027428576,-0.02997747542856591,0.39877586742857934,0.022734805714285725,-0.02059235542857123,0.003350301714285579
1.1025,-10.091424685853884,0.08043331068909909,0.5485821375985249,0.022669961788430504,-0.016858453846508414,0.0024255990043789625
1.105,-9.994040294630226,0.04790031955627068,0.4346243145466254,0.02350495401286172,-0.016188752945337632,0.006438661678456571
1.1075,-9.779328067296143,-0.008047519685264749,0.2179758140581839,0.025198,-0.016646083366714214,0.008046744053409665
1.11,-9.721273154637869,-0.02148687426937853,0.21950413718552214,0.022809385324015066,-0.019606194428208424,0.0078059914358323
1.1125,-9.818214233758912,-0.046063865872953955,0.34622450912508773,0.02047155588626934,-0.021773317819378166,0.007708238066891173
1.115,-9.871373514620888,-0.05218046250834551,0.32379500808774453,0.0243716800953743,-0.022296961411540448,0.0068588391988554775
1.1175,-9.72177419466703,-0.07360363304606159,0.10145853847900113,0.024847305589625855,-0.018524324203701176,0.00884642299608264
1.12,-9.731124151119735,-0.05292000950072371,0.07436836027145838,0.02409682857973823,-0.02044805851672334,0.008974344314105627
1.1225,-9.914418053900782,0.022236883545733804,0.3556884047778134,0.022427041109804743,-0.021219983522219522,0.00802344267105571
1.125,-10.058871278831532,0.006628257783113253,0.5476184217687075,0.02205950844337735,-0.01884100344137655,0.008631578711484594
1.1275,-9.947805408712272,-0.0671699858773583,0.38773060300472467,0.02615559337264143,-0.021032819457546984,0.00891314960849065
1.1300000000000001,-9.825484047708136,-0.029031804485794163,0.2909402173326889,0.026894736774404064,-0.025504,0.005667152095984214
1.1325,-9.968733816767294,0.040999535055860056,0.43542422264321523,0.0247759038126931,-0.025202333501307322,0.006081480936534513
1.135,-9.989766368104819,0.04764255053813751,0.37757094202464453,0.023358302661051315,-0.024225921316487285,0.009573039341756358
1.1375,-9.956245537406962,0.03301539930372166,0.28031493788715345,0.02246512393757502,-0.02082728283313342,0.008861725618247364
1.1400000000000001,-9.886499176065303,0.012131672194651836,0.2927316301136518,0.021607883268768894,-0.014212572351528537,0.008873155693933273
1.1425,-9.85748235178299,-0.00810183521510497,0.339705037002876,0.022930931108986887,-0.014495759813575808,0.011336788250478002
1.145,-10.082294082549163,0.042343218193736994,0.5769150512017494,0.029319435746540445,-0.018112369045884903,0.009075759461034203
1.1475,-10.201502660814533,0.08870666624066477,0.6953892908460992,0.02747871471552858,-0.016430785957348544,0.006160928758180034
1.1500000000000001,-10.11880794145872,0.09106328013435563,0.6080205441458586,0.024142264875239773,-0.01758657994241863,0.005877094913627748
1.1525,-9.915904978266115,0.07853734040449499,0.3753984643500846,0.021538095233589526,-0.0241664297338857,0.008266627784742858
1.155,-9.989138223987826,0.05855041244252117,0.3164721548249621,0.021769130564768112,-0.030130912956821257,0.011045334515741433
1.1575,-10.173793551547574,-0.010491866603150414,0.391229477351897,0.025166311650177055,-0.028460459543178225,0.012732613367533894
1.16,-10.20802726224554,-0.05059104521766376,0.47035352623551696,0.027449016041340445,-0.022195779749452273,0.01076880217037282
1.1625,-10.057926702439014,-0.02626813170731448,0.4212831073170719,0.026438039024390153,-0.014508,0.0064498292682925035
1.165,-9.921686,0.009565,0.404113,0.025198,-0.016693912229580634,0.003971
1.1675,-9.990311762531997,0.017651221382359597,0.43995552907609875,0.02564475660228065,-0.022826930621363668,0.005366840186176369
1.17,-10.062560095407239,0.0511911977805853,0.5526127117564665,0.0252708384652499,-0.024793450743250976,0.009041172310166554
1.1725,-9.971827856078113,0.07135385071108638,0.38483211978402565,0.023615160450315847,-0.025897436847788672,0.009685013633543965
1.175,-9.889400772507022,0.07045281207865109,0.21212296674859232,0.021729365203651645,-0.026573,0.010570147296348337
1.1775,-9.895058517894736,-0.015626669444844248,0.18287330070655977,0.022248256322999253,-0.02755966716654649,0.012846964239365521
1.18,-10.018655726634377,-0.10857308225486345,0.3379648558380311,0.027077022564509657,-0.027037466153235518,0.012987466153235514
1.1825,-10.02922405864715,-0.06690067402506006,0.3439015809418555,0.02870995496536152,-0.021107619232505224,0.009352456100256768
1.185,-9.909765355930388,0.023899647336011017,0.37545639994645313,0.027491705702811165,-0.013624509290495721,0.007543962623828743
1.1875,-9.897206186068257,0.02555941152407667,0.4236336162926601,0.026343005843852265,-0.027031,0.010801763674614306
1.19,-10.02299334663552,0.005405578029802896,0.5474920168827997,0.028863,-0.026533463413612585,0.00962797796214263
1.1925000000000001,-10.029946960684239,-0.0006154907769063535,0.525157606614377,0.028239603934426132,-0.026149101724875317,0.008032909109052093
1.195,-9.794037200075579,0.00043570002676944757,0.1253526118699228,0.02749598115423984,-0.026725,0.010328283332021182
1.1975,-9.704222730730741,-0.0006271918157047093,-0.019039320847162408,0.026989483051771103,-0.02897826311122123,0.01132318967054742
1.2,-10.015408333596145,0.021698323456594774,0.38167564577780533,0.024702082188756625,-0.029978251675471204,0.008620734305763635
1.2025000000000001,-10.191828369232983,0.0019352679009302237,0.6527567586150477,0.023472043096898237,-0.024062517287809233,0.008094
1.205,-9.993038117369993,-0.03476402518729049,0.4608970919614266,0.02562443739529018,-0.02128664746641381,0.007059128673937038
1.2075,-9.810080761971415,0.040230490083785694,0.29343722204041495,0.028781202809265636,-0.021991,0.006551673139477596
1.21,-9.938202934226673,0.06764193907326266,0.4446165960488392,0.02914373592360673,-0.028306840225422496,0.009403725610519685
1.2125000000000001,-10.14189381473932,0.07671661605155634,0.5373633216168677,0.031047117234915118,-0.03632344138254244,0.011242352688927934
1.215,-10.142114630301652,0.04389717642700726,0.4073528919369128,0.03096707127213906,-0.03197756889931231,0.012695913416902647
1.2175,-9.889733847123283,-0.07689972383561729,0.1709861164383525,0.030989474246575374,-0.025274306301369825,0.015175026575342478
1.22,-9.751277601022082,-0.12102778558990526,0.19396762752680988,0.032246628605678236,-0.02694000021451097,0.012307999785489031
1.2225,-9.957092986493242,-0.10558862936416422,0.5685940979190631,0.03207,-0.030447390346820934,0.007636
1.225,-10.095329769077782,-0.05601217222133027,0.5905017419727233,0.030760135236567673,-0.02803388253408176,0.0072431263512429565
1.2275,-9.825699421160483,0.0034340573954504336,0.232127951931365,0.030056552765399785,-0.025989213678064994,0.006230186641248638
1.23,-9.642471049725076,0.09877217031795317,0.1403718215698445,0.03174506379153717,-0.02430822462985098,0.006892560717188601
1.2325,-9.871473747430995,0.08953659201232247,0.4679391646855235,0.030015159644676232,-0.02774780616368563,0.010730435688736053
1.235,-10.029516378490651,-0.05627251088350415,0.5895932674894535,0.028834170296620405,-0.03143098742902579,0.013347993714512892
1.2375,-9.832157332006156,-0.11219387256783792,0.262102063822719,0.031970375139234564,-0.02899762239601841,0.010223300106647563
1.24,-9.695147740536688,0.013045031704266088,0.08226912419536095,0.034162315981952025,-0.027790869981793708,0.006652534973482147
1.2425,-9.889937981698015,0.0785386832491996,0.327244915924723,0.03364579794401114,-0.026228573914639966,0.007974407452960009
1.245,-10.101373138131486,0.06401560290657818,0.5674992896885782,0.03317373453287215,-0.021533,0.009126714463667803
1.2475,-9.987183398792613,0.11773690352830735,0.44833977704097133,0.03471508745699084,-0.019725128770722432,0.009540950190803924
1.25,-9.767712,0.08254633625410734,0.23436313581599122,0.031060323110624316,-0.015786071193866377,0.011710549835706463
1.2525,-9.835085974944468,-0.04939811555845722,0.34699488739384377,0.03334257194861734,-0.02846040213368135,0.012774733472675855
1.2550000000000001,-10.038279417217753,0.016465950900568967,0.6706904350655405,0.0349875566670675,-0.025140458285439187,0.010659886665864997
1.2575,-10.052547502944106,0.06373712942687179,0.699971312437561,0.034451403253269806,-0.01891154941260387,0.010168225293698064
1.26,-9.806001117572164,-0.0032062086004060186,0.3086238579497573,0.03265258821657045,-0.019658799463254828,0.011789030875331565
1.2625,-9.79516575029585,-0.020584743491127717,0.24898307248519919,0.03334516523668639,-0.02967661686390508,0.010385631952662802
1.2650000000000001,-10.150838309277237,0.11211533550915861,0.6313547062897684,0.0335088019338259,-0.032703786212656204,0.007521033613877232
1.2675,-10.244011064783956,0.15825580791199229,0.7638845617456675,0.03324120641528549,-0.02593568946080903,0.008181966383440825
1.27,-10.01898955419266,0.1519045503712817,0.479885678885429,0.032081602935514215,-0.021878595087211378,0.012933456819859628
1.2725,-9.850095833286453,0.054998,0.3087077377092241,0.028761019750510392,-0.029989616965297963,0.012111994855976417
1.2750000000000001,-10.20571497380823,-0.048247345493794225,0.6559117583738008,0.030838307897103925,-0.03226783407087596,0.01339345252743295
1.2775,-10.045594142790664,-0.05538875354560195,0.5168397843161195,0.033238897432391994,-0.030443184822210173,0.012625112974755628
1.28,-9.852232334054053,0.0286707957117137,0.32142024154954674,0.03463680234234235,-0.02793675625225222,0.01037254908108104
1.2825,-9.79610650129537,0.152677433281139,0.19133020267615483,0.030771408398576654,-0.0265813801565836,0.009717726718861137
1.285,-9.931188923554584,0.09217006532704837,0.32849209245798144,0.031833081571756655,-0.03019753209527252,0.01335501734252196
1.2875,-10.076391394213134,0.012734531075037268,0.4952232128910928,0.03427070590449314,-0.030233776852505025,0.014720391766643049
1.29,-10.107745312972249,-0.07864509843565862,0.5597643720336438,0.03152409951104462,-0.021978588799622542,0.012533083634934335
1.2925,-9.866927444602263,-0.08509414541849311,0.38821930753055356,0.03030818247636606,-0.01928501361309653,0.009634428240719431
1.295,-9.91148353810282,0.006356230296883925,0.4142233563021944,0.03287939806903207,-0.027389845493603453,0.007809706261163446
1.2975,-10.06731330492207,0.10453797008975474,0.5477657213037422,0.03282177539914962,-0.032100812130373094,0.007858357373642072
1.3,-10.060398343688075,0.15527237500798927,0.4911510386704949,0.03162614809843402,-0.026618583445189997,0.012150851773729723
1.3025,-9.793291263476844,0.07490986830812266,0.1828605215824999,0.03275358060041889,-0.02025431464742844,0.01622397676518501
1.305,-9.797919132981413,-0.050354836619088156,0.30698796247188226,0.034771893019695355,-0.022765679059086063,0.01580574717486649
1.3075,-10.126943263292281,-0.08526127358797435,0.693155926875323,0.035583054144898894,-0.026400989241005396,0.01280990117791993
1.31,-10.196707767266926,-0.05189495828207035,0.6678440355633385,0.034160596535458145,-0.02440223722709156,0.010166030301195216
1.3125,-9.919091492530235,0.02199686981266303,0.3370225056912497,0.03159508608015177,-0.0228710220535926,0.009291260493241641
1.315,-9.838210540356712,0.07021428585779405,0.30211586249379835,0.030994494626889465,-0.026152257730144676,0.009083247313444733
1.3175000000000001,-9.8912,0.072932,0.402319,0.033598,-0.029199412619611585,0.010385
1.32,-9.839446716733738,-0.1216931594010282,0.24707571601544273,0.03731779584230233,-0.026390289199812754,0.01255762004211512
1.3225,-9.82698107645297,-0.07109458330369658,0.2679754745554517,0.03900388347917642,-0.023674393944782397,0.012838532423958821
1.325,-9.785513654190034,-0.08651829346258463,0.2966424270309239,0.04219821406825821,-0.02450993791059117,0.012917654911071946
1.3275000000000001,-9.857936949080893,-0.0791486850827826,0.3963780421742383,0.046380855526758004,-0.029908596035517532,0.011433259491240471
1.33,-10.057541788969754,0.07412039840264911,0.5008046051323243,0.045558888988657724,-0.030652479914933674,0.008650626257088817
1.3325,-9.956279559985843,0.1430807024277458,0.37549771008611293,0.04284757786009202,-0.025170883751327085,0.010577037305650648
1.335,-9.770133498824478,0.13385910023058986,0.21426911929049378,0.044217758864790756,-0.022755,0.01619102262678381
1.3375000000000001,-9.810070406834512,0.06131244466892056,0.34437508253494103,0.043697678667823904,-0.024106794412438088,0.01829441272196364
1.34,-9.979502034871798,-0.08805498023668822,0.6456854362721839,0.0394398839644971,-0.028502994023668772,0.019123233234713714
1.3425,-10.00857805975194,-0.061134335523354746,0.3739993387875224,0.04179604318071175,-0.0301656027309609,0.01069859877593594
1.345,-9.911174028309164,0.11385174819760799,0.2404774793976073,0.04330739157290837,-0.027062945883665368,0.008264364978486033
1.3475,-9.96825515356155,0.18985182032432713,0.5030187202402282,0.04240036044204213,-0.025198,0.012580654798798503
1.35,-10.138689,0.07222599045433163,0.6801334384580078,0.03908179311610817,-0.025947855988985826,0.01854112170720524
1.3525,-9.95071133122362,-0.13159722008439334,0.29488649763711056,0.035193150843881804,-0.02814248848101272,0.01494746248945117
1.355,-9.813098849966378,-0.14804899650563338,0.1464958506223088,0.03728885263257239,-0.029920350413496125,0.011124922569456746
1.3575,-9.841101576919202,-0.06304675063555452,0.2822071833393036,0.04104965974865332,-0.030346110980251414,0.010101444509874293
1.36,-10.030739270715602,0.09470297565523567,0.5869398949708203,0.042975804423122946,-0.029231602408251386,0.01050260194131285
1.3625,-10.093256,0.141679,0.65758,0.041081,-0.028867573336536126,0.010232
1.365,-9.886013806838399,0.16236648770243717,0.31858970472450276,0.041544243326787564,-0.03301414349543718,0.017464181531708395
1.3675,-9.819841399019905,-0.0092634320980024,0.20300813212863322,0.04053635038284844,-0.036194,0.023277486676875916
1.37,-9.870873,-0.148254,0.280966,0.039554,-0.03423958132885567,0.024129
1.3725,-9.877584453423841,-0.12722602663808352,0.32100869780159863,0.04075409094676679,-0.02894530989639139,0.018071291161128544
1.375,-9.817276124505304,-0.001965988997942064,0.289213999208485,0.042761,-0.024171107012822542,0.007941
1.3775,-9.755035263454358,0.1466242833392979,0.2081146626847311,0.043453064249552496,-0.024690026108412075,0.009325325556123653
1.3800000000000001,-9.887664308997705,0.21834757882383354,0.4076577907236093,0.04580706508821284,-0.02919359434160082,0.014033997507031668
1.3825,-9.99895978140114,-0.08495201440396491,0.3993701249935957,0.04414684885058453,-0.027617115736837512,0.0199827423841625
1.385,-9.897053064044721,-0.23911131849062836,0.2798065476553763,0.043968931390989806,-0.025376205504768167,0.017300189930943743
1.3875,-9.908569315199445,-0.16404594229711852,0.38836628486931796,0.04251172663915641,-0.0253765906006419,0.009161678358551317
1.3900000000000001,-10.13175758905056,0.11897482793260689,0.6926439886746674,0.04080041689889824,-0.025784001406351276,0.0058372591607260774
1.3925,-10.184399883127934,0.2145022038987215,0.6700909087250615,0.039152158521173965,-0.024943668160430112,0.013381615182613
1.395,-10.003714061544734,0.10991525906932038,0.39115337200287653,0.040004104072919176,-0.026210296243703537,0.018981168999760167
1.3975,-9.90010648612415,-0.045869839061118675,0.27619505459787586,0.04205155077326339,-0.029430101546526775,0.021116248044799286
1.4000000000000001,-9.966020948113432,-0.17282204977736082,0.4519759077572127,0.04542421081165553,-0.032681,0.016711666651042602
1.4025,-10.02644174215101,-0.10172808438940721,0.4943014324447632,0.04752054431658165,-0.03170815165816935,0.011314758999757049
1.405,-10.00611385182362,0.07379215668661533,0.4152087235086614,0.04747619676850395,-0.029932,0.010662781026771699
1.4075,-9.981315732320216,0.1535807919131614,0.4689635857801879,0.048397404830393495,-0.029543156689280883,0.014577339592944338
1.41,-10.063615175933622,0.10075345399605251,0.5533757449134739,0.048298813838008686,-0.02976307857131563,0.018864058933227797
1.4125,-10.008735499270587,-0.010856081119219697,0.4627854796843153,0.04948663197417206,-0.03128953492765758,0.02079379335166783
1.415,-9.946257585015855,-0.045443401809604184,0.4279660509287782,0.051007,-0.0307047655742015,0.017562
1.4175,-10.068743074739354,-0.00041557844491930084,0.5810671018314274,0.05040853930410754,-0.029658455354854906,0.01598462859439773
1.42,-10.051657358758417,0.052478300901098916,0.4870345604846073,0.04744742988043403,-0.032876757117744744,0.012355939469475061
1.4225,-9.89978287116599,0.17027310149609137,0.2771910677273799,0.04460713059130844,-0.03195712044644925,0.01100913059130844
1.425,-9.836780960783999,0.19655293286207387,0.33087096549120637,0.046078807406217434,-0.025351,0.015331187581332003
1.4275,-9.85055,0.065758,0.417264,0.048717,-0.02772430159919703,0.021838
1.43,-10.100224418579423,-0.07905336833343729,0.5781986494376682,0.04638623808263665,-0.032681,0.010760632775605962
1.4325,-9.958471473475667,0.07061545212486356,0.31090542044865643,0.04744572426775731,-0.032681,0.009989982705238435
1.435,-9.852677372930932,0.1604797216250733,0.12679965130585957,0.04921225727219971,-0.03520014893093452,0.013205918309924698
1.4375,-10.034686016696696,0.16254231051051052,0.5495924204204204,0.05263006966966967,-0.036786823783783784,0.019173958918918918
1.44,-10.096726599689681,0.020806686392555673,0.6014654412102407,0.04823243522110174,-0.03195829166795977,0.021950500325833927
1.4425000000000001,-9.994738024804938,-0.12534373134524823,0.40019654130997206,0.04549100295540177,-0.028312579419127484,0.020258902345363445
1.445,-9.811704091950077,-0.08110281647189267,0.1461318325876483,0.04861467285793791,-0.026275108724063814,0.013435372179028467
1.4475,-9.95731157093739,0.10396746439335039,0.4366443637920082,0.05122103709939866,-0.023884436703218964,0.01236909274849665
1.45,-10.156118104011624,0.1559162186132868,0.8329338776495261,0.050906790378561655,-0.025764620243764583,0.015472854612963053
1.4525000000000001,-10.087549488361796,0.05982737969848265,0.7380769827135438,0.05032157001005033,-0.028203483135678498,0.017953161045226165
1.455,-9.935007638167937,-0.0804281381984755,0.41533930015266757,0.05066694632061066,-0.029322,0.01783294632061066
1.4575,-9.951871896520295,-0.12896631372418688,0.3073799977213386,0.04966071931640161,-0.030154205459292687,0.016659914816045562
1.46,-10.087887582657297,-0.05873896421590716,0.40739414426700427,0.04898769540721815,-0.024679685257106558,0.013633935924624786
1.4625000000000001,-10.159391312959846,0.11811772647272653,0.6072747084395372,0.04990588016350106,-0.014661,0.012083241356095523
1.465,-10.127526487661198,0.13979118917368982,0.6465397404871811,0.05096628102531438,-0.016767480101894737,0.018222077299793235
1.4675,-10.03973245632237,-0.1646896294951407,0.5725420439370071,0.0512613703659102,-0.024640995562760712,0.022193581723019898
1.47,-9.979025797194273,-0.3074781370167172,0.5466576375941772,0.054798269708070044,-0.031727548463568775,0.017975070405502752
1.4725,-9.95048752219977,-0.10829242494948392,0.5411646106415997,0.055894,-0.027144194947121312,0.013134
1.475,-9.820580096874998,0.1308189765382147,0.4533300469235706,0.05521620595854917,-0.0267300884715029,0.01288749276230568
1.4775,-9.911536884942239,0.12126921803348006,0.3546742695213389,0.05477554450365482,-0.037660783711389055,0.017686416411224013
1.48,-9.994539470379747,0.023432055696203158,0.27464859443038037,0.05625863999999999,-0.030608129113924118,0.020487098734177207
1.4825,-9.937412613642072,-0.054125234674383425,0.24485067594789864,0.05846782703328498,-0.023671,0.018544750718765334
1.485,-9.823676230685543,0.02222733879434549,0.4293872260792214,0.059704338196277976,-0.02084241535231408,0.013149938387148013
1.4875,-9.987943292872577,0.22081486969042807,0.7707847857451496,0.05717462303815686,-0.02106330165586777,0.012499273866090748
1.49,-10.140303977504383,0.26254856740717164,0.860299236519523,0.05241330087649404,-0.03142260515697208,0.015590320988047792
1.4925,-9.912660309541943,0.12209583355415198,0.3414053915151752,0.049824726286116935,-0.03561297445149173,0.018951211782945697
1.495,-9.652337495975983,-0.005162248815863078,-0.041023418949356405,0.05021955285251594,-0.034208,0.01893812881270236
1.4975,-9.780918628078389,0.02493111631728364,0.3111867173276839,0.04993999376770543,-0.033817946227573156,0.016976240018885674
1.5,-10.167388899814172,0.16622691459966066,0.7451761671649026,0.0500624698230589,-0.03301320012927204,0.015676012200048477
1.5025,-10.013278989051486,0.19440201573044524,0.3693894350611888,0.047017779099930886,-0.027623599815370777,0.019206483443341575
1.5050000000000001,-9.761145445616993,0.13227742714320007,0.10029922683409197,0.04728947959671582,-0.02710450213233525,0.022815486662642003
1.5075,-9.766221632420821,0.012162222902222741,0.22235877294913062,0.049675539814751424,-0.029305890675814846,0.024165820061749527
1.51,-10.26414391894743,-0.11340026619806737,1.0101979505007994,0.05396093515083269,-0.025652830744977175,0.015601382947904934
1.5125,-10.127430688200086,0.036687233556567,0.7746645261660683,0.0529168957506075,-0.024039541290819682,0.01427271852071359
1.5150000000000001,-9.962145079003934,0.18853216207315346,0.41811652076730516,0.050173995110211034,-0.0283498823209822,0.018487642978672895
1.5175,-9.981563662070775,0.13326484822590096,0.39944504653878177,0.053036246529250645,-0.036935387232217565,0.022303769979745137
1.52,-9.997430920557246,0.012282232281824096,0.4185292178574864,0.05476704554683747,-0.041386,0.023849771375500397
1.5225,-9.998469517826825,-0.09570192230899968,0.45052576006791223,0.05383339680814947,-0.03732475687606132,0.018982215212224318
1.5250000000000001,-9.936551613034165,0.0684143606120792,0.42328763984777507,0.05347401541266966,-0.029686979703480464,0.011502954523111049
1.5275,-9.845630807368673,0.2647476627886748,0.4544246340208229,0.05400373756959552,-0.03133799708545174,0.014592684333091627
1.53,-9.972025258273193,0.11796640452542426,0.3730472178921047,0.04576352640705017,-0.042366021450517995,0.02311645351911396
1.5325,-10.012336181050374,-0.02274907309753335,0.41223863562700924,0.048528884930332236,-0.03807468951768494,0.022067502893890686
1.5350000000000001,-9.788712730222917,-0.17799830110937329,0.2334116314774572,0.05404072452047685,-0.027189971529289928,0.01731056443753222
1.5375,-9.848649046886703,-0.005050001301762197,0.3691702425436371,0.05265760198145263,-0.02968019608317502,0.014082271873739878
1.54,-9.973807190568948,0.1756612848463795,0.5767186524488654,0.05391650068405803,-0.030876621631469977,0.013428643425258832
1.5425,-10.133662119560858,0.24873328199522798,0.7719669895178999,0.0571747983293556,-0.031425331350835306,0.017599711284009487
1.545,-10.179030671919007,0.06825886048976343,0.7100968746362275,0.058589770346126585,-0.033962116571697544,0.024195952776077397
1.5475,-9.956576407828116,-0.03510285212960266,0.2918781203334008,0.060934,-0.035096727133129606,0.020159
1.55,-9.814778692839708,0.13035866963385215,0.21968898162734168,0.05925054156224567,-0.03213486253864931,0.014720297331163354
1.5525,-9.900713704486245,0.33280790658828985,0.32318391050552536,0.05781909481307312,-0.032223,0.010448859915353834
1.555,-9.999999,0.436394,0.342539,0.059101,-0.031774574524495704,0.015119
1.5575,-9.98961881504873,0.2910684550487115,0.40835541686160814,0.05684437380116926,-0.027542954736841575,0.015570473021442563
1.56,-9.83852025045243,0.06477266031316481,0.386052347520649,0.0531204390746715,-0.02476194055865936,0.015894336489102195
1.5625,-9.721092412648412,0.14624917034165252,0.32993341434456025,0.05112767518778774,-0.03101637799854616,0.013558329779500848
1.565,-10.02106972755715,0.2625667659567792,0.6898845409207583,0.04857607586595673,-0.033598,0.012788852990917544
1.5675000000000001,-10.244414402187608,0.1761280202824857,0.8259713037594978,0.05120911132198496,-0.034548431235059913,0.0181342688446219
1.57,-10.038736799515105,-0.06148167526103187,0.5693775111621064,0.052951226099886846,-0.035741719870696596,0.017709466377888894
1.5725,-9.831800062557557,0.17895299680875604,0.3446516592568952,0.04965810809209024,-0.03337709285616593,0.009356664016412103
1.575,-9.90901011926861,0.2807541714362725,0.42326493549575284,0.05014242082753041,-0.034648557742935404,0.008705
1.5775000000000001,-9.999125755413994,0.3044094317085236,0.5161966852706816,0.05172477708073146,-0.03666289395570341,0.008705
1.58,-10.116718449766017,0.147818458602545,0.5405804584734533,0.05033504400193642,-0.038379634584476054,0.01850830288203967
1.5825,-9.99650069242317,0.011979271900886164,0.39993116677274143,0.04939191384914367,-0.03171842899550592,0.016845571004494082
1.585,-9.808455029352315,0.05795515857321425,0.2773271054536908,0.047254554192740945,-0.033445,0.013976126473717179
1.5875000000000001,-9.870276,0.172166,0.341942,0.046273,-0.032989621964175334,0.01237
1.59,-9.975211750486151,0.17165437726049088,0.4289615356072896,0.04679618241646876,-0.03130764483927152,0.014854474273951066
1.5925,-10.044687547450422,0.059989484796974496,0.4848678778470234,0.04896556092540137,-0.029673258347497625,0.019290749556185118
1.595,-9.834415348732797,-0.02582376040377487,0.3597324152881062,0.05084628427326805,-0.0277378879961545,0.013268218982154677
1.5975000000000001,-10.14363406662743,0.1161684123535501,0.6331717770185818,0.049307095925013436,-0.03158680392717681,0.011632634474553774
1.6,-10.283176890749893,0.17289437369705934,0.7485611258085592,0.04887746307701483,-0.03569801860742146,0.011479506093275586
1.6025,-10.185356223141342,0.05416526678181974,0.5816677235856788,0.052024627568050555,-0.03379060833641072,0.01787001751861347
1.605,-10.015963773709887,-0.014131385370521526,0.44801084477068576,0.05500046454895552,-0.03208860424320225,0.01641719149025564
1.6075,-10.10837587111824,0.13008440530143073,0.6389011215059712,0.05396715045356033,-0.034151885905113484,0.009410393433411102
1.61,-10.213670427236123,0.23269015379248442,0.7275195174113559,0.05298467555301984,-0.036041,0.01085667444127511
1.6125,-10.185316,0.220588,0.621712,0.053603,-0.03774056833587437,0.016952
1.615,-9.988995192284754,0.14651913985570036,0.4394869297290377,0.051115088193041544,-0.03651975118486454,0.01727911988776655
1.6175,-9.710633054017176,0.0066201438645070165,0.2802810933969401,0.04755515399332063,-0.03017485901240468,0.01661339333492375
1.62,-9.796463885103329,0.04006577938009546,0.4635730487257405,0.04660164296180334,-0.03314892442392025,0.013333882698810137
1.6225,-9.989164268075713,0.18509515608347613,0.5836992278912915,0.045168593399660235,-0.039706,0.012146852103858357
1.625,-10.022667118858212,0.17933242746841366,0.6199511583996257,0.04748865114646701,-0.03673919489939167,0.015872497894244268
1.6275,-9.688492074562111,-0.09488281767318613,0.22477547401832626,0.05392003638169921,-0.03194370740915038,0.024561605040522454
1.6300000000000001,-9.746272240075154,-0.1421857091528206,0.2613183309927848,0.051572598882169765,-0.03665505900546023,0.018102568167674124
1.6325,-9.94049233601373,-0.054028801189244274,0.4840713490314573,0.050817873779302566,-0.03808696700743264,0.010377560443681955
1.635,-10.136724451775446,0.07088766179226381,0.7243861657403701,0.05616163277328424,-0.0341479517834548,0.011943932134219624
1.6375,-10.058523931343291,0.027603960411060436,0.6314006988255515,0.05875449278199181,-0.03323427822363598,0.017818064839735838
1.6400000000000001,-9.76022958948215,0.08550650367462916,0.29537240043509233,0.05128618062899029,-0.03933932791676508,0.00819139220619545
1.6425,-9.797656239829747,0.11737475901631682,0.32131157712934577,0.05100227911090091,-0.03706687602742959,0.010841966204776619
1.645,-9.817072,0.133907,0.334768,0.050855,-0.03694859159598577,0.012217
1.6475,-9.939172912340421,0.09075903647969255,0.48532708015473186,0.052496669709864524,-0.03731172061895557,0.015969497601547214
1.6500000000000001,-9.878773217668968,-0.0593344364023497,0.4032262797232496,0.05049824023416696,-0.03497876647152729,0.01598589249600845
1.6525,-9.767240202159009,-0.10379668319421108,0.28008107215201417,0.05248300250408063,-0.031071478885520844,0.014787928682676579
1.655,-9.741708457844862,0.037978096397087165,0.27846789536982897,0.05871766426672673,-0.028773391214237484,0.013513664266726726
1.6575,-9.928211254643317,0.09988201164358465,0.5349370903057128,0.05627111428272805,-0.03213500541416252,0.013368850608831933
1.6600000000000001,-10.150446234414384,0.0029118052376961713,0.654992177424034,0.0595027437864888,-0.031747617943524355,0.01896815463362318
1.6625,-9.977922187346593,-0.030696848373645894,0.4824675056833014,0.060552194328607215,-0.031557092696294524,0.017632603884189156
1.665,-9.858910207378983,-0.015250519579352029,0.3160760873404489,0.06159102001766077,-0.03278382653287312,0.015186485163361914
1.6675,-9.925934228990648,0.0728058668559924,0.4045251350183363,0.06339686638740975,-0.034667,0.013706458890072156
1.67,-10.173938617240072,0.16801287207939364,0.7695496987649635,0.06376958145557665,-0.032725530655324624,0.016927152400756058
1.6725,-10.215435416294849,0.15930341786643334,0.7679150271499753,0.05846982422089726,-0.03082250667315424,0.017865735506629198
1.675,-10.01857693845679,0.06811483325368031,0.5566113975333339,0.05197309892854387,-0.0307658670931935,0.016968314252678685
1.6775,-9.832434678311737,0.04916060077008518,0.34983320265087026,0.05221766578304329,-0.03232471909663082,0.018470531980747874
1.68,-9.829191334585227,0.08888234325907962,0.37473137580199295,0.05701669687185619,-0.039859,0.018371017152894183
1.6825,-9.946424846101058,0.18158904938036652,0.4913179036034362,0.058350953860819635,-0.03742025784556686,0.018352472678741554
1.685,-10.033010890095557,0.18342378338392148,0.598327686250705,0.05508846311410901,-0.03201422974704885,0.017998522855536856
1.6875,-10.011677215072876,0.12608090721649484,0.6814869765375045,0.053756,-0.031529205119089944,0.019242
1.69,-10.052054349236592,0.14127853815772876,0.6743479497413256,0.05381982754574132,-0.03742056079495252,0.019178589627760253
1.6925000000000001,-10.057161069201623,0.04915680052743726,0.5418640987964346,0.05385222529848956,-0.04202404210980569,0.020280042272836436
1.695,-9.986596595109031,-0.05503648293328779,0.3616929879050237,0.05737466601195301,-0.0383195370828621,0.020487666994023494
1.6975,-9.823135456756255,0.08432479317887012,0.2668399697126958,0.055802394587581024,-0.02858412908248371,0.01648270587581092
1.7,-9.795044930998017,0.1468988749504288,0.3142073198942483,0.05364721652346332,-0.02794703727693322,0.017606272438863153
1.7025000000000001,-9.856194257321436,0.1942173475000025,0.44737665642858315,0.0540963000000001,-0.028569926249999954,0.018784
1.705,-10.08108541852093,0.11555242444696115,0.7942122431690044,0.055320607246188785,-0.029680612371067235,0.02074382686344481
1.7075,-10.218754248734692,-0.027369296480191964,0.9691590413925537,0.05690319564465789,-0.029049774852340872,0.023159618573829525
1.71,-9.944976696000646,-0.1203307439094094,0.502240438509483,0.059346763915836806,-0.02857159515901049,0.021207413437198883
1.7125000000000001,-9.730257027411044,-0.18182590011702998,0.1734730306647917,0.06115943588483167,-0.03529105276217254,0.017545575234082098
1.715,-9.846621868332562,-0.027485107328026705,0.3552501389019,0.06300767890500701,-0.0367978284573389,0.01417105024801119
1.7175,-10.065450498969925,0.1344910244539178,0.6748780665384162,0.06325962753196154,-0.0321014001120174,0.014251359249969595
1.72,-9.986315493996994,0.22142636886602968,0.6351197969897941,0.0630627562586057,-0.025704444909393057,0.019100806336946993
1.7225000000000001,-9.814030242403023,0.13471707725126536,0.446187648726805,0.06190058159359189,-0.034653670548062454,0.023722836812816228
1.725,-9.877390697117047,0.005428012280800587,0.42183126400760845,0.06152612605361706,-0.039248,0.02171908438447355
1.7275,-9.970575345265349,-0.04980318193548036,0.4449428857440182,0.06103394305931321,-0.040631714838709754,0.017290291654526387
1.73,-9.947880787084094,0.12048257814694391,0.44462444159467457,0.06082364597606404,-0.038358797314734155,0.012867874521677094
1.7325,-9.874445712825542,0.254986354969207,0.38225591191790115,0.06204804689623709,-0.029350800291904428,0.016118852018243795
1.735,-9.895202329185286,0.3002466482424384,0.44615421063075306,0.06194027714848869,-0.029238464333114632,0.021527991126806947
1.7375,-10.033538426355122,0.21497808872020013,0.6044686519274157,0.05839906459494716,-0.034667,0.021858419025026592
1.74,-10.039576590199811,0.17321893268633093,0.6276496157944823,0.0582291710751665,-0.031054449343482424,0.021435379581351076
1.7425,-9.790629374820801,0.06061298753382571,0.32397780093046546,0.061214241547590705,-0.02791264813671953,0.024435
1.745,-9.748348228574118,0.01801850425113178,0.23316717094488246,0.0641110906575044,-0.033358059178510285,0.022113668399187682
1.7475,-10.081739909027656,0.07072318323165384,0.6011540347187913,0.06453692235462336,-0.03583338826501421,0.01910493182078172
1.75,-10.229851027219597,0.18388140293010968,0.703358586422224,0.061848100232167164,-0.03147299255463934,0.020192478424465615
1.7525,-9.973390739529249,0.17891167155544804,0.3916516624411586,0.06268258543072061,-0.027258106144139833,0.02125861055083715
1.7550000000000001,-9.839385468888718,0.1000686567920727,0.4812270004784317,0.06369246886970287,-0.030273414954455853,0.023177324486336758
1.7575,-9.93050027144195,-0.031469104101126306,0.7116192546441938,0.06161097327715353,-0.036499,0.024821299063670393
1.76,-10.00131102921359,-0.09261555355251858,0.546078825983599,0.060934,-0.03940451489574387,0.024435
1.7625,-9.953284805126914,-0.027437135244353927,0.3087181321631528,0.06337868935471634,-0.03957815451445919,0.02284047094330103
1.7650000000000001,-10.0703131232582,0.06415058119239443,0.860193760277797,0.06863675186157374,-0.039054285977282235,0.021829045285150873
1.7675,-10.160330450718618,0.03316047324348096,0.9192215969254327,0.0676943849897004,-0.04197580842092881,0.020038733369430822
1.77,-10.078379289166596,-0.02133850806902814,0.6473347561495006,0.067195,-0.043524,0.0198285355819089
1.7725,-9.886416,-0.077714,0.19847,0.067195,-0.043346747272065084,0.020922
1.7750000000000001,-9.899355192880565,-0.032046559999995304,0.38088596711945666,0.06926905653395805,-0.041380696440280855,0.01988518393442612
1.7775,-10.037035033690046,0.0670253907178109,0.865864314377806,0.07168196238547549,-0.036409246997715236,0.017621669621257573
1.78,-10.072616998325634,0.11407581408610126,0.8674025277342385,0.06933103447638907,-0.03528193104722188,0.016728463196782374
1.7825,-9.744672553284968,0.09996860880660452,0.15377240658494362,0.06637916220165126,-0.04118538276707527,0.017562
1.7850000000000001,-9.624986176808905,0.09988718611322989,0.05184540844099446,0.06913005221982445,-0.041871531177154114,0.019032733707454938
1.7875,-9.869151328258546,0.07983170671454366,0.5059049036265976,0.07398745421903045,-0.036967441077198904,0.022244774434470493
1.79,-10.09654701179382,0.07564866365384548,0.8172684050157615,0.0713952285088272,-0.031765,0.02011699276481705
1.7925,-9.965859173444638,0.07123021472133498,0.5395968968082543,0.07334841681807013,-0.031284822705622405,0.018299486923643433
1.795,-9.813803639322794,0.08243116199639958,0.2478274092151275,0.07998929244106463,-0.03220243199679799,0.02355162791114667
1.7975,-9.82684988048189,0.02121463621532682,0.3027713646956195,0.07992550074524714,-0.03534291396918163,0.0241924826447869
1.8,-10.059596579876041,0.1578629419170474,0.7628741284692921,0.07675688116356662,-0.03702534535050059,0.02474
1.8025,-9.93032007318225,0.09673256629839541,0.6201325119263488,0.07107088712936734,-0.03439822574126534,0.026111140878186948
1.805,-9.72563312167202,0.003090049254019017,0.2345539919742733,0.07250256180064299,-0.04114619697106082,0.02776862546623801
1.8075,-10.029857680674935,0.007635547541892553,0.6026165966347315,0.07487191529411756,-0.04649340831156794,0.024383601567086362
1.81,-10.360507718222223,0.09503077570370781,0.9726724734814772,0.07655851822222233,-0.0405576559999999,0.02350152296296303
1.8125,-10.198773450247,0.15142860409315456,0.5953457402964009,0.07968403175723358,-0.034894249117854624,0.027004674664784758
1.815,-9.8840735864227,-0.040645134836405736,0.29959792010543884,0.07833815423786634,-0.03327229497286391,0.02892040476352924
1.8175000000000001,-10.018327474407705,-0.11384893922855566,0.5166350063612677,0.08156080516789477,-0.03658873452502805,0.02747702657845444
1.82,-10.20376811535402,-0.06432563347653165,0.8197333028289652,0.08633472611933164,-0.03483918154653931,0.02298784823548118
1.8225,-10.145233550936453,0.050626085723842765,0.8225648428953631,0.08610159393693266,-0.032987,0.020430421356903976
1.825,-9.907124125746535,0.13281917725527465,0.4135859826161956,0.08688230394231533,-0.03554327387726302,0.02369159151971151
1.8275000000000001,-9.893545886803226,0.1053985389492647,0.38276195629565235,0.08533020552092656,-0.04441232765805968,0.023660560534282726
1.83,-10.321419676463606,0.14676356747214372,0.834073646673419,0.08334632434669371,-0.03676750117783232,0.02263641379829264
1.8325,-10.226181988727149,0.07178327765398106,0.8286312474374186,0.08473663709641635,-0.032673943012588594,0.02487639021463369
1.835,-10.101200244734699,0.022399144470585886,0.7689947230732366,0.0858767928067227,-0.029445591702280855,0.026427913277310984
1.8375000000000001,-9.967779687179508,0.23177209615386243,0.579782289151902,0.08410691469427989,-0.039860766370809986,0.02031576824457539
1.84,-10.139508479846713,0.32099728590767285,0.7502799223229808,0.08515140715523853,-0.041692,0.022343268340310217
1.8425,-10.229061271644612,0.2947600512712639,0.8498731455812855,0.08572454226370509,-0.04151704854914933,0.027578027589792168
1.845,-10.056518141078788,0.1227275692561734,0.7449136454568351,0.08449604079886776,-0.04028806799811293,0.031357682563296144
1.8475000000000001,-9.845425586976518,0.0599682024304056,0.5734934642217344,0.08157053297506615,-0.03977885277172614,0.028303441118373043
1.85,-9.820825319951377,0.005235531150724615,0.3999763374230045,0.07736657962722848,-0.04596671722852546,0.02529427184764985
1.8525,-9.86908636792689,-0.01980512688107071,0.30355120031004584,0.07756080893105048,-0.05280064137436374,0.022540714090698688
1.855,-10.084040240155037,0.16385383830090056,0.623469034579969,0.08015385143489952,-0.046631444670147223,0.0192376663249486
1.8575,-10.198637049085521,0.3005613890831436,0.8737773951369937,0.08102158796346823,-0.03651229589846997,0.02094119896097703
1.86,-10.084279495548222,0.14054223223874243,0.7355874378955716,0.07786504109725671,-0.03926208501970907,0.027013760627463634
1.8625,-9.984533992638415,-0.10645522157438736,0.5093742019486538,0.07705693762759057,-0.04594031702752871,0.026440203108567824
1.865,-9.944701978502623,0.08444060410109176,0.5069648146685723,0.08307791456366231,-0.04667744101096827,0.019868510672389275
1.8675,-9.765513833960243,0.3425396126903742,0.41348836509596654,0.08726696179679433,-0.03604960407511874,0.020833094234023346
1.87,-9.648311688537587,0.30678874201916956,0.25177887983562364,0.08726453054870668,-0.03701030741439068,0.027270458960599705
1.8725,-9.84057537281175,0.1707403438239594,0.4959537911198288,0.08008170139853263,-0.04214996488997566,0.02739466628850829
1.875,-10.076859894992305,0.2126782881496389,0.716159153308867,0.08177362673138393,-0.037432591807742395,0.025145840416715994
1.8775,-10.103082406574007,0.21399275591169512,0.7716388814390867,0.08396369756336879,-0.0310971508421915,0.024505656974652477
1.8800000000000001,-9.83640551423613,0.16185829790677594,0.5637485412287894,0.0830175449704235,-0.029407255628993052,0.023552466267055632
1.8825,-9.814342548903932,0.24353353910690728,0.5025374129364152,0.0807983771041947,-0.03530171198917477,0.02115620281461431
1.885,-10.057903049350486,0.3727521536989978,0.812457719523321,0.07955789094152002,-0.04037206877120986,0.022792508089337873
1.8875,-10.110388300266798,0.3271127648799452,0.794491402473929,0.08261103269463979,-0.03945787499393658,0.025776659616783916
1.8900000000000001,-9.843938201339755,0.1992266484947311,0.4239474728956859,0.08319164165967216,-0.03856785239053,0.02487920870377699
1.8925,-9.64671445189639,0.17148696052786094,0.0987708753763537,0.08136574194525889,-0.044290060400782205,0.0236552433528836
1.895,-9.907724534175053,0.21522223180020766,0.4668221448537444,0.0765315136362585,-0.04819385485489641,0.020265502929818414
1.8975,-10.17067549854219,0.2944547947097488,0.8786944154207054,0.07556516285816874,-0.03520034637941365,0.01536532571633747
1.9000000000000001,-10.02449865987628,0.4433067354486247,0.6483492062334055,0.0734489478833638,-0.032868469869066,0.018429691734275968
1.9025,-9.864098237275115,0.38942287528384467,0.3975033978690049,0.07100741086462899,-0.0419451765938871,0.019782355423580762
1.905,-9.950737621226862,0.2835693696938885,0.49385364626739336,0.07307718206412585,-0.044288,0.022350545868118604
1.9075,-9.914887019862986,0.1190002567337043,0.5699338781878444,0.07616943892154689,-0.04060541130607748,0.02161898619226529
1.9100000000000001,-9.747934979130012,0.23943614512931505,0.4210102011631406,0.07838744746990832,-0.03333761132880429,0.016458907567631725
1.9125,-9.671567062249814,0.4181321655687933,0.3347058967063653,0.07878677233341769,-0.030670280238155836,0.016191218976438198
1.915,-9.882903229483764,0.3974831739526095,0.5411536748909496,0.07461123774360576,-0.03730753848423043,0.02454514098540727
1.9175,-10.071854075367483,0.21836942850779578,0.6154921018262828,0.07195022129175944,-0.04037269443207129,0.025804270824053517
1.92,-9.98954848818653,0.16747509958549245,0.48732011067357367,0.07082751554404162,-0.03307403108808324,0.018548324870466475
1.9225,-9.87886873808991,0.25255012827218615,0.4952054759951363,0.066737,-0.02422070605103272,0.014507666498177361
1.925,-9.827234,0.387374,0.454328,0.066737,-0.02776860806324126,0.01405
1.9275,-9.926256344347825,0.37397800111647894,0.6109170732796547,0.06595087044551799,-0.03572533440687062,0.015252511733762734
1.93,-10.13589196352355,0.27534953381345384,0.8571360041623547,0.06422453978232122,-0.04033019991048726,0.018313800089512736
1.9325,-10.015071922373158,0.04525057196270062,0.5776634791475997,0.06679843660491616,-0.039554,0.01859470752391324
1.935,-9.875057358835836,0.05098917544561006,0.5880325913411459,0.0708524546338394,-0.03808074849366784,0.01713137424683392
1.9375,-9.859457301763712,0.2555195684948055,0.563917587098333,0.07075955375694612,-0.040268784489007,0.01495319231698478
1.94,-9.841949616587515,0.2880474545307384,0.4620565874308183,0.06888081732309712,-0.04184971305362136,0.015101179663155379
1.9425000000000001,-9.823301651135514,0.2535595257663493,0.41494687150934995,0.06777370270093461,-0.042302,0.01807472598130879
1.945,-9.917565825111003,0.19919394945677638,0.5680901277987669,0.06758711591875291,-0.03627021401983934,0.018375770070854995
1.9475,-9.827255545432216,0.11517661171469029,0.36526286355691945,0.06550680453471894,-0.034095793311289556,0.018848793254605575
1.95,-9.874454522339812,0.0491472149971294,0.3583631449995863,0.06496118693904339,-0.03536900180490598,0.018896488702928878
1.9525000000000001,-10.085695797764474,0.0412392313528499,0.7011889929292783,0.0679653674441119,-0.03754868997003902,0.017482514224475512
1.955,-10.222869812442664,0.11139612899759614,1.0476254238139548,0.07217739756214919,-0.03280592016038475,0.01784877221170822
1.9575,-10.052265120537742,0.04767872281282065,0.7210775639710363,0.07297948918304033,-0.030273482647363018,0.020140251830403293
1.96,-9.746363044847195,-0.04492688797706129,0.15989100335600037,0.07521660512576805,-0.03572580885538706,0.01744959470380996
1.9625000000000001,-9.921133004708443,0.13188563699809586,0.49236818291113554,0.07886235315487572,-0.039401,0.015179750215105174
1.965,-10.201925147828888,0.19577213061637488,1.0127792859552351,0.078954,-0.036025174038638245,0.015272
1.9675,-10.05762478800839,0.1025646090529663,0.9022944411507492,0.07688893735522896,-0.03233935339177681,0.016521784595629137
1.97,-9.745336,-0.047226,0.429818,0.073151,-0.040203114449359596,0.018784
1.9725000000000001,-9.803703796889913,-0.0022173107080294616,0.4419435783874471,0.07404348657481748,-0.045928882439199105,0.017471398404216812
1.975,-10.06741766683231,0.26851349229743676,0.4799436656808717,0.07771745611781086,-0.039834504769407725,0.016825795539664276
1.9775,-9.981564196191744,0.2761110770838132,0.5893486324198549,0.07257402593539779,-0.034593848886734065,0.017116837178352832
1.98,-9.961141727188076,0.2957189388590209,0.6979308579494792,0.07020910101130173,-0.032780299420955464,0.017443998193525146
1.9825000000000002,-10.001503097774778,0.32648406143815756,0.8057487765230377,0.07042534118780676,-0.034150450058985184,0.01780471324778245
1.985,-10.17757423934019,0.0712379963494204,0.696603957530097,0.0715383207596309,-0.03853779336299539,0.025809
1.9875,-9.95359668611946,0.028213290253582393,0.43999997553178916,0.07035607551976933,-0.04244294591996149,0.020981497728638117
1.99,-10.066268650570306,0.2198612552207384,0.6178609834406904,0.06856148513432837,-0.04068214750039278,0.01695254941084051
1.9925,-10.081001119882615,0.15522064816826173,0.7258800002152155,0.07050579791636044,-0.043484904201516,0.02375088856933213
1.995,-9.965564967278272,0.16112873592299218,0.5451389667007025,0.07434043312085471,-0.039510654692727375,0.024087505002054338
1.9975,-9.904270293333335,0.1696633599999994,0.4868958933333383,0.07599587999999999,-0.035774133333333326,0.02581946666666681
2.0,-10.034342663799968,0.03321843446408665,0.7756661831501832,0.07596357333970377,-0.037169424908424904,0.030691851568721135
2.0025,-10.246142702686981,-0.1325164920984764,0.8931155027432679,0.0778548972286048,-0.045708746663539995,0.026300555198124735
2.005,-9.98913869984806,-0.08980404011577617,0.5173201690304066,0.07909976325856244,-0.043381568929088496,0.02337223674143756
2.0075,-9.662704580615259,-0.010690463076193438,0.1594754497476778,0.07848539152607568,-0.039859,0.022487174078346637
2.0100000000000002,-9.706752082774697,0.11622941781235907,0.34493305179156086,0.07721545314194073,-0.041721662633520784,0.021106613058540367
2.0125,-10.047193114659079,0.14089304742218106,0.8563998173913187,0.0791714264195774,-0.042571243715846654,0.02259801746258071
2.015,-9.85357757899441,-0.05631250502792811,0.3422877892737389,0.07871031262569843,-0.039150942122905055,0.023987768044692506
2.0175,-9.773749872976511,0.04121318853847816,0.259447324796057,0.08092311222202205,-0.03972855021565449,0.01937005274704138
2.02,-9.88838765754183,0.10396554841055361,0.541311863494213,0.08482938009009013,-0.04217646775418278,0.02018726047619052
2.0225,-10.092658,0.123745,0.969632,0.088575,-0.04331052748380915,0.024282
2.025,-9.902326687875213,0.1303941101394419,0.46555305711415945,0.08268378181281015,-0.04093191852989845,0.01919835147719212
2.0275,-9.754913903531088,0.27188123809973197,0.4081434591562311,0.08438700529662009,-0.03856636477901219,0.020049653429449255
2.0300000000000002,-9.793788634024235,0.3051697089685161,0.5214666634673397,0.08733887493462511,-0.04179367389830593,0.02397997088619923
2.0325,-10.021355740466424,0.16859878441928144,0.8546982826322218,0.08617864083121589,-0.047495,0.027761002562918306
2.035,-10.12342777240592,0.08008649566486614,1.0195494084911456,0.08272651304008694,-0.044570960777175546,0.023531784768508146
2.0375,-9.99463346760106,0.11855204916441364,0.7844958484096762,0.0851907913746628,-0.041578102533693054,0.02015036517520245
2.04,-9.74672180838453,0.02031652271844667,0.29658758879515895,0.08185358350469522,-0.05330375084513788,0.023521925468725103
2.0425,-9.879455407705366,0.0758163228123866,0.3060558653162705,0.08662174391008001,-0.060581778505321135,0.02005878039937827
2.045,-10.063527989934693,0.24058683748209528,0.685983206606335,0.09316115537335751,-0.04614636676056389,0.018676182192147152
2.0475,-9.96764775566613,0.298869735688858,0.7935140808536564,0.09109595642379109,-0.03282347335269608,0.024684816300037472
2.05,-9.817195642196912,0.004099579187788396,0.45698910265372084,0.08271144430794901,-0.049634882437831485,0.029452123155823604
2.0525,-9.793271426226966,-0.015711997774466472,0.25176797845546584,0.08528958185222754,-0.05288209763730721,0.024390894612677724
2.055,-9.751302462617748,0.05002976279290918,0.1369798850840222,0.08978347156449745,-0.050512683133727296,0.02158790144378695
2.0575,-9.693549788072062,0.12157665894711656,0.2801834014225787,0.09249844541413169,-0.038567085194196556,0.02343083484791797
2.06,-9.771008474062606,0.1169461199967424,0.7244965176883016,0.09100395336485174,-0.03081593775676573,0.02638087603847403
2.0625,-10.08346091360137,0.20875295808383232,1.0367058892826593,0.09214990553586705,-0.037551504093853105,0.024031484907735552
2.065,-10.288158237649847,0.2791126741909469,1.0278323689741828,0.09210748966595582,-0.039244585055674026,0.024423324321250828
2.0675,-10.10433527107727,0.283062888946567,0.7689046612831888,0.09276393456493316,-0.03780009299369134,0.02821320439471467
2.07,-9.82448248378418,0.022432620625954816,0.609927619916021,0.08493117841375525,-0.04033492843673195,0.027555050525315383
2.0725000000000002,-9.800096304222494,-0.07787819827782379,0.5162284746383685,0.08274490667154594,-0.04755987714599403,0.020977366698377273
2.075,-9.944406665475173,0.11069998234518563,0.5822181336700701,0.08748716865335322,-0.0484073340585901,0.017627322045224905
2.0775,-9.897088748574841,0.3462615403066012,0.6496964312095752,0.08868761014610765,-0.042886266524550486,0.02060900274970118
2.08,-9.760136811398205,0.3941189762391888,0.5374732548306734,0.08741761746688874,-0.04038797031961307,0.029360215163772074
2.0825,-9.67844524454688,0.10683326124773379,0.39477862733437763,0.0882036503728732,-0.045049205396404064,0.033445
2.085,-9.900286941174475,-0.12777234853676436,0.580384728070855,0.09196439157486047,-0.04712977920892999,0.023111166061635564
2.0875,-9.818528674035433,-0.025479574083963813,0.6921842777723815,0.09225573336568793,-0.03896966459597215,0.020585143678718845
2.09,-9.737011665726435,0.2222567606225695,0.777628354212531,0.09036903352529185,-0.035982071118826224,0.02436273507333121
2.0925000000000002,-9.666841499630044,0.19749078272373294,0.42940571152585577,0.08998550767315172,-0.04441775676025227,0.02666326248428637
2.095,-9.65451518309783,0.09513755103259484,0.17367373532607394,0.09064331663043491,-0.05051615331521769,0.026948109510869435
2.0975,-9.71102142104676,0.0031155812421546428,0.1887168765108397,0.09389641045359425,-0.047097347383111256,0.025221920181437436
2.1,-9.794729972685523,0.08173401282733286,0.6432947783256966,0.09830269515752163,-0.031791431987752396,0.024282
2.1025,-9.856376992033194,0.20845743780913242,0.9795933304232362,0.09960543960165974,-0.026993865825726278,0.02451873334439835
2.105,-9.79425216108091,0.3248495142096455,0.6545432663754528,0.09915894379274612,-0.039534990268632816,0.02327421669509767
2.1075,-9.7520983900193,0.3509607034169842,0.21653649177606313,0.0996478778764478,-0.05015117507722007,0.0223363168146717
2.11,-9.794226409850038,0.36735046548950767,0.3339402280858129,0.10075277455048837,-0.043577806081674095,0.02755067205414104
2.1125,-9.768354982901357,0.3474287228350184,0.6740222477827906,0.09866711696351846,-0.03651206635548404,0.03124294460140053
2.115,-9.789002647703647,0.21833948831156355,0.49862589258608114,0.08783186044170059,-0.041006998347186525,0.027632760113987298
2.1175,-9.949396677359308,0.2019652930325328,0.46364451573497756,0.0910646170125863,-0.047852249888387995,0.029058957938731984
2.12,-9.988618524990992,0.11705525799901091,0.417539016872439,0.09496779364663521,-0.04411737981332835,0.029131833882429944
2.1225,-9.927651241968842,0.12884434702190858,0.5511447148882478,0.09923561853240016,-0.031619965229171196,0.025690668990742665
2.125,-9.868595776755448,0.3597006753833737,0.7846141062146892,0.0995313565778854,-0.02439105504439064,0.021999082485875707
2.1275,-9.861217042247773,0.415837223834026,0.691810520132783,0.09779833669235326,-0.027240044675755283,0.026997168867812366
2.13,-10.031732605867274,0.27061014934297994,0.5705203213666273,0.09688342768725378,-0.04287920686268035,0.032939603170170965
2.1325,-10.18210552527214,0.13809164978856914,0.7499142865496604,0.09671998554205986,-0.035458616455243064,0.024524910085471283
2.1350000000000002,-10.006533223811163,0.09204480748543098,0.700449796346154,0.09771956222208882,-0.029850859893099276,0.024488618519008028
2.1375,-9.816762015290509,0.13459930454012597,0.5448986859562298,0.09687842135967982,-0.033006917384145976,0.021975711550222675
2.14,-9.867077347623612,0.34435919163206996,0.5771687684400354,0.095142,-0.03896048649063687,0.015588657660424578
2.1425,-10.1027053548668,0.465088,0.9048064983414765,0.095142,-0.03490418911819866,0.014355
2.145,-10.117404311396367,0.4094183275954908,0.9588996370820266,0.09977099961177213,-0.036490929261114656,0.020057129812147852
2.1475,-9.941252485950338,0.34396385471107427,0.5711985458585465,0.09970952330469604,-0.042913,0.022798719190302665
2.15,-9.8637,0.352702,0.285748,0.090408,-0.04310668170090778,0.01573
2.1525,-9.923934198972493,0.4302125293294599,0.44894033293291735,0.09297267801736567,-0.041044942093584606,0.018294678017365666
2.1550000000000002,-10.065196998696418,0.5044219085587633,0.8585020451479494,0.0967124604239835,-0.0351840581363704,0.022953134095871033
2.1575,-10.123317387933591,0.4036346129282842,0.9688543651147766,0.0954216975344399,-0.03687665503355821,0.023588327954786235
2.16,-10.03580606973821,0.2942475462198899,0.5599484161256253,0.09729097746596897,-0.044288,0.022888775999999965
2.1625,-10.000555770679957,0.3384911741879723,0.6471994035080608,0.10727315855348696,-0.04517093793850162,0.021566062061498387
2.165,-10.12702175101132,0.3424857237295803,0.8701026427311114,0.10409728494585492,-0.039745300940960446,0.022690330214744595
2.1675,-10.097914864421055,0.32297049049855386,0.7532347030838671,0.09967426376865242,-0.036164227844997086,0.02210879610410646
2.17,-9.931252,0.338355,0.499761,0.099113,-0.0412267587517909,0.019395
2.1725,-9.914837944673154,0.40653369869259204,0.3827618389142924,0.09728538311694218,-0.0506190994435641,0.0235880994435641
2.1750000000000003,-10.060061716498172,0.3926829555246058,0.6049391981352876,0.0976199086395836,-0.047120820197371766,0.023399101737603442
2.1775,-10.123481095650178,0.2520340337234951,0.8750837626782205,0.09357851170120562,-0.04127231487132725,0.019431422992483943
2.18,-9.934419001431841,0.31170556904584124,0.4735606070721667,0.09487246572499722,-0.040623,0.01754028857177403
2.1825,-9.825593693726319,0.417838696067372,0.21673005303580023,0.097433,-0.04385209116631624,0.016799
2.185,-10.052700243512206,0.5030190322926847,0.6229436786341599,0.09521170799999988,-0.04768964146341449,0.017965096487804942
2.1875,-10.254099325358851,0.42259900717703347,0.9435144425837321,0.08865181100478468,-0.039384741626794256,0.02302661961722488
2.19,-9.928803836172378,0.10963418858155811,0.5310121887523247,0.08247157915747087,-0.03679426905195313,0.022203616299637775
2.1925,-9.8079910377435,0.08200838212703629,0.2971845277602813,0.08233031114981991,-0.041692,0.012901084049540764
2.195,-9.958152,0.312052,0.426829,0.088575,-0.04101127742941558,0.008552
2.1975000000000002,-10.041037475432516,0.3771754178779898,0.8516146888606956,0.0875673114824795,-0.04170077106591645,0.014727702847343115
2.2,-10.046220511403714,0.35181177902656646,0.8807502750528993,0.08656411051022801,-0.04287110500822951,0.016385998166000497
2.2025,-9.936740869551436,0.2632241128903718,0.6243736448644419,0.08853598722955186,-0.043898471249700304,0.020986687320701105
2.205,-9.923994497282944,0.16416526551320546,0.46989161263325346,0.09345799242131905,-0.051001848919816864,0.024276558696820934
2.2075,-10.118362,0.156624,0.707795,0.094684,-0.05385582672628843,0.019548
2.21,-9.970619282883588,0.1475008291410946,0.5491545851339548,0.09099378103588256,-0.049764233758726954,0.020065605669751567
2.2125,-9.707801662984034,0.1268934865134407,0.22195578633425456,0.08819735917413299,-0.055131,0.020244780599922144
2.215,-9.605893659716502,0.131552548556362,0.018183726953406504,0.09398036713909468,-0.05337740686818111,0.018385497624482855
2.2175000000000002,-10.131421561431614,0.3185418313256427,0.8651874897951883,0.09349628068754479,-0.041692,0.01681593118907496
2.22,-10.055381814567236,0.24260130306902156,0.8632002532007614,0.09611584379013802,-0.0401551823715974,0.019996244721104783
2.2225,-9.81473460680944,0.1341091550645661,0.48320918845036864,0.09507551611023612,-0.041245843581102906,0.021740530529133786
2.225,-9.725368793980476,0.1195789377718242,0.16166859240468745,0.09345024702174594,-0.05032153710999072,0.020204937693034847
2.2275,-10.157024869719514,0.10328106607941986,0.8121145283895458,0.09193670208635359,-0.05524138432083209,0.016419423012921472
2.23,-10.127442640612498,0.35109096179759475,0.8441742008823719,0.08747301708418889,-0.04382531407685537,0.01678200854209445
2.2325,-9.969308521206223,0.3297607912795547,0.6040303035001535,0.0895400252156057,-0.044952325653270724,0.017815512607802845
2.235,-9.93853408169329,0.2502813009974928,0.5929456865785313,0.09180939692157963,-0.04688950924661409,0.022006210435487433
2.2375000000000003,-10.210806204412494,0.11336565240881011,1.0948956934715253,0.09322434443944162,-0.05276259891940698,0.02616425411976564
2.24,-10.211887133909679,0.24896537105048488,1.094913777522328,0.093157,-0.05119247738227456,0.025962
2.2425,-9.979809215803066,0.3081434073393111,0.7303620744429623,0.08955560641548979,-0.050090337548116357,0.02547355350052481
2.245,-9.631750261154728,0.15254819131639064,0.14170362540414408,0.08486136859122408,-0.055166534872979525,0.026428546235565963
2.2475,-9.729836074598337,0.032309304829964566,0.282949618905889,0.08705681825529826,-0.056726186732380245,0.026435393267619362
2.25,-9.963158341933454,0.04536047368835051,0.8996116708094077,0.08908411523637222,-0.042271594745536066,0.024821071186973964
2.2525,-9.831980622982796,0.09799998712715034,0.8553527572849057,0.089339,-0.032161562136711175,0.027031
2.255,-9.650248372174467,0.07917427752977643,0.4706521515734796,0.08720808453032591,-0.04163928948024235,0.02576561905197581
2.2575,-9.605367215994344,0.0222371122334692,0.397641284763451,0.08762871879500995,-0.05205362851494445,0.023529685742527773
2.2600000000000002,-9.708745742583028,0.3365502877990756,0.7688323280014389,0.10012441018688185,-0.0367214831162953,0.022496368898940945
2.2625,-9.73896485166052,0.3805727559814339,0.8829930600285761,0.09307170373764978,-0.032623162325913294,0.026213377978812312
2.265,-9.728480215868723,0.2740531165958686,0.7547173952702515,0.08765244021557253,-0.03701281773809589,0.030764018166023435
2.2675,-9.761860030966409,0.0013897868929600155,0.5383326767163188,0.08585720738482862,-0.04878642685140309,0.03156413992379606
2.27,-9.901514977888018,-0.05465146369233109,0.6086717475252483,0.09105802621313733,-0.04881850483315821,0.024022017939726872
2.2725,-9.762949469924372,0.2810189942608206,0.7607229505661166,0.09501522424936978,-0.03921398903506776,0.02185500548246612
2.275,-9.645935895801529,0.37129304122137335,0.7765541259542004,0.09387185000000002,-0.038026,0.024475940839694572
2.2775,-9.643674509188923,0.2665547311129982,0.6773948799760515,0.09466614155984163,-0.039832212339762425,0.02917918534563255
2.2800000000000002,-9.636526664514166,-0.07329422128547944,0.3857949289488787,0.09819144491936152,-0.04568017253356691,0.03335991373321655
2.2825,-9.570236577027234,-0.161319560041062,0.27260721118031805,0.10070470348228057,-0.04548878555315763,0.02609077738469295
2.285,-9.588970178253911,0.11562557879372973,0.5487127815477739,0.10112015933902493,-0.033207541514733686,0.015739422098595673
2.2875,-9.467623129944034,0.2334792127798519,0.46675075348258993,0.0999641366915423,-0.030128072481343658,0.020632838184079825
2.29,-9.5930376128982,0.23162310555284477,0.5433058312128597,0.10043661607403796,-0.04009424538723824,0.02654435272284466
2.2925,-9.933029322045982,0.013670626447676916,0.7815890740121959,0.10188747971844198,-0.03811233197559842,0.02633287005161901
2.295,-9.918330819729,0.05384356840343939,0.8222749095228004,0.102778,-0.03144259203016394,0.025656
2.2975,-9.792545609048043,0.12676681373996032,0.7040397025015604,0.10311769021360655,-0.028751870344486726,0.02384370079269077
2.3000000000000003,-9.790839507115283,0.047858032968460695,0.45146659001934647,0.09951857348680007,-0.037351873857050785,0.023376319446232714
2.3025,-9.996690910489392,0.1654160286928626,0.7239174236574605,0.10261180516741816,-0.036578776934964516,0.019767408486799434
2.305,-10.240174268457096,0.23070661756330074,1.1948002842535854,0.10485867367457764,-0.03308196892684986,0.020446614834970487
2.3075,-10.282806904780335,0.3092280161738359,1.2859544391969464,0.10635379746811527,-0.02846118130373143,0.02223730404345785
2.31,-9.944771977004377,0.2505758248864043,0.5811550613024961,0.10684621977520926,-0.03396501953607049,0.02575261659306505
2.3125,-9.75546563222681,0.07747683449809403,0.12933754105781448,0.10916262563532401,-0.04260761269059721,0.027524552175984752
2.315,-9.87598791792641,0.03591721139034354,0.3243274359197071,0.1145666913473482,-0.036957,0.02401535895843307
2.3175,-10.16496098972903,0.38823656605766815,1.2762611819143157,0.11142222398601483,-0.03233259262237822,0.0175212451573427
2.32,-10.05143895310961,0.3996663284469867,1.0211476880328672,0.10602278104962537,-0.030849,0.02243572074259157
2.3225000000000002,-9.955159786064948,0.27090716515262925,0.6849256005935718,0.10514764558569573,-0.03686272090013571,0.02647683835543123
2.325,-10.001191117946714,0.10336716654350862,0.5951032536435913,0.10971935079003245,-0.04780298078767403,0.026509028897099274
2.3275,-10.211320119621618,0.1456260846317913,0.870541114266585,0.1128995584672496,-0.043230268739072215,0.025461441532750408
2.33,-10.257934286357862,0.20645659214466736,0.9914808445177561,0.11561145738578686,-0.0371375838071068,0.024645570843908678
2.3325,-10.010555249412043,0.17534588610226406,0.6127791000311311,0.11718972377439828,-0.04215,0.025922076805173035
2.335,-9.82911017245949,0.20091697427883942,0.33464568930210387,0.11805514244505051,-0.04067591521578698,0.02643458092090485
2.3375,-9.852114096488023,0.22860229075220911,0.43738913423256853,0.1188776442338073,-0.03857695732166728,0.02488711119212564
2.34,-9.996724613902032,0.3307016279009467,0.8762554287696139,0.11377720314350492,-0.03565968689008702,0.021772605208968055
2.3425000000000002,-10.016801517819287,0.274715929670265,0.8070373576573453,0.10797632218069292,-0.033948934579217424,0.023252612398524497
2.345,-9.852123404070536,0.23792686093335805,0.3857530754861808,0.11080950142032184,-0.03971571556734859,0.02373349857967815
2.3475,-9.909832650003718,0.3203668867248466,0.5153062467543698,0.11222448732456648,-0.04216738966695321,0.021654642885584545
2.35,-10.263240194265986,0.37205507121747294,0.9480213766784525,0.11177190001606184,-0.037978009861869416,0.026136524959846013
2.3525,-10.200027463999993,0.23650600646399578,0.8534136373119894,0.10926111795199975,-0.034819,0.029736275135999985
2.355,-10.153280020812158,0.23766761993825672,0.8874325711612434,0.10614257405841844,-0.037387444398005204,0.028514306388031357
2.3575,-10.092789333009572,0.27811362503801657,0.9091736382732462,0.10801426610743164,-0.03916993199901891,0.02735307045376505
2.36,-10.070255675007871,0.3280894667507069,0.8532771286668722,0.11194475522218729,-0.042895101500157184,0.02811622934762043
2.3625000000000003,-10.17495080382195,0.2937792077371014,0.8691865303192562,0.11037646595199242,-0.0485254273129807,0.030122534048007577
2.365,-10.126298025031693,0.17382017135703215,0.7537746826354164,0.11199614430623583,-0.048717,0.030257371138752834
2.3675,-10.074127,0.159015,0.703013,0.115148,-0.04779728451906913,0.029627
2.37,-9.86971826395675,0.29017256346492337,0.4256022971240367,0.11261909983395968,-0.046146741275062644,0.027351031246866976
2.3725,-9.600143369447379,0.4952282315241127,0.12156108656107664,0.10984627711369242,-0.04586017512143611,0.025528256839141252
2.375,-9.780730503630789,0.4680906491850896,0.6146185065354204,0.1114526073906729,-0.04052210585767307,0.028773138615459094
2.3775,-9.981050619783915,0.3590817653685485,1.0907658602352954,0.11219652815366142,-0.032834,0.029723837061224494
2.38,-9.945481959952689,0.34584397998769345,1.0132189518315764,0.11271466906647758,-0.04974896868322672,0.02944240668843158
2.3825,-9.867182331696243,0.45676779184101496,0.605707142438635,0.1088502931667852,-0.053386115906316305,0.027851309819730406
2.3850000000000002,-9.895810599904717,0.5577526765093002,0.4168351883263437,0.1091317006771613,-0.056428008431091824,0.027416797520267964
2.3875,-9.994021,0.558943,0.593018,0.112857,-0.04858578301232024,0.028405
2.39,-9.991889550284212,0.5585347064599433,0.5937238662532387,0.11278628661498621,-0.040125995245477566,0.02838025002583949
2.3925,-9.627616808823673,0.49461809396070877,0.5736279824545101,0.09964034796022304,-0.03989010875576096,0.022658787562454385
