time,acc_x_g,acc_y_g,acc_z_g,gyro_x_rad_s,gyro_y_rad_s,gyro_z_rad_s
1765409153.212083,-5.3786903483930235,-3.943709907579035,7.367539381705644,-0.00927701839007018,-0.0030022116309990463,-0.002107662138277864
1765409153.212283,-5.320046000859801,-3.9830346078608474,7.348648576405642,-0.009630373266320543,-0.0037537434738161685,-0.0012134678807107287
1765409153.212483,-5.258809533744044,-4.024810637309494,7.331159342357827,-0.00993411292010859,-0.0044708734372226454,-0.00032622191889043696
1765409153.212683,-5.193074420111103,-4.070582900666424,7.315017952654456,-0.010101961384814886,-0.005041515575498296,0.00047757235041231565
1765409153.212882,-5.121184128257458,-4.121753207597868,7.30021275073511,-0.01004659386722353,-0.005353656726723179,0.001117502815045548
1765409153.213132,-5.041849493934094,-4.179482064520213,7.286778547151104,-0.00968282302801975,-0.005299373249574277,0.0015116836171904817
1765409153.213382,-4.954244126476717,-4.244605298925899,7.27479038954799,-0.00893086593945183,-0.004778533301541092,0.0015793383109283408
1765409153.213632,-4.858071300854031,-4.317571128133189,7.264345857771404,-0.007719555113064939,-0.0037020432426320173,0.0012434576629728206
1765409153.213834,-4.753597632490768,-4.398401891376109,7.255536295686505,-0.005989334700304216,-0.0019945225529514545,0.00043344085395483306
1765409153.214034,-4.641651170711905,-4.4866828093710795,7.248409028048201,-0.003694874306923797,0.0004036844214966545,-0.0009123889506645768
1765409153.214234,-4.523584152864074,-4.581577872269521,7.242924395325643,-0.000807139618052409,0.0035352266041747396,-0.002844517072044742
1765409153.214434,-4.401203179425278,-4.681870546456699,7.238912826293681,0.0026852202669653733,0.0074252323117640524,-0.005400341841447067
1765409153.214634,-4.276671715377874,-4.786024908446024,7.236037735078726,0.0067752780806185344,0.012081566742192502,-0.008602757367372557
1765409153.214875,-4.152391578540161,-4.892261475611103,7.233769862586835,0.011438096082005954,0.01749582322848818,-0.012459283196655865
1765409153.215125,-4.030871525903613,-4.998641518968267,7.231378010427527,0.01663187559358843,0.0236449678772077,-0.016961762396670427
1765409153.215375,-3.914592075045081,-5.103153875235119,7.227939848865,0.022299945903868513,0.030493519158774667,-0.02208660783339706
1765409153.215625,-3.8058759739284365,-5.203798953437071,7.222374431306564,0.028373483880493374,0.03799611543869792,-0.027795551115112248
1765409153.215891,-3.706773017890317,-5.298665431660333,7.213495400277603,0.03477479696096339,0.04610030635468546,-0.03403683874179717
1765409153.216141,-3.6189662956327826,-5.385995990287964,7.200081202551715,0.041420960320554666,0.05474939841992532,-0.04074680946691905
1765409153.216391,-3.5437048363324446,-5.464239681604025,7.180956567795115,0.04822757554600388,0.06388518844674768,-0.04785175948925408
1765409153.216641,-3.481765494435432,-5.532090421368569,7.1550783727233,0.05511240997557501,0.07345042685105566,-0.0552699659742102
1765409153.216895,-3.4334449045243804,-5.588513086111365,7.121618701025311,0.061998684843647754,0.083390870078322,-0.06291372665438642
1765409153.217145,-3.3985802780629752,-5.632759904142893,7.080038105864955,0.06881781403896664,0.09365681535358236,-0.07069130437186186
1765409153.217395,-3.376595662446708,-5.664379880181686,7.03014277185188,0.07551145461402023,0.10420405947033093,-0.0785087246734748
1765409153.217645,-3.3665684841300143,-5.683223310038896,6.972120746642033,0.08203280347627095,0.11499427324232385,-0.08627143122739302
1765409153.217891,-3.367310183579495,-5.689442571814969,6.906554548511444,0.08834714687952129,0.12599482825671462,-0.09388584406088865
1765409153.218141,-3.377454419203313,-5.683489471615083,6.834409546341282,0.09443173117043191,0.13717815626856658,-0.10126089082612501
1765409153.218391,-3.395546414759956,-5.66610840886108,6.756999178786587,0.10027507033391143,0.14852076133283756,-0.1083095880261378
1765409153.218641,-3.4201275986351334,-5.638323692445449,6.675929626850945,0.1058758354389158,0.16000203047011904,-0.11495072721031666
1765409153.218819,-3.449810678037893,-5.601418928407024,6.593027969695662,0.11124148225928109,0.17160299772544038,-0.12111067031892211
1765409153.219069,-3.4833412897878726,-5.556906762925903,6.510258568590829,0.11638676717572144,0.1833052130138096,-0.12672519706098634
1765409153.219319,-3.519643256484616,-5.506488193652543,6.429632432879186,0.1213322795077493,0.1950898483085212,-0.13174130091597258
1765409153.219569,-3.5578456709703654,-5.4520017428021,6.353114398942101,0.12610308316855356,0.20693713332338062,-0.1361188131714221
1765409153.21989,-3.5972916652917735,-5.395363758539421,6.2825333990599255,0.13072751691527879,0.2188261557622196,-0.1398317425531583
1765409153.22014,-3.6375303060675153,-5.338501961315881,6.2195013216566855,0.1352361579725952,0.23073500181800258,-0.14286923697391177
1765409153.22039,-3.6782941978268346,-5.283285191351602,6.16534544931829,0.1396609169980516,0.24264116390627324,-0.1452360910169124
1765409153.22064,-3.719466078020172,-5.231453199997933,6.1210581799718655,0.1440342105036778,0.2545221140435608,-0.14695273711321383
1765409153.220822,-3.761037933331565,-5.184551063431371,6.087265763253837,0.14838815381795992,0.2663559368999725,-0.14805467943368117
1765409153.221072,-3.803065938318788,-5.143872950214032,6.064215489435672,0.15275373305150694,0.27812192956469073,-0.14859136313582846
1765409153.221322,-3.845624262114024,-5.110419257162217,6.051779178238152,0.1571599445611963,0.2898010933489002,-0.1486245109296945
1765409153.221572,-3.8887610394741117,-5.084869734828402,6.049470710796144,0.1616329292734064,0.3013764636883938,-0.14822599211751103
1765409153.221897,-3.932460261154274,-5.067573687523577,6.056476113932448,0.16619516720465344,0.3128332536324562,-0.1474753115140781
1765409153.222147,-3.9766131321295575,-5.058557059846749,6.071694994694651,0.1708648197837432,0.32415882122706186,-0.14645682165531523
1765409153.222397,-4.021001376603837,-5.057545212689227,6.093791561919956,0.17565530243283287,0.3353424946737981,-0.1452567791829308
1765409153.222647,-4.0652936906823856,-5.063999207982825,6.121252797581852,0.18057513979842224,0.34637529627201213,-0.14396038613391582
1765409153.222853,-4.109055460801983,-5.077162388471971,6.1524510575785465,0.18562811513374058,0.3572496139345305,-0.14264896868636245
1765409153.223103,-4.1517707979606335,-5.096113232282737,6.185708392034923,0.19081368714203953,0.36795888958121753,-0.14139743644398725
1765409153.223353,-4.192874890402893,-5.119820289856735,6.219360201561732,0.19612762086888696,0.3784974126538984,-0.1402721310317826
1765409153.223603,-4.231793986926685,-5.147195632688781,6.251816513118678,0.20156276890286687,0.3888603005357187,-0.1393291243497319
1765409153.223854,-4.2679900537438735,-5.177144366998666,6.281619654903272,0.20710994148757328,0.3990437104375809,-0.1386129845749357
1765409153.224104,-4.301007045509606,-5.208608809622452,6.307496970678937,0.21275880781545678,0.40904527877063807,-0.1381560082249736
1765409153.224354,-4.330515667056663,-5.240606474750575,6.328406784253277,0.21849877034332446,0.4188647476986453,-0.13797791695949257
1765409153.224604,-4.356353610184762,-5.272261143780263,6.343575832249014,0.22431975561053963,0.4285047170062242,-0.13808602125862943
1765409153.224883,-4.378558685817201,-5.302826309888739,6.3525270661788396,0.23021287615708896,0.437971437946789,-0.13847584781282785
1765409153.225216,-4.397392874673003,-5.33170033835639,6.355097564181056,0.23617093826756053,0.44727553752293253,-0.13913221392537065
1765409153.22555,-4.413355663450741,-5.358432676993174,6.351446583342775,0.2421887910435142,0.45643253568077985,-0.14003071253227736
1765409153.225905,-4.427185051523959,-5.382720461796577,6.342053521671628,0.24826352273305397,0.46546300772487986,-0.1411395432118215
1765409153.226155,-4.439844821534166,-5.404395246828076,6.327705372616108,0.2543945058395635,0.4743922605544409,-0.14242158893286957
1765409153.226405,-4.452497439888566,-5.423400571193813,6.309473355525667,0.2605832799567434,0.48324943960779915,-0.14383660657812192
1765409153.226655,-4.466463007490769,-5.439762371680695,6.288678371905566,0.26683325172290756,0.4920660596118654,-0.14534338558920815
1765409153.227359,-4.4831655821803595,-5.453555240821549,6.2668446823781805,0.27314919232547585,0.5008740394758671,-0.1469017380969417
1765409153.227609,-4.504068931055155,-5.464867832049854,6.245641316017261,0.2795365267567967,0.5097033976923654,-0.14847420953199764
1765409153.227859,-4.530604504287719,-5.473770443903893,6.226811624147249,0.28600043336820213,0.5185798176540635,-0.15002743129505708
1765409153.228109,-4.5640950113158745,-5.480287311085931,6.21209269264648,0.2925448032361489,0.527522322413602,-0.1515330686197567
1765409153.22795,-4.60567721599035,-5.484375579794262,6.2031274825636205,0.2991711419909093,0.5365413018049795,-0.15296834480256138
1765409153.2282,-4.65622765843237,-5.4859123735871185,6.201373652647235,0.3058775239991781,0.5456371034344011,-0.15431615130982174
1765409153.22845,-4.716295312000203,-5.484690772878509,6.208014270031183,0.3126577180359525,0.5547993369499925,-0.15556478342284005
1765409153.2287,-4.786045646540653,-5.480424975047901,6.223876714971928,0.3195005870123737,0.5640069652027654,-0.1567073658420734
1765409153.228813,-4.865220903421003,-5.472764430421283,6.249366613285026,0.3263898269718877,0.5732291830388554,-0.1577410455668604
1765409153.229063,-4.953121383204868,-5.461316364957334,6.284423557312407,0.333304067608249,0.5824270250402589,-0.15866603467507848
1765409153.229313,-5.048611935568447,-5.445675663242253,6.32850447953291,0.3402173209736399,0.5915556000258813,-0.15948459098997245
1765409153.229563,-5.150156291173888,-5.425460455120759,6.380598261508475,0.34709974047641723,0.6005668162152341,-0.16020002825919916
1765409153.22987,-5.2558793432628015,-5.400351050190653,6.439271593758981,0.353918638657441,0.609412427507687,-0.16081584018492479
1765409153.230203,-5.363654402839804,-5.37012937700069,6.502742456493883,0.3606397101192255,0.6180471937241979,-0.16133500171500684
1765409153.230537,-5.471209538861529,-5.3347159184994775,6.56897516765718,0.36722841087756564,0.626431912570621,-0.16175948419793362
1765409153.230826,-5.576244952226771,-5.294201283053498,6.635789861961773,0.3736514481666138,0.6345360676194846,-0.16208999560158702
1765409153.231076,-5.676552063917649,-5.248870042487048,6.700978558710187,0.37987833163138274,0.6423398608371501,-0.1623259358774808
1765409153.231326,-5.770124658975987,-5.199215195348539,6.762419144181388,0.385882929316934,0.6498354574949479,-0.1624655457237645
1765409153.231576,-5.855253284674608,-5.1459422561376575,6.818178449224753,0.3916449580441482,0.6570273498943056,-0.16250622673958723
1765409153.231927,-5.930596222849608,-5.089962349969745,6.866597020315692,0.3971513166940261,0.6639318268003954,-0.16244501232497696
1765409153.232177,-5.9952232405933925,-5.032374054903617,6.906350849316366,0.4023971513972407,0.6705756023680877,-0.1622791602707091
1765409153.232427,-6.0486314121307725,-4.9744344848029804,6.936488493195369,0.4073865373347177,0.6769937059918516,-0.1620068239146263
1765409153.232677,-6.090735370182367,-4.917521118555536,6.9564452806876345,0.41213268140806997,0.6832267741367679,-0.16162775125692447
1765409153.232889,-6.121836979936979,-4.863086424001949,6.966038894692853,0.41665759356292026,0.6893179297003189,-0.16114396136840553
1765409153.233139,-6.142580826837784,-4.812607033172184,6.965451365673496,0.4209912341791304,0.6953094772220614,-0.16056034555455853
1765409153.233389,-6.1539016513648015,-4.767528707315939,6.955201317081092,0.425170207715469,0.7012396626735004,-0.15988513430038218
1765409153.233639,-6.15696852402037,-4.729208369011853,6.9361085428764655,0.4292361243228131,0.7071397314901225,-0.159130167370162
1765409153.233851,-6.153129232459239,-4.698855099656769,6.909252122538426,0.4332337770401659,0.7130314742673372,-0.15831091200692932
1765409153.234184,-6.143857692043438,-4.677472657797078,6.875923669239756,0.43720927377653834,0.7189254007068302,-0.15744619614014818
1765409153.234518,-6.130706814067634,-4.665806345899423,6.837578224527781,0.4412082282842265,0.7248196563382423,-0.15655765446294354
1765409153.234946,-6.115268214182704,-4.664296940743635,6.795785514422128,0.4452740746246728,0.7306997984493687,-0.15566891182250062
1765409153.235196,-6.099138047155276,-4.673044245908724,6.752183081404347,0.4494465431270638,0.7365395493094302,-0.15480454010944655
1765409153.235446,-6.083885991654522,-4.69178295782035,6.708430877017034,0.45376032717174997,0.7423026023492698,-0.15398882619278736
1765409153.235696,-6.071023393126905,-4.719873761987156,6.666165686375906,0.4582439755289581,0.7479454479822067,-0.15324439611316099
1765409153.235928,-6.061967403658267,-4.756312183711478,6.626953953345976,0.46291905415896467,0.7534210339284505,-0.15259076593672938
1765409153.236178,-6.057999857975569,-4.79975637743387,6.5922423934395855,0.467799620686529,0.7586829321573185,-0.15204292278118817
1765409153.236428,-6.060221227957243,-4.848573379073954,6.5633059044706075,0.47289204042761984,0.7636895908578621,-0.1516100588414043
1765409153.236678,-6.069500756508636,-4.900902194920162,6.541191732646081,0.47819515617339586,0.7684082290206917,-0.1512945793182399
1765409153.236918,-6.086424481948543,-4.954731431958177,6.526659454604416,0.4837008157094961,0.7728180072443133,-0.15109149294316795
1765409153.237168,-6.1112440957965255,-5.007988355675972,6.520119507461551,0.48939475386049497,0.7769122730824913,-0.1509882755914181
1765409153.237418,-6.143831255811974,-5.058635154444719,6.521577552375648,0.49525780081221993,0.7806998542240103,-0.1509652631286752
1765409153.237668,-6.1836434703750465,-5.104767317514124,6.530595186222342,0.5012673441520655,0.784205467340237,-0.150996577216363
1765409153.237908,-6.229708444968443,-5.144708677402994,6.546277665656007,0.5073989349804562,0.7874693144705783,-0.1510515333097292
1765409153.238241,-6.280633147297825,-5.177097515550127,6.567296180450459,0.5136279198224364,0.7905459092292061,-0.151096439755419
1765409153.238575,-6.334641362345939,-5.200957954163251,6.59194668866564,0.5199309868779074,0.7935021523414177,-0.15109667353611866
1765409153.238818,-6.389639872457328,-5.215750912076616,6.618241200713938,0.5262875169874174,0.7964146672151999,-0.15101890420828548
1765409153.239068,-6.443309957876518,-5.221399485731276,6.644022669720742,0.5326806355519097,0.7993664235273523,-0.15083332413662734
1765409153.239318,-6.493218452613347,-5.218284758893706,6.667092353934155,0.5390978911945076,0.8024427359460784,-0.1505157300051741
1765409153.239568,-6.536941208627625,-5.207209849751721,6.68533851138155,0.5455315342132592,0.8057268157236268,-0.15004929668125352
1765409153.239842,-6.57219137098016,-5.189332758185918,6.696856757626803,0.5519784098503743,0.8092951396089897,-0.14942589611515475
1765409153.240092,-6.5969450340687255,-5.166072112586787,6.7000543950888325,0.5584395068974736,0.813212951466982,-0.14864683902988193
1765409153.240342,-6.609557237807616,-5.1389933341509355,6.693732767344083,0.5649192143025109,0.8175302199617475,-0.14772295292204166
1765409153.240592,-6.608861632639604,-5.10968515835303,6.677143054642136,0.5714243424627362,0.8222783546353599,-0.14667395813846212
1765409153.240878,-6.5942476402836165,-5.07963756319149,6.65001253992443,0.5779629670789777,0.8274679480927746,-0.14552716606127664
1765409153.241128,-6.56571009844797,-5.050131851121441,6.612541131823098,0.5845431576538497,0.8330877686084852,-0.14431559276475606
1765409153.241378,-6.523868518974631,-5.022151932753002,6.565371649713493,0.5911716604380294,0.8391051678278534,-0.1430756402288507
1765409153.241628,-6.469955608861523,-4.9963233322966225,6.509540273875349,0.5978526130257359,0.8454679753957367,-0.14184452847487475
1765409153.241907,-6.405776456854361,-4.972883935875258,6.446413902640221,0.6045863764338897,0.8521078169208536,-0.14065766588083384
1765409153.24224,-6.33364039714168,-4.951688257103741,6.377619370062077,0.6113685862001654,0.8589446303273992,-0.13954613609122302
1765409153.242573,-6.256268006609204,-4.932244560266328,6.304967885736774,0.6181895427153641,0.8658920045375272,-0.1385344680783779
1765409153.242873,-6.1766771660680835,-4.913781509651694,6.2303782111094845,0.6250340637912545,0.8728628582255319,-0.13763883835453866
1765409153.243123,-6.09805455504755,-4.89533879260524,6.1558031770312285,0.6318818908154251,0.8797749352738637,-0.1368658297261147
1765409153.243373,-6.0236212107893445,-4.875874804904568,6.083164584834785,0.6387086736523282,0.8865556234203764,-0.13621184714253012
1765409153.243623,-5.956501793443426,-4.854383432322476,6.014300781053354,0.6454874773893724,0.8931457014515146,-0.1356632713316239
1765409153.243878,-5.899606281792341,-4.830010527617063,5.950929117194808,0.6521906788753153,0.8995017748457522,-0.13519740196579474
1765409153.244128,-5.855529669001079,-4.802159159477855,5.894621670305272,0.6587920687457732,0.9055973371698847,-0.13478418720290417
1765409153.244378,-5.826470608530226,-4.7705721191071415,5.846787829539948,0.6652689534048373,0.9114225553032912,-0.1343886538719633
1765409153.244628,-5.814165922032008,-4.735381229817535,5.8086544447252475,0.671604060316804,0.9169829967722678,-0.13397385652281907
1765409153.244885,-5.819836238642644,-4.697115801815356,5.781235322371122,0.677787077419115,0.9222975897072417,-0.13350407449545684
1765409153.245135,-5.844138916477702,-4.656666912528494,5.765286025914714,0.6838156903638605,0.9273961283012362,-0.13294792635972305
1765409153.245385,-5.887126880947601,-4.6152096472929225,5.761245007027448,0.6896960171388676,0.9323166137415695,-0.1322810609960399
1765409153.245635,-5.948215551834383,-4.574091098757324,5.76916749605144,0.6954423828791183,0.937102669977475,-0.13148813296737502
1765409153.245901,-6.026164013092884,-4.534696612155528,5.788664072301826,0.7010764277822655,0.941801216378724,-0.13056386484719884
1765409153.246151,-6.119079051210423,-4.4983095849374015,5.818858687508649,0.7066255928344373,0.9464605205391636,-0.12951311465088466
1765409153.246401,-6.224449533263746,-4.465980668735251,5.858378074218019,0.7121210803686006,0.9511286860273294,-0.1283499797335042
1765409153.246651,-6.339214249145065,-4.438420474743821,5.90537727351943,0.717595441649634,0.9558525527295001,-0.1270960660647204
1765409153.246897,-6.459861629441977,-4.415926439411335,5.9575993439035235,0.7230799959646756,0.9606769140049731,-0.12577812232345545
1765409153.247147,-6.58255687851384,-4.398350521778457,6.012464105161733,0.7286023157820399,0.9656438905934897,-0.12442527683628414
1765409153.247397,-6.7032910531912275,-4.38511078457261,6.067180034894612,0.7341840055299662,0.9707922506023878,-0.12306613373231405
1765409153.247647,-6.8180463424913995,-4.375246492246915,6.118873126844573,0.7398389678317582,0.9761564571389003,-0.12172599854942467
1765409153.247833,-6.922971289257964,-4.36751231518956,6.164725884204942,0.7455723119475381,0.9817652991301471,-0.12042450939853278
1765409153.248166,-7.014558602549451,-4.360502408060906,6.202118819719598,0.7513800180115029,0.9876401128684644,-0.11917392617391181
1765409153.2485,-7.0898167393265945,-4.352790632804934,6.228765999083174,0.7572494168251344,0.9937927725803354,-0.11797826157463383
1765409153.248926,-7.146424893071224,-4.343070508948422,6.242835364179326,0.7631604745180649,1.000223753488857,-0.11683333216039923
1765409153.249176,-7.182859772148316,-4.330278299262975,6.243044401663623,0.7690877875119103,1.006920625805628,-0.11572769141994213
1765409153.249426,-7.198482359578804,-4.31368477342844,6.228723239107914,0.7750031022588233,1.0138573227140488,-0.11464430083001488
1765409153.249676,-7.193574704513312,-4.292945199385958,6.199840751992584,0.7808780920898651,1.0209944335795702,-0.11356270617766132
1765409153.249961,-7.169321084091678,-4.268102615059815,6.156993599573234,0.7866870732132717,1.0282806137225975,-0.11246142364782012
1765409153.250211,-7.127733916248132,-4.239545804980647,6.101361723391682,0.7924093393678624,1.0356550267748108,-0.11132022012331902
1765409153.250461,-7.071531055749284,-4.2079295724616985,6.034635959371084,0.7980308414675799,1.0430506042232555,-0.11012200459178619
1765409153.250711,-7.003975787142533,-4.1740696044644325,5.958924071385426,0.803545025108931,1.050397830832937,-0.1088541244015489
1765409153.250924,-6.928692777038487,-4.138826639471885,5.876641171826131,0.808952750375998,1.057628725803785,-0.10750895755154717
1765409153.251174,-6.849472550792782,-4.1029948487554515,5.790389674728269,0.8142613401740001,1.0646806853071131,-0.10608378144951802
1765409153.251424,-6.770075091986405,-4.067208051892913,5.702833046497601,0.8194829195683364,1.0714998928979296,-0.10457996723362037
1765409153.251674,-6.694041786439121,-4.031875055923622,5.61656727247372,0.8246323014216723,1.0780440880775548,-0.10300161029822212
1765409153.251957,-6.6245250119784025,-3.9971518113409092,5.533994881095907,0.829724728202705,1.084284590972042,-0.10135377634556865
1765409153.252207,-6.564145330811615,-3.9629530082089035,5.457208599481453,0.8347737863864949,1.0902075816926968,-0.09964060726949954
1765409153.252457,-6.514885843239063,-3.9289997648929114,5.387894080665064,0.8397897623578127,1.0958146901134973,-0.09786356846835752
1765409153.252707,-6.4780309416167,-3.8948944274419075,5.327261857429137,0.8447786138098528,1.1011229394499265,-0.09602011670175518
1765409153.252961,-6.454152822017642,-3.860209416707592,5.27601662992599,0.849741613242539,1.1061640100691579,-0.09410302706273825
1765409153.253294,-6.443144843788648,-3.824575227111126,5.234367842464087,0.8546756082685926,1.1109827004793442,-0.0921005418634614
1765409153.253628,-6.444297433359734,-3.7877532619737924,5.202081107454317,0.8595737533081532,1.1156344386841452,-0.08999739253831435
1765409153.253888,-6.4564102129780885,-3.7496821230881747,5.1785662095070055,0.8644265081004721,1.1201817775533962,-0.08777660426862378
1765409153.254138,-6.477932836985982,-3.710490966550616,5.162993202449985,0.8692226806244121,1.1246899639412287,-0.0854218494732295
1765409153.254388,-6.50712547028983,-3.670479693442048,5.154423021110447,0.873950324734078,1.1292218573340864,-0.08292001227773348
1765409153.254638,-6.542226965895986,-3.6300715723932266,5.151934755452624,0.8785973807254394,1.133832656975164,-0.08026358962154258
1765409153.254888,-6.581614921501692,-3.5897479863160093,5.154730565146808,0.8831520397608852,1.1385650307008874,-0.07745258603589555
1765409153.255138,-6.6239392575554685,-3.549976738491027,5.162202052381381,0.8876028852100892,1.1434452700123698,-0.07449563763047555
1765409153.255388,-6.6682125894043445,-3.511145105812673,5.173948317296382,0.8919389074056576,1.1484810029184667,-0.07141019813701212
1765409153.255638,-6.713846992221351,-3.473507422450851,5.189744668730963,0.896149513276123,1.1536607967444037,-0.0682217208305069
1765409153.255865,-6.76063546416615,-3.437154855770676,5.209470066459225,0.900224654682076,1.1589557165686877,-0.06496188402106563
1765409153.256115,-6.808684461616897,-3.4020119533459017,5.233008486764328,0.904155166482921,1.1643226281413004,-0.061666043402370176
1765409153.256365,-6.858309417555902,-3.367860172007127,5.2601428273704265,0.9079333444977954,1.1697088101674007,-0.05837022878934692
1765409153.256615,-6.90990767293117,-3.3343833561099108,5.290459304037973,0.9115537247054649,1.1750573070077746,-0.055108090417156474
1765409153.256927,-6.963823482098581,-3.3012253616834832,5.3232762632283555,0.9150139578595822,1.1803124085671024,-0.05190820977293273
1765409153.257177,-7.020219179769562,-3.2680473636339356,5.357605399994473,0.9183156142548989,1.185424678444788,-0.04879212168010085
1765409153.257427,-7.078966203985433,-3.234572763777854,5.392147664610937,0.9214647225956942,1.1903550676827916,-0.04577326855063513
1765409153.257677,-7.139568824791387,-3.2006108810447698,5.4253226597202255,0.9244718684759221,1.19507784252806,-0.04285694853124344
1765409153.257848,-7.201130533130917,-3.166055963695169,5.45532920575835,0.9273517498333004,1.199582259063953,-0.04004114957002697
1765409153.258098,-7.262367760507605,-3.130864429189128,5.480234195051765,0.930122179779419,1.2038730447513306,-0.037318014023314416
1765409153.258348,-7.321669842664858,-3.09501902695851,5.498085411026452,0.932802614320128,1.2079697682751183,-0.03467559766140263
1765409153.258598,-7.37720005926654,-3.058491997769862,5.507041988014094,0.9354123561135371,1.211905160675507,-0.03209959936274334
1765409153.258838,-7.427030155545834,-3.0212191924212046,5.505514441828855,0.9379686427920748,1.2157224732374563,-0.02957482524417274
1765409153.259088,-7.469298347704822,-2.9830937807693103,5.492304333626824,0.9404848580499032,1.2194720299451762,-0.027086268034892468
1765409153.259338,-7.502377616292302,-2.9439827344261977,5.466731019955423,0.9429690979992613,1.2232072095175675,-0.024619796435959282
1765409153.259588,-7.5250380771672445,-2.9037628970606693,5.428730809948743,0.9454232890237977,1.2269801557374431,-0.022162548020451724
1765409153.259909,-7.536585984741514,-2.8623674010498634,5.378914539157281,0.947842988374677,1.2308375819429132,-0.019703185577604358
1765409153.260242,-7.536963330885404,-2.81982905630453,5.3185737598237255,0.9502178979897701,1.2348170900626207,-0.01723218038500343
1765409153.260576,-7.526795913188612,-2.776306861081604,5.249631848246423,0.9525329946711185,1.238944408743005,-0.014742212983234141
1765409153.260864,-7.507383301486625,-2.732085765554955,5.174542389750979,0.9547700678835853,1.2432318407631087,-0.01222866063193165
1765409153.261114,-7.480630244057494,-2.687547120503969,5.096142369310246,0.9569094056564592,1.247678029635999,-0.009690030695554748
1765409153.261364,-7.448925011590243,-2.6431150994779924,5.017472027484793,0.958931388294395,1.252268967651197,-0.007128155673507574
1765409153.261614,-7.414975540200625,-2.599190129928903,4.941576584877793,0.9608178115390285,1.256980018887001,-0.004548001034098119
1765409153.26195,-7.381618250984061,-2.556082947302193,4.871306531652967,0.9625528326953716,1.2617786367945991,-0.0019570207222887994
1765409153.2622,-7.3516164004950255,-2.513962611004031,4.809132444818711,0.9641235002844774,1.2666274151345869,0.00063591067092427
1765409153.26245,-7.327465013985401,-2.472829194303826,4.756988495329852,0.9655198971802088,1.2714871316427467,0.003221876738240642
1765409153.2627,-7.311218786598332,-2.432517189884132,4.716157300732068,0.9667350078277859,1.276319525977412,0.005793434670131689
1765409153.262884,-7.304358163125174,-2.3927296584187037,4.687207084025246,0.9677644900626999,1.2810896488931234,0.008346056055996486
1765409153.263134,-7.307706374234812,-2.3530971295384733,4.66998826840958,0.9686065423122836,1.2857676645098384,0.01087926659085651
1765409153.263384,-7.321405462629462,-2.3132505534976078,4.663689902985477,0.9692619842689759,1.2903299819937124,0.01339726485235688
1765409153.263634,-7.344952266391352,-2.272894858436931,4.666948484307773,0.9697345459718414,1.2947596012315492,0.015908844256181442
1765409153.263863,-7.377287328991837,-2.231869280331302,4.677995122631385,0.9700312415601621,1.2990456264990087,0.018426540600101737
1765409153.264113,-7.416922672217953,-2.190183202321294,4.694822116401475,0.970162630044107,1.3031820201570192,0.02096507275169681
1765409153.264363,-7.4620899532463705,-2.1480217955979164,4.71534703832982,0.9701427622113695,1.3071658028597555,0.02353929525686937
1765409153.264613,-7.510890000327768,-2.105722701159634,4.737553477872662,0.9699886884302028,1.3109950411193476,0.026161988435400314
1765409153.264888,-7.561428378381625,-2.0637308791398006,4.759594458222694,0.9697195272759974,1.3146670713355966,0.0288418465392298
1765409153.265138,-7.611927924420527,-2.022542162828035,4.779855148365535,0.9693552161639343,1.3181774346466997,0.031581991825241545
1765409153.265388,-7.660815276452853,-1.982647083085283,4.796980812711834,0.9689151490509708,1.3215198891096605,0.03437925924826127
1765409153.265638,-7.706782249474105,-1.9444855865432515,4.809880754797503,0.9684169482414805,1.324687634425934,0.03722437488647607
1765409153.265963,-7.74882444817896,-1.9084203314392962,4.817719731106325,0.9678756109599608,1.3276756007459216,0.040102998695578415
1765409153.266213,-7.786259731063402,-1.8747314271798046,4.819906490444692,0.9673032015951847,1.3304833985405178,0.042997437577645764
1765409153.266463,-7.81872874039235,-1.8436296356850692,4.816085552822013,0.9667091335579229,1.3331183541986842,0.045888695853762436
1765409153.266713,-7.846179285653916,-1.8152795524014746,4.806134321523655,0.9661009417915792,1.3355980034349457,0.048758463853462275
1765409153.267063,-7.868836622893385,-1.7898208724850952,4.790164970627768,0.9654853374126804,1.3379515066655063,0.051590688960203274
1765409153.267313,-7.887162411647841,-1.7673764411791688,4.768529250596375,0.9648692823154572,1.3402196479357416,0.054372527327290796
1765409153.267563,-7.901805429837924,-1.7480411415863464,4.741822452865013,0.964260820894496,1.34245327781427,0.05709467713165984
1765409153.267813,-7.913547006400061,-1.7318537871104955,4.710880096071736,0.9636694591003023,1.344710206442123,0.05975125045774707
1765409153.267894,-7.92324426659507,-1.718761066759505,4.676759901663546,0.9631059915768682,1.347050702129223,0.062339396561832086
1765409153.268144,-7.931774290975065,-1.7085852853658898,4.640703407369626,0.9625818161026134,1.3495319603798899,0.06485886432797179
1765409153.268394,-7.939981456273126,-1.7010062224089415,4.604074314745856,0.9621078849637915,1.3522021296586237,0.06731163817960514
1765409153.268644,-7.948629369610007,-1.6955639497865083,4.568273373101465,0.9616935026033475,1.355094624028896,0.06970173228910824
1765409153.268896,-7.958359364376182,-1.6916855223109815,4.534633946029928,0.9613452079969469,1.358223491008434,0.07203518187410153
1765409153.269146,-7.9696593045834545,-1.6887342962807164,4.50430920905247,0.9610659818105884,1.3615805460677426,0.07432020784949646
1765409153.269396,-7.982847624577625,-1.6860759907723848,4.478168174949636,0.9608549633461927,1.36513481048102,0.07656744554352769
1765409153.269646,-7.998076611978118,-1.6831510340424474,4.4567191802870765,0.9607077444055524,1.3688344665011665,0.07879005135977049
1765409153.269939,-8.015355920680825,-1.6795397620179688,4.440074997226371,0.9606171660197583,1.3726111200131146,0.08100348508998756
1765409153.270189,-8.034593114790392,-1.6750072784787653,4.427965603661123,0.9605744253993181,1.376385763269553,0.08322483533862605
1765409153.270439,-8.055643772386546,-1.669518765176669,4.419795300941517,0.9605702319196331,1.380075579855159,0.0854716859782886
1765409153.270689,-8.078360711032975,-1.663222507243617,4.414732131907931,0.9605957542341232,1.3836006836249228,0.08776065626147111
1765409153.270869,-8.102631844198342,-1.6564045260714775,4.411812172307039,0.9606431865566787,1.3868900194437275,0.09010583943645638
1765409153.271119,-8.128399555253567,-1.6494236466621182,4.410041715972601,0.9607058982359868,1.389885901188473,0.09251740027571011
1765409153.271369,-8.155659989825946,-1.6426386482241242,4.408485593053119,0.960778248449757,1.3925469058970938,0.09500057507147343
1765409153.271619,-8.184446249533421,-1.6363400996400914,4.406335960810092,0.9608552090322816,1.39484901353009,0.09755525374965034
1765409153.271869,-8.214803335997354,-1.6306983963306068,4.402960063266983,0.960931965263493,1.3967850225469869,0.10017622559943833
1765409153.272119,-8.246763508206188,-1.6257360593933903,4.397927196952193,0.9610036766308707,1.3983624550643423,0.10285405630080599
1765409153.272369,-8.280328102854734,-1.621326967476213,4.391015028141342,0.9610655482098401,1.399600375903499,0.10557644458265181
1765409153.272619,-8.315457199280031,-1.6172191584949425,4.382194810087375,0.9611132677776292,1.400525706368276,0.10832980061460802
1765409153.27282,-8.352064361897135,-1.61307273827293,4.371595991609045,0.9611437425271063,1.4011696637075595,0.11110074194961148
1765409153.27307,-8.390011977917665,-1.6085017564603816,4.359454152810439,0.961155971740601,1.4015648911987049,0.11387725332421117
1765409153.27332,-8.429103408312384,-1.6031096775277078,4.346050254627152,0.9611518326083596,1.4017436655912687,0.11664938707623669
1765409153.27357,-8.469070054470498,-1.5965121546329943,4.331650563388071,0.9611365439044108,1.4017373047528214,0.11940953793392796
1765409153.273929,-8.509553951688977,-1.588346583589462,4.3164545228583115,0.9611186237146725,1.401576614387494,0.12215245146667347
1765409153.274179,-8.550090041060571,-1.5782729696908033,4.30055506300235,0.9611092642298117,1.4012929930311726,0.1248751702979344
1765409153.274429,-8.590096158172846,-1.5659731752488304,4.28391498402891,0.9611211697035211,1.4009197191654952,0.12757707282632216
1765409153.274679,-8.628880457955798,-1.5511552425191293,4.266363758846101,0.9611670118373092,1.4004929779748332,0.13026005830394738
1765409153.274942,-8.66567364272947,-1.533567049158281,4.2476194646966965,0.9612577386318149,1.4000522980620778,0.1329288427476727
1765409153.275192,-8.699687808911724,-1.5130204577336386,4.227338853171221,0.9614010121426314,1.3996401880077316,0.13559127594854056
1765409153.275442,-8.730197012622442,-1.489424375370031,4.205193346479479,0.961600023696182,1.3993008487321172,0.1382585449044671
1765409153.275692,-8.756628415878797,-1.462822539576735,4.180960568013267,0.9618528441698068,1.3990779183070274,0.14094507441195517
1765409153.275846,-8.778648610199376,-1.4334286797560822,4.154613720843442,0.9621523518605983,1.399011336555638,0.1436679101166001
1765409153.276096,-8.796228791731924,-1.401648728003277,4.1263886359370705,0.9624866779369942,1.3991335965409526,0.14644543559037393
1765409153.276346,-8.809675311615035,-1.3680795072877732,4.096811156958959,0.9628400297795148,1.399465817312058,0.14929544115518364
1765409153.276596,-8.819617994945242,-1.333477570037535,4.066674220451531,0.9631937101378742,1.4000141806130901,0.15223276602112587
1765409153.27691,-8.82695611489012,-1.2986993136862641,4.036963579017274,0.9635271672616832,1.400767314695125,0.15526689474355543
1765409153.27716,-8.832769600355666,-1.2646208334960454,4.008742525914624,0.9638189740471571,1.4016951611446744,0.15839994720419875
1765409153.27741,-8.838209526197419,-1.2320505561654338,3.983016328245061,0.964047696599571,1.4027496917848874,0.16162544658482503
1765409153.27766,-8.84438546114987,-1.201648889515509,3.9606023955922796,0.9641926534534453,1.4038675599792092,0.16492811580448183
1765409153.277966,-8.852266505540381,-1.1738675417159847,3.9420300428324495,0.9642345981964124,1.404974445451042,0.16828478781933556
1765409153.278216,-8.862608329616233,-1.1489176129092125,3.9274849949449018,0.9641563834345431,1.4059905786161098,0.17166634588258337
1765409153.278466,-8.875912350273428,-1.1267706416321732,3.916802524623134,0.9639436702233443,1.406836775725138,0.17504044575191002
1765409153.278716,-8.892417205008378,-1.1071909888431926,3.9095038843161998,0.9635857289334276,1.4074402952177574,0.17837463303720066
1765409153.278888,-8.912117472689667,-1.089792124579322,3.904865671727091,0.9630763324355391,1.407739905819557,0.18163939145260044
1765409153.279221,-8.934800516322762,-1.0741051270920412,3.902009904877283,0.9624146632977322,1.407689677774013,0.1848106684727728
1765409153.279555,-8.960090614377183,-1.0596464592638415,3.9000018751828742,0.9616060606257174,1.4072611322820667,0.1878715199872931
1765409153.27998,-8.987491338640774,-1.0459738679038075,3.8979427687126162,0.960662375624517,1.4064435357232943,0.19081267196757928
1765409153.28023,-9.016421507130147,-1.0327229438522707,3.895045155892974,0.959601736284305,1.4052423494412878,0.19363199310593904
1765409153.28048,-9.04624407008892,-1.019621525986688,3.8906817463870835,0.9584476314676448,1.4036761273999918,0.19633307787857598
1765409153.28073,-9.076288713470943,-1.0064840032507127,3.884400948895721,0.9572273637187008,1.4017724172145858,0.19892330474268005
1765409153.280965,-9.105868334473625,-0.99319157071602,3.8759074214121316,0.9559700467236738,1.3995633897759472,0.20141181516604176
1765409153.281215,-9.134289288262568,-0.9796666210776095,3.8650128839389257,0.9547044126661526,1.3970819532292973,0.20380784262032683
1765409153.281465,-9.160856986483749,-0.9658496237790695,3.8515706406526613,0.9534567255777714,1.3943589819588809,0.20611971413062485
1765409153.281715,-9.184881218514636,-0.9516856078010195,3.835412589684194,0.9522490632342508,1.3914220291329702,0.20835466734597596
1765409153.281935,-9.205687297828002,-0.9371248674812712,3.8163069324381595,0.9510981527172916,1.3882955498422562,0.21051940489665422
1765409153.282185,-9.222638464529801,-0.9221383804105867,3.7939488850064316,0.950014847981162,1.385002329002032,0.2126210949494109
1765409153.282435,-9.235172266801888,-0.9067429001220813,3.7679883196168245,0.9490042327663599,1.3815655772956794,0.21466838731404478
1765409153.282685,-9.242850117546222,-0.8910255104262019,3.73809022012616,0.948066232844815,1.3780110856827896,0.21667201234921665
1765409153.285387,-9.24541571814495,-0.8751553309720307,3.704017883566183,0.9471965516566874,1.3743689014348122,0.21864468988604188
1765409153.285637,-9.242854530110245,-0.8593731013988968,3.6657250012994815,0.9463877162839283,1.3706741333384815,0.2206003436272784
1765409153.285887,-9.235442957387612,-0.8439570664140874,3.6234398851858534,0.9456300340820485,1.3669666331500683,0.2225528699881444
1765409153.286137,-9.223773940956786,-0.8291723307578006,3.577723415205607,0.9449123133890895,1.3632894200349366,0.22451483192148247
1765409153.285504,-9.208747696782442,-0.8152160940787487,3.529484320825798,0.9442222905624914,1.3596858662041873,0.22649641101143264
1765409153.285754,-9.191522563200413,-0.8021710315330863,3.4799422285293797,0.9435468015778379,1.3561958802390426,0.22850482442125813
1765409153.286004,-9.173428513821245,-0.7899755073780155,3.4305378605473957,0.9428718032392711,1.3528515637458485,0.23054428518130451
1765409153.286254,-9.155852054340007,-0.7784153779188832,3.3827980431644566,0.9421823817644404,1.349672991198428,0.23261649028158585
1765409153.285836,-9.140105625200706,-0.7671389521362695,3.338170907196494,0.9414628989928613,1.3466648220745085,0.2347215421824244
1765409153.286086,-9.127297846894464,-0.7556933658437943,3.2978542350723283,0.9406974059148573,1.343814391760486,0.2368591193229434
1765409153.286336,-9.118222130927807,-0.7435766386891326,3.262644562886318,0.9398703737480785,1.34109174234757,0.23902962193826463
1765409153.286586,-9.113278782822581,-0.7302960506556392,3.2328325027281313,0.9389676722687084,1.3384517513866818,0.24123498436691163
1765409153.286902,-9.112439968804098,-0.7154219776034179,3.208160544613532,0.9379776224964166,1.3358381433390325,0.24347890927193616
1765409153.287152,-9.115260201169306,-0.6986280254155136,3.1878473577598396,0.9368919076040703,1.333188823268051,0.2457664288803695
1765409153.287402,-9.120929599751777,-0.679712686081764,3.1706719920816404,0.9357061443896842,1.330441761014352,0.24810286906169898
1765409153.287652,-9.128363675482797,-0.6586028532121305,3.1551048125395322,0.9344199864983935,1.327540634307238,0.2504924225696251
1765409153.287882,-9.136321129031883,-0.6353432270199659,3.139469559309263,0.9330367345560715,1.324439589262208,0.2529366065755091
1765409153.288132,-9.143539199391473,-0.6100771521315456,3.1221208671755623,0.9315625366303786,1.3211066973825232,0.25543289699518124
1765409153.288382,-9.148873924495023,-0.5830246161641973,3.1016214922402807,0.9300053413133019,1.3175258636199707,0.25797380843328693
1765409153.288632,-9.15143116969248,-0.5544629007072169,3.0769027400391136,0.9283738073597124,1.3136970427947157,0.26054661886609914
1765409153.288808,-9.150675049493668,-0.5247144157657941,3.0473919188674814,0.9266763856834408,1.3096347373742327,0.2631338166866525
1765409153.289058,-9.146503648335385,-0.4941436900175441,3.0130934703372,0.924920758238905,1.3053649558033151,0.2657141862747526
1765409153.289308,-9.139286207953344,-0.4631613429801117,2.974614882541165,0.9231137228982002,1.3009210650454834,0.2682642833571174
1765409153.289558,-9.129859687852516,-0.43222849430549676,2.9331331707040813,0.9212614770973687,1.2963391614495472,0.27075994491625605
1765409153.289896,-9.119485555306749,-0.40185254511571256,2.8903028867780263,0.9193701382016202,1.2916536483995456,0.27317749085736076
1765409153.290146,-9.109770368332956,-0.372566298626452,2.8481132105893896,0.9174462846687474,1.2868936618990163,0.27549441126589447
1765409153.290396,-9.102556587109753,-0.3448871668475104,2.808708774286107,0.9154973070576797,1.2820808519597535,0.277689530304164
1765409153.290646,-9.099792849895563,-0.319259972018147,2.774193965067018,0.9135314139915253,1.2772288091133177,0.27974281572080384
1765409153.290834,-9.103395001439274,-0.29599275236043643,2.7464420365740683,0.9115572386191991,1.2723441387914982,0.28163511013328846
1765409153.291084,-9.11510979472507,-0.27519781659852105,2.726928766160663,0.9095831040344082,1.2674288974529275,0.2833480756533032
1765409153.291334,-9.13639201553904,-0.2567497112840555,2.7166062365732935,0.9076160854198317,1.2624838842254584,0.28486457434559287
1765409153.291584,-9.168303083627295,-0.24026894062832627,2.7158261783501145,0.9056610356498179,1.2575121668236864,0.2861695837151808
1765409153.291873,-9.21143607457588,-0.22513642094625744,2.7243159207677854,0.9037197399182715,1.252522230722209,0.28725159875996725
1765409153.292123,-9.26586976346894,-0.21053912390530224,2.7412056546165577,0.9017903518502828,1.2475302751986823,0.288104320771095
1765409153.292373,-9.331152923514091,-0.19554223981326635,2.7651037754352426,0.8998672277782006,1.2425613722809616,0.28872830545448946
1765409153.292623,-9.406318902322592,-0.17917816125307498,2.7942152068386075,0.897941200896034,1.237649354179279,0.2891321789721804
1765409153.292906,-9.489928586816983,-0.16053898053236024,2.8264933614633976,0.8960002378600118,1.232835373155854,0.2893330668823547
1765409153.293156,-9.580137271387725,-0.13885836240794788,2.8598103938738544,0.8940303370924563,1.2281651483516383,0.2893560277342863
1765409153.293406,-9.674778510115269,-0.11357131728733913,2.892125790801261,0.8920164862189093,1.2236850310556482,0.28923250339735834
1765409153.293656,-9.771456779305193,-0.08434601389938227,2.921632364072913,0.889943496840335,1.2194371663492145,0.28899801341950815
1765409153.293834,-9.867641425486472,-0.05108824078530462,2.9468614655447483,0.88779657774087,1.215454170817026,0.28868945360245424
1765409153.294084,-9.960757076852554,-0.013923825007476362,2.966735698131982,0.8855615919287746,1.2117538856566676,0.288342383634886
1765409153.294334,-10.048269653606305,0.02683399986184702,2.9805675531668943,0.8832250431882593,1.2083348975386667,0.2879886380834251
1765409153.294584,-10.127770625542885,0.07072569847519612,2.988013787995852,0.8807739087974594,1.2051735707278421,0.28765451854840185
1765409153.29487,-10.197063549605778,0.11718917500394647,2.989003311259718,0.8781954538678894,1.2022232028815767,0.28735974104872986
1765409153.29512,-10.254255492523034,0.16560063264342337,2.983658062007737,0.8754771468603392,1.1994155988836632,0.2871172071969602
1765409153.29537,-10.297852113998827,0.21530767764320824,2.9722229100924196,0.8726067688879451,1.1966649694238154,0.2869335275291186
1765409153.29562,-10.326850062699421,0.26565188843014126,2.9550146593638766,0.8695727698276831,1.1938737316216754,0.28681007089459826
1765409153.295845,-10.340815639819942,0.3159816703144179,2.93239367921119,0.866364861323806,1.1909395637781004,0.2867442014456112
1765409153.296095,-10.339936538350628,0.36565996966335396,2.9047556192511514,0.8629747611450742,1.1877629442042976,0.2867303537885346
1765409153.296345,-10.32503529202986,0.4140735080912916,2.8725362780563093,0.8593969454799367,1.18425440179625,0.2867607025004532
1765409153.296595,-10.297538282716609,0.4606494657914214,2.8362211349113524,0.8556292503013876,1.1803408337778096,0.2868253602529917
1765409153.29686,-10.259400539811262,0.5048821005550767,2.7963525379498972,0.8516731929394399,1.1759704493277758,0.286912215756455
1765409153.29711,-10.21299236217096,0.5463670827002138,2.753531068282082,0.8475339456764616,1.1711160835647008,0.28700663985304115
1765409153.29736,-10.160958667769204,0.5848373757915096,2.708411378950794,0.843219964012887,1.165776746557622,0.2870913259468832
1765409153.29761,-10.106065606230047,0.6201925125566965,2.6616951906043864,0.8387423364607789,1.159977353416485,0.28714650008892373
1765409153.297851,-10.05105016548103,0.6525131294302349,2.6141245610711303,0.8341139696861374,1.1537666768057258,0.2871506490467956
1765409153.298101,-9.998486504274979,0.6820543680927065,2.5664774673215445,0.82934874459235,1.1472136861987887,0.28708177998067186
1765409153.298351,-9.95067826334354,0.7092151758847223,2.5195655001486363,0.8244607693265958,1.1404025533251083,0.28691906531741107
1765409153.298601,-9.909580767610253,0.7344853058282206,2.4742305109465192,0.8194638174270855,1.1334266828054267,0.2866445844232224
1765409153.298844,-9.876752519642654,0.7583769472267509,2.4313350904691684,0.81437098996724,1.1263821924119153,0.2862447991592968
1765409153.299094,-9.853332881506358,0.7813520754988755,2.391742889902044,0.8091945946836481,1.1193613438568146,0.2857114247149185
1765409153.299344,-9.840042254906933,0.8037586027950585,2.3562887439477564,0.8039461924438307,1.1124464820033984,0.2850414741142445
1765409153.299594,-9.837200972814783,0.8257875432703143,2.325742416138291,0.7986367220153411,1.105705019536659,0.28423642975652874
1765409153.29987,-9.844762246489598,0.847459635607499,2.3007710912438863,0.7932765960014811,1.0991858843336366,0.2833006931039975
1765409153.30012,-9.862353328701186,0.8686437580648696,2.281904889851996,0.787875679528844,1.092917653062603,0.28223964812960617
1765409153.30037,-9.88931909802707,0.8891022683127204,2.2695086612953546,0.7824431068647468,1.0869083727732587,0.2810577888822161
1765409153.30062,-9.92476383198851,0.908552113929675,2.263762572691212,0.7769869372210975,1.0811468744846202,0.27975735223421155
1765409153.300847,-9.967588462050328,0.9267273596071055,2.2646519841978545,0.7715136914757046,1.0756052467044037,0.2783377612447905
1765409153.301097,-10.01652102937011,0.9434296680083497,2.2719631929026693,0.7660278459851564,1.0702420718125363,0.27679597745724005
1765409153.301347,-10.070138364476115,0.958557323354275,2.2852781370307134,0.7605313850603101,1.065006037139852,0.27512765538015915
1765409153.301597,-10.12687847156087,0.9721085152286287,2.303961136959258,0.7550235296686524,1.0598396216681372,0.2733288448004029
1765409153.301907,-10.185045514080707,0.9841592818901509,2.3271351158259006,0.7495007651925889,1.0546827035657524,0.27139791024347887
1765409153.302157,-10.24281188996328,0.9948206180641688,2.3536519443117614,0.7439572729203279,1.049476063974047,0.2693373096448137
1765409153.302407,-10.298224356247756,1.0041831268474066,2.382068744270315,0.7383858154144306,1.0441648136506492,0.2671548802689234
1765409153.302657,-10.349223005252878,1.0122608296690303,2.4106459548985417,0.7327790412304853,1.038701727756488,0.26486433320018293
1765409153.302902,-10.393681887935173,1.0189472396812322,2.437381499224399,0.7271310802995046,1.033050372712906,0.26248477326033265
1765409153.303152,-10.429477429629046,1.0239956974225313,2.4600888974314805,0.7214392167427125,1.0271877971729713,0.26003922504771015
1765409153.303402,-10.45458603236104,1.0270322251872241,2.476518470171113,0.7157053690779469,1.021106487163679,0.25755232637539205
1765409153.303652,-10.467206486344534,1.0276033744663013,2.484512603986819,0.7099370988414154,1.0148152911579258,0.2550475198558213
1765409153.303914,-10.465896774013352,1.0252545708635696,2.482179365790089,0.7041479164598382,1.008339106734323,0.2525442029192904
1765409153.304164,-10.449709588709363,1.019627458946987,2.4680637956309472,0.6983567473629265,1.001717252076111,0.2500553456818372
1765409153.304414,-10.418308236911567,1.0105593783558213,2.441294166534745,0.6925865451082247,0.995000587986818,0.24758602152865264
1765409153.304664,-10.37204595776126,0.9981661439672813,2.4016829103974775,0.6868621763495747,0.9882476025332164,0.2451331220508515
1765409153.304903,-10.31199665703483,0.9828917037467589,2.34976861557851,0.6812078304368603,0.9815198213257692,0.24268629442935627
1765409153.305153,-10.239931626559592,0.9655143496980492,2.286794173022934,0.6756442921015198,0.9748770330817493,0.24022991730089857
1765409153.305403,-10.158242968934973,0.9471068679807862,2.214624189685666,0.6701864415193158,0.9683728700961759,0.2377457829423293
1765409153.305653,-10.069819305572393,0.9289550523807147,2.135611263333553,0.6648413184210742,0.9620512272951586,0.23521609685824674
1765409153.305805,-9.977883149255591,0.9124441963497218,2.0524258596919394,0.659607018188722,0.9559438609030028,0.23262640997840522
1765409153.306055,-9.885802409825635,0.8989265860804025,1.967867988778545,0.6544725831227679,0.9500693174310679,0.2299681258947296
1765409153.306305,-9.796890754277221,0.8895850454935635,1.884679622132643,0.6494189202465072,0.944433134579843,0.22724026907369987
1765409153.306555,-9.71421276887195,0.8853082004313515,1.8053748588592615,0.6444206415585643,0.9390290599806784,0.22445027708950388
1765409153.306828,-9.640410118451875,0.8865919495356652,1.7321016866994938,0.6394486096480837,0.9338408995039758,0.22161369760281216
1765409153.307078,-9.577564105938896,0.8934785728159127,1.6665458089360672,0.634472893429922,0.9288445686403807,0.21875280882621292
1765409153.307328,-9.527107707067259,0.9055405107218125,1.6098828619790275,0.6294657970252197,0.9240099727374866,0.2158943110772785
1765409153.307578,-9.489795639658452,0.9219108918031155,1.5627796239297775,0.6244046235180478,0.9193024571543645,0.2130663429047571
1765409153.307809,-9.46573425249209,0.9413579461661604,1.5254381721602521,0.6192738803461605,0.914683722821789,0.21029515911462462
1765409153.308059,-9.454465054321293,0.9623958073151329,1.4976712927690763,0.6140667176365018,0.9101122694766932,0.2076018654438353
1765409153.308309,-9.455088449831145,0.9834201714195503,1.478994288528411,0.6087854917775098,0.9055435676689747,0.2049996172028635
1765409153.308559,-9.466409467845091,1.0028544415295653,1.4687179526751106,0.6034414414804999,0.9009302376074634,0.20249163783203988
1765409153.308863,-9.487085834171767,1.0192910930049115,1.466029567279498,0.5980535448794991,0.8962225247054411,0.2000702982113868
1765409153.309113,-9.515760524891139,1.031614374211443,1.4700530811633248,0.5926466950996598,0.8913693259763593,0.1977173451009717
1765409153.309363,-9.551165085146929,1.039093567592426,1.4798853986252478,0.5872493868751358,0.886319946604046,0.19540521758823018
1765409153.309613,-9.592185344165031,1.0414398251626993,1.494611152204188,0.5818911431611351,0.8810266411262805,0.19309927572788158
1765409153.309849,-9.637886650612312,1.0388232506238968,1.5133013904563712,0.5765999239587256,0.8754478150923699,0.19076069195005266
1765409153.310099,-9.68750099199368,1.0318502975130002,1.5350020624887502,0.5713997495289053,0.8695515702252715,0.1883497094966262
1765409153.310349,-9.740383541334431,1.021504903052004,1.5587181283771947,0.5663087419264341,0.8633191452204627,0.1858289461243887
1765409153.310599,-9.79595091677669,1.0090599173903954,1.5834003388242344,0.5613377482953363,0.8567477873356373,0.18316642861259408
1765409153.310855,-9.85361603900957,0.9959676066503051,1.607943030732205,0.5564896556216077,0.8498526657813427,0.18033809415105403
1765409153.311105,-9.912733256831627,0.9837387644407936,1.6311999055540467,0.5517594356653979,0.8426675431669453,0.17732957147291808
1765409153.311355,-9.972562767546078,0.9738196103655096,1.652019949462901,0.5471348792904988,0.8352440219657624,0.17413712987994118
1765409153.311605,-10.032257602782591,0.9674751295366091,1.669299735887503,0.5425979130077812,0.8276492970041377,0.17076775000353073
1765409153.311867,-10.090871736363535,0.965687296719888,1.6820442037408778,0.5381263496544383,0.8199624989555255,0.1672383368835713
1765409153.312117,-10.147384855920187,0.9690762185128553,1.689426588361117,0.5336959020183851,0.812269893968706,0.16357417017601394
1765409153.312367,-10.200737825033377,0.9778507581382628,1.690838760747179,0.5292822738401423,0.8046593560936799,0.15980675925546803
1765409153.312617,-10.24987281361967,0.9917925165793933,1.6859250989741188,0.5248631433154793,0.7972146043674789,0.1559713244615588
1765409153.312881,-10.293773439076627,1.0102738375192397,1.6745959982521261,0.520419878197226,0.7900096955756016,0.1521041447577961
1765409153.313131,-10.331502353561795,1.0323075588955868,1.6570206780038381,0.5159388604743352,0.783104220367947,0.14823999662024778
1765409153.313381,-10.362235586509703,1.0566237269696201,1.6336020315440773,0.5114123373590018,0.7765395871481259,0.14440987323464624
1765409153.313631,-10.385294170804974,1.0817662514429107,1.6049383220971976,0.5068387527915105,0.7703366932205129,0.1406391304332004
1765409153.313818,-10.400174111674726,1.106200710721935,1.5717776070896123,0.502222557597703,0.7644951708709614,0.1369461594713431
1765409153.314068,-10.406575524397956,1.1284238672059557,1.5349708365525092,0.4975735415826979,0.7589942612560504,0.13334163861328963
1765409153.314318,-10.404430861587826,1.1470662691410407,1.4954285566337324,0.49290575962290967,0.7537952186452807,0.12982837490428578
1765409153.314568,-10.393931027895512,1.1609810866203427,1.4540844630771654,0.4882361328603586,0.7488449937780141,0.12640172123786
1765409153.314815,-10.375547162249154,1.1693141682845771,1.4118672176047364,0.48358281526943464,0.7440808146241836,0.12305053278833851
1765409153.315065,-10.350044848853688,1.1715518012613155,1.3696800469998152,0.47896343984731354,0.7394352096507545,0.11975859424773459
1765409153.315315,-10.318486526082873,1.167544013899955,1.3283858129131618,0.4743933855254446,0.7348410153838066,0.11650640143017124
1765409153.315565,-10.282217423971582,1.1575027754929126,1.2887941211339453,0.4698842166370412,0.7302359576748401,0.11327313328929246
1765409153.315925,-10.242830943760984,1.1419761639676862,1.2516470610747559,0.4654424393349115,0.7255664689759916,0.11003862274815705
1765409153.316175,-10.202111050530142,1.121801380902673,1.2176009949801885,0.4610686991977343,0.7207904896855417,0.10678513386526178
1765409153.316425,-10.16195207948676,1.0980412229536145,1.1872031913046195,0.4567575088478215,0.7158790949375916,0.10349877562171697
1765409153.316675,-10.124260498835945,1.071909992681728,1.1608642581749327,0.4524975417368289,0.7108168857981264,0.10017042789028292
1765409153.31687,-10.09084790161058,1.0446955335590886,1.138830070475325,0.4482724672078394,0.7056011880240488,0.09679612149815735
1765409153.31712,-10.06332798008294,1.017683887831655,1.121159125950679,0.4440622441684054,0.7002402120944909,0.09337688971740968
1765409153.31737,-10.043030723520719,0.992091915520523,1.1077119615305948,0.439844743226225,0.6947504298936045,0.08991817402045277
1765409153.31762,-10.030944178913936,0.9690112079945404,1.098157968349045,0.43559753546650565,0.6891534920911616,0.08642890729319573
1765409153.317893,-10.027688921346513,0.9493643402032776,1.0920018132380767,0.43129967429313504,0.6834730296714588,0.08292040460949897
1765409153.318143,-10.033524778613813,0.9338728165859278,1.0886276640756118,0.4269333049242115,0.6777316524475109,0.07940516765445554
1765409153.318393,-10.048385006482025,0.9230355541944579,1.0873560611870847,0.42248496276045144,0.6719483892808976,0.0758956734160686
1765409153.318643,-10.071930596765844,0.9171171837613501,1.0875065316179622,0.41794646520929646,0.666136728234336,0.07240319700978796
1765409153.318831,-10.103616222300474,0.9161461055007517,1.0884586662929219,0.41331535563104027,0.6603033252774796,0.06893672250481198
1765409153.319081,-10.142758866184913,0.9199225878673254,1.08970467962134,0.4085949116978517,0.6544473633469001,0.06550201243808744
1765409153.319331,-10.188600477449976,0.928037135747472,1.090887179179321,0.40379377245039955,0.6485604675216784,0.06210091901933887
1765409153.319581,-10.24035739287332,0.9398988738921162,1.0918171596659052,0.39892526214655133,0.6426270393134922,0.058731018199520243
1765409153.319902,-10.297251715186786,0.9547727871907216,1.0924692994881067,0.3940064932658412,0.6366248847867408,0.05538562500584426
1765409153.320152,-10.358522849469107,0.9718235872344144,1.0929544770520332,0.3890573202833052,0.6305260682567314,0.05205419884704701
1765409153.320402,-10.423420536760474,0.9901632559844115,1.0934727560882764,0.3840992011882997,0.6242979875304339,0.04872308168974689
1765409153.320652,-10.491183748938408,1.0088992838809383,1.0942533095154534,0.37915401624573875,0.6179047027370178,0.04537646284365772
1765409153.320927,-10.561012354731616,1.0271810587513706,1.095490118361552,0.3742428948373004,0.6113085467812349,0.041997458427837
1765409153.321177,-10.63203998771663,1.0442422010273553,1.0972833527075565,0.3693851061054837,0.604472006682393,0.03856922632740986
1765409153.321427,-10.703316661574899,1.0594364842977464,1.0995959711589118,0.3645970743761958,0.5973598047006676,0.035076079855860184
1765409153.321677,-10.77380825064565,1.0722645098129504,1.102232928119932,0.35989158400105203,0.5899410453313385,0.03150458787302216
1765409153.321893,-10.842417013328635,1.0823881952397882,1.1048462548434328,0.3552772335985467,0.5821912480478045,0.027844642671296785
1765409153.322093,-10.90802337240228,1.0896310185280733,1.1069642758738307,0.35075817942347176,0.5740940666715771,0.02409044162659955
1765409153.322293,-10.96954524923116,1.0939638177579003,1.1080394015350816,0.34633417368951136,0.5656425093569588,0.020241282606468267
1765409153.322493,-11.026008287655266,1.0954781201163073,1.1075072358740963,0.3420008677576355,0.5568395246609142,0.016302047545235725
1765409153.322693,-11.076618410320373,1.0943507478206898,1.1048493069019223,0.33775032512383996,0.547697906973929,0.012283268086645113
1765409153.322819,-11.120827193480372,1.0908045157775241,1.0996517299305142,0.33357168106449514,0.538239570680762,0.008200729853431713
1765409153.323069,-11.15838088959229,1.0850700804156364,1.0916528019885352,0.32945189186362817,0.5284943045622869,0.004074652406947372
1765409153.323319,-11.189345937940463,1.0773532777262445,1.0807741637858825,0.3253765309437669,0.5184981316043045,-7.145007417273419e-05
1765409153.323569,-11.21410702332342,1.067810694128586,1.0671323845830123,0.3213306083842089,0.5082913933088367,-0.004212088478147619
1765409153.323844,-11.23333723264461,1.0565343245875125,1.0510302718991127,0.31729941011172713,0.49791668404802364,-0.008321165590683237
1765409153.324094,-11.247943052134202,1.043544708185305,1.032929720591655,0.3132693642850911,0.4874167746344104,-0.012373290683754817
1765409153.324344,-11.258989651615106,1.028791230731983,1.0134100204916843,0.3092289366943358,0.47683265806230246,-0.01634498418333419
1765409153.324594,-11.267613814063022,1.0121582704110526,0.9931166707979288,0.30516953696708254,0.46620181925394416,-0.020215745931924226
1765409153.32481,-11.274932648424782,0.9934762961216823,0.9727059441126373,0.3010863931208647,0.4555567972186295,-0.02396897175392297
1765409153.32506,-11.281955961923353,0.9725375825121115,0.9527902682575725,0.2969793300230192,0.4449240909464791,-0.027592697359073503
1765409153.32531,-11.289509344856924,0.9491164954358985,0.9338892883703311,0.2928533713098488,0.4343234570157371,-0.031080137057646867
1765409153.32556,-11.29817396021656,0.9229940851929305,0.9163910530323924,0.2887190809864084,0.42376764541999373,-0.03442997621927811
1765409153.325856,-11.308247712800387,0.8939860879198125,0.9005268944774931,0.28459257484263584,0.41326261322433416,-0.03764637612650103
1765409153.326106,-11.319730799825546,0.8619726912863027,0.8863622986356473,0.280495158887551,0.40280823994811454,-0.040738661375718584
1765409153.326356,-11.332336538524027,0.8269278626038298,0.8738044313384149,0.2764525852108909,0.3923995366915418,-0.043720681836846284
1765409153.326606,-11.345525839714062,0.7889458719516661,0.8626249233162575,0.27249395196708687,0.38202828384500204,-0.04660986856460054
1765409153.326811,-11.358561215528297,0.7482630402680139,0.8524944287862277,0.26865031015199275,0.37168495798967055,-0.04942603292211009
1765409153.327061,-11.370574605296836,0.7052736636483607,0.843024353030784,0.2649530667146883,0.3613607517314172,-0.052189984093102375
1765409153.327311,-11.380642927978341,0.6605400210668729,0.833811477413252,0.26143228192943974,0.3510494832009746,-0.05492204889784637
1765409153.327561,-11.387865591346038,0.6147966828774896,0.824482245284735,0.2581149472184857,0.340749229540381,-0.057640564393118564
1765409153.327872,-11.391438503393754,0.5689487921201456,0.8147339945665006,0.2550233061681902,0.3304635634848584,-0.06036039318619705
1765409153.328122,-11.39071932931579,0.5240630959041953,0.8043699575366826,0.2521732589477682,0.3202022979519296,-0.06309150438040866
1765409153.328372,-11.385279197878535,0.4813500034969967,0.7933240153935366,0.24957287715872875,0.3099816627061436,-0.06583767443138727
1765409153.328622,-11.374937125205088,0.4421352287127072,0.7816711803241609,0.2472210539418106,0.29982387839814095,-0.06859538028154936
1765409153.328804,-11.359775089268457,0.4078205381665813,0.7696213230989561,0.24510632174407745,0.28975616115955094,-0.07135296804960305
1765409153.329054,-11.340133604150864,0.37983440538349716,0.7574962845874755,0.24320588577004248,0.27980925831998826,-0.07409017672385378
1765409153.329304,-11.316589372679244,0.3595745355027612,0.7456929454325446,0.24148494063679035,0.27001565273186534,-0.07677807617968771
1765409153.329554,-11.289917956367013,0.34834496803801923,0.7346363198835324,0.23989635458258207,0.26040757427970185,-0.07937944630915615
1765409153.329886,-11.261045418591609,0.34729076602486697,0.7247273704145788,0.23838081261528402,0.25101494107337363,-0.08184958908975339
1765409153.330136,-11.230993478085097,0.3573333921293185,0.71629022709789,0.2368674996081707,0.24186334110470253,-0.08413753977489966
1765409153.330386,-11.20082270623202,0.37910998446650235,0.7095230193560728,0.23527537224988285,0.23297216517759897,-0.08618763230100478
1765409153.330636,-11.171577829254188,0.4129199231877499,0.7044560791226726,0.23351502146649183,0.22435300768573901,-0.08794137288267272
1765409153.330855,-11.144238456950223,0.4586822379223529,0.7009211787765052,0.23149107970158794,0.21600845267859436,-0.0893395747645893
1765409153.331105,-11.119677471985463,0.5159073860997596,0.6985351864641945,0.22910509124177966,0.2079313490616319,-0.09032469737377179
1765409153.331355,-11.09862782711825,0.5836864737900982,0.6967003510261627,0.22625874020167883,0.20010464766473024,-0.09084331078727441
1765409153.331605,-11.081657105177543,0.6606999162622553,0.6946216970083595,0.22285731907861675,0.19250183203211274,-0.09084857703311973
1765409153.331845,-11.069148566981237,0.7452460949466125,0.6913406726533842,0.21881331938904944,0.1850879369036699,-0.09030261873783102
1765409153.332095,-11.06128757815038,0.8352893115599778,0.6857834017708523,0.21405002722396704,0.17782111771257575,-0.08917864425095581
1765409153.332345,-11.058052734875375,0.9285254207279359,0.6768209894077494,0.20850500072576036,0.1706547025141361,-0.08746270897677157
1765409153.332595,-11.059211452531416,1.0224624324932483,0.663338275840202,0.20213329110273953,0.1635396189071931,-0.08515500162926863
1765409153.332874,-11.064320455494745,1.1145117235115058,0.644307012253736,0.19491025072862278,0.1564270543110934,-0.08227055720935579
1765409153.333124,-11.07273246208433,1.2020838067038515,0.6188598182822979,0.1868337615757362,0.14927119363106964,-0.07883933573586954
1765409153.333374,-11.083610839311357,1.2826819809779881,0.5863615529493853,0.17792572365005935,0.1420318801661358,-0.07490566996320445
1765409153.333624,-11.095953742308783,1.3539881594997072,0.5464742615247792,0.16823267036628317,0.134677046997416,-0.07052714960488017
1765409153.333854,-11.108628469719104,1.413937190701664,0.49921118181038343,0.1578254227108349,0.12718476244574123,-0.06577304261505149
1765409153.334054,-11.120415785364738,1.460777951293043,0.4449751477146536,0.14679774808725632,0.11954473864977137,-0.060722350540964566
1765409153.334254,-11.130062812635932,1.4931207482832014,0.3845771463802105,0.13526404624423635,0.11175918281105489,-0.055461574547275544
1765409153.334454,-11.136341805923687,1.5099711902978479,0.31923154426330375,0.12335614162819176,0.10384292773030565,-0.050082252426755236
1765409153.334654,-11.13811095961341,1.510751059319462,0.25052583472847895,0.11121931574640788,0.09582284996646352,-0.04467832312199095
1765409153.334819,-11.13437286252914,1.4953070330646008,0.18036499496168634,0.09900775637777642,0.0877366539019027,-0.03934338101589122
1765409153.335069,-11.124326330978796,1.46390825957628,0.11089322690590978,0.08687962476767001,0.07963115097132345,-0.034167889044815214
1765409153.335319,-11.107407857419313,1.4172335705693924,0.04439795534612873,0.07499194800896947,0.07156018164306574,-0.029236424270436878
1765409153.335569,-11.08331955744546,1.356348593928316,-0.016798077773596418,0.0634955415003402,0.06358231578376199,-0.024625040368301297
1765409153.33588,-11.052041381897478,1.2826725425209402,-0.07045056591592022,0.05253016482986876,0.055758445135883884,-0.020398855259296588
1765409153.33613,-11.013826626308036,1.1979343590595728,-0.11450713899485089,0.04222011199764192,0.04814936903735044,-0.016609996799827362
1765409153.33638,-10.969181232120375,1.1041182419819884,-0.1472145757453376,0.03267042432210323,0.04081347408257995,-0.013296043208386264
1765409153.33663,-10.918828661674983,1.0033992047034987,-0.16721399589871808,0.023963887785400366,0.033804611517393696,-0.010479069357032715
1765409153.336803,-10.863663116305135,0.8980701096714555,-0.1736187049092838,0.016158941751318455,0.02717027288197929,-0.00816536547268158
1765409153.337003,-10.804694677009614,0.7904625428518482,-0.16606972879801052,0.009288588650511777,0.020950148974458575,-0.00634584577977781
1765409153.337203,-10.742990560138121,0.6828648206355155,-0.1447647745343212,0.0033603518983801894,0.015175130790865974,-0.0049971180980174215
1765409153.337403,-10.679616890103375,0.5774410622773686,-0.11045784310724674,-0.0016427219671986777,0.009866780611001075,-0.004083142096047932
1765409153.337603,-10.615585153552884,0.47615543474200855,-0.0644288113725099,-0.005760076545519757,0.0050372740515311765,-0.003557366344422189
1765409153.33789,-10.551806970562424,0.38070547748061473,-0.008424393600101877,-0.009050784452918303,0.0006897924940891231,-0.0033652088359269563
1765409153.33809,-10.489060036367833,0.2924680460183348,0.05542620032245076,-0.011589963312062041,-0.0031806739015954677,-0.0034467360759305164
1765409153.33829,-10.427966970023496,0.21246095736859455,0.12471575977514927,-0.01346465332815244,-0.0065861760071940605,-0.003739399240163282
1765409153.33849,-10.368987485695166,0.14132282228123713,0.1968770409344376,-0.014769367828819572,-0.00954439996035537,-0.00418069606340535
1765409153.33869,-10.312423136759783,0.0793127303771654,0.2693067658910988,-0.015601549752173042,-0.012077121589549876,-0.00471063987691087
1765409153.338895,-10.258433098564609,0.026330348286713386,0.3394882619003847,-0.016057179774156976,-0.014208649255120111,-0.005273930547408203
1765409153.339095,-10.207058990180622,-0.018044498362977408,0.405105865265751,-0.016226777284845822,-0.01596438236602667,-0.005821734491755505
1765409153.339295,-10.158256419763033,-0.05449560542561544,0.46414504943717017,-0.016192007575072005,-0.017369597264897882,-0.006312995085192043
1765409153.339495,-10.11193064336617,-0.08390242141231224,0.5149734260591917,-0.016023060001229893,-0.01844854107002159,-0.006715221129967348
1765409153.339695,-10.067973374550336,-0.10726661486349993,0.5563990920176085,-0.01577690179572382,-0.019223872961371194,-0.007004748548398446
1765409153.339888,-10.026297424533897,-0.12563949045354558,0.5877039548865542,-0.01549644928590314,-0.019716452080063587,-0.00716653011084039
1765409153.340138,-9.986865757029305,-0.14005527150922217,0.6086507979607819,-0.015210637621450812,-0.01994543969408607,-0.007193554089325175
1765409153.340388,-9.94971199959822,-0.15147349457888676,0.6194643214705378,-0.01493531424423261,-0.019928661888882867,-0.007086005045161734
1765409153.340638,-9.914950465428497,-0.16073240325481702,0.6207882030566142,-0.014674832023924977,-0.019683164570633477,-0.006850260517875985
1765409153.340893,-9.882775014993703,-0.16851457948503715,0.6136219335847012,-0.014424178335367525,-0.01922588236414264,-0.006497785471999115
1765409153.341093,-9.853447337541818,-0.1753258207774152,0.5992424882976658,-0.014171451478168845,-0.018574337878716676,-0.0060439629795990555
1765409153.341293,-9.827276324640204,-0.1814879443699758,0.5791167454689249,-0.013900489026194018,-0.017747288614853102,-0.005506895182039612
1765409153.341493,-9.80459103495775,-0.1871453747881163,0.5548109003704844,-0.013593461753708763,-0.016765243229828086,-0.004906218444546953
1765409153.341693,-9.785710146844304,-0.19228406571554568,0.5279027595483771,-0.013233266330717868,-0.01565077718484725,-0.004261985836996005
1765409153.341816,-9.770910719209214,-0.1967600409683189,0.4999017737477955,-0.01280557627805218,-0.014428596363302309,-0.003593666113826266
1765409153.342066,-9.76039874736197,-0.20033423035341758,0.4721804076087662,-0.012300442996397317,-0.01312532901572067,-0.002919293052677239
1765409153.342316,-9.754283667545863,-0.20271044867516808,0.44591937415448835,-0.011713377108292396,-0.011769061642976593,-0.0022547862121508446
1765409153.342566,-9.752558646653103,-0.20357386116617027,0.4220683610845987,-0.01104588302307583,-0.010388659978459615,-0.0016134626778049144
1765409153.342815,-9.755088071870514,-0.20262757233712614,0.4013229069330966,-0.010305461824739081,-0.009012930629061397,-0.0010057611589126892
1765409153.343015,-9.761603180092852,-0.19962501276893568,0.38411711079675614,-0.009505133604067188,-0.007669689681709087,-0.000439190064342905
1765409153.343215,-9.771706383348894,-0.19439596387631766,0.37063113889409205,-0.008662556792398088,-0.006384812762749708,8.15125570833129e-05
1765409153.343415,-9.784884445419046,-0.1868646523086941,0.36081195122077986,-0.007798839318861452,-0.00518133992163376,0.0005540448035070868
1765409153.343615,-9.800529972573113,-0.17705921517290124,0.3544049826469824,-0.006937147284627627,-0.004078697591695034,0.0009780854027569559
1765409153.343818,-9.817969745881594,-0.16511260595550936,0.35099371996113077,-0.006101223142071476,-0.003092086992758226,0.0013547734368925801
1765409153.344018,-9.836497669969352,-0.15125549961839183,0.3500436883854467,-0.0053139261058533895,-0.0022320773895364307,0.0016861755937497144
1765409153.344218,-9.855409827593158,-0.13580209094314377,0.3509475287507228,-0.004595900725308511,-0.001504428291675749,0.001974784925817354
1765409153.344418,-9.874039171003608,-0.11913006766883416,0.35306834645399754,-0.003964464803197801,-0.0009101452001280362,0.002223085560547935
1765409153.344618,-9.891787526889926,-0.10165653454922849,0.3557790914450293,-0.0034327863041663503,-0.000445756406181973,0.002433208624047335
1765409153.344874,-9.908152873041654,-0.08381212862842734,0.3584964448060061,-0.0030093920888571457,-0.00010378874320863323,0.0026066958743669972
1765409153.345074,-9.922750334921584,-0.06601577286736378,0.36070851358402,-0.0026980212683786,0.00012658720399044061,0.002744378928540636
1765409153.345274,-9.93532585641705,-0.04865232272861264,0.3619961878320475,-0.002497805984887768,0.0002587825149558379,0.0028463735768125137
1765409153.345474,-9.945761801043705,-0.03205483346948676,0.36204805497504017,-0.002403736872253316,0.0003079345566676825,0.0029121802709067847
1765409153.345674,-9.954073991433315,-0.016492515879342765,0.3606686290246967,-0.0024073530521724128,0.00029001780744540193,0.002940873192559628
1765409153.345812,-9.960400218405614,-0.002164804979913851,0.3577797727358077,-0.0024975876455284015,0.00022095941190249945,0.002931352199219179
1765409153.345979,-9.964981031478297,0.010798627005170668,0.3534155450920459,-0.0026616964204281713,0.00011579310510653588,0.0028826260815417453
1765409153.346145,-9.968134355428125,0.022332618787214036,0.34771105683716025,-0.0028861970815887423,-1.2113771463212839e-05,0.002794093163228173
1765409153.346312,-9.970226002098958,0.03242717154047323,0.34088624968043363,-0.0031577506955778934,-0.00015172473306441258,0.0026657868474145342
1765409153.346479,-9.971638482768372,0.04111543006389897,0.33322585921474024,-0.0034639258184035976,-0.0002948566024891282,0.002498559508053782
1765409153.346645,-9.972740616439253,0.04846051312333896,0.3250570021694275,-0.0037937987791807587,-0.00043652726338972055,0.0022941876240693496
1765409153.346916,-9.9738602164909,0.05454260422659416,0.3167257765848498,-0.004138358633637799,-0.0005750969460933844,0.002055392482438707
1765409153.347116,-9.975261765214915,0.0594474516311775,0.3085742303803556,-0.004490701457135507,-0.0007121803075252112,0.0017857818079480314
1765409153.347316,-9.977130579392556,0.06325709428415659,0.3009191819943009,-0.004846014905811205,-0.0008523262784476448,0.0014897266507268342
1765409153.347516,-9.979564397628067,0.06604326120553677,0.2940344024384543,-0.005201370769634218,-0.001002484856309246,0.0011721943016523057
1765409153.347716,-9.982572482756108,0.06786347453967405,0.288137346383625,-0.005555361356442895,-0.001171296540057758,0.0008385616020718796
1765409153.347884,-9.986081492358844,0.06875949760519125,0.28338109564285946,-0.00590763182990508,-0.0013682514797309043,0.0004944321786529952
1765409153.348084,-9.989946862250525,0.068757582058296,0.2798516758892364,-0.006258369374724348,-0.0016027751119909919,0.00014547421593024535
1765409153.348284,-9.99396826445786,0.06787005980290925,0.27757041582363445,-0.00660780934248019,-0.0018833047469848942,-0.0002027158268938326
1765409153.348484,-9.997907649751772,0.06609805210758424,0.27650053650249157,-0.006955810441500546,-0.002216425859799937,-0.0005447276587431543
1765409153.348684,-10.001508429991384,0.06343520131305527,0.27655688349290364,-0.007301537124839042,-0.0026061368277655638,-0.0008754363030143592
1765409153.348927,-10.004514530343915,0.05987227718984713,0.2776177148058029,-0.0076432690157328675,-0.0030533031625472108,-0.0011900887961443615
1765409153.349127,-10.006688246976875,0.05540236499436494,0.2795375112052013,-0.007978338809648752,-0.0035553446710816835,-0.0014843775882721307
1765409153.349327,-10.007826004933628,0.05002624754884327,0.2821597584296214,-0.008303186263671117,-0.004106176790402352,-0.0017545001891213653
1765409153.349527,-10.00777130610262,0.04375759947161403,0.285328722273476,-0.008613507521105202,-0.004696407981436634,-0.0019972075096643133
1765409153.349727,-10.006424415669347,0.036627664515819044,0.28889946920725235,-0.008904474773406465,-0.005313778112002145,-0.0022098450958441254
1765409153.349979,-10.003748517011656,0.02868911130652037,0.29274560647965636,-0.009171000097623094,-0.005943803813887114,-0.0023903904131562107
1765409153.350179,-9.999772115280603,0.020018751023468177,0.2967643524594183,-0.009408017817941719,-0.006570577665552284,-0.002537486179654278
1765409153.350379,-9.994587527926539,0.010718825671241902,0.3008787315785594,-0.00961076095362804,-0.007177655164298771,-0.002650465681341845
1765409153.350579,-9.988345449734485,0.0009166944598995934,0.3050369481418357,-0.009775010915109942,-0.007748959618683545,-0.0027293619275073006
1765409153.350779,-9.981245757309269,-0.009237087636098236,0.3092091984914644,-0.009897307521067546,-0.008269638983735544,-0.002774889767337489
1765409153.350957,-9.97352493822701,-0.01957218329444189,0.31338232988405657,-0.009975116098024438,-0.008726819088886067,-0.00278839129927225
1765409153.351157,-9.965440918736876,-0.029903202362433337,0.31755298986920066,-0.010006953926367822,-0.009110213148122822,-0.0027717419087989687
1765409153.351357,-9.957256573334888,-0.04003551412525744,0.32172021397494216,-0.009992476904955975,-0.009412563554078856,-0.0027272248695138545
1765409153.351557,-9.949223543069095,-0.04977182678130017,0.3258785657776902,-0.009932523443624596,-0.009629904091432294,-0.0026573910148996478
1765409153.351757,-9.941567960265775,-0.058919146821075755,0.33001285897346266,-0.009829112990985846,-0.009761638041259508,-0.002564922370416962
1765409153.351949,-9.93447933164316,-0.0672956938407465,0.3340951945554236,-0.00968540182930643,-0.009810432403504137,-0.002452515452033841
1765409153.352149,-9.928103308115688,-0.07473733982865328,0.33808456790406155,-0.009505602824147993,-0.009781933535232155,-0.0023227948056187826
1765409153.352349,-9.922538471894926,-0.0811031839806644,0.34192872417079784,-0.009294874894803778,-0.009684318643769636,-0.0021782627685131414
1765409153.352549,-9.917836772630556,-0.08627998195894758,0.34556754229991204,-0.009059184843475105,-0.009527713163346925,-0.002021286862496374
1765409153.352749,-9.914007014744307,-0.09018528316175753,0.34893722357780144,-0.00880514296622042,-0.009323522380760143,-0.001854119910419818
1765409153.352845,-9.911020766716748,-0.09276924366749353,0.35197477218852025,-0.008539815575995171,-0.00908373838695977,-0.0016789403157956896
1765409153.353095,-9.908820019663004,-0.09401518340675413,0.35462236599697416,-0.0082705208035211,-0.008820284510555991,-0.0014978949437137988
1765409153.353345,-9.907325859714632,-0.09393904278323444,0.35683123763028624,-0.00800461591141072,-0.008544448506853824,-0.0013131292212066406
1765409153.353595,-9.906447481586921,-0.09258790671302108,0.3585648224277675,-0.007749282320489872,-0.008266436219243887,-0.001126798564041258
1765409153.353921,-9.906091025882153,-0.09003768829472669,0.3598011457256506,-0.007511310223990512,-0.007995054818444425,-0.0009410663243473784
1765409153.354121,-9.906167805832352,-0.08638999910108097,0.36053452910891526,-0.007296883248790838,-0.00773751716375344,-0.0007580990461110464
1765409153.354321,-9.906601510087953,-0.08176826508525183,0.3607766991408495,-0.007111368039979635,-0.0074993523621954584,-0.0005800678366791247
1765409153.354521,-9.907334045136228,-0.07631323478027321,0.3605573905914618,-0.0069591215430323565,-0.007284409162079398,-0.00040915871969954764
1765409153.354721,-9.90832975076197,-0.07017808468465041,0.35992447941242195,-0.0068433351767275075,-0.007094939275695582,-0.00024758877471075527
1765409153.354915,-9.90957763080176,-0.06352334675818519,0.3589434452912501,-0.006765935999493279,-0.00693174393814077,-9.762005374141723e-05
1765409153.355115,-9.911091071880403,-0.05651189386480741,0.35769568418104297,-0.006727559024577422,-0.006794364576409508,3.843916362670707e-05
1765409153.355315,-9.912904557209771,-0.04930420922127749,0.35627514353812456,-0.006727593854025797,-0.006681301717281181,0.00015825492071160126
1765409153.355515,-9.915067262073821,-0.04205412766518791,0.35478304748732115,-0.006764296655471493,-0.006590252582384554,0.0002595147134721051
1765409153.355715,-9.917634016567268,-0.03490521253227616,0.3533209967172935,-0.006834949117441658,-0.006518362608752838,0.0003400009001490179
1765409153.355884,-9.920654700690566,-0.02798793118775261,0.3519832310249166,-0.006936042174971865,-0.00646248716510418,0.0003976860858068182
1765409153.356084,-9.924163486006226,-0.021417741487062124,0.3508490952768537,-0.00706346503339092,-0.006419455929902211,0.0004308436289262903
1765409153.356284,-9.928169349922145,-0.015294067662259178,0.34997667688226203,-0.0072126878579857594,-0.0063863243404455585,0.0004381649925061517
1765409153.356484,-9.93264903106644,-0.009700020101048928,0.3493983301299562,-0.007378935365156141,-0.006360589270961516,0.0004188747619885133
1765409153.356684,-9.937543236088926,-0.0047026933925202715,0.3491185386764061,-0.007557353396149184,-0.0063403459734796596,0.00037283339864726254
1765409153.356865,-9.942756515734244,-0.0003539215588995964,0.34911429106877284,-0.0077431689381583175,-0.006324371303814751,0.0003006174363355512
1765409153.357065,-9.948160762294862,0.003308623679026272,0.3493378112383853,-0.007931838902457609,-0.006312130696458863,0.0002035674055956557
1765409153.357265,-9.953601815840795,0.006260152454496328,0.34972120811261287,-0.008119180065208327,-0.006303719555374938,8.379585618074851e-05
1765409153.357465,-9.958908383511663,0.008487485268990683,0.350182514868714,-0.008301474631142565,-0.006299759369071824,-5.584811864546956e-05
1765409153.357665,-9.963902389605154,0.009987951978530559,0.35063258093269684,-0.008475550354265934,-0.006301269818420986,-0.00021185620744227612
1765409153.357969,-9.968409824477925,0.01076854886636551,0.3509821885801162,-0.008638836889575464,-0.006309531103047922,-0.0003801741646607517
1765409153.358169,-9.972271125202273,0.010845345963543716,0.3511486765059662,-0.008789399472109338,-0.006325944289050285,-0.0005563435090465204
1765409153.358369,-9.97535025873066,0.010243045951475179,0.3510614894938836,-0.008925948361699774,-0.006351897396035676,-0.0007356639126011776
1765409153.358569,-9.977542002860064,0.008994557907433316,0.3506664159641859,-0.009047819569668436,-0.00638864565576429,-0.0009133672767771278
1765409153.358769,-9.978777218767782,0.007140480401668178,0.3499285789986773,-0.009154920972377103,-0.006437208993445714,-0.0010847914086386996
1765409153.358858,-9.97902604601472,0.004728442959475256,0.3488343726248763,-0.009247640254050218,-0.006498283169404729,-0.001245538839610999
1765409153.359058,-9.978298985683152,0.0018122989369835424,0.3473924954421851,-0.009326717921259157,-0.006572162867340435,-0.001391608142807662
1765409153.359258,-9.976645806964104,-0.0015487850075800614,0.34563402810561317,-0.009393096761653097,-0.006658683789778642,-0.0015194920596698208
1765409153.359458,-9.974152103835252,-0.005291235571101147,0.34361120454030714,-0.009447763942215262,-0.006757195739057651,-0.0016262459263888943
1765409153.359658,-9.970933308940257,-0.0093478446890044,0.34139442614319176,-0.009491601923024347,-0.006866574635024864,-0.001709536033066824
1765409153.359849,-9.96712631472696,-0.0136483260884744,0.339067401475193,-0.009525261844859453,-0.0069852721090114716,-0.0017676766825385972
1765409153.360049,-9.962879509428356,-0.018119672328553892,0.33672088898140223,-0.009549071018897346,-0.007111391206446838,-0.0017996580896467614
1765409153.360249,-9.958342568548535,-0.022686410625306443,0.3344459555341305,-0.00956298493717765,-0.0072427695271200295,-0.0018051610410541837
1765409153.360449,-9.953657415292826,-0.027270897224330327,0.3323277562161063,-0.009566590961812619,-0.007377051807176157,-0.001784553467640275
1765409153.360649,-9.94895144888979,-0.031793805559393123,0.3304407080384384,-0.009559162716719043,-0.0075117430470408855,-0.0017388679591522718
1765409153.360889,-9.944333628776283,-0.03617495863146476,0.3288456158308158,-0.009539752918480093,-0.007644242725099347,-0.0016697632323884601
1765409153.361089,-9.939893353875323,-0.040334608619039244,0.3275887376183033,-0.009507304160739997,-0.007771863531382654,-0.0015794733015837912
1765409153.361289,-9.935701432080403,-0.04419517021849789,0.3267021400184215,-0.009460756954599081,-0.007891838166999466,-0.0014707458329638328
1765409153.361489,-9.931812127399532,-0.04768330481215846,0.32620444802255866,-0.009399140969772636,-0.008001321334361046,-0.0013467687387785333
1765409153.361689,-9.928265447845334,-0.05073217893272638,0.3261013923636503,-0.009321643856701986,-0.008097398913818258,-0.001211083773108272
1765409153.361876,-9.92508922539651,-0.053283703925803755,0.32638602497622543,-0.009227659280055606,-0.008177117308334111,-0.0010674873721232038
1765409153.362076,-9.922300821909735,-0.055290588749744934,0.32703873592428967,-0.009116822039144198,-0.008237544266301263,-0.0009199206378980631
1765409153.362276,-9.919908485494231,-0.05671806901673666,0.3280273301713714,-0.008989042218120871,-0.008275871272633682,-0.0007723514798440462
1765409153.362476,-9.917912601511091,-0.0575451892702053,0.3293075812076244,-0.008844548644856651,-0.008289563447304872,-0.0006286523324659572
1765409153.362676,-9.916307187046911,-0.05776552853600137,0.33082471423218174,-0.00868394370493916,-0.0082765506874553,-0.0004924763320316414
1765409153.362867,-9.915081749540137,-0.05738730929772387,0.33251595720945926,-0.008508261373984813,-0.00823543697484031,-0.00036713415814072976
1765409153.363067,-9.914223225334066,-0.05643291844992495,0.3343138224040839,-0.008319014699061838,-0.008165693218301753,-0.00025547475978761564
1765409153.363267,-9.913717561720505,-0.0549379444225881,0.33614958673771644,-0.008118221368722492,-0.008067797855778847,-0.00015977642347960464
1765409153.363467,-9.913550732697491,-0.05294985181440884,0.33795660529125204,-0.007908404262468829,-0.007943296985920308,-8.16583582701806e-05
1765409153.363667,-9.913709240440637,-0.050526380595495364,0.33967324193828,-0.007692571185528115,-0.00779477047164515,-2.2025002236121458e-05
1765409153.363912,-9.914180166078609,-0.047733713425767196,0.3412451253481471,-0.007474178946805407,-0.00762571105598613,1.8945479454047986e-05
1765409153.364112,-9.914950762105976,-0.04464444052929033,0.3426264178010791,-0.0072570826484351335,-0.007440342959005041,4.176098693109622e-05
1765409153.364312,-9.916007688222567,-0.04133537816249038,0.3437800533929516,-0.007045466922369041,-0.007243414205880371,4.7523337053339766e-05
1765409153.364512,-9.917336167997053,-0.0378853375817346,0.3446771992708009,-0.006843755210836573,-0.007039990012164015,3.7792999218466134e-05
1765409153.364712,-9.918919298445543,-0.034372954097224524,0.34529619676256,-0.006656495056958426,-0.006835261103780088,1.442684333346769e-05
1765409153.364985,-9.920737516622312,-0.030874660094554647,0.3456211023986647,-0.0064882196002798535,-0.006634371969943573,-2.0591846448635616e-05
1765409153.365185,-9.922768119174696,-0.02746285776534215,0.3456400015018468,-0.006343287812669273,-0.006442272931762181,-6.531192366687798e-05
1765409153.365385,-9.924984834885256,-0.02420435488315298,0.3453434668231593,-0.006225709064969665,-0.0062636006241980485,-0.00011794362142940113
1765409153.365585,-9.92735756429972,-0.021159161549967904,0.34472360282708564,-0.006138960798963074,-0.006102588226834543,-0.00017694308038273583
1765409153.365785,-9.929852387794698,-0.018379751173489667,0.34377398538024984,-0.006085810557021899,-0.005963000500185751,-0.00024104196801978266
1765409153.365955,-9.932431880728434,-0.01591081680173518,0.3424906049309445,-0.006068155427026916,-0.00584808342339411,-0.00030922084289131536
1765409153.366155,-9.935055741834415,-0.013789426040095348,0.34087371566114744,-0.0060868926010701685,-0.005760516435733885,-0.0003806357780164434
1765409153.366355,-9.937681712301393,-0.012045370635290967,0.33893030100260824,-0.006141832730773319,-0.00570235856980298,-0.00045451691746385876
1765409153.366555,-9.940266711274582,-0.010701471969939754,0.3366767513759231,-0.006231662792099081,-0.005674988468966744,-0.0005300622861096395
1765409153.366755,-9.942768049038992,-0.009773643127452753,0.3341413429866729,-0.006353959352356561,-0.00567904864088113,-0.0006063495879398986
1765409153.366895,-9.945144501499009,-0.00927060992336344,0.33136614870784914,-0.006505249062665439,-0.005714410120277428,-0.0006822828859790535
1765409153.367095,-9.947356954484329,-0.009193324179321245,0.3284080488916643,-0.006681111465242618,-0.005780171605257094,-0.000756581366676672
1765409153.367295,-9.949368305905042,-0.00953420082111141,0.3253385471873956,-0.006876318537463295,-0.005874698378908686,-0.0008278079758679724
1765409153.367495,-9.951142389200111,-0.010276354414870247,0.3222421820780173,-0.007085005047133009,-0.0059956947347171155,-0.0008944303576987381
1765409153.367695,-9.952641882627844,-0.011393040255521247,0.31921353112543077,-0.007300864245790381,-0.006140292792404991,-0.0009549053277323559
1765409153.367927,-9.953825499339526,-0.012847529374498097,0.3163531352169831,-0.007517364601586911,-0.0063051328123686304,-0.0010077788905092765
1765409153.368127,-9.954645086413448,-0.014593611930049846,0.31376295337050925,-0.007727983892063009,-0.006486407784970239,-0.0010517947305759177
1765409153.368327,-9.955043385548821,-0.016576804411329426,0.3115419901550573,-0.007926455867788897,-0.006679851769023683,-0.0010860036377197662
1765409153.368527,-9.95495307856729,-0.018736185592421208,0.3097825471501544,-0.008107021424829481,-0.006880668381312255,-0.0011098633180895903
1765409153.368727,-9.954297520111382,-0.021006674186872566,0.3085673460034456,-0.008264671199818382,-0.007083417434214145,-0.0011233139539537922
1765409153.368954,-9.952993337902766,-0.02332151880762067,0.30796760488026376,-0.00839536174606047,-0.007281894568848261,-0.0011268141022358564
1765409153.369154,-9.950954782581304,-0.025614789974549027,0.30804188738958777,-0.008496185992076804,-0.0074690453519685295,-0.0011213270730877644
1765409153.369354,-9.948099383373838,-0.02782371561036554,0.30883524442388477,-0.008565481946289638,-0.007636952406122086,-0.0011082576265904144
1765409153.369554,-9.944354378887668,-0.029890757727655967,0.3103781662230632,-0.008602870297830885,-0.007776923906604368,-0.0010893473540017073
1765409153.369754,-9.939663642050737,-0.03176537595851208,0.312685252850541,-0.008609219561054125,-0.007879695326908189,-0.0010665414602144597
1765409153.369931,-9.933995114178497,-0.03340546059521106,0.3157539293648101,-0.008586545243889738,-0.007935736936696955,-0.001041841187402406
1765409153.370131,-9.927348795344367,-0.03477844344263998,0.3195636418779141,-0.008537855502985307,-0.00793564411101556,-0.0010171567806380511
1765409153.370331,-9.91976511784142,-0.03586210350665109,0.3240758396376234,-0.008466957866494424,-0.00787058112360247,-0.0009941748349157713
1765409153.370531,-9.911333194543031,-0.03664505931972339,0.32923483980830265,-0.00837823969467636,-0.007732749811575908,-0.0009742498059241734
1765409153.370731,-9.902198014350923,-0.03712687769079498,0.3349693870995575,-0.008276431952889272,-0.0075158562241755674,-0.0009583242995574704
1765409153.370932,-9.892565243239336,-0.037317679723278506,0.3411944462126037,-0.008166364929192043,-0.007215548352796432,-0.0009468800710789436
1765409153.371132,-9.88270214522401,-0.03723716037948025,0.3478127603705369,-0.008052726203209747,-0.0068297979014597145,-0.0009399227264261995
1765409153.371332,-9.872933380727137,-0.03691306406075491,0.3547160011060748,-0.007939833350891812,-0.006359200160894253,-0.0009370053519902822
1765409153.371532,-9.863630843409544,-0.03637929512947424,0.36178558212547257,-0.007831434878342739,-0.00580716839806327,-0.0009372954147375317
1765409153.371732,-9.855197064988756,-0.03567389085564323,0.3688932140732051,-0.007730552462399224,-0.00518000287598319,-0.0009396831884724391
1765409153.371922,-9.848042232063294,-0.03483699872277785,0.37590127467745427,-0.007639375533560008,-0.004486818879005892,-0.0009429209360717248
1765409153.372122,-9.84255576934526,-0.03390881640817426,0.3826632674947161,-0.007559215165386744,-0.0037393209152920487,-0.0009457743828640465
1765409153.372322,-9.839074636301646,-0.03292729555444648,0.3890248431468697,-0.007490518745067244,-0.002951411641165981,-0.0009471639384893061
1765409153.372522,-9.837851627522053,-0.03192544474048734,0.3948258521483357,-0.00743294169270794,-0.0021386288587588757,-0.0009462722669513913
1765409153.372722,-9.839027798282547,-0.030928396381893875,0.39990383994190604,-0.007385468661366071,-0.0013174191279549164,-0.0009425967696980846
1765409153.37297,-9.842613304315275,-0.029950960581653783,0.40409937567923376,-0.0073465739910625275,-0.0005042844308908043,-0.0009359330902674845
1765409153.37317,-9.848480001297377,-0.028996838276442883,0.4072632986469388,-0.00731440957425086,0.00028512723560281946,-0.00092629460937351
1765409153.37337,-9.856367164019941,-0.028060469326570577,0.40926518912450177,-0.007287006996735063,0.0010368895122148546,-0.00091380244708491
1765409153.37357,-9.865899481924426,-0.02713140499209287,0.4100016760282081,-0.007262477045033671,0.0017395235874357587,-0.0008986022561892847
1765409153.37377,-9.876614865309433,-0.026199691976798525,0.4094033083283934,-0.007239183918600266,0.0023845120081890893,-0.000880852847931461
1765409153.373913,-9.88799866408929,-0.025260156088722844,0.407439537410176,-0.007215872504114807,0.0029665745663426286,-0.0008607868648014004
1765409153.374163,-9.899520432506744,-0.02431432317722497,0.40412196880621565,-0.007191740552819613,0.0034837097498265327,-0.0008387975799252272
1765409153.374413,-9.910669384048395,-0.0233704411895875,0.3995058338943966,-0.00716646319354111,0.003937008101196713,-0.0008154935952182429
1765409153.374663,-9.920985344209551,-0.02244319983903828,0.39368910755171554,-0.007140180859033889,0.004330243646201212,-0.0007916920548712268
1765409153.374832,-9.930083229897901,-0.021554213537651273,0.3868088295094372,-0.007113456302280358,0.00466927641734785,-0.0007683651982290235
1765409153.375032,-9.937670422023531,-0.020732690080688874,0.379035109448455,-0.007087205414951092,0.0049613449419399136,-0.0007465747110830575
1765409153.375232,-9.943557376326886,-0.020014767006126206,0.3705641387667144,-0.007062612676402362,0.005214348631070447,-0.000727406591798401
1765409153.375432,-9.947662192272007,-0.019440853781017356,0.3616115169630039,-0.007041045218344886,0.005436193349782227,-0.0007118860214143068
1765409153.375632,-9.950009671894783,-0.01905198755152685,0.3524063962155796,-0.007023972584392062,0.005634227697674364,-0.0007008534480646842
1765409153.375877,-9.950724973572271,-0.0188867730938247,0.3431859847866116,-0.007012886851972485,0.005814773673086375,-0.0006948248618435505
1765409153.376077,-9.950021807752508,-0.01897936685841393,0.33418944617939184,-0.007009210671733147,0.005982760058969401,-0.000693894807477942
1765409153.376277,-9.94818556320466,-0.019357528850959635,0.3256504625813012,-0.0070141854617838785,0.006141479203638114,-0.000697726951995163
1765409153.376477,-9.94555257001147,-0.020039604990731485,0.3177884781950627,-0.007028745094745256,0.006292491226655917,-0.0007056238681554613
1765409153.376677,-9.942487293636024,-0.021030564652124634,0.31079933582169905,-0.007053392509480012,0.006435689395682331,-0.0007166249420183857
1765409153.376812,-9.939359299267876,-0.022318609456115128,0.30484630040290656,-0.007088100959521854,0.00656951693009427,-0.0007295853206693074
1765409153.377012,-9.936521587759115,-0.023874026591272825,0.3000524571264372,-0.0071322582283752526,0.0066912975326800074,-0.0007432297241119024
1765409153.377212,-9.934291685958454,-0.02565073359565398,0.29649538314585144,-0.007184665015099353,0.0067976263997706725,-0.0007562114796471294
1765409153.377412,-9.932936563035991,-0.027589492903921355,0.2942046847199075,-0.00724359059845364,0.006884772419635109,-0.0007672068385869562
1765409153.377612,-9.932661887362322,-0.029621356369397785,0.2931623897035213,-0.007306880590962506,0.006949052839692033,-0.0007750415083380542
1765409153.37786,-9.933605593408519,-0.03167074840213216,0.29330571191562754,-0.0073721037899056275,0.006987145461099951,-0.0007788139492518754
1765409153.37806,-9.935835506084068,-0.03365873017742252,0.29453174780198027,-0.0074367192674811,0.006996307032242093,-0.0007779780456442887
1765409153.37826,-9.939350730806218,-0.03550723931240448,0.29670392676781043,-0.007498242422606566,0.006974483380423201,-0.0007723744772409498
1765409153.37846,-9.944086373675168,-0.03714422175640844,0.2996599907060674,-0.007554390945545958,0.006920322347623367,-0.0007622268230288343
1765409153.37866,-9.949920996643996,-0.038508451059992024,0.30322098476041304,-0.007603198832878602,0.006833117447827451,-0.000748119345939551
1765409153.378849,-9.956686273898642,-0.03955262685285677,0.3072006188325763,-0.007643096412068409,0.0067127125686292834,-0.000730950966188139
1765409153.379049,-9.964178474630698,-0.04024433178922492,0.3114144611482326,-0.0076729619660196825,0.006559394992033245,-0.0007118427663730382
1765409153.379249,-9.97217134028252,-0.040565683083991035,0.3156884902033092,-0.007692152309341286,0.0063738015568539155,-0.0006919901959301565
1765409153.379449,-9.980429670514464,-0.040512864115284763,0.31986653740643217,-0.007700515928624713,0.0061568571931678055,-0.0006724893809320765
1765409153.379649,-9.98872279207878,-0.04009593371618207,0.32381630654243776,-0.007698386487443209,0.005909753714223719,-0.0006541945051772218
1765409153.379873,-9.996837159667962,-0.03933829993277932,0.32743392232230173,-0.007686550429217597,0.005633965059831185,-0.0006376526472114577
1765409153.380073,-10.004587415299575,-0.038275090211068355,0.330647046898595,-0.0076661824275891894,0.005331288718316852,-0.0006231222464217392
1765409153.380273,-10.011825198653955,-0.03695047245567188,0.3334164505792994,-0.0076387469561228286,0.005003899642372535,-0.0006106456714952486
1765409153.380473,-10.018445023023883,-0.035414854432246345,0.3357358223449054,-0.007605872431867111,0.004654398497238793,-0.0006001401757729927
1765409153.380673,-10.02438672385451,-0.033722888376316186,0.33762971170225636,-0.007569214247454294,0.004285832649804985,-0.000591489300825819
1765409153.380914,-10.029634192033459,-0.0319324033427719,0.33914957590055256,-0.007530330683554351,0.003901669749802449,-0.0005846335411448897
1765409153.381114,-10.034210216998185,-0.03010363260297144,0.3403678016354125,-0.0074905964803517345,0.0035057088338299705,-0.0005796585988586902
1765409153.381314,-10.038167513594173,-0.028298015386613983,0.34136955617443066,-0.007451170725303367,0.003101920923877768,-0.0005768683998479412
1765409153.381514,-10.04157663017722,-0.026576303211752018,0.34224274128411136,-0.007413021683679867,0.002694222867101557,-0.0005768246073243042
1765409153.381714,-10.044512236138363,-0.024996197386998577,0.343067038335575,-0.007376997664257005,0.00228620575259994,-0.0005803409688790565
1765409153.381824,-10.047039784412226,-0.023609958395685294,0.3439035777114947,-0.00734392537697603,0.0018808559444492114,-0.0005884329680478501
1765409153.382024,-10.049204490519479,-0.02246233897705992,0.34478688190680207,-0.007314715726661876,0.0014803131338724609,-0.0006022329166836436
1765409153.382224,-10.051024064754996,-0.021588963821205853,0.345720438743875,-0.007290457288913063,0.0010857030358716374,-0.0006228851092242716
1765409153.382424,-10.052485845848,-0.021015093469647635,0.34667657307578786,-0.007272477226703901,0.0006970685592504303,-0.0006514353031914124
1765409153.382624,-10.053548095013902,-0.02075466235450276,0.3476003265437459,-0.0072623508203662765,0.00031341061261009283,-0.000688724650632723
1765409153.382849,-10.054144569297005,-0.020809561724675574,0.348416309761451,-0.0072618476557713375,-6.715973876776677e-05,-0.0007352929656717945
1765409153.383049,-10.054191400678969,-0.02116927358142958,0.3490373899633676,-0.007272814045470232,-0.00044716621819598177,-0.0007912936465139628
1765409153.383249,-10.053595582871399,-0.02181105370013874,0.34937438245674746,-0.007297003301404372,-0.0008294314393554586,-0.0008564242635627174
1765409153.383449,-10.052264496142474,-0.022700847327954805,0.34934599949549394,-0.00733587459951252,-0.0012166965795907484,-0.0009298804138281755
1765409153.383649,-10.050115682533809,-0.023795013283902135,0.34888802935543345,-0.007390386360069393,-0.001611242806449628,-0.0010103419266512868
1765409153.383804,-10.047085862147108,-0.025042777495200737,0.34796057052998036,-0.0074608113730807255,-0.0020145610676283723,-0.0010959979956284582
1765409153.384004,-10.043138320042777,-0.026389169427277807,0.34655252612224424,-0.007546597937834019,-0.0024271059227860647,-0.0011846123602960532
1765409153.384204,-10.038268181730295,-0.027778085816891524,0.3446832296096736,-0.007646294297483591,-0.0028481511823006773,-0.001273623157921639
1765409153.384404,-10.03250534980468,-0.029155192322585535,0.3424015224013825,-0.007757545021438514,-0.003275750300263753,-0.001360266188929142
1765409153.384604,-10.025914877932257,-0.030470609455631268,0.33978269901767205,-0.007877160441958247,-0.0037067979002678208,-0.001441707429274306
1765409153.38487,-10.018594552859138,-0.03168149729388147,0.3369236941672829,-0.008001254217175464,-0.004137183712744979,-0.0015151729071970752
1765409153.38512,-10.010669660501126,-0.03275450333859573,0.3339368444200883,-0.008125438404568724,-0.004562018930597346,-0.001578070607852638
1765409153.38537,-10.002285312882258,-0.03366764639015828,0.33094252081949804,-0.008245059587391556,-0.004975902625856325,-0.001628104881905513
1765409153.38562,-9.99359719645218,-0.034410992134615494,0.32806102441141155,-0.00835545468327689,-0.005373193577770851,-0.0016633838972608679
1765409153.38688,-9.984762037363037,-0.034985766682235186,0.3254044810093149,-0.008452203122645262,-0.005748262103067912,-0.0016825153219795887
1765409153.38738,-9.97592921389845,-0.035402189796351034,0.32306979506267086,-0.00853135444167477,-0.006095708628974478,-0.0016846805764276788
1765409153.390842,-9.96723451826406,-0.03567675031167314,0.3211335398209653,-0.008589616181153257,-0.0064105442132458505,-0.0016696788579821883
1765409153.393839,-9.958796203326123,-0.03582954990918149,0.31964895336567023,-0.008624493755016956,-0.0066883332468412535,-0.001637936983186763
1765409153.395819,-9.950712717830605,-0.03588190935724126,0.3186445800627903,-0.008634379208324687,-0.006925301352077046,-0.0015904831762133306
1765409153.398869,-9.943061381243123,-0.0358541358015224,0.3181240194516401,-0.008618589167609965,-0.0071184110373451485,-0.0015288799511915727
1765409153.400877,-9.935897558576068,-0.03576343180440593,0.3180665351866006,-0.008577355587890276,-0.007265405659234026,-0.0014551099032767633
1765409153.401895,-9.929254305582537,-0.03562222058271806,0.31842854449655733,-0.008511777017412684,-0.007364824023409612,-0.0013714163191418118
1765409153.404832,-9.923142795021151,-0.03543732235152968,0.3191461795898286,-0.008423740658505539,-0.0074159942639398435,-0.001280116866134158
1765409153.408842,-9.917554031851555,-0.03521024876449773,0.3201392129672473,-0.008315824084550198,-0.007419018588972814,-0.0011834237345030674
1765409153.409888,-9.912462258498504,-0.03493848327878518,0.32131650390411254,-0.008191182031796607,-0.007374753826335911,-0.0010833075709471183
1765409153.413808,-9.907829992672367,-0.03461727938009191,0.32258267158157483,-0.008053421938166357,-0.007284782355974846,-0.0009814311945667148
1765409153.415837,-9.903614100852227,-0.034241494833917197,0.3238452227831517,-0.007906472144994613,-0.007151365322367642,-0.0008791569669450508
1765409153.418871,-9.899772042825518,-0.03380727403508341,0.3250212295235896,-0.007754447175760786,-0.006977376592886821,-0.000777610545871354
1765409153.420884,-9.896267479520905,-0.033313680606234325,0.32604285644806447,-0.007601515107283305,-0.006766222566114627,-0.0006777742295596826
1765409153.42386,-9.89307460258068,-0.03276436495461393,0.3268612710083609,-0.007451772822943875,-0.006521753476895977,-0.0005805861821664874
1765409153.425867,-9.890180704327276,-0.03216906397573496,0.3274486037197959,-0.007309134317097298,-0.006248170228966776,-0.00048702992552684385
1765409153.426857,-9.887586770001946,-0.03154450395055639,0.3277978465955966,-0.0071772341681105795,-0.005949931758256799,-0.00039820381353979724
1765409153.43093,-9.885306278153315,-0.030914371431308554,0.3279209685106099,-0.007059344294547908,-0.005631668612660367,-0.0003153608131056474
1765409153.433876,-9.883362715663402,-0.03030836513670922,0.3278458150448605,-0.006958299342315445,-0.005298104720240168,-0.0002399083757163289
1765409153.43586,-9.881786344845802,-0.029760662120538933,0.32761229884578913,-0.006876424670001192,-0.0049539841821874455,-0.00017336127226692975
1765409153.438853,-9.880610605042477,-0.029308211645883375,0.32726813854352993,-0.006815459894501777,-0.004603998524175411,-0.0001172483413336277
1765409153.440819,-9.879868413011513,-0.028989123849345724,0.326864280455243,-0.006776471722448198,-0.004252711145949565,-7.298404314633642e-05
1765409153.441834,-9.879588572304192,-0.028841204446143964,0.326450156963963,-0.006759755902054329,-0.0039044755103701343,-4.172309595512565e-05
1765409153.445806,-9.879792435635522,-0.028900529891967966,0.3260689597532465,-0.006764739717664885,-0.003563342759224125,-2.421915298248613e-05
1765409153.448797,-9.880490948944608,-0.029199891236785507,0.3257531934727154,-0.006789907359138774,-0.0032329582880552426,-2.07068316116694e-05
1765409153.449802,-9.88168233715101,-0.02976694943541666,0.32552102572779235,-0.006832773585051214,-0.0029164564101627944,-3.082163279228829e-05
1765409153.453817,-9.883350839507795,-0.030622037299722696,0.3253741399284987,-0.0068899248068178464,-0.0026163706467412415,-5.356597297316567e-05
1765409153.455836,-9.88546681585778,-0.03177569999682365,0.32529758935850217,-0.0069571350809668146,-0.0023345773938547544,-8.732378790278447e-05
1765409153.458846,-9.887988219626239,-0.033226234976239916,0.32526162210361165,-0.007029552351870998,-0.002072283952318097,-0.00012992229092806065
1765409153.460835,-9.89086315107621,-0.03495759576226017,0.32522504407587566,-0.0071019398370774705,-0.0018300638742877935,-0.00017873681055727698
1765409153.463857,-9.89403313917297,-0.0369380134985473,0.32513961747795567,-0.007168948992528083,-0.0016079350517415449,-0.0002308315027811059
1765409153.466845,-9.897436803083952,-0.039119590870783365,0.3249550184376802,-0.007225395355395288,-0.0014054679950080834,-0.00028312452210343605
1765409153.468873,-9.901013454453409,-0.04143900749717646,0.3246238067534214,-0.007266509660174831,-0.0012219067110816333,-0.0003325619316988973
1765409153.469892,-9.904706149205657,-0.043819393961372806,0.32410585200478803,-0.007288145345399643,-0.0010562879507238815,-0.00037628172709990227
1765409153.473837,-9.908463875893998,-0.04617337637636042,0.3233718656183596,-0.007286936648321624,-0.0009075539320976309,-0.0004117492961948418
1765409153.475849,-9.912242882071919,-0.04840721606798415,0.32240591935634416,-0.007260412268636927,-0.0007746590160033102,-0.00043684970886107645
1765409153.480552,-9.916007337657618,-0.050425827819746444,0.32120686853137026,-0.007207073340023842,-0.0006566678993176358,-0.00044993023663803287
1765409153.480851,-9.91972956302362,-0.05213828234648653,0.3197885848655649,-0.007126442288739517,-0.0005528388082439394,-0.0004497960339736945
1765409153.483868,-9.92339003661117,-0.053463288221972265,0.31817908048672855,-0.007019086003809627,-0.00046268711700077803,-0.00043566978437163434
1765409153.485814,-9.926977352653397,-0.05433419320534163,0.3164188426517379,-0.006886615764824632,-0.0003860298683417394,-0.000407130526793732
1765409153.488835,-9.93048812968737,-0.054703211140796446,0.31455868258688474,-0.006731666386931019,-0.00032301330699021334,-0.00036404800341533264
1765409153.490838,-9.933926650393877,-0.054544726415637144,0.3126571659264009,-0.006557854990724206,-0.000274124065477251,-0.0003065274843070411
1765409153.493859,-9.93730395822311,-0.05385753487488878,0.3107775740643714,-0.00636971461795715,-0.00024018389077528276,-0.00023487628451346793
1765409153.495876,-9.940636279358705,-0.052665774977144544,0.3089844624098736,-0.006172592171834334,-0.00022232693591582632,-0.0001495971156987856
1765409153.498891,-9.943942796222695,-0.0510182449558389,0.3073400369632612,-0.0059724984400067295,-0.00022195563096151204,-5.140545707752501e-05
1765409153.500854,-9.947242875703306,-0.048985930008805335,0.30590064512020476,-0.005775902739228815,-0.0002406696799858844,5.874031426984089e-05
1765409153.503812,-9.950552941239259,-0.04665785428315739,0.3047137339188486,-0.0055894736307030716,-0.0002801673414065357,0.00017961257651279364
1765409153.50583,-9.953883309504318,-0.04413565957156902,0.30381563593438227,-0.005419775156439979,-0.00034212611261680325,0.0003097063123947993
1765409153.508848,-9.957235374799392,-0.041527441459450525,0.3032303527862864,-0.005272932643653208,-0.00042807509559735147,0.0004472542661166359
1765409153.510891,-9.96059946406459,-0.03894131716393355,0.3029691870773446,-0.00515428524807701,-0.0005392724635203431,0.0005902597978629283
1765409153.513792,-9.963953619938266,-0.0364790457059393,0.30303092324757697,-0.00506804661766943,-0.0006766006772902116,0.00073653582564784
1765409153.515869,-9.96726357440406,-0.03422989374040678,0.30340239045588524,-0.005017000219886375,-0.0008404887933104252,0.000883739298135924
1765409153.518808,-9.970484139783016,-0.032264936110609085,0.3040594469043579,-0.005002260596776483,-0.0010308643640461889,0.0010293973770295582
1765409153.520857,-9.973562054141759,-0.030632125735116037,0.30496850897843664,-0.005023134339629026,-0.0012471308852531177,0.0011709301999063288
1765409153.521862,-9.97644003010808,-0.02935267247912827,0.30608870647321856,-0.005077111292464188,-0.0014881653798914972,0.0013056808442560935
1765409153.524859,-9.979061477531756,-0.028419345443769863,0.30737457941359986,-0.00516000430592463,-0.0017523332849972875,0.0014309623992762044
1765409153.528831,-9.981375157081354,-0.027797120979189627,0.3087789356460255,-0.005266236685114057,-0.00203751911924175,0.0015441257709401474
1765409153.530898,-9.983338974731932,-0.027426215506124903,0.3102552730004419,-0.005389255772047463,-0.0023411703834482576,0.0016426448049617938
1765409153.533874,-9.98492237707328,-0.027227198236255492,0.3117593399389332,-0.005522033240533241,-0.0026603521349320538,0.001724211634720083
1765409153.536849,-9.98610727705821,-0.02710771807343762,0.31324989763191824,-0.005657600172841583,-0.00299181134145285,0.0017868348707373552
1765409153.538844,-9.986887817642964,-0.026970334531961293,0.3146891109891755,-0.005789559604564292,-0.0033320498115378345,0.0018289338542227533
1765409153.539885,-9.987269374815078,-0.026720875980771833,0.31604298793952806,-0.00591252157865971,-0.0036774004497624087,0.0018494224060942386
1765409153.543795,-9.987267136887855,-0.026276644230219637,0.3172820984416227,-0.006022415262648293,-0.004024097289412595,0.0018477761649373973
1765409153.545882,-9.986904522149603,-0.02557374890360906,0.3183826360429088,-0.006116648032498493,-0.004368329646474962,0.0018240794769284006
1765409153.548831,-9.986211530922382,-0.02457296638355625,0.3193276473886185,-0.00619410020231067,-0.004706275654266606,0.0017790495873168507
1765409153.551924,-9.985222820628612,-0.02326373778771679,0.320107926615487,-0.006254963434725849,-0.005034118612215689,0.0017140354551936404
1765409153.553901,-9.983975099608376,-0.021666137301650172,0.3207219562401578,-0.0063004487087931944,-0.005348058419450983,0.0016309861990688249
1765409153.555916,-9.982503627467004,-0.019830766745131023,0.3211745959872965,-0.006332404092630585,-0.005644335672255817,0.001532383497883578
1765409153.558885,-9.980838064538569,-0.017836559371843183,0.32147473208996546,-0.006352891323276388,-0.005919283734221973,0.0014211360326957536
1765409153.560898,-9.978998295233547,-0.01578648390099833,0.3216324351533287,-0.00636377235240096,-0.006169414736585451,0.0013004408098788733
1765409153.561898,-9.97699104834675,-0.01380122542439417,0.3216563208005581,-0.006366352985493649,-0.006391534060412726,0.0011736221070810116
1765409153.565884,-9.974808210932341,-0.012011117000840791,0.3215518986795468,-0.006361121467679644,-0.006582868952363556,0.0010439619831779897
1765409153.568835,-9.972427564087884,-0.010546853437256693,0.32132157750457957,-0.006347607263258787,-0.006741191543524752,0.00091453783027121
1765409153.57086,-9.96981608117107,-0.009529750572336682,0.3209664372436669,-0.0063243725107285835,-0.006864914562346664,0.0007880833498853005
1765409153.573918,-9.966935133847882,-0.009062443966275696,0.32048912662345286,-0.006289138032883232,-0.006953141210840725,0.0006668884596756238
1765409153.574912,-9.96374648956056,-0.009220895645699058,0.3198968706655679,-0.006239036720078068,-0.007005659699197815,0.0005527489331414804
1765409153.578841,-9.960218104825762,-0.010048388020465595,0.3192037687937525,-0.006170977204464098,-0.007022883512221422,0.00044696827490333
1765409153.582048,-9.956329130971135,-0.01155189986990462,0.3184319636712861,-0.006082088883913266,-0.007005745741960442,0.0003504055542664299
1765409153.584181,-9.952073895246054,-0.013700989529575231,0.31761155610920666,-0.005970207110867473,-0.0069555608912401055,0.00026355649204124496
1765409153.585841,-9.947464869326117,-0.01642913021557466,0.3167794142609108,-0.005834347816169294,-0.006873873913768344,0.00018665174923872602
1765409153.586845,-9.942534839645878,-0.01963736982610191,0.3159773321027323,-0.005675116219746789,-0.00676232135100935,0.00011975622784684307
1765409153.590803,-9.93733850224594,-0.02320018074059391,0.3152500895824499,-0.00549499513416963,-0.006622526823614618,6.285608882335951e-05
1765409153.593826,-9.931953427798865,-0.026973320910386508,0.314643721622883,-0.00529846480027724,-0.006456043364924748,1.5924395768340818e-05
1765409153.595863,-9.926480034397661,-0.030803347377804147,0.3142040045347313,-0.005091918519367732,-0.006264346616000098,-2.104031959087819e-05
1765409153.598913,-9.921040181983027,-0.03453811965441216,0.3139751270831716,-0.004883356484978904,-0.006048879686177969,-4.800585227580311e-05
1765409153.600946,-9.915774197086908,-0.03803734675048012,0.31399859532497076,-0.004681863760296132,-0.00581114631110506,-6.492879681504056e-05
1765409153.603837,-9.910836233221538,-0.041182128388952036,0.3143122815373903,-0.004496906385991223,-0.005552838128196476,-7.180364898827405e-05
1765409153.605839,-9.906387823759642,-0.043882543990940916,0.31494920012561434,-0.004337508633190027,-0.005275969253411851,-6.872947739607971e-05
1765409153.608837,-9.90258961362323,-0.046082535170499074,0.31593552271125747,-0.004211397465104771,-0.004982987092026795,-5.5980975526918884e-05
1765409153.610838,-9.899591757647313,-0.04776152053587702,0.3172877758369905,-0.004124210572350967,-0.004676835773701565,-3.406892451409392e-05
1765409153.613867,-9.897524047848147,-0.048932442598148586,0.3190097534872238,-0.004078859792528611,-0.004360961198024148,-3.776509262184313e-06
1765409153.615841,-9.896487014622913,-0.04963638590449545,0.3210899058652035,-0.004075124886505478,-0.004039257102166492,3.3838008489358485e-05
1765409153.618855,-9.896544968461473,-0.04993448026542056,0.32349976696236127,-0.004109527737022541,-0.0037159588771799117,7.74766899342201e-05
1765409153.620836,-9.89772153290912,-0.0498983110452772,0.3261936980919497,-0.004175507615903815,-0.0033954977919888225,0.00012567509942249376
1765409153.623838,-9.8999978956875,-0.04960031361073367,0.3291100698198763,-0.004263886543249313,-0.0030823322000754255,0.00017690887077924445
1765409153.625868,-9.903313706085871,-0.04910557719406542,0.3321738634381302,-0.004363582065817909,-0.0027807731045295203,0.0002297251211914513
1765409153.628883,-9.907570209196905,-0.048466168765155825,0.33530040887800994,-0.004462496568444879,-0.0024948206635218833,0.00028288531425721126
1765409153.630842,-9.912634983535966,-0.047718586325156125,0.3383997000635869,-0.0045484921048262236,-0.0022280279516246186,0.0003355012515936828
1765409153.633891,-9.91834769723715,-0.046884353900968054,0.341380648376772,-0.004610351318107787,-0.001983407677165591,0.00038714286770173846
1765409153.635867,-9.924526529273237,-0.045973185327860606,0.3441547663426229,-0.004638629919921915,-0.001763393614884493,0.0004378976030202155
1765409153.636858,-9.930975071784946,-0.044987696603636405,0.3466389499002041,-0.004626323718106278,-0.0015698603333290373,0.0004883676531805893
1765409153.640806,-9.937489548171666,-0.0439284586126736,0.3487571775025359,-0.004569299846747798,-0.0014041949473467415,0.0005396020511087787
1765409153.643791,-9.943866191059584,-0.04279830085854597,0.3504411770003665,-0.004466472130220861,-0.0012674062840823685,0.0005929712656125832
1765409153.645855,-9.949908722413127,-0.041605126571975064,0.3516304258907442,-0.00431972902246473,-0.0011602510461970453,0.0006499997668890088
1765409153.648864,-9.955435921192713,-0.04036294321487807,0.35227198732245685,-0.0041336453248559425,-0.0010833534245325612,0.0007121773499981823
1765409153.650868,-9.96028909207097,-0.03909125160613674,0.35232048322506254,-0.003915023256782588,-0.0010372959591662659,0.0007807738230305998
1765409153.65387,-9.964338990119286,-0.037813302812880346,0.3517382254167904,-0.0036723137271132186,-0.0010226667199342177,0.0008566819891923032
1765409153.655851,-9.967491692349276,-0.03655392070676614,0.3504955284061358,-0.0034149672159683037,-0.0010400577726596156,0.0009403082856430096
1765409153.656838,-9.969693074392445,-0.03533750342014633,0.3485714669493226,-0.003152760309312796,-0.0010900164618370335,0.0010315202669308947
1765409153.659883,-9.970931705322059,-0.03418648783102435,0.34595544070711015,-0.00289514273541251,-0.0011729532489401315,0.0011296496942525757
1765409153.661857,-9.97123996364877,-0.03312016220394123,0.34264969193362227,-0.00265065087065758,-0.001289012713515525,0.0012335429942016047
1765409153.664942,-9.97069312326618,-0.03215345989787063,0.3386725736348695,-0.002426433083330983,-0.0014379208079512355,0.0013416484973081057
1765409153.668813,-9.969406206685822,-0.03129540677299688,0.334062078066915,-0.002227925638087197,-0.001618827792202565,0.0014521310577927697
1765409153.670854,-9.967528540956742,-0.030547228854507145,0.3288789388429939,-0.0020587041137916837,-0.0018301679047397403,0.0015630064381615728
1765409153.673878,-9.96523614582164,-0.029900580341258344,0.3232085863552316,-0.001920515938176641,-0.0020695544506010057,0.0016722871274016927
1765409153.675847,-9.962722355723818,-0.029336638843401583,0.3171614748177061,-0.0018134772664099657,-0.0023337253532087388,0.0017781272861793612
1765409153.678972,-9.960187340334228,-0.028826739380875755,0.31087166104753033,-0.0017363958077146503,-0.002618549399832534,0.0018789498252416439
1765409153.680974,-9.957827267646875,-0.028334843739683088,0.3044936833321348,-0.0016871645457624026,-0.002919097729209533,0.0019735374024250716
1765409153.683891,-9.95582377361984,-0.027821700328808485,0.2981977567284368,-0.0016631623122423766,-0.0032297822249150597,0.0020610734204883118
1765409153.685823,-9.954334377494916,-0.02725020187246537,0.2921633749002356,-0.0016615977596918842,-0.003544563701736441,0.002141127021869318
1765409153.68887,-9.953484515231509,-0.026591194365255446,0.2865716443728567,-0.0016797461334725954,-0.003857232025661886,0.0022135846585282387
1765409153.690807,-9.953361669276958,-0.025828804697014436,0.28159675159477665,-0.0017150542951472165,-0.00416175118428556,0.0022785392501738877
1765409153.6939,-9.954011580901524,-0.024964296839054767,0.27739676851189526,-0.0017651232675527783,-0.004452647313415727,0.002336156325523219
1765409153.695865,-9.955436151529154,-0.024017625988734147,0.274103933332127,-0.001827607908063229,-0.004725404634909541,0.002386542893960685
1765409153.698876,-9.95759275155755,-0.023026244993684473,0.2718149187015366,-0.0019000896489977813,-0.004976826708095012,0.002429645401493039
1765409153.700942,-9.96039507459632,-0.022041248579228585,0.2705821414975842,-0.0019799764219934806,-0.005205317423523486,0.0024651964195131536
1765409153.703848,-9.963715929621525,-0.021121509190905174,0.27040738130925324,-0.0020644667761648334,-0.005411039428467761,0.0024927184409324656
1765409153.705847,-9.967392327211652,-0.02032693550881874,0.2712388105666862,-0.002150590680470571,-0.005595921272402425,0.002511581195773088
1765409153.708846,-9.971233125383327,-0.019712201878938195,0.27297230698923636,-0.0022353170104231876,-0.005763507082450122,0.002521097867613144
1765409153.71089,-9.975029412887011,-0.019322103330780497,0.27545763709167037,-0.0023157034500267118,-0.005918665415234227,0.002520636727175796
1765409153.713882,-9.978567455396735,-0.01918909568274369,0.2785094267816504,-0.002389059168912348,-0.006067190295820397,0.0025097214072215697
1765409153.714863,-9.981643331076386,-0.019332818195816674,0.28192175931630103,-0.0024530918246433863,-0.006215338259517183,0.0024880983654361737
1765409153.718904,-9.984077718325095,-0.01976081534246559,0.2854843552549684,-0.002506016187681141,-0.006369352505361997,0.002455762642373196
1765409153.720901,-9.985729059412044,-0.020469520705930087,0.2889981162724118,-0.0025466109154311327,-0.006535024738553683,0.002412947085184268
1765409153.723858,-9.98650349080238,-0.021444826355530813,0.2922882398282178,-0.002574221199069628,-0.006717331984111717,0.002360089358402428
1765409153.725804,-9.986360341164014,-0.022661999941666896,0.29521374941316886,-0.0025887157943259866,-0.006920164946901554,0.0022977923204582067
