time,acc_x_g,acc_y_g,acc_z_g,gyro_x_rad_s,gyro_y_rad_s,gyro_z_rad_s
1765409476.530649,-9.359158,-2.789933,1.040172,-0.007025,-0.007483,-0.002138
1765409476.530899,-9.549257,-2.743902,1.306791,-0.008399,-0.005956,-0.002291
1765409476.531149,-9.557627,-2.673959,1.180057,-0.008399,-0.005956,-0.002291
1765409476.531399,-9.429697,-2.722381,1.040172,-0.007789,-0.003818,0.000458
1765409476.531648,-9.386656,-2.798302,1.058106,-0.008247,-0.003665,-0.001374
1765409476.531898,-9.546865,-2.816834,1.270923,-0.007025,-0.010537,-0.002291
1765409476.532148,-9.546865,-2.816834,1.270923,-0.007025,-0.005956,-0.002291
1765409476.532398,-8.950262,-2.807867,0.894309,-0.009316,-0.003818,-0.002291
1765409476.532639,-8.715924,-2.778575,0.942133,-0.008552,-0.005651,-0.001222
1765409476.532839,-8.724294,-2.978240,1.066475,-0.006720,-0.012675,0.003360
1765409476.533039,-8.611907,-3.168340,1.028814,-0.005040,-0.010843,0.002443
1765409476.533239,-8.531802,-3.134265,0.911645,-0.000764,-0.001985,0.005651
1765409476.533439,-8.507890,-3.382951,0.949904,0.004123,-0.006414,0.008705
1765409476.533612,-8.829507,-3.609516,1.231468,0.006567,-0.006720,0.009927
1765409476.533862,-9.000477,-3.584409,1.065280,0.012523,-0.002138,0.004429
1765409476.534112,-9.194164,-3.648971,1.251793,0.014508,-0.002138,0.002291
1765409476.534362,-9.436274,-3.933524,1.708512,0.016188,0.000153,-0.003054
1765409476.534611,-9.665829,-4.016020,1.788618,0.016799,-0.004123,-0.010079
1765409476.534811,-9.620994,-3.806791,1.378527,0.015577,-0.014050,-0.021380
1765409476.535011,-9.525346,-3.989717,1.407221,0.017868,-0.014508,-0.023213
1765409476.535211,-9.692730,-3.756575,1.693567,0.025198,-0.011912,-0.030391
1765409476.535411,-10.191295,-3.928741,2.111430,0.029016,-0.011148,-0.032529
1765409476.535645,-9.206120,-3.790052,1.517217,0.027184,-0.006720,-0.035277
1765409476.535895,-9.930056,-4.367527,1.626016,0.032376,-0.017562,-0.032834
1765409476.536145,-9.283236,-4.637733,0.937350,0.042455,-0.014661,-0.044135
1765409476.536395,-9.953370,-4.249163,1.426351,0.058796,-0.014661,-0.049175
1765409476.536624,-9.357962,-4.435676,1.083812,0.066126,0.006109,-0.049480
1765409476.536874,-9.255737,-4.464371,1.317551,0.081703,-0.001985,-0.049786
1765409476.537124,-8.830104,-4.803921,0.734696,0.087659,0.003360,-0.051771
1765409476.537374,-9.060855,-4.630559,0.803443,0.106901,-0.006720,-0.061850
1765409476.537671,-8.826518,-4.741750,0.528455,0.114079,0.009927,-0.056047
1765409476.537921,-9.082376,-4.637733,0.928981,0.127365,0.015577,-0.063377
1765409476.538171,-8.785269,-4.514585,0.834529,0.133016,0.032834,-0.061087
1765409476.538421,-8.975369,-4.424916,1.011478,0.143401,0.028405,-0.056352
1765409476.538677,-8.859396,-4.472740,0.674318,0.152258,0.037110,-0.047647
1765409476.538927,-9.048302,-4.933643,0.938546,0.170737,0.037110,-0.042761
1765409476.539177,-8.701577,-5.113582,0.463893,0.178831,0.052534,-0.045051
1765409476.539427,-9.051888,-5.047225,1.084409,0.189368,0.065668,-0.047342
1765409476.539681,-9.161882,-4.765662,1.278096,0.202044,0.065668,-0.049327
1765409476.539931,-9.161882,-4.765662,1.278096,0.202044,0.063377,-0.049327
1765409476.540181,-8.833692,-4.950980,0.691655,0.226936,0.075136,-0.032070
1765409476.540431,-8.993901,-5.179339,1.291248,0.242972,0.075747,-0.029780
1765409476.540638,-8.793638,-5.105810,0.980990,0.248011,0.069486,-0.031612
1765409476.540888,-8.987326,-5.078909,0.826160,0.261603,0.069486,-0.028558
1765409476.541138,-8.598756,-5.196078,0.142874,0.281914,0.086437,-0.024282
1765409476.541388,-8.732662,-5.194882,0.602582,0.295811,0.095142,-0.023671
1765409476.541595,-8.956241,-4.821855,1.418579,0.310167,0.113774,-0.022297
1765409476.541845,-8.903633,-4.922286,1.139407,0.317955,0.116370,-0.010843
1765409476.542095,-8.714728,-4.794954,0.585844,0.326813,0.114843,-0.002749
1765409476.542345,-8.583810,-5.236728,0.276184,0.339947,0.118966,0.002291
1765409476.542600,-8.797225,-5.224772,0.924199,0.360258,0.144317,0.004123
1765409476.542850,-8.980749,-4.960545,1.287661,0.373239,0.144317,0.010843
1765409476.543100,-8.980749,-4.960545,1.287661,0.373239,0.136834,0.010843
1765409476.543350,-8.607124,-5.105212,0.492587,0.395993,0.145691,0.025351
1765409476.543652,-8.426589,-5.111190,0.181731,0.425773,0.148288,0.031765
1765409476.543902,-8.688426,-5.012554,0.678503,0.437990,0.167530,0.027336
1765409476.544152,-8.871352,-4.939024,1.086800,0.452804,0.167530,0.036957
1765409476.544402,-8.871352,-4.939024,1.086800,0.452804,0.171042,0.036957
1765409476.544659,-8.687230,-5.115973,0.633668,0.478613,0.167377,0.038332
1765409476.544909,-9.160089,-4.805714,1.264347,0.494954,0.184329,0.045662
1765409476.545159,-8.947871,-4.693926,1.046150,0.518930,0.188452,0.050396
1765409476.545409,-9.146339,-4.478120,1.681014,0.523970,0.188452,0.055589
1765409476.545658,-8.891079,-4.689143,0.970827,0.532980,0.204487,0.066890
1765409476.545908,-9.162481,-4.273673,1.102941,0.558025,0.200669,0.071013
1765409476.546158,-9.256933,-4.330463,1.456241,0.569632,0.200669,0.085216
1765409476.546408,-8.891678,-4.354375,0.869201,0.584903,0.212887,0.090713
1765409476.546629,-8.456479,-4.624581,0.955882,0.584445,0.212887,0.097128
1765409476.546879,-8.762552,-4.194763,0.992946,0.604146,0.204029,0.096669
1765409476.547129,-8.967000,-4.451219,1.288857,0.623846,0.196240,0.108734
1765409476.547379,-9.193566,-4.314920,1.458632,0.629497,0.210901,0.110414
1765409476.547656,-8.786465,-4.494260,0.731707,0.639881,0.227547,0.116981
1765409476.547906,-9.268889,-3.955045,1.540531,0.648892,0.209679,0.110261
1765409476.548156,-10.221185,-3.680057,2.570540,0.663400,0.226936,0.128740
1765409476.548406,-9.233619,-4.111669,1.177068,0.676686,0.234114,0.140499
1765409476.548619,-8.473217,-4.294595,0.452535,0.683100,0.246331,0.146302
1765409476.548869,-8.473217,-4.294595,0.452535,0.683100,0.231365,0.146302
1765409476.549119,-8.600549,-3.906025,0.807030,0.712880,0.213345,0.156840
1765409476.549369,-9.018411,-4.127809,0.976805,0.722959,0.227547,0.171195
1765409476.550693,-9.286823,-4.701099,1.003108,0.736245,0.234572,0.164017
1765409476.550943,-8.620276,-3.871951,-0.173362,0.749226,0.240528,0.158520
1765409476.551193,-8.882710,-3.871951,0.277977,0.749226,0.238085,0.158520
1765409476.551443,-8.998086,-4.238402,0.156624,0.782977,0.234267,0.188299
1765409476.550739,-9.439262,-4.612027,0.822573,0.795041,0.233656,0.187230
1765409476.550989,-9.488880,-3.709947,0.559541,0.825126,0.250302,0.186008
1765409476.551239,-9.145145,-3.815160,-0.056193,0.829250,0.242361,0.201738
1765409476.551489,-9.275465,-3.699784,0.031086,0.847117,0.221286,0.216399
1765409476.551631,-9.787182,-4.525346,0.668938,0.864374,0.239917,0.222660
1765409476.551881,-9.233021,-4.250358,-0.156624,0.885755,0.222813,0.222966
1765409476.552131,-9.121233,-4.281444,-0.497370,0.902095,0.219606,0.221744
1765409476.552381,-8.727880,-4.518172,-1.034194,0.919963,0.219606,0.227089
1765409476.553021,-9.479315,-4.612027,-0.115973,0.938900,0.217010,0.224035
1765409476.553271,-10.034670,-4.213295,0.572692,0.954324,0.228005,0.214566
1765409476.553521,-9.933045,-4.526542,0.262434,0.967611,0.227242,0.221591
1765409476.553771,-10.245097,-4.093735,0.208034,0.985020,0.209221,0.221591
1765409476.553689,-9.943806,-4.413558,0.261239,0.992656,0.218537,0.214414
1765409476.553939,-10.217599,-3.253228,0.648015,1.020909,0.212276,0.209832
1765409476.554189,-10.652797,-3.122309,1.445480,1.026559,0.225867,0.224493
1765409476.554439,-9.741151,-3.567671,0.583453,1.027323,0.215483,0.235641
1765409476.554662,-9.015423,-3.486370,-0.592420,1.036333,0.187230,0.231212
1765409476.554912,-9.096126,-2.572931,0.063367,1.039540,0.184787,0.227853
1765409476.555162,-9.380678,-2.801291,0.581659,1.045190,0.195630,0.245110
1765409476.555412,-9.553442,-3.260401,0.686274,1.038929,0.191201,0.250149
1765409476.555676,-10.056790,-3.346484,1.229675,1.050994,0.190132,0.244346
1765409476.556009,-9.919893,-2.181970,0.328790,1.060920,0.189063,0.230602
1765409476.556343,-9.867287,-2.401961,0.756815,1.062753,0.183412,0.254273
1765409476.556650,-9.392634,-2.690100,0.746054,1.076039,0.197462,0.260534
1765409476.556900,-9.685556,-2.852702,0.888331,1.079552,0.184023,0.257938
1765409476.557150,-8.934719,-2.278814,0.474653,1.089325,0.181885,0.260839
1765409476.557400,-9.354375,-2.633907,0.002989,1.093449,0.173028,0.278860
1765409476.557627,-9.098516,-3.824725,-0.494978,1.110248,0.158367,0.288328
1765409476.557877,-9.783595,-3.399091,0.402319,1.119563,0.167530,0.257632
1765409476.558127,-10.225369,-2.642874,0.394548,1.144609,0.172111,0.264199
1765409476.558377,-10.098038,-2.807269,0.876375,1.146136,0.172111,0.270613
1765409476.559324,-10.008368,-2.966284,0.192492,1.146136,0.174402,0.270613
1765409476.559574,-9.336440,-3.623266,0.063367,1.183246,0.178067,0.281609
1765409476.559824,-9.655666,-2.810856,0.339550,1.187522,0.181885,0.269239
1765409476.560074,-9.736967,-3.053563,0.649211,1.195921,0.171959,0.281456
1765409476.559713,-9.801530,-3.498326,0.576279,1.194242,0.164781,0.270461
1765409476.559963,-9.258129,-3.146819,-0.084888,1.204015,0.165392,0.261756
1765409476.560213,-8.780487,-2.445002,-0.346126,1.207070,0.167683,0.253051
1765409476.560463,-9.071615,-2.806073,0.548780,1.207681,0.158978,0.256105
1765409476.560705,-9.281443,-2.721186,0.717958,1.207681,0.150578,0.256105
1765409476.560955,-9.460783,-2.570540,0.620516,1.230588,0.156992,0.245568
1765409476.561205,-8.779888,-1.792204,-0.211621,1.242653,0.165392,0.246331
1765409476.561455,-8.553323,-1.557867,0.078910,1.268004,0.152411,0.259465
1765409476.561619,-8.809181,-1.776662,0.575084,1.275945,0.152411,0.278555
1765409476.561869,-8.809181,-1.776662,0.575084,1.275945,0.148898,0.278555
1765409476.562119,-9.188187,-1.531564,0.659971,1.295034,0.146608,0.261603
1765409476.562369,-9.118841,-1.948828,0.487207,1.296561,0.152869,0.293215
1765409476.562646,-8.969392,-2.670970,0.115973,1.309542,0.140957,0.295659
1765409476.562896,-10.006575,-2.605213,1.713295,1.308473,0.140957,0.289245
1765409476.563146,-10.338950,-2.747489,1.647537,1.317484,0.164781,0.296728
1765409476.563396,-10.684480,-2.984218,1.371353,1.330006,0.149509,0.291688
1765409476.563634,-9.954566,-3.268770,0.306074,1.321607,0.169668,0.288634
1765409476.563884,-9.292204,-2.700860,0.209230,1.315346,0.177762,0.263741
1765409476.564134,-8.937110,-2.164036,0.357484,1.311222,0.177762,0.269086
1765409476.564384,-8.937110,-2.164036,0.357484,1.311222,0.157451,0.269086
1765409476.564627,-9.303562,-2.101865,0.766380,1.311528,0.172569,0.274737
1765409476.564877,-9.707077,-2.498804,1.467001,1.314735,0.172569,0.274278
1765409476.565127,-9.762074,-1.530368,1.125060,1.348638,0.178373,0.273973
1765409476.565377,-9.197153,-2.227403,0.643831,1.343904,0.186008,0.277027
1765409476.565622,-8.867765,-2.765423,0.270206,1.347569,0.171653,0.273057
1765409476.565872,-9.379482,-2.091105,0.692252,1.380708,0.168141,0.260534
1765409476.566122,-9.179817,-2.144907,0.455524,1.396591,0.175929,0.262367
1765409476.566372,-9.308942,-2.019966,0.316834,1.404837,0.182649,0.262367
1765409476.566620,-9.045910,-2.245337,0.739479,1.407281,0.198684,0.258243
1765409476.566870,-8.708751,-2.140124,0.889526,1.403768,0.183260,0.252287
1765409476.567120,-9.114058,-1.093974,-0.284553,1.420414,0.166308,0.255953
1765409476.567370,-9.016020,-1.867527,0.844094,1.413237,0.169668,0.270766
1765409476.567631,-9.016020,-1.867527,0.844094,1.413237,0.183412,0.270766
1765409476.567964,-9.640123,-2.209469,1.040172,1.429272,0.183870,0.279318
1765409476.568298,-9.807508,-1.959589,0.839311,1.455692,0.171806,0.271835
1765409476.568629,-9.267097,-1.910569,0.536824,1.457372,0.173180,0.279929
1765409476.568879,-8.194642,-2.533477,-0.148254,1.465160,0.171959,0.270461
1765409476.569129,-8.833692,-2.465327,0.958871,1.463939,0.174860,0.253814
1765409476.569379,-8.662123,-1.802965,0.932568,1.493718,0.180205,0.259770
1765409476.569619,-9.776422,-1.915351,1.461023,1.496925,0.165239,0.262061
1765409476.569869,-10.567909,-1.875896,2.119799,1.491275,0.167988,0.252745
1765409476.570119,-10.575082,-0.865614,2.031922,1.477988,0.184481,0.238848
1765409476.570369,-9.106885,-0.687470,1.099952,1.445918,0.185092,0.262061
1765409476.570623,-9.769846,-1.303204,1.581779,1.437366,0.180053,0.271224
1765409476.570873,-9.972500,-1.850789,1.361789,1.427592,0.173638,0.276264
1765409476.571123,-10.454327,-1.236848,1.820899,1.448056,0.170890,0.269697
1765409476.571373,-9.984456,-1.766499,0.136298,1.452485,0.195171,0.278402
1765409476.571631,-9.488880,-2.281205,0.688666,1.459052,0.176998,0.284969
1765409476.571881,-9.945002,-2.410928,0.948111,1.490664,0.188299,0.273057
1765409476.572131,-8.994499,-2.838354,0.138690,1.511891,0.193950,0.273057
1765409476.572381,-8.948468,-2.506576,-0.569106,1.532050,0.202960,0.271988
1765409476.572610,-9.806910,-2.694882,0.518890,1.532966,0.189979,0.265726
1765409476.572860,-11.177665,-2.259684,2.596843,1.550529,0.194102,0.259160
1765409476.573110,-10.233141,-2.296748,0.872190,1.554957,0.206625,0.255953
1765409476.573360,-7.546628,-2.224414,-1.446078,1.554194,0.199600,0.264657
1765409476.573632,-7.376254,-2.140124,-0.851865,1.564120,0.176693,0.249233
1765409476.573965,-9.946198,-2.280009,2.086322,1.587181,0.173638,0.251676
1765409476.574299,-10.807626,-1.895026,2.026542,1.591457,0.180969,0.241750
1765409476.574706,-9.623384,-1.191415,1.402439,1.605354,0.225104,0.233351
1765409476.574956,-9.548061,-1.819703,0.827355,1.602758,0.225104,0.233503
1765409476.575206,-8.682447,-0.679101,0.594213,1.624902,0.180053,0.237016
1765409476.575456,-10.753227,-0.498565,2.351745,1.602300,0.149204,0.237321
1765409476.575688,-10.791486,-1.230273,1.848995,1.574505,0.203113,0.243735
1765409476.575938,-9.042323,-1.285868,0.791487,1.563051,0.209832,0.250607
1765409476.576188,-8.750597,-0.955284,0.411286,1.546100,0.195630,0.241903
1765409476.576438,-9.000477,-1.252989,0.399928,1.545489,0.185398,0.256869
1765409476.576673,-9.661644,-0.973218,1.327714,1.558012,0.181580,0.270002
1765409476.576923,-10.147058,-2.068388,1.689383,1.546405,0.202044,0.265115
1765409476.577173,-10.074127,-1.974533,1.874701,1.579239,0.196088,0.264810
1765409476.577423,-10.637253,-1.871114,1.288259,1.596802,0.190437,0.258549
1765409476.577728,-10.637253,-1.871114,1.288259,1.596802,0.197309,0.258549
1765409476.578061,-8.974771,-2.483261,0.673123,1.618029,0.212581,0.266185
1765409476.578395,-8.948468,-3.006934,-0.240316,1.633454,0.209374,0.265421
1765409476.578710,-8.705164,-2.413917,-0.199665,1.636202,0.172875,0.251524
1765409476.578960,-9.645503,-2.409134,0.908656,1.665677,0.183107,0.246331
1765409476.579210,-10.236728,-2.140722,0.798063,1.684614,0.185092,0.245873
1765409476.579460,-10.264226,-2.660210,1.824486,1.674687,0.213192,0.227089
1765409476.579673,-10.252270,-1.892635,1.847202,1.700496,0.213192,0.213345
1765409476.579923,-9.899570,-1.398254,0.747250,1.727374,0.208000,0.218079
1765409476.580173,-8.990912,-0.975012,0.725729,1.722793,0.200975,0.215788
1765409476.580423,-9.514585,-0.921808,0.572095,1.680338,0.221286,0.218232
1765409476.580675,-9.016020,-1.307986,0.887135,1.672091,0.203418,0.220217
1765409476.580925,-9.227641,-0.338953,0.624103,1.663233,0.203418,0.215635
1765409476.581175,-8.727283,-0.100430,0.868603,1.644755,0.199142,0.231212
1765409476.581425,-8.763150,-0.190698,0.029292,1.643075,0.189674,0.232129
1765409476.581656,-7.819224,-0.829746,-0.610354,1.644602,0.176540,0.249386
1765409476.581906,-8.994499,-1.417982,0.850072,1.665066,0.190590,0.249080
1765409476.582156,-10.707793,-1.317551,1.775466,1.680948,0.209527,0.252287
1765409476.582406,-10.707793,-1.317551,1.775466,1.680948,0.211207,0.252287
1765409476.582687,-11.294235,-1.502271,1.184840,1.676062,0.221897,0.231518
1765409476.583020,-11.232663,-1.355811,2.179579,1.681865,0.221897,0.243430
1765409476.583354,-12.010400,-2.482066,3.038020,1.685530,0.235030,0.243583
1765409476.583696,-11.334289,-1.869321,2.332616,1.720807,0.242361,0.233503
1765409476.583946,-11.040768,-2.217838,2.674557,1.720807,0.247095,0.233503
1765409476.584196,-10.142276,-1.752750,0.951698,1.736995,0.222355,0.235489
1765409476.584446,-10.807029,-1.726446,2.120995,1.752725,0.222355,0.230754
1765409476.584702,-10.229554,-1.284074,2.170014,1.756085,0.244193,0.229380
1765409476.584952,-9.466163,-1.135820,0.612147,1.734094,0.228769,0.225409
1765409476.585202,-7.907101,-1.851387,-0.426829,1.706910,0.219301,0.219148
1765409476.585452,-7.337397,-0.985174,-0.624103,1.710728,0.220522,0.217315
1765409476.585668,-7.397178,-1.724055,-1.309780,1.705230,0.211207,0.217621
1765409476.585918,-7.871830,-1.132233,0.596604,1.698663,0.212581,0.208305
1765409476.586168,-8.691415,-0.790292,0.276184,1.715157,0.210138,0.219911
1765409476.586418,-8.437349,-0.995935,0.388570,1.732567,0.210138,0.218079
1765409476.586620,-8.675274,-0.915830,0.011956,1.735315,0.223271,0.211207
1765409476.586953,-8.314202,-0.449546,-0.462697,1.751198,0.223271,0.229991
1765409476.587287,-7.531682,-0.429220,0.045433,1.751198,0.220370,0.229991
1765409476.587610,-8.689621,-0.927786,0.175753,1.746464,0.208458,0.246026
1765409476.587860,-8.868363,-1.450263,0.587637,1.751503,0.199600,0.230754
1765409476.588110,-8.868363,-1.450263,0.587637,1.751503,0.208000,0.230754
1765409476.588360,-10.662361,-2.183166,0.707197,1.750740,0.208458,0.240223
1765409476.588636,-10.139884,-2.122190,1.700143,1.783879,0.234572,0.223882
1765409476.588886,-9.213892,-1.581181,0.086083,1.803274,0.211818,0.216857
1765409476.589136,-8.798421,-0.642037,0.041846,1.775174,0.211818,0.206014
1765409476.589386,-8.798421,-0.642037,0.041846,1.775174,0.215177,0.206014
1765409476.589622,-9.622189,0.123147,0.642635,1.746616,0.221897,0.208458
1765409476.589872,-9.564202,-0.624103,0.718556,1.716531,0.231823,0.210749
1765409476.590122,-10.098038,-0.398733,1.282879,1.716073,0.214414,0.215635
1765409476.590372,-9.392634,-1.208752,0.392157,1.704925,0.220980,0.227242
1765409476.590673,-9.247966,-2.001434,0.550574,1.742340,0.201280,0.216704
1765409476.590923,-9.999999,-0.761597,0.714969,1.750282,0.232892,0.198684
1765409476.591173,-9.664633,-0.961262,1.135820,1.754710,0.232892,0.212276
1765409476.591423,-10.005977,-1.187231,1.264347,1.749976,0.222813,0.212581
1765409476.591654,-10.215804,-0.651602,0.600789,1.750587,0.202807,0.211818
1765409476.591987,-9.530128,-1.635581,0.872788,1.767691,0.218232,0.212581
1765409476.592321,-9.642514,-0.730512,0.358082,1.793806,0.222660,0.212734
1765409476.592665,-8.935914,-1.463415,0.419058,1.771662,0.234878,0.221897
1765409476.592915,-10.308464,-1.425753,1.871114,1.787544,0.229074,0.204334
1765409476.593165,-10.742467,-0.944524,1.647537,1.798998,0.242972,0.225409
1765409476.593415,-11.193209,-0.948111,0.964849,1.787239,0.206625,0.221439
1765409476.593662,-11.037779,-1.702534,2.094691,1.747685,0.239459,0.206014
1765409476.593912,-9.591104,-1.034194,0.753228,1.753947,0.259160,0.204487
1765409476.594162,-8.635818,-1.055715,-0.222382,1.753947,0.226936,0.204487
1765409476.594412,-9.181610,-0.260641,0.058584,1.713782,0.212123,0.191201
1765409476.594726,-8.952653,-0.467480,0.001196,1.725389,0.212276,0.198989
1765409476.594976,-10.002987,-1.123864,1.077236,1.752114,0.237779,0.197004
1765409476.595226,-9.587517,-0.319225,0.640842,1.748144,0.237779,0.179747
1765409476.595476,-9.181610,0.306671,0.408297,1.747991,0.240834,0.186772
1765409476.595652,-9.134384,-0.435198,0.054400,1.738217,0.229685,0.198837
1765409476.595902,-9.420133,0.012554,0.135103,1.752420,0.219911,0.206778
1765409476.596152,-11.131037,-1.013869,2.337398,1.738828,0.240681,0.200211
1765409476.596402,-10.973217,-0.116571,1.553084,1.748144,0.244652,0.208458
1765409476.596648,-10.588234,-1.385700,0.725729,1.729054,0.236099,0.204182
1765409476.596898,-10.642634,-1.428742,0.868006,1.752420,0.243888,0.186925
1765409476.597148,-10.309659,-0.624103,0.780727,1.780978,0.257174,0.199753
1765409476.597398,-10.723337,-1.186035,1.634385,1.759445,0.242819,0.209679
1765409476.597666,-10.955282,-1.856767,1.282879,1.720196,0.248011,0.196240
1765409476.597999,-11.383307,-0.908656,1.950024,1.734094,0.235489,0.186008
1765409476.598333,-11.139406,-1.219512,1.415590,1.716379,0.244346,0.190437
1765409476.598665,-11.371353,-0.792085,1.673840,1.726916,0.223119,0.187536
1765409476.598915,-10.343135,-1.178862,1.545911,1.711950,0.265879,0.182191
1765409476.599165,-10.362266,-1.252989,1.802367,1.732414,0.237474,0.174097
1765409476.599415,-11.005499,-0.630679,1.401243,1.742340,0.250455,0.166614
1765409476.599646,-10.726923,-0.465088,1.462817,1.735315,0.238085,0.165086
1765409476.599896,-11.710304,-0.005978,2.657819,1.710423,0.267864,0.156840
1765409476.600146,-11.667263,0.561932,2.792922,1.712103,0.285121,0.167530
1765409476.600396,-11.110711,-0.763988,2.573529,1.676672,0.268475,0.176540
1765409476.600639,-10.553562,-0.033477,1.348637,1.676672,0.261603,0.176540
1765409476.600889,-10.332973,-0.839311,1.282281,1.694235,0.272751,0.188910
1765409476.601139,-10.322811,-0.859636,1.775466,1.707979,0.274889,0.187841
1765409476.601389,-10.132113,0.211621,0.873984,1.727069,0.275500,0.184023
1765409476.601637,-8.307029,-0.310856,-0.375418,1.704009,0.265268,0.199906
1765409476.601887,-8.257412,-0.328192,-1.205165,1.689653,0.248469,0.202655
1765409476.602137,-7.981228,-1.322334,-0.701817,1.664302,0.253509,0.194408
1765409476.602387,-8.555116,-0.050215,0.318030,1.656972,0.253509,0.192575
1765409476.602671,-9.473935,-0.979196,0.216404,1.645213,0.267864,0.200058
1765409476.602921,-9.395025,-1.389885,0.167384,1.646587,0.247553,0.196088
1765409476.603171,-9.417742,-1.609278,0.313247,1.646129,0.250607,0.186925
1765409476.603421,-11.125057,-1.311573,1.700741,1.677741,0.267864,0.181274
1765409476.603724,-11.429937,-1.586561,1.954806,1.694235,0.267864,0.178373
1765409476.604057,-10.714968,-1.186633,2.022955,1.692097,0.285274,0.169668
1765409476.604391,-10.313844,-1.291846,0.904471,1.679421,0.265421,0.160047
1765409476.604708,-9.267097,-0.695839,-0.031086,1.685377,0.265421,0.155923
1765409476.604958,-9.011238,-0.159613,0.241511,1.685377,0.256563,0.155923
1765409476.605208,-9.116450,-0.398135,0.334170,1.679727,0.273973,0.161727
1765409476.605458,-8.891678,-0.066954,0.591224,1.665524,0.273973,0.158978
1765409476.607369,-9.147535,0.162602,0.549976,1.651169,0.247706,0.162948
1765409476.607619,-9.761477,-0.049020,1.482544,1.653154,0.247706,0.157145
1765409476.607869,-9.761477,-0.049020,1.482544,1.653154,0.271530,0.157145
1765409476.608119,-10.844690,0.355093,2.026542,1.656056,0.294590,0.188299
1765409476.607468,-9.842180,0.386777,1.214730,1.610241,0.280234,0.188910
1765409476.607718,-9.396221,-0.149450,0.650406,1.592067,0.270308,0.205556
1765409476.607968,-9.611428,-1.056910,0.074127,1.575727,0.246790,0.194255
1765409476.608218,-9.611428,-1.056910,0.074127,1.575727,0.270308,0.194255
1765409476.607665,-9.751313,-1.021042,1.041965,1.558623,0.264963,0.176387
1765409476.607915,-10.514704,-0.771162,1.604495,1.552819,0.264963,0.179594
1765409476.608165,-10.118362,-1.134624,0.978599,1.573436,0.270308,0.175318
1765409476.608415,-8.835485,-1.333094,-0.703013,1.591915,0.270308,0.176235
1765409476.608687,-8.661525,-1.009684,-1.006695,1.599245,0.274584,0.165697
1765409476.608937,-9.977283,-0.657580,1.009086,1.589013,0.270461,0.164475
1765409476.609187,-10.850669,-0.454926,1.875896,1.567022,0.268475,0.154091
1765409476.609437,-10.961261,-0.085485,1.027020,1.577101,0.308487,0.159741
1765409476.609604,-9.395623,-0.477044,0.113582,1.552209,0.308487,0.159589
1765409476.609854,-8.651361,-1.016260,-0.634864,1.567633,0.294437,0.176082
1765409476.610104,-9.414752,-1.250598,0.297704,1.585348,0.278707,0.161421
1765409476.610354,-9.839190,-0.765184,1.596126,1.571298,0.266185,0.139583
1765409476.610669,-9.839190,-0.765184,1.596126,1.571298,0.280693,0.139583
1765409476.610919,-9.488880,0.200861,-0.493783,1.594969,0.304058,0.147982
1765409476.611169,-8.391916,-0.047226,-0.508728,1.578781,0.290314,0.168904
1765409476.611419,-10.400524,-0.041846,1.673840,1.552972,0.270155,0.154702
1765409476.612736,-11.634383,0.777140,2.924438,1.541824,0.276722,0.163712
1765409476.612986,-11.634383,0.777140,2.924438,1.541824,0.290008,0.163712
1765409476.613236,-8.149210,0.334768,-1.678622,1.496620,0.279776,0.167988
1765409476.613486,-8.218554,-0.448948,-0.418460,1.475240,0.275348,0.176998
1765409476.612829,-10.044236,-0.441774,1.618245,1.481654,0.264046,0.169362
1765409476.613079,-10.121352,-0.774151,0.714371,1.465771,0.292299,0.171348
1765409476.613329,-8.721902,-1.419177,-0.443568,1.472796,0.282983,0.163559
1765409476.613579,-9.408176,-0.942133,0.265423,1.488984,0.267559,0.144011
1765409476.613604,-10.713772,-0.384385,2.137733,1.503797,0.259312,0.136223
1765409476.613854,-10.088473,0.040053,1.420373,1.487762,0.291994,0.136681
1765409476.614104,-9.623384,0.322812,0.107604,1.467757,0.291994,0.146913
1765409476.614354,-9.766856,0.306074,1.062888,1.451568,0.264505,0.151495
1765409476.614583,-10.448348,0.166188,1.510641,1.442100,0.262825,0.155771
1765409476.614833,-10.114178,-0.368245,0.252272,1.439046,0.291077,0.165697
1765409476.615083,-9.283834,-0.821975,0.265423,1.424690,0.295048,0.156992
1765409476.615333,-9.927068,-0.535629,1.104735,1.433395,0.280387,0.145997
1765409476.615649,-10.455523,-0.307269,0.674318,1.441795,0.279013,0.147524
1765409476.615899,-9.557627,-0.848876,0.211621,1.434922,0.276264,0.154243
1765409476.616149,-9.557627,-0.848876,0.211621,1.434922,0.279776,0.154243
1765409476.616399,-10.090864,-0.798661,0.862625,1.456150,0.297644,0.138514
1765409476.616602,-9.561811,-0.298900,0.296509,1.474018,0.272293,0.144470
1765409476.616852,-9.010042,0.205045,-0.701817,1.461648,0.267406,0.143401
1765409476.617102,-9.092538,-0.262434,-0.349713,1.444238,0.272293,0.149204
1765409476.617352,-9.884026,-0.094452,0.807628,1.417971,0.290925,0.152564
1765409476.617576,-10.535626,-0.124342,0.863821,1.408044,0.285732,0.158672
1765409476.617826,-11.052724,-0.618125,1.377331,1.375210,0.263283,0.151800
1765409476.618076,-11.556669,-0.158417,1.893830,1.372003,0.275195,0.133932
1765409476.618326,-10.801051,-0.325203,1.013869,1.361619,0.288328,0.139888
1765409476.618611,-10.070539,0.357484,0.774749,1.358412,0.276111,0.122326
1765409476.618861,-10.052606,0.347920,0.934959,1.337948,0.282678,0.131031
1765409476.619111,-10.224771,-0.087279,0.738881,1.335809,0.259618,0.139125
1765409476.619361,-10.333572,0.463295,0.325203,1.344820,0.269850,0.122020
1765409476.619627,-9.618603,0.474055,-0.191296,1.340697,0.286038,0.134085
1765409476.619827,-9.903154,0.951698,0.646222,1.347874,0.286038,0.140041
1765409476.620027,-9.497249,0.353898,0.864419,1.333061,0.292299,0.162337
1765409476.620227,-8.991510,0.843496,0.151841,1.322065,0.274737,0.151189
1765409476.620427,-9.205523,0.352702,-0.257054,1.294576,0.273057,0.159130
1765409476.620608,-9.230630,-0.456719,-0.518890,1.283122,0.273362,0.173180
1765409476.620858,-10.514704,-0.576279,1.606289,1.274265,0.272599,0.148898
1765409476.621108,-10.549974,-0.276184,1.559062,1.264949,0.308640,0.142179
1765409476.621358,-9.887015,-0.118364,0.521282,1.260673,0.296422,0.144011
1765409476.621580,-9.373504,-1.015662,-0.023314,1.268309,0.274889,0.156229
1765409476.621830,-10.306671,-0.940937,0.779531,1.268156,0.261450,0.131947
1765409476.622080,-11.574604,0.185916,1.946437,1.297478,0.286190,0.127824
1765409476.622330,-10.416666,-0.881157,1.304400,1.291369,0.300851,0.138361
1765409476.622622,-9.397416,-0.219990,-0.782520,1.306335,0.290161,0.120493
1765409476.622872,-8.537780,-0.031086,-1.005500,1.284650,0.290161,0.096517
1765409476.623122,-8.537780,-0.031086,-1.005500,1.284650,0.285885,0.096517
1765409476.623372,-9.924676,1.146580,0.813008,1.284955,0.291077,0.115454
1765409476.623625,-9.181013,1.064682,-0.123147,1.259146,0.290925,0.100945
1765409476.623875,-9.191773,1.497489,-0.006576,1.239751,0.288176,0.096669
1765409476.624125,-8.620276,1.312769,-0.775347,1.227534,0.288176,0.110719
1765409476.624375,-8.620276,1.312769,-0.775347,1.227534,0.281303,0.110719
1765409476.624602,-9.906742,1.111908,0.502152,1.179581,0.305280,0.113316
1765409476.624852,-10.011955,1.024032,0.577475,1.174541,0.290314,0.104153
1765409476.625102,-8.944283,1.001315,-0.523673,1.136973,0.304974,0.104000
1765409476.625352,-9.162481,0.925992,-1.137016,1.132544,0.289856,0.100487
1765409476.625632,-9.023193,0.748446,-0.318627,1.114371,0.318413,0.098655
1765409476.625882,-9.708273,0.497967,0.547585,1.110095,0.300240,0.097891
1765409476.626132,-10.169774,0.989957,0.971425,1.103986,0.300240,0.080787
1765409476.626382,-9.646101,0.724534,0.046628,1.090700,0.313221,0.086590
1765409476.626628,-9.054279,0.377212,-0.600191,1.094976,0.313832,0.092393
1765409476.626828,-10.023911,0.491392,0.333572,1.089020,0.291994,0.079107
1765409476.627028,-10.844093,0.465088,1.720468,1.076803,0.298713,0.062614
1765409476.627228,-10.069344,0.835127,0.329986,1.078483,0.318261,0.068875
1765409476.627428,-9.112864,0.222382,-0.664754,1.070694,0.307113,0.069028
1765409476.627618,-9.639525,0.191894,0.475849,1.070541,0.286954,0.044746
1765409476.627868,-10.107603,0.986370,0.859636,1.067945,0.295201,0.027031
1765409476.628118,-9.886416,1.542922,0.329986,1.059240,0.311541,0.027642
1765409476.628368,-9.766856,1.400048,0.076518,1.041220,0.304822,0.027794
1765409476.628644,-9.355571,1.835246,-0.290531,1.041220,0.293521,0.027794
1765409476.628894,-9.428502,2.233381,-0.237924,0.992656,0.301615,0.014966
1765409476.629144,-9.395025,1.803563,-0.500359,0.986700,0.301615,0.027947
1765409476.629394,-9.485890,2.290172,-0.148852,0.967305,0.300698,0.014203
1765409476.629620,-10.387374,2.686513,0.893711,0.929126,0.301615,0.010232
1765409476.629870,-9.970109,2.342778,0.075921,0.908204,0.302378,0.029627
1765409476.630120,-9.843375,2.027738,-0.457915,0.897972,0.303600,0.029016
1765409476.630370,-9.744739,1.403634,-0.286944,0.871857,0.303600,0.020769
1765409476.630634,-10.552365,1.556671,0.707795,0.858266,0.301309,0.002596
1765409476.630884,-9.744141,1.549498,0.015543,0.851088,0.301309,-0.003665
1765409476.631134,-9.809300,1.713295,-0.518890,0.838107,0.271377,-0.007636
1765409476.631384,-9.961740,1.472979,-0.914036,0.821156,0.287412,-0.012370
1765409476.631624,-10.084289,1.382114,-0.243902,0.816116,0.290772,-0.021991
1765409476.631874,-10.368243,1.938068,0.494978,0.806953,0.302073,-0.031765
1765409476.632124,-10.437589,2.177188,0.313845,0.792445,0.288176,-0.018326
1765409476.632374,-10.642035,1.645146,0.194883,0.769079,0.268628,-0.019242
1765409476.632628,-10.435794,1.505261,-0.491989,0.761138,0.265726,-0.020159
1765409476.632878,-10.462696,1.398852,-0.051411,0.751975,0.269850,-0.030849
1765409476.633128,-10.533237,1.520803,0.108800,0.742201,0.274126,-0.035430
1765409476.633378,-10.888329,1.395863,0.578073,0.732122,0.266948,-0.037568
1765409476.633634,-10.295910,0.815399,-0.320421,0.705091,0.260229,-0.046578
1765409476.633884,-10.367048,1.349235,-0.456121,0.703717,0.253051,-0.065057
1765409476.634134,-10.228358,1.131635,-0.514108,0.698677,0.254425,-0.058796
1765409476.634384,-10.733500,1.171688,0.453730,0.690889,0.241750,-0.072388
1765409476.634656,-11.237444,1.812530,0.576877,0.673937,0.248011,-0.087354
1765409476.634856,-10.575082,1.878886,-0.340746,0.657902,0.240528,-0.078954
1765409476.635056,-9.888210,2.210665,-1.078431,0.650113,0.239154,-0.075442
1765409476.635256,-10.166784,1.853180,0.014347,0.629038,0.235641,-0.073304
1765409476.635456,-10.581060,1.933285,0.380799,0.614683,0.234267,-0.086132
1765409476.635699,-10.600189,2.018173,-0.470469,0.596815,0.207847,-0.085979
1765409476.636032,-10.216402,2.417503,-0.914634,0.571770,0.209221,-0.095295
1765409476.636366,-10.681490,2.197513,-0.284553,0.542907,0.200517,-0.098502
1765409476.636593,-10.878764,1.831659,0.334768,0.531605,0.212887,-0.096211
1765409476.636843,-10.368243,1.991870,-0.854256,0.521526,0.201280,-0.102625
1765409476.637093,-10.274388,2.301530,-0.724534,0.501673,0.191201,-0.108581
1765409476.637343,-10.515302,2.498206,-0.662362,0.482278,0.179900,-0.111483
1765409476.637593,-10.931372,2.693089,-0.410091,0.466548,0.172875,-0.100793
1765409476.637843,-11.022836,2.525107,-0.107604,0.449750,0.188910,-0.098349
1765409476.638093,-10.998922,2.130559,-0.004782,0.431118,0.186467,-0.089339
1765409476.638343,-10.899090,1.817312,-0.059780,0.409891,0.164781,-0.103236
1765409476.638633,-10.814202,1.930894,-0.845289,0.395077,0.154396,-0.114995
1765409476.638883,-10.833332,2.165830,-0.668340,0.390343,0.153480,-0.107665
1765409476.639133,-10.719750,1.889048,-0.283357,0.380569,0.152564,-0.110108
1765409476.639383,-11.019846,2.072573,0.191296,0.355371,0.157145,-0.116523
1765409476.639583,-10.597797,1.780248,-0.500359,0.347735,0.137445,-0.114537
1765409476.639783,-10.860830,2.270445,-0.402319,0.329715,0.117133,-0.121715
1765409476.639983,-11.098756,2.345767,-0.153635,0.319635,0.117286,-0.112705
1765409476.640183,-11.021042,2.141320,0.322214,0.295964,0.122326,-0.107818
1765409476.640383,-11.040170,2.071975,0.053204,0.286954,0.108123,-0.105832
1765409476.640633,-10.703012,2.032520,-0.642635,0.274126,0.078191,-0.104305
1765409476.640883,-11.017454,2.184361,-0.303682,0.265268,0.078191,-0.107665
1765409476.641133,-11.038975,2.148493,-0.041846,0.264199,0.089034,-0.093004
1765409476.641383,-11.078430,1.739598,0.322812,0.243888,0.083078,-0.090408
1765409476.641625,-10.796268,1.757532,-0.168580,0.226326,0.068264,-0.102320
1765409476.641875,-10.810616,1.838235,-0.357484,0.213039,0.054062,-0.103847
1765409476.642125,-10.566712,1.958393,-0.703013,0.208000,0.043830,-0.099876
1765409476.642375,-10.674318,2.137733,-0.373625,0.195477,0.045509,-0.097280
1765409476.642663,-10.757412,1.923720,0.141081,0.181122,0.039706,-0.087506
1765409476.642913,-10.457913,1.719871,-0.356289,0.171348,0.039706,-0.085368
1765409476.643163,-10.457913,1.719871,-0.356289,0.171348,0.013134,-0.085368
1765409476.643413,-10.696435,1.707317,-0.593018,0.148288,0.015119,-0.085063
1765409476.643613,-10.696435,1.707317,-0.593018,0.148288,0.031001,-0.085063
1765409476.643863,-10.703012,1.769488,0.042444,0.128129,0.012523,-0.076969
1765409476.644113,-10.811810,1.747967,0.185916,0.114690,0.012523,-0.066737
1765409476.644363,-10.772355,1.739598,-0.171569,0.102320,-0.001222,-0.063988
1765409476.644633,-10.858439,1.654711,-0.080105,0.100640,-0.005192,-0.055741
1765409476.644833,-10.217000,1.307986,-0.574486,0.087812,0.007941,-0.049327
1765409476.645033,-10.668339,1.440100,0.268412,0.078343,-0.007025,-0.051465
1765409476.645233,-10.697034,1.079627,0.145863,0.066279,-0.004429,-0.042455
1765409476.645433,-10.717957,1.105930,-0.128527,0.064294,-0.027794,-0.043830
1765409476.645671,-10.310257,1.111310,-0.454926,0.053603,-0.009316,-0.049327
1765409476.645921,-9.983858,1.195002,-0.614538,0.050396,-0.016341,-0.040164
1765409476.646171,-10.404112,1.058106,0.154232,0.038485,-0.020006,-0.041233
1765409476.646421,-10.524269,1.120277,0.184122,0.039095,-0.017410,-0.035430
1765409476.646614,-9.989238,0.845289,-0.632472,0.030849,-0.013744,-0.029322
1765409476.646864,-9.641318,1.015064,-1.022238,0.030849,-0.018021,-0.030849
1765409476.647114,-10.108798,0.982185,-0.153037,0.024129,-0.018021,-0.025504
1765409476.647364,-10.312649,0.907460,0.217001,0.025962,-0.003512,-0.015882
1765409476.647643,-9.983260,0.664754,-0.335964,0.014508,-0.000305,-0.016188
1765409476.647843,-9.765661,0.680296,-0.612147,0.007636,0.001374,-0.016493
1765409476.648043,-9.988641,0.711382,-0.227164,0.011454,0.006261,-0.010232
1765409476.648243,-10.199663,0.596604,0.150646,0.005956,0.006261,-0.004581
1765409476.648443,-10.199663,0.596604,0.150646,0.005956,0.012675,-0.004581
1765409476.648640,-10.321615,0.401722,-0.205643,-0.001985,0.017410,-0.004123
1765409476.648890,-10.758009,0.090866,0.248087,-0.002596,0.017410,-0.001374
1765409476.649140,-11.391677,0.031086,1.010880,-0.006261,0.013592,-0.005498
1765409476.649390,-11.319942,-0.094452,0.619321,-0.012675,0.014966,-0.010079
1765409476.649622,-11.044952,-0.016738,0.223577,-0.009163,0.004123,-0.010996
1765409476.649822,-10.816593,-0.135103,0.043042,-0.006567,-0.002749,-0.007789
1765409476.650022,-11.119678,0.046031,0.699426,-0.003665,-0.009316,-0.010843
1765409476.650222,-10.830941,0.029890,0.906863,-0.005040,-0.008399,-0.006261
1765409476.650422,-9.987445,0.052606,0.291129,-0.008858,-0.012828,-0.007330
1765409476.650647,-9.310138,0.121353,-0.469871,-0.008705,-0.021533,-0.006567
1765409476.650847,-9.604255,-0.107604,-0.062171,-0.007025,-0.036194,0.001680
1765409476.651047,-9.775226,-0.372429,0.211621,-0.004429,-0.022602,-0.002902
1765409476.651247,-9.715446,-0.142276,0.206839,-0.001680,-0.010996,-0.008094
1765409476.651447,-9.340028,0.014945,-0.118364,-0.008094,-0.006414,-0.003360
1765409476.651620,-9.459588,0.120756,0.190100,-0.007178,-0.019090,-0.002596
1765409476.651820,-9.734576,-0.055595,0.514706,-0.005498,-0.011912,0.002902
1765409476.652020,-9.672404,-0.191296,0.273792,-0.006720,-0.004887,0.001833
1765409476.652220,-9.686751,-0.125538,0.255261,-0.009621,-0.003054,-0.000916
1765409476.652420,-9.797942,-0.077116,0.402917,-0.009927,-0.004123,-0.000305
1765409476.652632,-9.995216,-0.033477,0.503348,-0.010537,-0.009927,-0.001680
1765409476.652832,-9.956957,0.059780,0.460306,-0.007025,-0.000764,0.001985
1765409476.653032,-9.917501,-0.058584,0.467480,-0.010996,0.003971,0.005651
1765409476.653232,-10.050214,-0.145863,0.594213,-0.013134,-0.002749,0.005651
1765409476.653432,-10.227163,-0.191894,0.681492,-0.009468,-0.006109,0.006261
1765409476.653618,-10.088473,-0.210426,0.456719,-0.008552,0.001680,0.003512
1765409476.653818,-9.955761,-0.204448,0.399928,-0.009163,-0.005651,-0.001222
1765409476.654018,-10.000596,-0.131516,0.503348,-0.008858,-0.005651,-0.003207
1765409476.654218,-10.102820,-0.038259,0.547585,-0.006414,-0.009163,0.002291
1765409476.654418,-9.931252,0.008369,0.282162,-0.004581,-0.002902,0.000000
1765409476.654644,-9.822452,-0.101626,0.193687,-0.002443,-0.001069,0.002443
1765409476.654844,-9.875058,-0.066954,0.329986,-0.003512,-0.007941,0.000153
1765409476.655044,-9.953370,0.019130,0.365854,-0.002749,-0.006567,-0.001680
1765409476.655244,-9.787182,0.120756,0.111191,-0.002596,-0.005040,-0.001069
1765409476.655444,-9.680773,0.096246,0.017934,-0.002443,-0.004429,0.001833
1765409476.655640,-9.802725,0.078910,0.187709,-0.003818,-0.003818,0.000305
1765409476.655840,-9.965326,-0.010760,0.407700,-0.003665,-0.003665,0.003207
1765409476.656040,-9.956957,-0.038259,0.328790,-0.006261,-0.001069,0.003054
1765409476.656240,-9.837996,-0.010760,0.165591,-0.002749,0.001069,0.002749
1765409476.656440,-9.901959,-0.014347,0.326399,-0.007178,-0.000458,0.001069
1765409476.656600,-10.144667,-0.008369,0.565519,-0.006567,-0.003207,-0.002138
1765409476.656800,-10.135699,0.029890,0.417862,-0.005803,-0.000916,0.000000
1765409476.657000,-9.910329,0.034075,0.129125,-0.007178,-0.001222,0.001527
1765409476.657200,-9.881036,0.031683,0.240316,-0.002902,-0.003818,0.000153
1765409476.657400,-10.125537,0.083692,0.590626,-0.007636,-0.005498,-0.001985
1765409476.658606,-10.166186,0.109995,0.520086,-0.005498,-0.002902,-0.000458
1765409476.658806,-9.960544,0.078910,0.197274,-0.010843,-0.001374,0.001222
1765409476.659006,-9.830223,0.004782,0.105213,-0.006109,-0.004581,-0.000764
1765409476.659206,-9.979673,-0.059780,0.322812,-0.006109,-0.007636,-0.000764
1765409476.659406,-10.125537,-0.008967,0.570301,-0.010537,-0.005345,-0.002596
1765409476.658702,-9.965924,0.028694,0.297107,-0.007636,-0.005345,-0.001222
1765409476.658902,-9.965924,0.028694,0.297107,-0.007636,-0.003665,-0.001222
1765409476.659102,-9.939023,-0.017934,0.290531,-0.009927,-0.006414,0.000611
1765409476.659302,-10.093256,-0.082496,0.514108,-0.010232,-0.010385,0.000000
1765409476.659502,-10.068746,-0.052606,0.424438,-0.006872,-0.001985,-0.002291
1765409476.659628,-9.915112,0.005978,0.225968,-0.005803,-0.001985,-0.001985
1765409476.659828,-9.921686,-0.032281,0.282759,-0.009774,-0.007178,0.000305
1765409476.660028,-10.087276,-0.021521,0.519488,-0.011454,-0.008858,-0.002596
1765409476.660228,-10.099234,0.008967,0.438785,-0.007178,-0.009163,-0.001985
1765409476.660428,-9.941415,0.009565,0.255858,-0.010843,-0.007178,-0.002291
1765409476.660628,-9.832614,0.024510,0.205643,-0.007636,-0.005040,-0.001069
1765409476.660828,-9.958152,0.005380,0.394548,-0.006109,-0.011148,-0.001069
1765409476.661028,-10.063366,-0.011956,0.548183,-0.007330,-0.007178,-0.001985
1765409476.661228,-9.952174,-0.050813,0.336561,-0.009163,-0.007178,-0.001222
1765409476.661428,-9.952174,-0.050813,0.336561,-0.009163,-0.007178,-0.001222
1765409476.661601,-9.941415,-0.059780,0.401124,-0.008399,-0.008858,-0.002443
1765409476.661801,-10.017933,-0.056193,0.477642,-0.011148,-0.009927,-0.001069
1765409476.662001,-9.897178,-0.011956,0.227164,-0.008552,-0.009316,-0.001680
1765409476.662201,-9.737565,-0.019130,0.163797,-0.010079,-0.005498,0.000000
1765409476.662401,-9.737565,-0.019130,0.163797,-0.010079,-0.007178,0.000000
1765409476.662589,-10.017933,-0.095648,0.478240,-0.009010,-0.008247,0.000305
1765409476.662789,-10.020324,-0.035868,0.459110,-0.008552,-0.006261,0.001069
1765409476.662989,-9.835604,-0.081301,0.249880,-0.008705,-0.007636,-0.000305
1765409476.663189,-9.892395,-0.135103,0.335366,-0.009621,-0.007636,-0.000458
1765409476.663389,-9.892395,-0.135103,0.335366,-0.009621,-0.007941,-0.000458
1765409476.663641,-9.972500,-0.047824,0.363462,-0.007636,-0.003360,0.000458
1765409476.663841,-9.817670,-0.059780,0.191296,-0.007941,-0.003360,0.000305
1765409476.664041,-9.913916,-0.077116,0.350311,-0.006872,-0.009468,-0.000611
1765409476.664241,-10.041844,-0.027499,0.520086,-0.007178,-0.009468,0.001222
1765409476.664441,-9.996411,-0.007771,0.378407,-0.007789,-0.004734,-0.000458
1765409476.664997,-9.815877,-0.028694,0.168580,-0.008247,-0.002596,-0.001222
1765409476.665197,-9.945002,-0.019130,0.350311,-0.007636,-0.005651,-0.000611
1765409476.665397,-10.115973,-0.004782,0.522477,-0.009774,-0.010996,0.000458
1765409476.665597,-10.029889,0.017336,0.410091,-0.005956,-0.005192,-0.001527
1765409476.665797,-9.840386,-0.002391,0.113582,-0.008552,-0.001222,0.000458
1765409476.665642,-9.794355,0.000000,0.194883,-0.005040,-0.006720,-0.000458
1765409476.665842,-10.054996,-0.005978,0.436394,-0.009010,-0.007636,-0.000458
1765409476.666042,-10.054996,-0.005978,0.436394,-0.009010,-0.007789,-0.000458
1765409476.666242,-9.907937,0.025705,0.162004,-0.011301,-0.000611,-0.000611
1765409476.666442,-9.805116,0.012554,0.139287,-0.008705,-0.005498,0.000305
1765409476.666576,-9.995216,-0.062769,0.410689,-0.009010,-0.009163,-0.000305
1765409476.666776,-10.139884,-0.051411,0.571497,-0.008399,-0.004276,-0.000611
1765409476.666976,-10.052606,0.000000,0.347920,-0.007483,-0.001527,-0.001833
1765409476.667176,-9.814680,0.038259,0.136298,-0.008858,-0.003512,0.000153
1765409476.667376,-9.864896,-0.031086,0.218197,-0.007178,-0.009010,-0.000458
1765409476.667636,-10.052606,-0.043639,0.499761,-0.009774,-0.010079,-0.001527
1765409476.667836,-10.044236,0.016738,0.398135,-0.006567,-0.004581,-0.003054
1765409476.668036,-9.832614,-0.007174,0.130918,-0.008858,-0.005651,0.000764
1765409476.668236,-9.832614,-0.032281,0.266021,-0.009468,-0.008399,0.001222
1765409476.668436,-10.014346,-0.039455,0.480631,-0.007789,-0.010843,-0.002902
1765409476.668655,-10.070539,-0.019130,0.509923,-0.005498,-0.008094,-0.001222
1765409476.668855,-9.863700,0.019130,0.200861,-0.006720,-0.002138,-0.000916
1765409476.669055,-9.776422,-0.015543,0.147059,-0.010690,-0.005192,-0.000764
1765409476.669255,-9.962935,-0.061573,0.426829,-0.012523,-0.008399,-0.002443
1765409476.669455,-10.046627,-0.009565,0.494381,-0.009927,-0.007789,-0.003360
1765409476.669624,-9.935436,-0.005380,0.338355,-0.006414,-0.006109,-0.002291
1765409476.669824,-9.825441,-0.057987,0.257054,-0.008552,-0.005192,0.000611
1765409476.670024,-9.925871,-0.068149,0.391559,-0.010537,-0.010537,0.002902
1765409476.670224,-9.988043,-0.041846,0.389766,-0.008705,-0.007025,0.001222
1765409476.670424,-9.829626,-0.019130,0.204448,-0.007941,-0.003818,-0.001527
1765409476.670663,-9.719630,-0.057389,0.131516,-0.007483,-0.002596,0.000000
1765409476.670863,-9.894786,-0.072932,0.377810,-0.011148,-0.007178,-0.001527
1765409476.671063,-10.026302,-0.023314,0.477044,-0.006414,-0.010385,-0.002291
1765409476.671263,-9.857722,-0.102822,0.274988,-0.005192,-0.004429,-0.002902
1765409476.671463,-9.812290,-0.088474,0.258250,-0.007941,-0.006720,-0.000611
1765409476.671590,-9.972500,-0.092061,0.373027,-0.009927,-0.005803,0.000916
1765409476.671840,-10.015541,-0.044237,0.427427,-0.009468,-0.007636,-0.002138
1765409476.672090,-9.886416,-0.013152,0.278575,-0.008552,-0.005192,-0.000153
1765409476.672340,-9.781802,-0.035868,0.173362,-0.006720,-0.007941,-0.001374
1765409476.672630,-9.890601,-0.054400,0.379005,-0.007178,-0.007941,-0.002596
1765409476.672830,-10.062170,-0.054998,0.520086,-0.007330,-0.005040,-0.002596
1765409476.673030,-9.994021,-0.009565,0.311454,-0.006414,-0.004276,-0.000916
1765409476.673230,-9.832017,-0.016738,0.159613,-0.008705,-0.007330,-0.002138
1765409476.673430,-9.891200,-0.043042,0.327594,-0.008399,-0.005956,0.000611
1765409476.673570,-10.064561,-0.044237,0.539216,-0.006109,-0.010537,0.000458
1765409476.673737,-10.059779,0.016141,0.447154,-0.008858,-0.003360,0.000305
1765409476.673903,-9.851745,0.011956,0.150646,-0.004734,-0.001985,0.000916
1765409476.674070,-9.787780,-0.029890,0.170373,-0.009468,-0.008094,-0.000305
1765409476.674237,-9.984456,0.029890,0.417264,-0.006109,-0.011148,-0.000611
1765409476.674403,-10.068149,-0.022119,0.471066,-0.005498,-0.009316,-0.000611
1765409476.674604,-9.979075,-0.020325,0.306671,-0.003665,-0.002596,-0.001833
1765409476.674854,-9.802725,-0.108800,0.356289,-0.007636,-0.006109,-0.000764
1765409476.675104,-9.482305,-0.254663,0.441176,-0.008399,-0.006109,-0.001374
1765409476.675354,-9.635341,0.185318,0.369440,-0.008399,-0.015577,-0.001374
1765409476.675684,-9.346005,0.453132,-0.297704,-0.006261,-0.001069,-0.001833
1765409476.675884,-9.442849,0.123147,0.298900,-0.004123,0.005345,0.012981
1765409476.676084,-9.839788,-0.180536,0.890722,-0.013286,0.004581,0.004734
1765409476.676284,-10.326398,-0.205643,1.042563,-0.016646,0.004581,-0.000611
1765409476.676484,-10.326398,-0.205643,1.042563,-0.016646,0.003360,-0.000611
1765409476.676606,-9.813485,-0.148254,0.013152,-0.001374,0.018631,-0.007636
1765409476.676806,-10.023911,0.404113,0.686274,-0.005956,0.018631,-0.007941
1765409476.677006,-10.486609,0.499761,1.379722,-0.010079,0.013134,0.003818
1765409476.677206,-10.212217,-0.300096,0.536824,-0.012675,0.003360,0.010996
1765409476.677406,-9.826636,-0.686274,-0.098637,-0.009163,0.002749,0.000764
1765409476.677688,-9.742945,-0.233740,0.226566,-0.003207,0.014813,-0.014355
1765409476.677888,-9.915112,0.472262,0.527260,-0.009621,0.014813,-0.013897
1765409476.678088,-10.054399,0.341344,0.441176,-0.010843,0.005803,0.004887
1765409476.678288,-9.980869,-0.065160,0.243305,-0.008858,0.008858,0.010079
1765409476.678488,-9.983260,-0.389766,0.416069,-0.005498,0.012065,0.003665
1765409476.678613,-9.981467,-0.282162,0.570301,-0.009621,0.004123,-0.003818
1765409476.678813,-9.959349,-0.083692,0.384385,-0.007789,0.004123,-0.008858
1765409476.679013,-9.864299,0.205643,0.186514,-0.005498,0.005651,-0.007025
1765409476.679213,-9.874461,0.248685,0.255858,-0.006109,0.010385,-0.002138
1765409476.679413,-10.014346,0.083692,0.447154,-0.008705,0.014203,0.005956
1765409476.679671,-10.139884,-0.289335,0.493783,-0.012675,0.005498,0.008552
1765409476.679871,-10.034670,-0.355093,0.337159,-0.009927,0.008705,-0.003971
1765409476.680071,-9.818267,-0.086083,0.139885,-0.009774,0.010232,-0.008552
1765409476.680271,-9.722619,0.188905,0.084888,-0.007330,0.004734,-0.004887
1765409476.680471,-10.001194,0.236729,0.379005,-0.008858,0.004734,-0.001527
1765409476.680645,-10.163795,-0.047226,0.531444,-0.009927,0.007025,0.007330
1765409476.680895,-9.988641,-0.405906,0.263630,-0.006872,0.012065,0.004734
1765409476.681145,-9.940218,-0.339550,0.295313,-0.006872,0.011301,0.004734
1765409476.681395,-10.032280,-0.048422,0.388570,-0.007941,0.006414,-0.008399
1765409476.681616,-10.022716,0.247489,0.304878,-0.006720,0.007025,-0.003971
1765409476.681816,-9.842180,0.205045,0.173960,-0.011454,0.009468,0.002749
1765409476.682016,-9.810495,-0.076518,0.214610,-0.011301,0.007178,0.004581
1765409476.682216,-9.966521,-0.284553,0.343735,-0.006567,0.001833,0.002596
1765409476.682416,-10.208632,-0.135103,0.465088,-0.006720,0.002291,-0.003360
1765409476.682642,-10.086679,0.055595,0.376614,-0.003818,0.009163,-0.003971
1765409476.682809,-9.956359,0.109397,0.249880,-0.007178,0.012217,-0.001374
1765409476.682975,-10.001194,0.002391,0.342539,-0.007025,0.000305,0.000305
1765409476.683142,-10.076518,0.002391,0.402917,-0.006109,0.000153,-0.001222
1765409476.683309,-9.980869,0.031086,0.200263,-0.008705,0.008552,0.000305
1765409476.683475,-9.949782,0.001196,0.243902,-0.008399,0.009316,0.000611
1765409476.683617,-10.044236,-0.157221,0.391559,-0.008858,0.001985,-0.000458
1765409476.683817,-10.239119,-0.072932,0.541607,-0.007789,0.001985,-0.004581
1765409476.684017,-10.095049,0.114778,0.330583,-0.008399,0.002138,-0.003207
1765409476.684217,-9.771639,0.050215,-0.026303,-0.007330,0.005498,0.002443
1765409476.684417,-9.771639,0.050215,0.209230,-0.007330,0.001374,0.002443
1765409476.684621,-10.115375,-0.079507,0.403515,-0.008705,-0.002749,0.001527
1765409476.684821,-10.083690,-0.010760,0.344333,-0.007941,0.001985,-0.001069
1765409476.685021,-9.916306,0.005978,0.170971,-0.006872,0.001833,-0.000458
1765409476.685221,-9.919893,-0.053204,0.182927,-0.007330,-0.001222,-0.000153
1765409476.685421,-10.101624,-0.065160,0.395744,-0.008858,-0.005956,0.000000
1765409476.685597,-10.155428,-0.011956,0.408297,-0.007025,-0.001527,-0.000458
1765409476.685797,-9.978478,0.054400,0.224773,-0.006872,0.002138,-0.001527
1765409476.685997,-9.934240,0.007174,0.308465,-0.009621,0.000458,0.001985
1765409476.686197,-9.934240,0.007174,0.308465,-0.009621,-0.006414,0.001985
1765409476.686397,-10.141678,-0.068149,0.418460,-0.007025,-0.010537,-0.002902
1765409476.686669,-9.978478,0.022119,0.239120,-0.007025,-0.003971,-0.003360
1765409476.687169,-9.846962,0.038259,0.123147,-0.007178,-0.008399,-0.000153
1765409476.689573,-10.010758,0.035868,0.337159,-0.012065,-0.008399,-0.001069
1765409476.691629,-10.151840,-0.010760,0.478240,-0.007483,-0.006567,-0.000916
1765409476.694638,-9.986250,-0.095050,0.274988,-0.007789,-0.001222,0.001374
1765409476.696630,-9.838593,-0.119560,0.180536,-0.009621,-0.007330,-0.001833
1765409476.699604,-9.915112,-0.109995,0.309660,-0.007941,-0.009927,-0.004429
1765409476.701592,-10.014943,-0.012554,0.393352,-0.007941,-0.009927,-0.001374
1765409476.704637,-9.932447,0.072334,0.243902,-0.008399,-0.005040,0.001680
1765409476.706624,-9.770443,0.030488,0.149450,-0.005498,-0.005956,0.000305
1765409476.707588,-9.770443,0.030488,0.149450,-0.005498,-0.006872,0.000305
1765409476.711617,-10.049617,-0.185318,0.469871,-0.010079,-0.006414,0.001680
1765409476.715633,-9.931850,-0.095050,0.294118,-0.007330,-0.005651,-0.002749
1765409476.716621,-9.777617,-0.022119,0.164993,-0.007941,-0.004581,-0.002596
1765409476.720622,-9.813485,0.008967,0.279770,-0.012065,-0.007483,-0.000153
1765409476.722625,-10.030487,0.096844,0.441176,-0.007483,-0.009163,-0.000611
1765409476.724601,-9.901362,-0.037064,0.251076,-0.007789,-0.005956,0.001527
1765409476.726603,-9.744739,-0.111191,0.199665,-0.007178,-0.005956,-0.000305
1765409476.729597,-9.821855,-0.135701,0.332377,-0.008247,-0.008247,-0.000611
1765409476.731599,-9.956957,-0.020325,0.395146,-0.005498,-0.009316,-0.001985
1765409476.732610,-9.890003,0.049020,0.226566,-0.007025,-0.007178,-0.002902
1765409476.736668,-9.768052,0.008369,0.203850,-0.009316,-0.002443,-0.000305
1765409476.739631,-9.890601,-0.083094,0.399928,-0.006567,-0.005345,0.000916
1765409476.740676,-9.986250,-0.041846,0.450143,-0.007330,-0.004887,0.000000
1765409476.744620,-9.891200,-0.051411,0.338355,-0.007941,-0.003818,0.000305
1765409476.746632,-9.856527,-0.084888,0.320421,-0.005651,-0.003818,-0.000764
1765409476.749621,-9.951577,-0.023314,0.406504,-0.008552,-0.006109,-0.001680
1765409476.750644,-9.915112,0.060976,0.298302,-0.008858,-0.004581,-0.002902
1765409476.754595,-9.797942,0.013152,0.180536,-0.008858,-0.003207,-0.002902
1765409476.756628,-9.845766,-0.094452,0.344333,-0.006720,-0.006872,-0.000916
1765409476.759617,-9.973696,-0.049617,0.447752,-0.006567,-0.006872,-0.003665
1765409476.761627,-9.927068,-0.016738,0.320421,-0.007789,-0.001069,-0.002291
1765409476.764670,-9.843375,-0.026303,0.292324,-0.007330,-0.000458,-0.000305
1765409476.766670,-9.935436,-0.043639,0.416667,-0.008399,-0.005192,-0.000611
1765409476.769659,-9.946198,-0.037064,0.374223,-0.006872,-0.000305,-0.003054
1765409476.771685,-9.875656,-0.001196,0.270803,-0.005345,-0.000305,-0.000916
1765409476.774677,-9.842180,-0.021521,0.237327,-0.008705,0.000764,-0.000611
1765409476.776669,-9.962337,-0.023912,0.451937,-0.006872,-0.001527,-0.002138
1765409476.779663,-10.075920,-0.074127,0.509326,-0.006872,-0.000764,0.001069
1765409476.780163,-9.882831,-0.071736,0.215208,-0.004123,0.002138,-0.000458
1765409476.784639,-9.821855,-0.016141,0.193687,-0.003971,0.001985,-0.001527
1765409476.786662,-9.911524,-0.023314,0.355093,-0.005803,-0.003512,-0.002291
1765409476.789667,-10.011955,-0.028694,0.422047,-0.008247,0.003818,-0.000611
1765409476.791666,-9.817670,0.025108,0.150646,-0.008399,0.003818,0.000611
1765409476.794650,-9.817670,0.025108,0.150646,-0.008399,0.005345,0.000611
1765409476.796601,-9.870873,-0.095648,0.359876,-0.010843,-0.001222,0.001069
1765409476.797601,-10.056191,-0.082496,0.506934,-0.008247,-0.000916,-0.001680
1765409476.801583,-9.927068,-0.066954,0.298900,-0.005956,0.002596,-0.002138
1765409476.804629,-9.812290,0.000000,0.160210,-0.008399,0.002902,-0.001985
1765409476.806587,-9.931252,-0.002391,0.332377,-0.006567,0.000153,-0.002902
1765409476.809609,-10.110592,-0.029890,0.498565,-0.006414,-0.000764,-0.003360
1765409476.812676,-10.094451,-0.043042,0.410091,-0.004276,0.005651,-0.001374
1765409476.814623,-9.842180,-0.100430,0.150646,-0.006567,-0.000764,-0.000764
1765409476.816585,-9.840983,-0.080703,0.210426,-0.007636,-0.000764,-0.002443
1765409476.819643,-9.840983,-0.080703,0.210426,-0.007636,-0.000916,-0.002443
1765409476.820626,-10.038258,0.020923,0.392157,-0.006567,0.000764,-0.001680
1765409476.824594,-9.886416,0.017934,0.147059,-0.004581,0.004429,-0.002902
1765409476.826666,-9.831419,-0.027499,0.208034,-0.006414,0.003818,-0.002902
1765409476.829630,-10.009563,-0.054998,0.414275,-0.005192,-0.001680,-0.001069
1765409476.831599,-10.066355,-0.026303,0.437590,-0.007330,0.001985,-0.002902
1765409476.834665,-9.901959,0.013152,0.198470,-0.005956,0.004581,-0.002443
1765409476.836628,-9.776422,-0.059780,0.127929,-0.007483,0.004429,-0.001680
1765409476.837587,-10.028095,-0.026303,0.386179,-0.006261,-0.001833,-0.002902
1765409476.841589,-10.166186,-0.036466,0.548780,-0.008552,0.000611,-0.003512
1765409476.844602,-10.076518,-0.065758,0.308465,-0.009621,0.001833,-0.002138
1765409476.846619,-9.888808,-0.049020,0.129125,-0.005651,0.000458,-0.001833
1765409476.849623,-9.980869,-0.065160,0.288140,-0.006720,-0.001527,0.000305
1765409476.851643,-10.146461,-0.044237,0.523673,-0.005192,-0.004123,-0.003512
1765409476.852649,-10.043638,0.017934,0.295313,-0.003207,0.002443,-0.004276
1765409476.855664,-9.863700,-0.014347,0.074127,-0.003512,0.001374,-0.002749
1765409476.859602,-9.868484,-0.017934,0.174558,-0.001985,-0.001222,-0.003054
1765409476.861665,-10.095049,-0.012554,0.488403,-0.003207,-0.007330,-0.004276
1765409476.864632,-10.060975,-0.040650,0.415471,-0.008399,-0.000458,-0.002443
1765409476.866607,-9.901959,-0.022716,0.157819,-0.007483,0.002596,-0.001527
1765409476.869607,-9.887612,-0.078910,0.120756,-0.006720,-0.003665,-0.001069
1765409476.871568,-10.069942,-0.108202,0.429818,-0.006414,-0.003971,-0.004276
1765409476.874559,-10.065758,-0.037661,0.437590,-0.003818,-0.003971,-0.005345
1765409476.876616,-9.953370,0.056193,0.187709,-0.003207,-0.002596,-0.003971
1765409476.879657,-9.881634,0.013152,0.184720,-0.005651,-0.002749,-0.003207
1765409476.880623,-10.069344,-0.019130,0.447154,-0.005803,-0.006567,-0.003207
1765409476.884625,-10.123744,-0.010760,0.468077,-0.004123,-0.001527,-0.001374
1765409476.885634,-9.916306,-0.005978,0.210426,-0.005651,-0.001527,-0.003665
1765409476.889576,-9.827234,-0.034672,0.149450,-0.007636,-0.003207,-0.003971
1765409476.891603,-10.006575,-0.031086,0.388570,-0.005345,-0.004276,-0.003971
1765409476.894672,-10.070539,-0.077714,0.438785,-0.002902,-0.005345,-0.003360
1765409476.896577,-9.939023,-0.053802,0.221186,-0.003665,-0.001069,-0.001680
1765409476.899571,-9.860114,-0.044237,0.187111,-0.004276,-0.001680,-0.001985
1765409476.901608,-9.966521,-0.018532,0.413678,-0.006872,-0.006109,-0.001374
1765409476.904623,-10.040649,0.006576,0.416069,-0.007025,-0.002902,-0.001069
1765409476.906657,-9.872069,0.005380,0.168580,-0.007330,0.000611,-0.003971
1765409476.908890,-9.741750,-0.005380,0.062171,-0.006872,0.000000,-0.001374
1765409476.911639,-9.900764,-0.007174,0.362267,-0.005498,-0.002443,-0.002902
1765409476.914578,-9.997607,-0.058584,0.429220,-0.006109,0.001527,-0.003054
1765409476.916573,-9.875656,-0.102822,0.192492,-0.008094,0.006109,-0.001222
1765409476.917570,-9.778812,-0.112386,0.124940,-0.004276,0.006109,-0.002138
1765409476.921720,-9.935436,-0.097441,0.400526,-0.004734,0.001833,-0.004429
1765409476.922646,-10.111788,-0.085485,0.669536,-0.002749,0.000153,-0.006261
1765409476.926639,-9.999999,-0.060976,0.503945,-0.003665,0.006414,-0.003360
1765409476.929632,-9.754900,-0.032879,0.175753,-0.003512,-0.006872,-0.004123
1765409476.931586,-9.858918,-0.029890,0.310258,-0.001985,-0.006872,-0.004123
1765409476.934585,-9.858918,-0.029890,0.310258,-0.001985,-0.003971,-0.004123
1765409476.936543,-10.027497,0.011956,0.426829,-0.008705,0.000611,-0.005803
1765409476.939615,-9.842180,-0.010760,0.246294,-0.008705,0.001833,-0.005803
1765409476.941621,-9.873264,-0.085485,0.217599,-0.005498,-0.004581,-0.003207
1765409476.944617,-9.984456,-0.090268,0.402917,-0.002902,-0.004581,-0.001833
1765409476.946623,-10.015541,-0.101626,0.453132,0.000611,-0.000764,-0.003512
1765409476.949567,-9.790171,-0.117169,0.225968,-0.001527,0.000153,-0.005498
1765409476.951594,-9.779410,-0.086083,0.214012,-0.003665,0.000916,-0.003512
1765409476.954633,-9.925274,-0.051411,0.351506,-0.004276,-0.002291,-0.003971
1765409476.956566,-10.007172,0.013152,0.435198,0.000000,-0.000764,-0.006720
1765409476.957603,-9.852941,0.041846,0.264228,-0.001680,0.002443,-0.004581
1765409476.961550,-9.748923,0.004185,0.107604,-0.003818,-0.003207,-0.002291
1765409476.964574,-9.851745,0.014347,0.256456,-0.005345,-0.003207,-0.002749
1765409476.966621,-9.977880,-0.035868,0.429220,-0.001374,0.000611,-0.000916
1765409476.967659,-9.855330,-0.071736,0.280368,-0.002291,0.006109,-0.004581
1765409476.971648,-9.802725,-0.064562,0.205643,-0.002443,0.007330,-0.004734
1765409476.972575,-9.930056,-0.062171,0.313247,-0.004123,0.004276,-0.004581
1765409476.976589,-9.971903,-0.076518,0.315041,-0.002138,0.004276,-0.001222
1765409476.979626,-9.971903,-0.076518,0.315041,-0.002138,0.008247,-0.001222
1765409476.981590,-9.858918,0.028097,0.227762,-0.001833,0.009927,-0.004276
1765409476.984596,-9.978478,0.019130,0.313845,-0.002902,0.008094,-0.001374
1765409476.985627,-10.055594,-0.052606,0.419058,-0.001222,0.005040,-0.003665
1765409476.989657,-9.976088,-0.048422,0.324008,-0.001527,0.010232,-0.007178
1765409476.991650,-9.976088,-0.048422,0.324008,-0.001527,0.012065,-0.007178
1765409476.994614,-9.950979,0.065758,0.341942,-0.003971,0.003818,-0.004123
1765409476.996757,-10.064561,-0.022119,0.399330,-0.003818,0.003818,-0.002138
1765409476.999618,-9.918698,-0.181731,0.180536,-0.000458,0.005498,0.000000
1765409477.000597,-9.942610,-0.078910,0.222382,-0.000458,0.005498,-0.005803
1765409477.004614,-10.044236,0.002391,0.424438,-0.000458,0.002596,-0.005803
1765409477.006582,-10.078907,0.006576,0.368843,-0.003512,0.002596,-0.003512
1765409477.009547,-9.936632,-0.015543,0.168580,-0.002138,0.005040,-0.005498
1765409477.011577,-9.846962,-0.049020,0.193687,-0.001222,0.006414,-0.005192
1765409477.014579,-9.942610,-0.074725,0.297704,-0.001069,0.005192,-0.003818
1765409477.016589,-9.968913,-0.121353,0.339550,-0.003818,0.004123,-0.006567
1765409477.019555,-9.888808,-0.093257,0.166786,-0.002902,0.010079,-0.003971
1765409477.021562,-9.879243,0.008369,0.190698,-0.000611,0.009774,-0.005803
1765409477.024590,-9.958751,0.006576,0.370636,-0.002443,0.005651,-0.006872
1765409477.025090,-10.046627,0.014347,0.414873,-0.002902,0.005651,-0.004581
1765409477.027669,-9.940817,-0.121951,0.265423,-0.004429,0.009010,-0.002596
1765409477.031576,-9.725011,-0.142276,0.107604,0.000153,0.008247,-0.007330
1765409477.034578,-9.947989,0.013152,0.451339,-0.000764,0.006261,-0.008705
1765409477.036574,-10.051410,0.061573,0.581062,-0.000764,0.009468,-0.008705
1765409477.039565,-9.934240,-0.052606,0.248685,-0.003360,0.003054,-0.003818
1765409477.041558,-9.833811,-0.082496,0.059780,-0.003665,0.003512,-0.002443
1765409477.044599,-9.919893,-0.108800,0.220588,0.001069,0.001985,-0.006872
1765409477.045573,-10.102820,-0.081899,0.448948,-0.000305,0.002443,-0.007483
1765409477.049591,-10.060975,0.029890,0.383788,-0.002443,0.002443,-0.007636
1765409477.051572,-9.942610,0.098039,0.224773,-0.005651,0.006567,-0.006872
1765409477.054602,-9.910927,-0.035868,0.230751,-0.004429,0.004887,-0.002596
1765409477.056596,-10.009563,-0.132712,0.358680,-0.001680,0.001374,-0.004123
1765409477.059635,-10.074724,-0.009565,0.434003,-0.003512,0.003971,-0.010232
1765409477.061624,-9.988641,0.065160,0.332377,-0.003054,0.009010,-0.007636
1765409477.064664,-9.771041,-0.024510,0.076518,-0.000153,0.005956,-0.005345
1765409477.066612,-9.980869,-0.083692,0.380799,-0.001374,-0.002596,-0.005956
1765409477.069593,-10.086679,-0.052606,0.603778,-0.003360,0.004734,-0.008858
1765409477.071612,-10.020324,-0.157819,0.292922,-0.003818,0.004429,-0.006872
1765409477.074561,-9.840386,-0.163797,0.081301,0.000611,0.001374,-0.007941
1765409477.076603,-9.944403,-0.077714,0.245696,-0.000764,0.001527,-0.010537
1765409477.079568,-10.043041,-0.007174,0.395146,0.000153,0.003512,-0.008858
1765409477.081600,-9.982065,0.002391,0.279770,-0.001985,0.003665,-0.006720
1765409477.084626,-9.930056,0.030488,0.266619,-0.000305,0.007789,-0.005040
1765409477.086618,-9.886416,-0.116571,0.193687,-0.003054,0.005498,-0.007025
1765409477.087595,-10.148253,-0.113582,0.524868,-0.001527,0.001833,-0.008247
1765409477.091688,-10.066953,-0.029890,0.395744,0.001069,0.008399,-0.009468
1765409477.092639,-9.987445,0.095050,0.351506,-0.000305,0.012370,-0.009774
1765409477.096558,-9.866689,0.076518,0.211621,-0.003054,0.001985,-0.007789
1765409477.099548,-10.056191,-0.098039,0.384385,-0.004581,-0.000305,-0.006109
1765409477.101574,-10.013150,-0.203252,0.288140,-0.000916,0.005651,-0.001833
1765409477.104558,-9.889405,-0.102822,0.161406,0.002443,0.009316,-0.010690
1765409477.106650,-9.866092,0.006576,0.194883,0.000305,0.011606,-0.011912
1765409477.109583,-10.018531,0.053802,0.389766,-0.001833,0.005192,-0.010079
1765409477.111611,-9.994021,-0.096844,0.331779,0.000153,0.007025,-0.004734
1765409477.114628,-9.884026,-0.066954,0.242109,0.003512,0.005651,-0.007941
1765409477.117247,-9.926469,-0.077116,0.315638,-0.001680,0.008094,-0.007636
1765409477.119627,-9.978478,0.040650,0.320421,-0.000153,0.004734,-0.011301
1765409477.120677,-10.089668,0.018532,0.481827,0.000458,0.001833,-0.009774
1765409477.124575,-9.930654,-0.015543,0.297704,0.002596,0.008552,-0.004887
1765409477.126555,-9.816475,-0.118962,0.203850,-0.000611,0.002443,-0.007636
1765409477.127587,-9.955761,-0.057389,0.324008,-0.001069,0.003054,-0.008247
1765409477.131596,-10.038258,-0.107006,0.388570,0.000611,0.000153,-0.010385
1765409477.133536,-9.885221,-0.090866,0.166188,0.001833,0.003207,-0.008705
1765409477.136524,-9.811094,-0.087279,0.115973,0.001833,0.006261,-0.009163
1765409477.139606,-9.806311,-0.109397,0.149450,-0.000916,0.004581,-0.007636
1765409477.141571,-9.962935,-0.086681,0.228360,0.003054,0.000458,-0.009468
1765409477.144605,-10.129124,-0.031086,0.407700,0.003512,0.008705,-0.011759
1765409477.146550,-9.943806,-0.090866,0.174558,0.003818,0.012981,-0.010232
1765409477.149600,-9.866092,0.005978,0.248087,0.001374,0.012981,-0.013592
1765409477.151618,-9.866092,0.005978,0.248087,0.001374,0.012981,-0.013592
1765409477.152627,-9.931252,0.025108,0.315638,-0.000153,0.008552,-0.006109
1765409477.157756,-9.921089,-0.065758,0.289933,0.001527,0.003818,-0.005192
1765409477.159565,-9.826636,-0.145863,0.185318,0.001069,0.009927,-0.005498
1765409477.161545,-9.820659,-0.184122,0.186514,0.005192,0.009927,-0.008247
1765409477.164548,-9.820659,-0.184122,0.186514,0.005192,0.003360,-0.008247
1765409477.167599,-10.096842,-0.052606,0.527857,0.002291,0.005803,-0.009927
1765409477.169569,-9.986848,-0.046628,0.390961,0.004276,0.005803,-0.010079
1765409477.171571,-9.986848,-0.046628,0.390961,0.004276,0.003665,-0.010079
1765409477.172557,-9.904947,-0.148254,0.247489,0.005498,0.000611,-0.011454
1765409477.176595,-10.010161,-0.087877,0.363462,0.005651,0.002596,-0.013897
1765409477.179526,-9.967119,-0.105213,0.301291,0.004887,0.004581,-0.013439
1765409477.181678,-9.844571,-0.136298,0.066954,0.005498,0.004581,-0.010079
1765409477.184625,-9.843375,-0.032281,0.137494,0.005651,0.006720,-0.013134
1765409477.186553,-9.970706,0.015543,0.283357,0.003665,0.009468,-0.012370
1765409477.187588,-10.089668,0.047824,0.419656,0.008399,0.008705,-0.009774
1765409477.191578,-10.091461,-0.032879,0.554758,0.004581,0.010537,-0.006414
1765409477.194560,-9.915112,-0.047824,0.259445,0.001833,0.010537,-0.009163
1765409477.195593,-9.924676,-0.038259,0.200263,0.004734,0.005803,-0.010996
1765409477.199591,-9.890601,-0.047226,0.191296,0.004734,0.006414,-0.007636
1765409477.201603,-9.954566,-0.132712,0.275586,0.005956,0.006414,-0.006567
1765409477.202661,-9.950381,-0.073529,0.237924,0.006872,0.008705,-0.010385
1765409477.207267,-9.889405,-0.025108,0.182927,0.006567,0.010232,-0.009774
1765409477.209587,-9.891797,0.001196,0.161406,0.005651,0.006261,-0.011606
1765409477.211648,-10.054399,-0.032281,0.394548,0.005498,0.009468,-0.011912
1765409477.212650,-10.051410,-0.107604,0.399330,0.001985,0.013134,-0.011148
1765409477.216570,-9.921089,-0.116571,0.236729,0.002291,0.008552,-0.011759
1765409477.219550,-9.894786,0.010760,0.235533,0.008705,0.009927,-0.012828
1765409477.221567,-10.005977,0.021521,0.412482,0.003818,0.010385,-0.011606
1765409477.225499,-9.948587,-0.083692,0.345528,0.004429,0.009621,-0.010690
1765409477.225999,-9.899570,-0.050813,0.228360,0.006109,0.009621,-0.011912
1765409477.229521,-9.899570,-0.050813,0.228360,0.006109,0.010537,-0.011912
1765409477.231565,-9.936632,-0.010760,0.387374,0.005803,0.008094,-0.010843
1765409477.234579,-9.976685,-0.024510,0.363462,0.006414,0.008094,-0.009621
1765409477.236576,-9.915709,-0.068149,0.261836,0.004429,0.010996,-0.009163
1765409477.239587,-9.869080,-0.023912,0.187709,0.006872,0.008705,-0.009163
1765409477.240574,-9.855330,-0.060976,0.300096,0.004276,0.004429,-0.010232
1765409477.244610,-9.898373,-0.075323,0.274988,0.005192,0.006872,-0.011912
1765409477.246587,-9.809898,-0.117169,0.176949,0.006261,0.009927,-0.009010
1765409477.249569,-9.668220,-0.209230,0.034672,0.007178,0.010690,-0.013744
1765409477.251569,-9.849353,-0.029890,0.273792,0.009316,0.009927,-0.016952
1765409477.254533,-10.053204,-0.039455,0.428025,0.007025,0.009010,-0.013897
1765409477.255576,-10.047226,-0.024510,0.473458,0.007636,0.016341,-0.013286
1765409477.259546,-9.806910,-0.157221,0.202056,0.005651,0.013897,-0.011606
1765409477.260555,-9.973696,-0.040053,0.383788,0.005192,0.008094,-0.016341
1765409477.264543,-9.940218,-0.029890,0.216404,0.008247,0.007025,-0.016188
1765409477.266592,-9.882831,-0.057987,0.205643,0.010079,0.010537,-0.012828
1765409477.269559,-9.687947,-0.114778,0.056193,0.008094,0.015119,-0.009774
1765409477.271627,-9.900764,-0.063965,0.415471,0.007025,0.012523,-0.013744
1765409477.274630,-9.900764,-0.063965,0.415471,0.007025,0.009010,-0.013744
1765409477.276546,-9.945002,-0.057389,0.272597,0.008705,0.011912,-0.013286
1765409477.277525,-9.850550,-0.052606,0.156624,0.008858,0.015730,-0.013897
1765409477.281577,-9.861907,-0.058584,0.192492,0.007636,0.014813,-0.011454
1765409477.284633,-9.915709,-0.084888,0.249880,0.011606,0.014203,-0.011606
1765409477.286599,-9.904947,-0.054400,0.254065,0.008705,0.019090,-0.008399
1765409477.289573,-9.762672,-0.102822,0.057389,0.010690,0.015730,-0.014203
1765409477.291614,-9.866092,-0.100430,0.261836,0.008094,0.017257,-0.015119
1765409477.294606,-9.956957,-0.117169,0.362267,0.008858,0.017868,-0.015882
1765409477.296611,-9.891200,-0.026303,0.294715,0.006567,0.017868,-0.013744
1765409477.299612,-9.784791,-0.068149,0.143472,0.008552,0.018173,-0.014203
1765409477.301615,-9.949782,-0.087877,0.364060,0.012675,0.014813,-0.011912
1765409477.304557,-9.910329,-0.217599,0.233142,0.009468,0.015882,-0.012523
1765409477.306573,-9.905546,-0.166786,0.217001,0.011301,0.016799,-0.016646
1765409477.309545,-9.777617,-0.166188,0.106408,0.010996,0.019548,-0.018479
1765409477.310564,-9.842180,-0.062769,0.228957,0.012370,0.020464,-0.016493
1765409477.314614,-10.009563,-0.010760,0.487805,0.010537,0.016799,-0.016493
1765409477.315600,-9.982065,0.138690,0.428623,0.008552,0.018326,-0.014966
1765409477.319556,-9.697512,-0.110593,0.015543,0.010690,0.011454,-0.011148
1765409477.321544,-9.851745,-0.080703,0.185318,0.013592,0.011454,-0.014203
1765409477.324599,-10.007172,-0.196676,0.383190,0.010537,0.016035,-0.013897
1765409477.326525,-9.928861,-0.068149,0.210426,0.012217,0.017868,-0.016188
1765409477.329514,-9.846962,-0.054998,0.161406,0.010996,0.018326,-0.016341
1765409477.331542,-9.781204,0.014347,0.111191,0.012370,0.017410,-0.014508
1765409477.334511,-9.990434,0.011956,0.263630,0.011759,0.013439,-0.014966
1765409477.336526,-9.966521,-0.082496,0.300096,0.010079,0.020159,-0.012065
1765409477.339530,-9.819464,-0.191296,-0.008369,0.011454,0.021838,-0.012065
1765409477.341581,-9.845168,-0.185916,0.119560,0.010690,0.021228,-0.015730
1765409477.344537,-10.005379,-0.049020,0.457915,0.012828,0.021686,-0.018173
1765409477.345512,-9.985652,-0.017934,0.448948,0.013592,0.026420,-0.014508
1765409477.349552,-9.790171,-0.050813,0.157221,0.012523,0.017257,-0.017868
1765409477.351582,-9.758488,0.028694,0.118962,0.010385,0.018021,-0.014355
1765409477.354541,-9.904350,-0.145863,0.196078,0.010843,0.018021,-0.012065
1765409477.356581,-9.978478,-0.127929,0.282162,0.013134,0.016493,-0.015424
1765409477.359608,-9.882831,-0.098039,0.157221,0.009316,0.022449,-0.018937
1765409477.360108,-9.888210,-0.014347,0.193687,0.009316,0.024129,-0.018937
1765409477.364559,-10.058583,0.039455,0.484218,0.014508,0.018784,-0.013592
1765409477.366572,-10.117765,-0.140483,0.518293,0.010996,0.018784,-0.012523
1765409477.369531,-9.890003,-0.160808,0.088474,0.011301,0.022602,-0.018326
1765409477.371538,-9.955761,-0.062171,0.162004,0.017868,0.014813,-0.018631
1765409477.374646,-10.041844,-0.099833,0.321616,0.013439,0.020617,-0.017104
1765409477.376542,-10.049019,-0.020325,0.395146,0.016035,0.017257,-0.012217
1765409477.379544,-9.808105,-0.127929,0.032281,0.011759,0.021075,-0.014661
1765409477.381541,-9.863700,-0.111191,0.113582,0.014813,0.017257,-0.018784
1765409477.384574,-9.922284,-0.147059,0.227164,0.015577,0.022755,-0.015272
1765409477.386590,-9.940817,-0.141081,0.451339,0.014966,0.022755,-0.015272
1765409477.387608,-9.940817,-0.141081,0.451339,0.014966,0.024587,-0.015272
1765409477.391570,-9.892395,-0.056193,0.179340,0.013897,0.018479,-0.015272
1765409477.394566,-9.934240,-0.138690,0.208034,0.013134,0.019242,-0.013897
1765409477.396554,-9.958152,-0.151841,0.289335,0.016646,0.023366,-0.014355
1765409477.399725,-9.824843,-0.141081,0.143472,0.016493,0.025656,-0.015272
1765409477.400653,-9.905546,-0.113582,0.150646,0.012828,0.017562,-0.017257
1765409477.404608,-10.027497,-0.052009,0.387374,0.016341,0.021228,-0.017715
1765409477.407645,-9.801530,-0.102822,-0.040650,0.014813,0.020769,-0.014661
1765409477.409545,-9.941415,-0.056193,0.209230,0.015272,0.023824,-0.017562
1765409477.411517,-9.955761,-0.005978,0.290531,0.014203,0.023824,-0.016035
1765409477.412575,-10.034073,-0.124940,0.392755,0.016188,0.022907,-0.014355
1765409477.416523,-9.848756,-0.026303,0.056193,0.017104,0.021533,-0.016646
1765409477.419534,-9.819464,-0.192492,-0.001196,0.014661,0.021533,-0.015577
1765409477.421529,-9.867287,-0.115973,0.051411,0.016341,0.026725,-0.020311
1765409477.424571,-10.089668,-0.069345,0.395744,0.018326,0.026725,-0.020464
1765409477.426559,-9.961740,0.099235,0.438785,0.018326,0.033292,-0.020006
1765409477.429519,-9.905546,-0.015543,0.349115,0.014966,0.024282,-0.017104
1765409477.431530,-9.814680,-0.093257,0.187709,0.013286,0.020464,-0.013897
1765409477.434517,-9.846365,-0.176949,-0.050813,0.013592,0.016646,-0.014203
1765409477.435571,-9.811094,-0.157819,0.037064,0.015577,0.021228,-0.017562
1765409477.437565,-9.884026,-0.041846,0.156624,0.015577,0.028863,-0.020006
1765409477.441580,-9.977283,-0.120158,0.456719,0.013134,0.025809,-0.017562
1765409477.444576,-9.897178,0.002391,0.167384,0.015272,0.023366,-0.022297
1765409477.445548,-9.897178,0.002391,0.167384,0.015272,0.024435,-0.022297
1765409477.447572,-9.768052,-0.115973,0.102822,0.017868,0.026725,-0.014966
1765409477.450565,-9.874461,-0.214012,0.243902,0.017715,0.020464,-0.014508
1765409477.454523,-9.848158,-0.190100,0.133907,0.014661,0.026878,-0.020464
1765409477.456526,-9.822452,-0.177547,-0.078910,0.015577,0.028711,-0.018479
1765409477.459576,-9.922883,-0.140483,0.184122,0.016646,0.027794,-0.020311
1765409477.462568,-10.126732,-0.029292,0.694644,0.019242,0.032529,-0.021838
1765409477.464502,-9.894188,-0.082496,0.346126,0.018173,0.031307,-0.017868
1765409477.466511,-9.837996,-0.151841,0.178742,0.019090,0.018326,-0.017410
1765409477.469490,-9.955164,-0.243902,0.322812,0.018479,0.018326,-0.018173
1765409477.471547,-10.016738,-0.221784,0.222382,0.019548,0.021991,-0.021075
1765409477.472520,-9.891200,-0.070540,0.156624,0.019700,0.024587,-0.022297
1765409477.476565,-9.860114,-0.057987,0.252869,0.019548,0.025962,-0.021838
1765409477.479548,-9.900764,0.036466,0.242707,0.024587,0.024435,-0.019548
1765409477.480568,-9.872667,0.019130,0.130320,0.018784,0.024435,-0.018173
1765409477.482599,-9.906144,-0.122549,0.137494,0.021228,0.026114,-0.015577
1765409477.485614,-9.812290,-0.319225,-0.060976,0.019090,0.021533,-0.015730
1765409477.489611,-9.812290,-0.319225,-0.060976,0.019090,0.026420,-0.015730
1765409477.491604,-9.840983,-0.092061,0.105213,0.020769,0.035430,-0.023976
1765409477.492594,-9.944403,0.064562,0.280966,0.021380,0.036041,-0.025045
1765409477.496541,-9.910329,0.032281,0.430416,0.019242,0.034667,-0.018631
1765409477.499544,-9.878048,-0.105213,0.309660,0.020617,0.029780,-0.017715
1765409477.500573,-9.901959,-0.199665,0.214610,0.019395,0.029169,-0.016952
1765409477.504528,-9.799137,-0.236729,-0.016141,0.020159,0.029169,-0.022907
1765409477.506545,-10.023911,-0.240316,0.325203,0.020159,0.023671,-0.026267
1765409477.509555,-9.809898,-0.076518,-0.052606,0.020311,0.036499,-0.024740
1765409477.511619,-9.785389,-0.002989,-0.095648,0.021533,0.033903,-0.022602
1765409477.514533,-9.876852,-0.077116,0.197274,0.021228,0.035888,-0.022144
1765409477.516528,-10.118362,-0.044237,0.593018,0.023213,0.037110,-0.020159
1765409477.519526,-10.033475,-0.174558,0.522477,0.022755,0.040928,-0.017257
1765409477.521520,-9.794355,-0.233142,0.007174,0.022144,0.028405,-0.021228
1765409477.524541,-10.083690,-0.197872,0.351506,0.022602,0.027642,-0.023976
1765409477.526619,-9.909132,-0.148254,0.140483,0.024435,0.031460,-0.022297
1765409477.529487,-10.097439,0.008967,0.451937,0.025809,0.029474,-0.021075
1765409477.531531,-9.928263,-0.142276,0.206839,0.021838,0.033139,-0.020159
1765409477.534540,-9.984456,-0.099235,0.203252,0.021838,0.030849,-0.020159
1765409477.536501,-9.935436,-0.141081,0.211621,0.028558,0.029780,-0.020159
1765409477.538736,-10.038258,-0.155428,0.230153,0.026114,0.029780,-0.022144
1765409477.541512,-10.038258,-0.155428,0.230153,0.026114,0.031460,-0.022144
1765409477.544506,-9.910329,-0.053204,0.019130,0.025962,0.028558,-0.026114
1765409477.546489,-9.907937,0.037064,0.129125,0.025656,0.038790,-0.021533
1765409477.549511,-9.927666,-0.032281,0.313247,0.022297,0.033292,-0.023213
1765409477.552567,-10.010758,-0.053802,0.459110,0.022449,0.034056,-0.019700
1765409477.554486,-9.794952,-0.096844,-0.032281,0.023366,0.033445,-0.018326
1765409477.556546,-9.771639,-0.126136,-0.187709,0.018937,0.030849,-0.025045
1765409477.559508,-9.760281,-0.002989,-0.089670,0.020464,0.033598,-0.025656
1765409477.562588,-9.760281,-0.002989,-0.089670,0.020464,0.035583,-0.025656
1765409477.564532,-9.843375,-0.105213,0.179340,0.019700,0.040012,-0.021075
1765409477.565483,-9.935436,-0.087279,0.096246,0.018326,0.034056,-0.024587
1765409477.569502,-9.894786,-0.111191,0.154232,0.020159,0.036957,-0.023060
1765409477.571519,-9.949186,-0.139885,0.248087,0.018784,0.036957,-0.021686
1765409477.574522,-9.967119,-0.184122,0.234338,0.020159,0.038179,-0.025656
1765409477.576598,-9.879243,-0.206839,-0.060976,0.019853,0.039095,-0.028405
1765409477.577513,-10.016738,-0.017934,0.083692,0.025504,0.039095,-0.025656
1765409477.580512,-9.968913,-0.090866,0.296509,0.025351,0.043982,-0.021533
1765409477.584530,-10.043041,-0.090866,0.505141,0.021838,0.043982,-0.020922
1765409477.586588,-10.043041,-0.090866,0.505141,0.021838,0.040164,-0.020922
1765409477.589513,-10.025704,-0.201459,0.295313,0.021838,0.031460,-0.024282
1765409477.591563,-9.908535,-0.219393,0.145863,0.030085,0.029474,-0.026573
1765409477.592574,-9.859515,-0.162602,0.022716,0.024282,0.034819,-0.030391
1765409477.596562,-9.854136,-0.020923,-0.007771,0.024587,0.034819,-0.027947
1765409477.597525,-9.854136,-0.020923,-0.007771,0.024587,0.036652,-0.027947
1765409477.601547,-10.015541,-0.132712,0.370636,0.027184,0.038637,-0.025809
1765409477.604526,-9.956359,-0.142276,0.194883,0.026878,0.038637,-0.028711
1765409477.605525,-9.967718,-0.124342,0.191296,0.023518,0.038026,-0.029169
1765409477.609526,-9.872667,-0.120756,0.137494,0.027336,0.039554,-0.029169
1765409477.611532,-9.945002,-0.107604,0.343137,0.027947,0.039706,-0.027794
1765409477.614497,-9.856527,-0.115973,0.253467,0.025962,0.036652,-0.026725
1765409477.616557,-9.912720,-0.104017,0.185916,0.026114,0.031460,-0.028100
1765409477.617533,-9.896580,-0.080105,0.137494,0.026725,0.035736,-0.028100
1765409477.621510,-9.915112,-0.157819,0.050813,0.027794,0.029169,-0.027642
1765409477.624513,-9.710664,-0.184122,-0.255858,0.026878,0.031765,-0.028100
1765409477.625498,-9.805116,-0.037064,-0.136298,0.027794,0.039706,-0.031918
1765409477.629498,-9.917501,-0.019130,0.154232,0.025656,0.049327,-0.026267
1765409477.631495,-9.939621,-0.178144,0.196078,0.025351,0.049786,-0.023366
1765409477.632478,-10.063366,-0.174558,0.466284,0.023518,0.052382,-0.026573
1765409477.636583,-9.996411,-0.225968,0.435796,0.028711,0.057879,-0.024282
1765409477.639554,-9.880439,-0.324605,0.120756,0.027794,0.043830,-0.025656
1765409477.640563,-9.916904,-0.211621,0.099235,0.027489,0.037568,-0.032987
1765409477.644581,-10.049019,-0.154232,0.309660,0.025045,0.047495,-0.031460
1765409477.646544,-9.886416,-0.194883,0.224773,0.028863,0.049175,-0.026420
1765409477.649573,-9.814680,-0.147059,0.245098,0.027642,0.041539,-0.032223
1765409477.651570,-9.773433,-0.084888,-0.002391,0.025198,0.040012,-0.030391
1765409477.654576,-9.771639,-0.168580,-0.164993,0.026114,0.036041,-0.029474
1765409477.656551,-9.804518,-0.265423,-0.098039,0.024282,0.042455,-0.029474
1765409477.659565,-9.827832,-0.119560,0.101626,0.028405,0.048106,-0.030696
1765409477.660573,-10.013150,-0.032281,0.447154,0.027031,0.050091,-0.029780
1765409477.665186,-9.942013,-0.102224,0.218795,0.029016,0.047342,-0.025045
1765409477.666554,-9.890601,-0.216404,0.188905,0.031460,0.042302,-0.024587
1765409477.669594,-9.946198,-0.225968,0.319225,0.028863,0.047495,-0.029169
1765409477.670094,-10.053802,-0.140483,0.389766,0.030543,0.043677,-0.028558
1765409477.674508,-9.660448,-0.272597,-0.271401,0.030696,0.041692,-0.027031
1765409477.676620,-9.617407,-0.156624,-0.555356,0.027947,0.036957,-0.030849
1765409477.679560,-9.757292,-0.199067,-0.180536,0.027947,0.042913,-0.031612
1765409477.681537,-9.962935,-0.135103,0.186514,0.032834,0.051618,-0.028558
1765409477.684520,-10.123145,-0.107604,0.543998,0.030543,0.059254,-0.026573
1765409477.686605,-10.099234,-0.154232,0.560736,0.028558,0.056658,-0.028863
1765409477.689554,-10.013748,-0.254663,0.286944,0.030238,0.045662,-0.025351
1765409477.691554,-9.846962,-0.338953,0.059182,0.028100,0.035888,-0.031765
1765409477.695500,-9.808105,-0.210426,-0.295313,0.028711,0.037415,-0.035888
1765409477.696570,-9.716043,-0.188905,-0.418460,0.029780,0.042455,-0.035277
1765409477.699509,-9.889405,-0.117767,-0.027499,0.035736,0.045357,-0.031154
1765409477.701495,-10.203251,0.005978,0.664754,0.035125,0.052840,-0.032681
1765409477.704521,-10.150645,-0.074127,0.569106,0.033292,0.053603,-0.029627
1765409477.706606,-9.886416,-0.231349,-0.020325,0.034056,0.043371,-0.030543
1765409477.711256,-9.760281,-0.132114,-0.209230,0.029474,0.032987,-0.035736
1765409477.711369,-9.964130,-0.109995,0.248685,0.032070,0.042150,-0.035125
1765409477.712678,-9.915709,-0.124342,0.039455,0.034361,0.049938,-0.027184
1765409477.716533,-9.799137,-0.166188,-0.136298,0.030238,0.045051,-0.031154
1765409477.717569,-9.764465,-0.167982,-0.295313,0.030238,0.048717,-0.031307
1765409477.721523,-9.992825,-0.246294,0.058584,0.036499,0.047800,-0.031460
1765409477.724510,-9.980272,-0.300096,0.375418,0.040012,0.058338,-0.029780
1765409477.726493,-9.873264,-0.173362,0.117767,0.034514,0.056352,-0.031765
1765409477.729507,-9.921089,-0.127331,0.123147,0.037415,0.051160,-0.034972
1765409477.732533,-9.922883,-0.108800,0.062171,0.038026,0.048869,-0.031154
1765409477.734503,-9.911524,-0.078312,0.047226,0.037415,0.049633,-0.030696
1765409477.736524,-9.915112,-0.004185,0.087877,0.032529,0.055131,-0.034972
1765409477.739487,-10.000596,0.029890,0.302487,0.031765,0.055894,-0.033292
1765409477.740490,-9.965326,-0.157819,0.200263,0.033750,0.046578,-0.027794
1765409477.745355,-10.060975,-0.144668,0.328790,0.029932,0.046578,-0.031918
1765409477.747546,-10.056191,-0.077714,0.362865,0.028253,0.051465,-0.031918
1765409477.749556,-9.946198,-0.215208,0.156624,0.028558,0.044899,-0.029780
1765409477.750532,-9.842777,-0.228360,-0.121951,0.027336,0.038485,-0.031001
1765409477.752558,-9.829028,-0.144668,-0.302487,0.029322,0.047800,-0.034819
1765409477.756499,-9.864299,-0.202056,-0.023314,0.032223,0.047800,-0.033292
1765409477.759557,-9.864299,-0.202056,-0.023314,0.032223,0.054978,-0.033292
1765409477.761553,-9.999999,-0.227164,0.276781,0.033750,0.043830,-0.032070
1765409477.764483,-9.879243,-0.296509,-0.099833,0.032529,0.043830,-0.032681
1765409477.766492,-9.879243,-0.296509,-0.099833,0.032529,0.046884,-0.032681
1765409477.767513,-9.891200,-0.242109,0.116571,0.037568,0.055589,-0.032070
1765409477.771529,-9.891200,-0.242109,0.116571,0.037568,0.049175,-0.032070
1765409477.774630,-9.734576,-0.208034,-0.221784,0.035583,0.057574,-0.036346
1765409477.776551,-9.782400,-0.123147,-0.149450,0.038790,0.057574,-0.035430
1765409477.779560,-9.875656,-0.143472,0.200861,0.038485,0.058796,-0.031765
1765409477.781549,-9.970109,-0.177547,0.364060,0.036499,0.058643,-0.034208
1765409477.784533,-10.026302,-0.199067,0.263630,0.037110,0.055894,-0.032681
1765409477.786578,-9.878048,-0.374223,-0.029890,0.039554,0.045204,-0.032070
1765409477.787580,-9.920491,-0.206241,-0.086083,0.039859,0.045204,-0.038485
1765409477.791521,-9.955761,-0.056193,0.105213,0.039554,0.051465,-0.042302
1765409477.792541,-9.959946,-0.037064,0.096844,0.038943,0.056047,-0.037110
1765409477.796534,-9.950979,-0.129125,0.123745,0.036194,0.056047,-0.035736
1765409477.799544,-9.997607,-0.240913,0.170971,0.035888,0.056200,-0.035430
1765409477.800552,-9.997009,-0.312649,0.093855,0.039401,0.056200,-0.033750
1765409477.802565,-9.903154,-0.324008,0.068149,0.042455,0.056047,-0.035277
1765409477.805507,-9.906742,-0.310258,0.101626,0.038485,0.052993,-0.038790
1765409477.809487,-9.878048,-0.181731,-0.017934,0.040012,0.052993,-0.039859
1765409477.811513,-9.879841,-0.082496,0.052606,0.042302,0.056200,-0.038790
1765409477.814531,-9.858320,-0.149450,0.039455,0.039554,0.059101,-0.033598
1765409477.817201,-9.971304,-0.276184,0.227762,0.039554,0.060018,-0.033598
1765409477.820601,-9.921089,-0.300693,0.208034,0.039248,0.060018,-0.037568
1765409477.821101,-9.903154,-0.169775,-0.031086,0.035125,0.058643,-0.038943
1765409477.822506,-9.903154,-0.169775,-0.031086,0.035125,0.057116,-0.038943
1765409477.826515,-9.778215,-0.164993,-0.041846,0.037721,0.058185,-0.039248
1765409477.829484,-10.014346,-0.126734,0.088474,0.042761,0.059101,-0.033292
1765409477.831462,-10.046029,-0.211621,0.265423,0.037110,0.063377,-0.032070
1765409477.834480,-9.941415,-0.192492,0.212817,0.036957,0.063377,-0.035277
1765409477.836560,-9.909132,-0.326399,0.329986,0.040164,0.058032,-0.035888
1765409477.839504,-9.869080,-0.455524,-0.008369,0.040012,0.050244,-0.035430
1765409477.841475,-9.800333,-0.391559,-0.144668,0.042302,0.047189,-0.041844
1765409477.844515,-9.683763,-0.240316,-0.272597,0.043066,0.053603,-0.043677
1765409477.847512,-9.817072,-0.054998,-0.124342,0.044746,0.060170,-0.036805
1765409477.848012,-9.836799,-0.221784,-0.026303,0.042150,0.065363,-0.033750
1765409477.851528,-9.970706,-0.293520,0.101028,0.043066,0.066890,-0.036499
1765409477.854481,-9.964728,-0.296509,0.203252,0.047647,0.071166,-0.036957
1765409477.855494,-9.890003,-0.266619,0.101626,0.045815,0.060170,-0.037263
1765409477.859481,-9.946198,-0.051411,0.156624,0.045815,0.060170,-0.037263
1765409477.860476,-9.899570,-0.159015,0.010760,0.048411,0.065821,-0.033750
1765409477.862500,-9.923481,-0.318030,0.096844,0.047647,0.063225,-0.033598
1765409477.866550,-9.989238,-0.336561,0.081899,0.046884,0.058338,-0.034514
1765409477.867499,-9.989238,-0.336561,0.081899,0.046884,0.066432,-0.034514
1765409477.871540,-9.900764,-0.182927,-0.049020,0.048258,0.070097,-0.037874
1765409477.874477,-9.858918,-0.094452,0.212817,0.049327,0.073457,-0.037263
1765409477.876506,-10.046627,-0.190698,0.298900,0.041081,0.062766,-0.038790
1765409477.879499,-10.185316,-0.191296,0.390961,0.040775,0.067348,-0.039859
1765409477.881460,-9.742347,-0.387374,-0.355093,0.046426,0.067653,-0.033445
1765409477.884464,-9.629362,-0.387374,-0.445959,0.047189,0.059101,-0.040164
1765409477.886511,-9.962935,-0.080105,0.150646,0.045662,0.069333,-0.046426
1765409477.889491,-10.149448,0.019727,0.370038,0.050855,0.074526,-0.039554
1765409477.890522,-9.968913,-0.162602,0.113582,0.049633,0.074526,-0.033903
1765409477.892490,-10.017335,-0.098039,0.170971,0.043524,0.065668,-0.037874
1765409477.896519,-9.958751,-0.273792,0.022716,0.046426,0.065210,-0.031307
1765409477.899541,-9.771639,-0.370636,-0.308465,0.048106,0.060323,-0.035125
1765409477.901495,-9.833811,-0.280966,-0.154232,0.045509,0.069944,-0.039554
1765409477.904570,-9.920491,-0.276781,0.101626,0.044440,0.073457,-0.040164
1765409477.906565,-10.088473,-0.151841,0.294118,0.048717,0.070402,-0.038026
1765409477.907542,-9.940218,-0.213415,0.078312,0.045815,0.066279,-0.034819
1765409477.911614,-9.803921,-0.420851,-0.413678,0.045815,0.064446,-0.034819
1765409477.914543,-9.869678,-0.533238,-0.324008,0.052534,0.072846,-0.036957
1765409477.917513,-9.959349,-0.396939,-0.004782,0.056352,0.072846,-0.043830
1765409477.918013,-10.037063,-0.119560,0.173362,0.055589,0.077580,-0.048869
1765409477.920536,-10.007172,0.069345,0.129125,0.051924,0.078954,-0.042455
1765409477.922541,-9.843375,-0.170971,-0.054998,0.050549,0.073915,-0.035888
1765409477.926536,-9.837397,-0.243902,-0.121951,0.052382,0.065363,-0.040164
1765409477.929543,-9.892395,-0.245696,-0.088474,0.053756,0.074220,-0.041844
1765409477.931508,-9.950979,-0.188307,0.124342,0.051313,0.081703,-0.038026
1765409477.932497,-9.958152,-0.110593,0.157819,0.052382,0.077885,-0.038026
1765409477.936562,-10.120754,-0.176949,0.441176,0.047495,0.073151,-0.039095
1765409477.939506,-10.009563,-0.197274,0.060378,0.047342,0.073762,-0.040928
1765409477.940481,-9.803921,-0.368843,-0.278575,0.048258,0.057727,-0.039706
1765409477.944468,-9.757890,-0.199665,-0.477044,0.044899,0.058338,-0.045051
1765409477.946496,-9.956957,-0.090866,-0.072932,0.046426,0.082925,-0.043830
1765409477.949513,-9.954566,-0.135103,0.147657,0.048106,0.082925,-0.041386
1765409477.950527,-9.902557,-0.099833,0.047824,0.044440,0.073609,-0.040775
1765409477.952613,-9.945600,-0.162602,-0.103419,0.042150,0.070860,-0.043524
1765409477.956475,-9.809898,-0.220588,-0.518890,0.048411,0.071319,-0.036805
1765409477.959527,-9.836202,-0.344931,-0.276184,0.050091,0.088117,-0.036346
1765409477.961500,-10.058583,-0.289335,0.283357,0.051313,0.088117,-0.044899
1765409477.964493,-10.025107,-0.283955,0.182927,0.050702,0.086896,-0.039554
1765409477.967550,-10.094451,-0.148254,0.206839,0.046578,0.075900,-0.045204
1765409477.969472,-9.991032,-0.142276,-0.071736,0.050549,0.076969,-0.041081
1765409477.971487,-9.866092,-0.358082,-0.163797,0.048258,0.068111,-0.038637
1765409477.974511,-9.955761,-0.326997,-0.083692,0.048869,0.068111,-0.043982
1765409477.975545,-10.071137,-0.182927,0.111789,0.045204,0.075595,-0.044746
1765409477.979493,-9.848158,-0.211621,-0.236729,0.049786,0.072388,-0.042302
1765409477.981469,-10.020324,-0.333572,0.013152,0.045051,0.072388,-0.044440
1765409477.984515,-10.020324,-0.333572,0.013152,0.045051,0.077885,-0.044440
1765409477.986452,-9.949782,-0.179340,-0.045433,0.050244,0.071777,-0.044135
1765409477.987526,-9.907937,-0.157819,-0.123147,0.044899,0.073457,-0.045051
1765409477.992485,-9.758488,-0.415471,-0.494978,0.043677,0.072846,-0.044135
1765409477.992985,-10.094451,-0.371832,0.046628,0.048717,0.072846,-0.050244
1765409477.997503,-10.094451,-0.371832,0.046628,0.048717,0.088423,-0.050244
1765409477.999523,-9.939621,-0.126734,0.136298,0.048564,0.080176,-0.045357
1765409478.001502,-9.783595,-0.162602,-0.281564,0.048564,0.075900,-0.044135
1765409478.002491,-9.910329,-0.384983,-0.325203,0.049633,0.070555,-0.038026
1765409478.006589,-9.781204,-0.511717,-0.590626,0.055131,0.073915,-0.043219
1765409478.009524,-9.970706,-0.193687,0.155428,0.054367,0.081398,-0.048869
1765409478.011548,-10.041844,0.017934,0.433405,0.049327,0.071319,-0.049327
1765409478.014544,-10.093256,-0.031683,0.247489,0.048717,0.071319,-0.041539
1765409478.018460,-9.927068,-0.378407,-0.269608,0.046120,0.064446,-0.040928
1765409478.019500,-9.666426,-0.505739,-0.818986,0.050244,0.064446,-0.044288
1765409478.021514,-9.710664,-0.326399,-0.497370,0.052534,0.072998,-0.047342
1765409478.024484,-9.956359,-0.239120,0.102822,0.047647,0.081398,-0.048717
1765409478.026461,-9.980272,-0.324008,0.095648,0.053145,0.081245,-0.045662
1765409478.027457,-9.851745,-0.246294,-0.296509,0.053145,0.077885,-0.045662
1765409478.031543,-10.035867,-0.167384,-0.035868,0.053909,0.081703,-0.041997
1765409478.034495,-10.034073,-0.380799,0.099833,0.049327,0.076053,-0.040317
1765409478.036534,-10.211619,-0.442372,0.328192,0.047495,0.073609,-0.047189
1765409478.039491,-9.889405,-0.362267,-0.436992,0.045662,0.077733,-0.049327
1765409478.041484,-9.889405,-0.362267,-0.436992,0.045662,0.071319,-0.049327
1765409478.044486,-9.848158,-0.096844,-0.059182,0.047800,0.073915,-0.049327
1765409478.046513,-10.094451,-0.330583,0.255261,0.054367,0.079718,-0.042150
1765409478.049444,-9.640123,-0.557150,-0.501554,0.052382,0.075900,-0.044288
1765409478.051456,-9.822452,-0.278575,-0.303682,0.054978,0.075595,-0.051313
1765409478.054500,-9.857722,-0.281564,-0.038259,0.054978,0.083536,-0.051313
1765409478.056624,-10.092059,-0.356289,0.148254,0.059407,0.074526,-0.044746
1765409478.059475,-9.959349,-0.378407,-0.100430,0.057574,0.076053,-0.051771
1765409478.061476,-9.873863,-0.172166,-0.208034,0.057269,0.079107,-0.050702
1765409478.064520,-10.008965,-0.136298,-0.027499,0.061239,0.077733,-0.043371
1765409478.065483,-10.026302,-0.461502,0.114778,0.057574,0.074984,-0.040317
1765409478.069517,-9.982065,-0.431612,-0.191296,0.051618,0.072846,-0.052229
1765409478.071540,-9.924676,-0.166188,-0.353898,0.055589,0.072998,-0.053756
1765409478.072562,-9.856527,-0.090866,-0.173362,0.057269,0.077122,-0.046578
1765409478.076528,-9.905546,-0.205643,-0.066356,0.055131,0.077122,-0.042302
1765409478.079580,-10.008368,-0.327594,0.028694,0.049633,0.078954,-0.046578
1765409478.081509,-9.693925,-0.423242,-0.561932,0.051771,0.082009,-0.044288
1765409478.084509,-9.788378,-0.390961,-0.332377,0.057727,0.076969,-0.047189
1765409478.086487,-9.839788,-0.351506,-0.052606,0.057727,0.085674,-0.048869
1765409478.089501,-10.043041,-0.204448,0.209230,0.053451,0.083230,-0.048411
1765409478.091527,-9.867885,-0.228957,-0.124342,0.056352,0.084758,-0.047953
1765409478.092497,-9.812290,-0.342539,-0.155428,0.055283,0.078954,-0.045357
1765409478.096658,-9.812290,-0.342539,-0.155428,0.055283,0.078343,-0.045357
1765409478.099467,-9.930056,-0.355093,-0.104017,0.055741,0.075289,-0.050091
1765409478.101478,-9.962935,-0.285151,0.001196,0.060018,0.083230,-0.049175
1765409478.102504,-9.801530,-0.428025,-0.290531,0.061697,0.079718,-0.046120
1765409478.106455,-9.735771,-0.315041,-0.324605,0.059712,0.079107,-0.050702
1765409478.109486,-9.765063,-0.069345,-0.202056,0.054978,0.079718,-0.054062
1765409478.110503,-9.877449,-0.063367,-0.058584,0.056963,0.081703,-0.045662
1765409478.115203,-9.717837,-0.300096,-0.380799,0.057116,0.078496,-0.040928
1765409478.116540,-9.731586,-0.447154,-0.425634,0.054214,0.078649,-0.049327
1765409478.119448,-9.744739,-0.284553,-0.307269,0.053451,0.088728,-0.053909
1765409478.121460,-9.811094,-0.077714,0.025108,0.057269,0.094073,-0.048564
1765409478.124559,-9.738760,-0.343137,-0.058584,0.054825,0.088117,-0.045968
1765409478.125494,-9.848158,-0.463893,-0.150048,0.050244,0.082620,-0.047037
1765409478.129490,-9.897178,-0.513510,-0.360473,0.053145,0.081398,-0.050702
1765409478.131519,-9.879841,-0.300096,-0.216404,0.054520,0.088575,-0.053451
1765409478.134519,-9.982065,-0.220588,-0.028694,0.056505,0.088575,-0.054367
1765409478.136493,-9.982065,-0.220588,-0.028694,0.056505,0.089950,-0.054367
1765409478.139531,-9.890003,-0.370636,-0.389766,0.052993,0.085521,-0.051465
1765409478.141554,-9.809898,-0.412482,-0.357484,0.053756,0.087354,-0.054672
1765409478.142519,-9.894786,-0.181731,-0.187111,0.061239,0.090408,-0.054978
1765409478.146520,-9.885221,-0.222382,-0.219990,0.060476,0.094073,-0.050091
1765409478.149470,-9.966521,-0.412482,-0.277379,0.056200,0.089950,-0.053298
1765409478.151454,-10.052007,-0.365854,-0.114180,0.060018,0.094379,-0.053298
1765409478.154507,-9.971304,-0.371832,-0.108800,0.064294,0.095600,-0.052840
1765409478.156490,-10.017933,-0.237924,-0.093257,0.060476,0.091783,-0.056810
1765409478.159474,-10.070539,-0.327594,-0.026303,0.054214,0.088728,-0.052229
1765409478.161445,-9.927068,-0.505739,-0.333572,0.066126,0.088423,-0.050702
1765409478.162481,-9.738760,-0.384983,-0.590626,0.063225,0.090866,-0.056505
1765409478.166503,-9.805116,-0.205643,-0.344333,0.060170,0.090866,-0.059407
1765409478.169493,-9.805116,-0.205643,-0.344333,0.060170,0.096822,-0.059407
1765409478.171499,-9.885818,-0.360473,-0.168580,0.062308,0.093615,-0.048258
1765409478.174531,-9.872069,-0.389168,-0.032281,0.059254,0.099418,-0.053603
1765409478.175505,-9.817072,-0.237924,-0.291726,0.059101,0.086132,-0.052382
1765409478.177446,-9.899570,-0.393352,-0.390363,0.055589,0.086132,-0.052993
1765409478.181456,-10.051410,-0.417862,-0.078910,0.060323,0.092852,-0.049633
1765409478.184474,-9.897178,-0.527260,-0.126734,0.062003,0.099113,-0.049480
1765409478.186463,-9.703490,-0.538618,-0.499163,0.060170,0.097280,-0.055131
1765409478.189465,-9.840983,-0.399330,-0.526064,0.057116,0.090408,-0.057116
1765409478.191557,-9.844571,-0.512912,-0.370636,0.062003,0.091019,-0.051160
1765409478.194518,-9.844571,-0.512912,-0.370636,0.062003,0.104458,-0.051160
1765409478.195552,-9.805116,-0.430416,-0.163199,0.069028,0.104153,-0.056352
1765409478.199480,-9.947392,-0.334768,-0.013152,0.063835,0.104153,-0.056963
1765409478.200569,-10.043041,-0.383788,-0.086083,0.069028,0.095142,-0.049175
1765409478.202474,-9.842180,-0.598996,-0.427427,0.068570,0.094226,-0.048869
1765409478.206544,-9.883428,-0.520086,-0.352702,0.071166,0.102778,-0.054672
1765409478.209460,-9.875656,-0.453132,-0.193089,0.069791,0.097891,-0.055131
1765409478.211542,-10.007172,-0.389766,-0.199665,0.067959,0.091172,-0.056963
1765409478.215150,-9.911524,-0.450741,-0.453132,0.069333,0.099724,-0.055894
1765409478.216494,-9.743543,-0.393352,-0.574486,0.072540,0.100182,-0.054367
1765409478.217586,-9.954566,-0.264825,-0.148254,0.065821,0.102320,-0.054978
1765409478.221447,-10.118362,-0.381396,0.078910,0.067501,0.099876,-0.052076
1765409478.224537,-9.974294,-0.578670,-0.169775,0.067653,0.099876,-0.048717
1765409478.226449,-9.976685,-0.400526,-0.086083,0.070250,0.094990,-0.056047
1765409478.227456,-10.015541,-0.398135,0.173362,0.069180,0.101251,-0.052534
1765409478.231472,-9.873863,-0.489598,-0.405308,0.069944,0.089339,-0.049175
1765409478.234437,-9.970109,-0.494978,-0.557747,0.072693,0.082925,-0.056200
1765409478.236805,-9.863700,-0.358680,-0.324605,0.075900,0.103847,-0.050244
1765409478.237444,-9.772237,-0.245098,-0.303085,0.074678,0.100487,-0.052076
1765409478.241518,-9.839190,-0.298900,-0.276184,0.065363,0.095142,-0.055894
1765409478.242461,-9.777617,-0.374821,-0.475849,0.069639,0.093157,-0.051007
1765409478.246441,-9.777617,-0.374821,-0.475849,0.069639,0.102014,-0.051007
1765409478.249493,-9.802725,-0.298900,-0.143472,0.069333,0.104153,-0.051160
1765409478.251461,-10.007172,-0.184122,0.156026,0.067195,0.106901,-0.052382
1765409478.254507,-10.002987,-0.325203,-0.092061,0.067042,0.100945,-0.049175
1765409478.256603,-9.720228,-0.404113,-0.578670,0.067195,0.098044,-0.049786
1765409478.259452,-9.611428,-0.396341,-0.760999,0.063530,0.095906,-0.051465
1765409478.261446,-10.004781,-0.328790,-0.168580,0.065363,0.102014,-0.053603
1765409478.264556,-9.933045,-0.471664,-0.273792,0.072846,0.106138,-0.046426
1765409478.266446,-9.914514,-0.491392,-0.358082,0.067348,0.105527,-0.053756
1765409478.267445,-9.932447,-0.206839,-0.174558,0.061697,0.107207,-0.059407
1765409478.271436,-9.973098,-0.303682,-0.162602,0.066432,0.108581,-0.049786
1765409478.274468,-9.812887,-0.477044,-0.422047,0.069791,0.099876,-0.053298
1765409478.276444,-9.815279,-0.388570,-0.408895,0.065515,0.100945,-0.056505
1765409478.277433,-9.873264,-0.420851,-0.113582,0.067042,0.112399,-0.056047
1765409478.280450,-9.849951,-0.434003,-0.125538,0.069639,0.107360,-0.054214
1765409478.284445,-9.997607,-0.387374,-0.184720,0.067195,0.095142,-0.060018
1765409478.286437,-9.763269,-0.432807,-0.766977,0.063835,0.103084,-0.060628
1765409478.289484,-9.591701,-0.324605,-0.811812,0.069791,0.101862,-0.058796
1765409478.291458,-9.762672,-0.347920,-0.355093,0.069028,0.112705,-0.057727
1765409478.294444,-9.902557,-0.316834,-0.064562,0.067653,0.112705,-0.058185
1765409478.296466,-9.851745,-0.286944,-0.288140,0.066584,0.113774,-0.059254
1765409478.297438,-9.662840,-0.212219,-0.699426,0.067195,0.109345,-0.059712
1765409478.301429,-9.894786,-0.179340,-0.319225,0.065210,0.109345,-0.057269
1765409478.304463,-10.072333,-0.367049,0.059780,0.067806,0.112094,-0.048869
1765409478.306575,-9.825441,-0.555954,-0.351506,0.064752,0.107512,-0.055131
1765409478.309462,-9.692730,-0.377810,-0.737685,0.063377,0.101862,-0.064141
1765409478.311431,-9.713055,-0.342539,-0.828551,0.063377,0.110567,-0.059101
1765409478.312481,-10.016738,-0.338355,-0.204448,0.071471,0.111941,-0.052076
1765409478.317228,-10.024508,-0.420851,-0.072334,0.066126,0.115759,-0.058948
1765409478.319453,-10.086679,-0.364658,0.010163,0.059101,0.119424,-0.057421
1765409478.321427,-10.086679,-0.364658,0.010163,0.059101,0.112094,-0.057421
1765409478.324434,-9.879243,-0.632472,-0.471066,0.065821,0.093462,-0.051618
1765409478.326471,-10.166186,-0.472262,0.125538,0.060628,0.111941,-0.062003
1765409478.329473,-9.999999,-0.393352,-0.251076,0.063835,0.117897,-0.055894
1765409478.331530,-9.513390,-0.667145,-1.135222,0.060018,0.104763,-0.054978
1765409478.334470,-9.887612,-0.398135,-0.570301,0.063530,0.102014,-0.060018
1765409478.336469,-10.148253,-0.441176,-0.009565,0.074373,0.121562,-0.051313
1765409478.337469,-9.951577,-0.683883,-0.276184,0.073609,0.119271,-0.051924
1765409478.341454,-9.790769,-0.706600,-0.616332,0.063988,0.113926,-0.058490
1765409478.342439,-9.769248,-0.564323,-0.540411,0.073762,0.110414,-0.059254
1765409478.346427,-10.049019,-0.459110,-0.017934,0.075136,0.113926,-0.059407
1765409478.349464,-10.078310,-0.400526,-0.157221,0.073609,0.105832,-0.059712
1765409478.351433,-9.939023,-0.600191,-0.436992,0.069333,0.105832,-0.060781
1765409478.354475,-9.722619,-0.425634,-0.804041,0.069333,0.101862,-0.060781
1765409478.355474,-9.955164,-0.507532,-0.573888,0.075136,0.103236,-0.058032
1765409478.359440,-9.844571,-0.534433,-0.547585,0.074984,0.106901,-0.060018
1765409478.360443,-9.962337,-0.436394,-0.615136,0.074678,0.113926,-0.062308
1765409478.364441,-9.852941,-0.460306,-0.575084,0.074067,0.119119,-0.057727
1765409478.366466,-9.852941,-0.460306,-0.575084,0.074067,0.120188,-0.057727
1765409478.367427,-10.058583,-0.547585,-0.074127,0.072998,0.101862,-0.051618
1765409478.371426,-10.129124,-0.423242,-0.289335,0.068722,0.101862,-0.058948
1765409478.374553,-10.129124,-0.423242,-0.289335,0.068722,0.104153,-0.058948
1765409478.375514,-9.741750,-0.417862,-0.783118,0.071624,0.104763,-0.055436
1765409478.379479,-9.741750,-0.417862,-0.783118,0.071624,0.107665,-0.055436
1765409478.381480,-10.084887,-0.329388,-0.273792,0.069333,0.104153,-0.053909
1765409478.384428,-10.009563,-0.401722,-0.557747,0.071166,0.104153,-0.053298
1765409478.386451,-9.874461,-0.509326,-0.785509,0.069333,0.107207,-0.053756
1765409478.387492,-9.976088,-0.520684,-0.472262,0.072082,0.110414,-0.053603
1765409478.391479,-9.850550,-0.566117,-0.406504,0.071929,0.116217,-0.053298
1765409478.392518,-10.004781,-0.514108,-0.186514,0.076358,0.109498,-0.056200
1765409478.396517,-9.829626,-0.456719,-0.662960,0.075595,0.112246,-0.054672
1765409478.399523,-9.897178,-0.489598,-0.581062,0.074220,0.105680,-0.055436
1765409478.401492,-10.082495,-0.491392,-0.206839,0.074373,0.107970,-0.054672
1765409478.404466,-10.093256,-0.689263,-0.170971,0.078649,0.107970,-0.050855
1765409478.406505,-9.989837,-0.662362,-0.413080,0.073762,0.108429,-0.062919
1765409478.409420,-9.898971,-0.534433,-0.630081,0.070555,0.108429,-0.063835
1765409478.411465,-9.799736,-0.570301,-0.676710,0.070555,0.110872,-0.063835
1765409478.414423,-9.875656,-0.532042,-0.436394,0.083689,0.109345,-0.058032
1765409478.416751,-10.222381,-0.438785,0.148254,0.077733,0.116675,-0.062614
1765409478.417497,-10.222381,-0.438785,0.148254,0.077733,0.116217,-0.062614
1765409478.421428,-9.670610,-0.523075,-0.798661,0.078496,0.098655,-0.060628
1765409478.424534,-9.777617,-0.396939,-0.511717,0.075442,0.106291,-0.066126
1765409478.426468,-10.044834,-0.439981,0.007174,0.080176,0.112857,-0.057116
1765409478.429424,-9.783595,-0.759206,-0.332377,0.077733,0.112857,-0.056963
1765409478.431416,-9.783595,-0.759206,-0.332377,0.077733,0.102931,-0.056963
1765409478.434454,-9.730989,-0.388570,-0.620516,0.080481,0.109498,-0.063225
1765409478.436419,-9.781802,-0.473458,-0.316834,0.082161,0.109498,-0.059254
1765409478.437415,-9.900167,-0.529651,-0.254065,0.076816,0.112094,-0.059254
1765409478.441519,-9.564202,-0.680296,-0.820182,0.075747,0.108734,-0.059407
1765409478.444426,-9.591701,-0.659971,-1.076040,0.080023,0.102778,-0.062156
1765409478.446446,-9.819464,-0.612745,-0.458513,0.085216,0.112399,-0.061545
1765409478.449429,-9.828429,-0.627690,-0.384983,0.085368,0.122784,-0.059407
1765409478.451517,-9.646101,-0.371234,-0.801052,0.080023,0.122326,-0.063225
1765409478.454408,-9.874461,-0.317432,-0.362267,0.081245,0.119119,-0.058796
1765409478.456441,-9.733380,-0.608560,-0.524271,0.086743,0.117439,-0.044135
1765409478.457422,-9.759683,-0.652798,-0.662362,0.080634,0.108734,-0.055589
1765409478.461422,-9.835604,-0.635461,-0.427427,0.079107,0.120188,-0.060018
1765409478.464416,-9.647895,-0.653993,-0.783716,0.089950,0.122631,-0.060018
1765409478.466445,-10.004781,-0.601387,-0.392157,0.088728,0.109039,-0.060628
1765409478.469442,-10.052007,-0.443568,-0.233142,0.078954,0.119577,-0.063530
1765409478.471447,-9.815877,-0.417862,-0.718556,0.087354,0.116981,-0.056047
1765409478.474432,-9.497847,-0.676710,-1.119082,0.085521,0.114690,-0.054978
1765409478.476425,-9.854136,-0.673721,-0.612745,0.085521,0.116064,-0.054978
1765409478.477409,-10.127330,-0.500956,-0.239718,0.088423,0.130420,-0.060323
1765409478.481409,-9.982663,-0.633668,-0.466284,0.088728,0.128587,-0.056200
1765409478.482456,-9.992825,-0.548183,-0.370636,0.089950,0.115148,-0.063530
1765409478.485414,-10.160210,-0.499163,-0.258250,0.085979,0.115148,-0.061850
1765409478.489417,-10.076518,-0.438785,-0.519488,0.089797,0.113774,-0.060781
1765409478.491517,-9.910329,-0.285151,-0.653993,0.088270,0.115912,-0.059559
1765409478.494447,-9.788976,-0.273792,-0.589431,0.082161,0.122020,-0.060323
1765409478.496465,-9.660448,-0.427427,-1.061693,0.081856,0.110414,-0.054978
1765409478.499465,-9.845766,-0.318030,-0.976805,0.077122,0.110108,-0.060323
1765409478.501438,-10.182925,-0.358680,-0.249283,0.078191,0.126602,-0.056200
1765409478.502429,-9.947392,-0.615734,-0.338953,0.083536,0.138361,-0.048869
1765409478.505450,-9.823050,-0.694644,-0.700024,0.079260,0.122478,-0.060476
1765409478.507493,-10.130320,-0.444165,-0.303682,0.072846,0.119119,-0.068264
1765409478.511508,-9.959349,-0.300096,-0.616332,0.085521,0.121562,-0.057421
1765409478.514449,-9.805116,-0.442372,-0.742468,0.082467,0.118355,-0.057421
1765409478.519202,-9.742347,-0.608560,-0.793878,0.076511,0.125838,-0.060628
1765409478.519702,-9.933045,-0.616930,-0.534433,0.081703,0.125838,-0.056505
1765409478.521412,-9.903752,-0.732903,-0.612745,0.084758,0.121409,-0.055589
1765409478.524435,-9.937828,-0.632472,-0.412482,0.082467,0.125227,-0.065057
1765409478.526431,-9.777617,-0.532042,-0.686872,0.082772,0.126449,-0.061545
1765409478.529437,-9.819464,-0.450741,-0.879364,0.083383,0.114232,-0.062614
1765409478.530468,-9.969511,-0.332377,-0.442372,0.087812,0.117286,-0.061087
1765409478.534480,-10.047822,-0.269010,-0.337159,0.081398,0.132100,-0.057421
1765409478.536448,-9.955761,-0.481827,-0.541607,0.078038,0.131336,-0.054520
1765409478.539418,-9.836799,-0.707795,-0.809421,0.076816,0.122478,-0.057727
1765409478.541446,-9.956957,-0.779531,-0.579866,0.080940,0.121868,-0.059254
1765409478.542574,-9.937828,-0.639646,-0.387374,0.088117,0.129656,-0.059865
1765409478.545416,-9.895982,-0.511717,-0.546389,0.082620,0.131794,-0.064446
1765409478.547483,-9.907339,-0.417862,-0.670732,0.076511,0.119882,-0.066126
1765409478.551471,-9.874461,-0.579866,-0.729316,0.083383,0.123700,-0.058948
1765409478.554470,-9.561213,-0.746054,-1.186035,0.087201,0.127518,-0.056352
1765409478.556457,-9.954566,-0.600789,-0.368843,0.079260,0.127518,-0.067042
1765409478.559418,-9.748923,-0.640842,-0.532042,0.085979,0.137903,-0.062308
1765409478.561451,-9.741151,-0.723338,-0.806432,0.082620,0.119577,-0.061697
1765409478.564420,-9.805116,-0.511717,-0.757413,0.080787,0.122631,-0.069639
1765409478.566457,-10.049019,-0.344333,-0.379005,0.084605,0.135307,-0.062614
1765409478.567471,-9.864896,-0.543998,-0.539216,0.083078,0.135307,-0.057269
1765409478.571428,-9.818865,-0.707795,-0.691655,0.080023,0.117133,-0.063683
1765409478.574494,-9.858918,-0.650406,-0.704208,0.078649,0.127518,-0.066279
1765409478.576431,-9.689740,-0.601387,-0.992348,0.089034,0.127518,-0.058948
1765409478.579441,-9.689740,-0.601387,-0.992348,0.089034,0.126907,-0.058948
1765409478.581763,-10.282160,-0.451937,-0.062171,0.079718,0.130420,-0.066737
1765409478.582466,-10.113581,-0.646820,-0.351506,0.089797,0.133779,-0.055589
1765409478.586410,-9.656861,-0.695241,-1.068269,0.085368,0.125686,-0.061545
1765409478.590085,-9.980869,-0.557747,-0.577475,0.075442,0.125686,-0.067195
1765409478.591471,-9.980869,-0.557747,-0.577475,0.075442,0.133779,-0.067195
1765409478.594484,-9.906144,-0.796270,-0.814204,0.089492,0.124311,-0.061850
1765409478.596502,-9.753705,-0.631875,-0.927188,0.078954,0.131794,-0.071777
1765409478.599472,-9.699903,-0.413678,-0.845289,0.084758,0.139125,-0.063988
1765409478.601529,-9.664036,-0.437590,-0.749641,0.089950,0.135459,-0.058185
1765409478.604444,-9.664036,-0.437590,-0.749641,0.089950,0.127824,-0.058185
1765409478.606501,-9.903154,-0.506934,-0.772955,0.078649,0.135154,-0.061850
1765409478.609516,-9.647297,-0.752032,-1.175873,0.087506,0.129351,-0.054367
1765409478.611490,-9.782400,-0.752032,-0.905667,0.083230,0.139583,-0.058490
1765409478.612490,-9.996411,-0.660569,-0.619321,0.082009,0.139583,-0.061087
1765409478.616486,-9.971304,-0.770564,-0.711382,0.085216,0.139888,-0.058796
1765409478.619470,-9.937828,-0.620516,-0.655189,0.085063,0.138514,-0.063683
1765409478.621473,-10.072930,-0.548780,-0.477044,0.083078,0.138514,-0.065210
1765409478.624498,-9.655666,-0.798063,-1.031803,0.084605,0.132558,-0.059865
1765409478.625471,-9.791965,-0.693448,-1.129842,0.083689,0.126602,-0.066737
1765409478.629523,-9.965326,-0.756217,-0.699426,0.091935,0.134238,-0.061087
1765409478.631540,-9.790769,-0.940937,-0.954089,0.092546,0.136376,-0.063072
1765409478.632550,-9.946198,-0.631277,-0.799856,0.087659,0.137292,-0.074220
1765409478.636476,-9.946198,-0.631277,-0.799856,0.087659,0.142332,-0.074220
1765409478.639470,-9.995216,-0.431612,-0.505739,0.094073,0.136223,-0.057269
1765409478.641479,-9.775226,-0.670134,-0.924797,0.087659,0.127060,-0.058490
1765409478.644507,-9.949782,-0.767575,-0.741272,0.088423,0.130725,-0.062003
1765409478.646481,-9.620994,-1.001315,-1.115495,0.095906,0.132710,-0.054520
1765409478.647482,-9.620994,-1.001315,-1.115495,0.095906,0.126296,-0.054520
1765409478.651511,-9.882831,-0.543400,-0.655787,0.090408,0.135765,-0.070555
1765409478.654451,-9.716043,-0.615136,-0.786705,0.094684,0.136376,-0.057421
1765409478.656460,-9.637732,-0.730512,-1.155547,0.095448,0.122937,-0.058338
1765409478.659446,-10.063366,-0.731707,-0.416069,0.087965,0.123853,-0.063377
1765409478.661432,-9.884624,-0.878766,-0.700622,0.099724,0.138361,-0.057116
1765409478.663814,-9.600669,-1.003108,-1.148972,0.099418,0.121409,-0.063988
1765409478.665424,-9.867287,-0.711382,-0.679101,0.093157,0.129351,-0.073151
1765409478.667452,-9.910927,-0.442372,-0.804639,0.102473,0.128434,-0.063072
1765409478.671417,-9.870276,-0.473458,-0.790889,0.098807,0.128434,-0.063377
1765409478.674474,-9.866689,-0.619321,-0.762195,0.093157,0.129656,-0.063988
1765409478.677424,-10.042442,-0.582855,-0.338355,0.098044,0.134543,-0.062308
1765409478.679407,-9.705284,-0.921210,-0.873984,0.102320,0.131336,-0.058032
1765409478.681395,-9.850550,-0.662362,-0.734098,0.092852,0.123089,-0.070860
1765409478.684476,-9.941415,-0.543998,-0.621712,0.102778,0.133627,-0.064446
1765409478.686416,-9.773433,-0.711980,-0.932568,0.101862,0.130725,-0.058643
1765409478.687411,-9.746531,-0.612147,-1.131038,0.092852,0.121562,-0.066584
1765409478.691439,-9.746531,-0.612147,-1.131038,0.092852,0.135307,-0.066584
1765409478.693842,-9.819464,-0.567910,-0.769369,0.101862,0.144622,-0.058948
1765409478.695408,-9.947392,-0.652200,-0.551172,0.100640,0.133779,-0.056810
1765409478.699493,-9.848158,-0.694046,-0.723936,0.094379,0.132558,-0.064904
1765409478.701528,-9.798540,-0.370636,-0.917623,0.098197,0.139888,-0.064294
1765409478.704511,-9.561213,-0.454328,-1.105930,0.100182,0.135459,-0.058796
1765409478.706449,-9.773433,-0.460904,-1.117886,0.087965,0.135154,-0.062308
1765409478.709497,-10.083092,-0.487805,-0.603778,0.087965,0.140652,-0.060323
1765409478.711479,-9.888808,-0.619321,-0.724534,0.094379,0.149815,-0.055894
1765409478.714424,-9.703490,-0.764586,-0.982783,0.091324,0.143706,-0.055589
1765409478.716563,-9.842180,-0.743663,-0.626494,0.085063,0.142332,-0.065668
1765409478.721765,-9.994618,-0.767575,-0.489000,0.095600,0.144775,-0.060018
1765409478.722265,-9.703490,-0.729316,-1.086800,0.096822,0.142484,-0.060323
1765409478.722465,-9.653275,-0.624103,-1.178264,0.085674,0.140346,-0.068722
1765409478.726451,-9.837996,-0.610354,-0.860832,0.092852,0.143401,-0.063225
1765409478.729414,-10.014346,-0.725131,-0.659373,0.097738,0.143401,-0.058032
1765409478.730383,-10.017335,-0.916427,-0.601387,0.093462,0.144775,-0.062766
1765409478.734435,-9.891200,-0.799856,-0.857843,0.092546,0.147219,-0.073151
1765409478.735437,-9.890003,-0.371832,-0.956480,0.096975,0.137445,-0.071929
1765409478.739387,-9.908535,-0.358680,-1.031803,0.089950,0.137292,-0.071166
1765409478.741415,-9.839788,-0.395146,-1.016260,0.090255,0.144622,-0.064599
1765409478.744478,-9.769846,-0.719751,-0.932568,0.090255,0.151495,-0.064599
1765409478.745399,-9.821257,-0.748446,-0.933764,0.090255,0.148440,-0.068570
1765409478.747477,-10.113581,-0.517695,-0.483022,0.091172,0.151036,-0.069791
1765409478.751482,-10.064561,-0.484816,-0.637255,0.092546,0.154549,-0.062766
1765409478.754397,-9.754900,-0.730512,-0.985174,0.090408,0.140499,-0.063072
1765409478.756382,-9.739358,-0.662362,-1.246413,0.086285,0.136834,-0.070555
1765409478.759494,-9.817670,-0.662362,-1.074844,0.086285,0.149662,-0.066737
1765409478.761424,-9.806311,-0.676710,-1.024629,0.091019,0.149662,-0.067348
1765409478.764407,-9.979075,-0.674318,-0.524868,0.091019,0.151495,-0.067348
1765409478.766422,-10.013150,-0.743663,-0.459110,0.091172,0.154396,-0.065973
1765409478.769490,-9.950381,-0.749641,-0.655189,0.091172,0.142179,-0.064446
1765409478.770470,-9.785987,-0.646820,-1.095170,0.087048,0.134849,-0.071013
1765409478.774437,-9.817670,-0.659971,-1.031803,0.088423,0.134849,-0.072846
1765409478.776437,-9.692730,-0.707197,-1.238642,0.093615,0.144011,-0.067195
1765409478.777495,-9.878048,-0.773553,-1.074844,0.091172,0.137750,-0.071471
1765409478.781382,-9.895982,-0.767575,-0.915830,0.087354,0.147371,-0.073915
1765409478.784382,-9.994021,-0.597800,-0.620516,0.096211,0.155771,-0.072388
1765409478.786457,-10.025107,-0.679101,-0.491392,0.091630,0.155771,-0.067806
1765409478.789383,-10.038258,-0.717958,-0.775347,0.082925,0.138208,-0.073762
1765409478.791398,-9.899570,-0.774749,-1.099354,0.086590,0.144622,-0.073151
1765409478.794432,-9.650286,-0.707795,-1.480153,0.093921,0.144622,-0.072846
1765409478.796396,-9.720228,-0.594213,-1.004902,0.087659,0.151036,-0.075442
1765409478.799456,-10.034073,-0.523075,-0.493783,0.087506,0.151800,-0.074220
1765409478.801432,-9.994021,-0.584648,-0.567910,0.087506,0.152105,-0.074220
1765409478.804450,-9.510998,-0.719153,-1.417384,0.085368,0.139277,-0.064446
1765409478.806551,-9.687947,-0.699426,-1.264347,0.084758,0.139277,-0.064294
1765409478.807546,-9.929459,-0.829746,-0.830942,0.085063,0.150884,-0.067042
1765409478.811455,-9.888210,-0.898493,-0.964849,0.089797,0.151647,-0.065515
1765409478.813425,-9.689740,-1.030607,-1.228479,0.084147,0.153633,-0.069180
1765409478.815460,-9.775824,-0.842300,-1.074844,0.086437,0.156992,-0.071166
1765409478.819554,-9.860114,-0.790292,-0.920612,0.092393,0.161116,-0.065363
1765409478.821876,-9.847560,-0.844691,-0.758010,0.092393,0.156687,-0.065363
1765409478.823610,-9.653275,-1.097561,-1.227881,0.089186,0.143859,-0.066584
1765409478.826479,-9.450023,-1.158536,-1.663080,0.093004,0.143859,-0.069791
1765409478.829420,-9.775824,-0.853061,-1.154950,0.095142,0.150120,-0.076511
1765409478.831463,-9.952174,-0.618125,-0.763391,0.094379,0.162490,-0.072235
1765409478.832474,-9.942610,-0.665949,-0.816595,0.096364,0.161268,-0.069180
1765409478.836403,-9.876852,-0.821377,-0.866810,0.089186,0.155923,-0.065973
1765409478.839407,-9.809898,-1.052726,-1.080822,0.092393,0.155923,-0.063683
1765409478.841393,-9.754900,-1.158536,-1.270923,0.099876,0.146150,-0.067959
1765409478.844458,-10.017933,-1.002511,-1.152558,0.096822,0.151495,-0.076816
1765409478.846411,-9.819464,-0.749641,-1.337876,0.101709,0.160658,-0.071471
1765409478.849419,-9.780008,-0.809421,-1.340865,0.099724,0.163101,-0.066279
1765409478.851428,-10.118960,-0.873386,-0.793878,0.101404,0.163101,-0.065515
1765409478.852447,-10.057388,-1.027020,-0.710186,0.101404,0.169668,-0.063377
1765409478.856399,-9.973696,-1.070062,-0.940937,0.103694,0.160963,-0.066279
1765409478.857420,-9.803921,-0.967240,-1.226686,0.105985,0.151495,-0.069486
1765409478.862449,-10.163795,-0.639646,-0.875777,0.103694,0.147829,-0.070250
1765409478.864379,-9.942610,-0.691057,-1.209947,0.104458,0.155771,-0.063225
1765409478.866373,-9.775226,-0.885940,-1.512434,0.102167,0.151342,-0.063683
1765409478.869464,-10.092059,-0.830942,-0.720947,0.102473,0.155160,-0.065668
1765409478.871456,-10.355689,-0.914036,-0.341942,0.107054,0.159589,-0.061392
1765409478.874475,-9.940817,-1.085605,-1.180057,0.107970,0.145386,-0.061850
1765409478.876423,-9.873264,-0.773553,-1.500478,0.098502,0.141568,-0.075289
1765409478.879447,-9.886416,-0.707197,-1.241033,0.107207,0.150426,-0.064446
1765409478.881431,-9.912720,-0.871592,-1.019847,0.106291,0.149509,-0.057727
1765409478.884411,-10.059779,-0.940339,-0.821377,0.100029,0.148288,-0.068417
1765409478.886473,-9.866092,-0.705404,-1.121473,0.105222,0.162185,-0.067195
1765409478.889410,-9.736967,-0.682688,-1.344452,0.106291,0.151036,-0.063835
1765409478.890384,-9.818267,-0.639646,-1.065280,0.099418,0.140346,-0.065363
1765409478.894453,-10.090864,-0.508130,-0.763988,0.097891,0.150731,-0.069333
1765409478.896429,-9.536106,-0.815399,-1.473577,0.102167,0.154854,-0.057269
1765409478.899404,-9.575562,-0.649809,-1.403037,0.100335,0.144011,-0.066890
1765409478.901410,-10.077712,-0.600191,-0.584648,0.097280,0.153480,-0.064294
1765409478.904389,-10.050214,-0.846485,-0.633668,0.101709,0.155465,-0.058796
1765409478.906398,-9.704685,-0.925394,-1.221903,0.094226,0.145386,-0.063377
1765409478.909398,-9.515182,-0.836920,-1.449067,0.096975,0.142332,-0.069333
1765409478.911393,-9.678980,-0.633668,-1.305595,0.095753,0.144011,-0.066432
1765409478.914409,-9.699903,-0.758010,-1.134027,0.098655,0.151189,-0.056352
1765409478.916458,-9.742945,-0.946915,-1.141200,0.095295,0.160352,-0.063072
1765409478.919396,-9.754303,-0.893113,-0.816595,0.097128,0.161574,-0.064752
1765409478.921397,-9.736967,-0.729316,-1.005500,0.098807,0.153327,-0.068111
1765409478.922373,-9.821855,-0.645624,-1.089789,0.096975,0.144928,-0.067348
1765409478.925401,-9.560018,-0.650406,-1.471784,0.094837,0.153022,-0.066279
1765409478.929410,-9.551649,-0.817790,-1.435916,0.096059,0.154854,-0.061392
1765409478.931428,-9.383667,-0.952893,-1.536346,0.098655,0.154702,-0.063225
1765409478.934447,-9.939023,-0.685079,-0.846485,0.101404,0.154702,-0.069791
1765409478.935451,-9.845168,-0.810617,-0.823768,0.100793,0.166003,-0.064904
1765409478.939484,-9.879243,-0.786107,-0.988761,0.096975,0.154091,-0.066279
1765409478.941498,-9.820659,-0.936155,-1.103539,0.096669,0.151800,-0.066737
1765409478.944444,-9.790171,-0.905069,-1.309182,0.098655,0.155618,-0.072082
1765409478.946398,-9.674795,-0.913438,-1.536944,0.099266,0.155618,-0.070097
1765409478.949372,-9.692730,-0.925394,-1.527977,0.099266,0.156076,-0.073609
1765409478.951399,-10.105808,-0.724534,-0.584648,0.105527,0.166308,-0.072846
1765409478.954397,-9.800333,-0.715567,-0.950502,0.100945,0.164934,-0.068264
1765409478.956421,-9.863700,-0.697035,-1.172286,0.090255,0.151495,-0.076511
1765409478.959367,-9.699903,-0.747250,-1.483740,0.092088,0.151189,-0.069639
1765409478.961372,-9.774031,-0.978001,-1.206360,0.092088,0.150578,-0.069639
1765409478.964370,-9.530725,-0.946915,-1.427546,0.103236,0.157451,-0.067042
1765409478.966372,-9.901959,-0.866810,-0.866810,0.094684,0.157451,-0.073457
1765409478.967363,-9.901959,-0.866810,-0.866810,0.094684,0.161727,-0.073457
1765409478.971400,-9.845766,-0.946317,-1.337279,0.105222,0.142942,-0.063072
1765409478.974372,-9.845766,-0.946317,-1.337279,0.105222,0.155465,-0.063072
1765409478.976380,-9.625177,-0.830942,-1.621234,0.098349,0.154091,-0.062156
1765409478.977391,-9.649688,-0.965447,-1.227881,0.096975,0.154091,-0.065668
1765409478.981367,-9.661644,-0.897896,-1.196796,0.096059,0.156992,-0.072540
1765409478.982363,-9.874461,-0.897896,-0.948111,0.102167,0.163406,-0.063835
1765409478.986382,-9.563604,-0.891918,-1.427546,0.098960,0.162643,-0.064141
1765409478.989382,-9.843375,-0.668340,-1.043759,0.093462,0.158825,-0.066432
1765409478.990391,-9.652080,-1.064084,-1.529770,0.090408,0.158825,-0.060781
1765409478.994374,-9.790769,-1.079627,-1.462219,0.098349,0.156382,-0.063988
1765409478.995390,-9.777020,-1.187231,-1.203969,0.098807,0.169821,-0.065668
1765409478.999457,-9.928263,-0.928981,-0.795074,0.096364,0.167377,-0.069944
1765409479.001438,-9.985652,-0.821377,-0.688666,0.096364,0.168904,-0.067348
