time,acc_x_g,acc_y_g,acc_z_g,gyro_x_rad_s,gyro_y_rad_s,gyro_z_rad_s
0.0,-9.502031,-2.632711,-0.620516,-0.009621,-0.003207,0.001222
0.0025,-10.286192396567342,-2.2623758960667457,-0.12481499079856981,-0.011444994851013114,-0.015272,-0.0019269336352800942
0.005,-11.671328476908396,-2.060811716259542,0.23186728656488562,-0.08676217919847329,-0.06092062702290076,0.05869697755725191
0.0075,-12.145298290600572,-2.2864174385891327,0.2049704984556721,-0.11061567260247855,-0.1580784504861773,0.04741084808388942
0.01,-11.61433547412774,-3.0585662053384177,-0.4927882915919928,-0.10311904263107721,-0.2648958958627264,0.04509506844613918
0.0125,-11.0977067120229,-3.805204829961833,-0.38980158988549873,-0.05384432671755723,-0.32635857442748095,0.028179157824427484
0.015,-9.775702503106656,-3.5846123533571945,-1.130561724810307,0.006113875275590546,-0.345069074416607,0.023332334602720113
0.0175,-10.087826174185357,-3.6552174979500633,-0.8033801020770207,0.044353952961489654,-0.3314034434566229,0.02526207263986459
0.02,-9.590049989947643,-3.7610232368586387,-0.9901175089005252,0.09331812356020955,-0.31266901675392655,0.03812273298429317
0.0225,-10.809799797178265,-3.4148832525071486,0.15991177929456818,0.15014638268827452,-0.273362,0.042132223641563354
0.025,-9.77855019408961,-3.7047360531935154,-0.721387021925644,0.209527,-0.2711014390848427,0.065363
0.0275,-8.845049,-3.211979,-1.107126,0.260229,-0.2247935651908397,0.096211
0.03,-9.689014779904669,-3.4279173273975223,-0.2489101589704502,0.3086149488274547,-0.15584765159199246,0.10972579557673971
0.0325,-8.217754148015267,-3.176195593969465,-1.5680303547328278,0.3653668446564885,-0.06603872328244279,0.14647588977099238
0.035,-8.398848626488546,-3.4219226453435145,-1.4987798180916077,0.39828987854961834,-0.056739270992366336,0.20211472900763366
0.0375,-9.857586676381498,-3.320958280065494,-0.08677128898894892,0.45546550880065495,0.053413390421612736,0.2053616901350798
0.04,-10.124538358817926,-3.579769199466157,0.9438644021353721,0.47772952129647284,0.10800660175405147,0.26719127866539555
0.0425,-9.151129473746424,-2.5322711069208785,-1.8327637286177456,0.48960919961868427,0.13637540598665404,0.28435859393708285
0.045,-9.100115374580145,-2.2294610212213737,-0.9165613900000081,0.5207302242748091,0.18723,0.306018116870229
0.0475,-9.106885,-3.251434,-1.496891,0.539241,0.20446901834127743,0.374766
0.05,-9.245118034699704,-2.235728364728322,-1.1221390303145884,0.5203680612011438,0.24455223374642504,0.3907275763584368
0.0525,-8.966915609326424,-1.5282312308808288,-2.1185815964766923,0.5249389815544041,0.2660216849740931,0.38925007212435236
0.055,-9.92263635854962,-1.396569778091602,0.516159970610689,0.5370233713358779,0.30763541141221373,0.4058877884351145
0.0575,-9.870891352040092,-1.803940618582685,-1.5394532934573806,0.49731534708661446,0.30837140881889796,0.44727620635647836
0.06,-9.991178460591037,-0.6488061511153469,1.1938238661582377,0.47372302821734996,0.3030802814871308,0.46613038066730206
0.0625,-9.322910486177312,-1.1260251868446138,-1.0092003584366063,0.45884397616777883,0.2648467130600572,0.4486728436606292
0.065,-10.314031824861768,-1.4602074076644422,0.6815118644041738,0.46942523382268825,0.2234530637559576,0.4693505285033367
0.0675,-9.605742101353659,-2.871519905738814,-1.2907242838894295,0.4454481675881797,0.22011602253574802,0.5478162038131553
0.07,-9.982065,-0.103419,-1.215925,0.415083,0.15580392450381728,0.529467
0.0725,-9.92967978760428,0.12892235623359022,-0.8993587056019424,0.38286,0.14872295752085773,0.505949
0.075,-9.624677106959014,0.41354008999045905,-0.17627520648235978,0.32147228007626333,0.06505504918970437,0.4638004558627265
0.0775,-9.548600446444231,-0.761079809761678,-0.6772533761677795,0.26992073914204,0.0217901774642517,0.497507582993327
0.08,-10.672429646444229,0.07989239225929196,0.5610195703336422,0.21485238276453766,-0.03513189990467121,0.4574409203813156
0.0825,-8.20295617689227,-0.4360196569304051,-1.8619906744709165,0.1986616650905625,-0.09044855061963786,0.42159539580552874
0.085,-10.886387112419577,0.33109159313467407,0.46679396066752266,0.12234144300357573,-0.17181463775923714,0.3989855178069128
0.08750000000000001,-10.08418596412216,0.21931758587786412,0.1966104631679547,0.08863312786259518,-0.23701334503816898,0.3521346229007632
0.09,-9.807470947035286,0.787207596377507,-0.01657703904670227,0.015997560114394703,-0.288328,0.3220156051858913
0.0925,-9.838049394541985,0.4305846524045795,0.6577128091221369,-0.027760251297709954,-0.3325830266412213,0.2796667685877863
0.095,-9.344421075004764,0.6001370338226875,0.37731220926596526,-0.06338540472831271,-0.3357439383794089,0.23824028148713056
0.0975,-9.078312479809341,0.7204769350238318,0.7144016706196286,-0.1054033689990467,-0.33685422196377535,0.20697400457578652
0.1,-8.904711323546234,0.7469499220209731,0.6155516451858954,-0.14240267874165866,-0.313945332316492,0.169973
0.10250000000000001,-8.702263847175567,0.656873962480912,0.851441263969469,-0.18946370606870225,-0.28500564385496174,0.13339386492366406
0.105,-8.185118198817918,-0.04854266962821907,0.7796258854528033,-0.2040320876644423,-0.2061154739752149,0.10982425860819843
0.1075,-8.53778,-0.456719,1.047346,-0.175471,-0.11945325864632987,0.085521
0.11,-8.697459759351764,-1.2977771569113439,0.5724395499714012,-0.08279865876072447,-0.04450783374642513,0.05866231405147758
0.1125,-9.703806659833132,-0.21779870417163458,0.7375990340881944,-0.0025612960667460226,0.015930689868891505,0.0033669303933254826
0.115,-10.137347206722293,-0.025960392657929578,0.11162785930870558,-0.002668751609058311,0.008833429272944011,0.012374780595947453
0.11750000000000001,-10.139445836138261,0.10406936815256035,0.32146896104887207,-0.00327114264600719,-0.01533514264600719,0.00027272672228833964
0.12,-9.884325324690181,0.03636139626310707,0.2843652271877972,-0.01405,-0.019395,-0.007789
0.1225,-9.868165647056019,-0.11134130154946456,0.40040963256257445,-0.012371734588796222,-0.012750248724672272,-0.005003052681764001
0.125,-9.870115657926101,-0.1223235327771156,0.3579493301549464,-0.006567,-0.0038981072705601906,0.000764
0.1275,-10.061389070846246,0.026133369678187968,0.3995203897020274,-0.004661134874851023,-0.0030436185458880055,0.0031674325625744883
0.13,-9.967782021263409,0.044237,0.22614686131108505,-0.007717118951132352,-0.004724843528009549,-0.0016891564719904513
0.1325,-10.060687186390332,-0.054599175613122386,0.46984005789291705,-0.00901,-0.009668953851467916,-0.0018344502245249915
0.135,-9.960097181835518,-0.06403054321811778,0.3473007452205029,-0.006509563909415979,-0.004925241144219268,0.0004961278188319563
0.1375,-9.86214147818832,-0.009563496305126243,0.23390061930870265,-0.00861254278903448,-0.005178655542312404,0.0004487361144219224
0.14,-9.924887259213342,-0.006600839046486343,0.2567671139928379,-0.011092908128724887,-0.0057358100119187065,-0.0029054092967820354
0.14250000000000002,-9.984088304457686,-0.058630126293204014,0.3956962804290748,-0.010513852872467259,-0.008352705744934517,-0.0022437057449345168
0.145,-9.914660730727057,-0.02203648557807056,0.3358977836948727,-0.008648497592371854,-0.00901,-0.0013578620738974511
0.1475,-10.318642334874859,0.4420458830989232,0.9424777423599409,-0.006453560381406057,0.019079255160905105,-0.005231543265792948
0.15,-10.021193578281618,0.29935046968973034,0.3860419384248193,-0.006084005727923708,0.004295900238663603,-0.0046460494033414455
0.1525,-9.858300107556612,0.12388953025029835,0.2292273985220472,-0.006637291775923713,0.0025129949463646817,-0.0012108686054827732
0.155,-9.928510179737783,0.01722517897497034,0.1382189810250299,-0.008094309606674621,0.0007036234564958489,-0.0002446039094159748
0.1575,-9.944480051360381,0.002269907016706721,0.22021019723150353,-0.00887189126491646,-0.006066475799522687,-0.0032915936038185887
0.16,-10.040735422241658,0.04551266292937153,0.3696568643814772,-0.008980279592643622,-0.003971200019169713,0.00024555918528724763
0.1625,-10.00093061545558,-0.001801714383274533,0.34261989787336006,-0.009555667848798898,-0.004931017983585937,0.001396335697597798
0.165,-9.951888424901806,-0.10844159192773012,0.3168524313747053,-0.00884044021681068,-0.004928282837391987,0.001638717162608013
0.1675,-9.98557791423544,-0.147952064401487,0.36487410743990123,-0.008552,-0.007822699033457267,-0.003257391439900897
0.17,-10.008957110244674,-0.02950484760788595,0.3326970991875839,-0.009124693286879407,-0.005613660318314976,-0.004886259821046801
0.17250000000000001,-9.934774356747313,0.08818317685353541,0.2551550558385455,-0.007996173152366328,-0.004734,-0.004532518739525546
0.17500000000000002,-9.883176349532143,-0.0011788373435416485,0.27409284394215616,-0.009855250322031852,-0.006318798420221174,-0.00020277755498844963
0.1775,-9.922405885349376,-0.0781145493863164,0.3350323245886497,-0.011995344369911282,-0.007097361958925748,0.00067326570664722
0.18,-9.984471949318827,-0.12001187090823077,0.36539428678334934,-0.007795992355723743,-0.009354287852412494,-0.00021963437086092548
0.1825,-9.905401349608956,-0.1412619860769473,0.27050907111636724,-0.009310491907915483,-0.0068295708041627295,-0.0008504002869757164
0.185,-9.886396682881413,-0.022385527439121193,0.2858471486057309,-0.00672,-0.007205403579114282,-0.001069
0.1875,-9.9397623154096,0.028033890292313245,0.35346502742692165,-0.007225188199206063,-0.007203806387585709,-0.00031059707686755694
0.19,-9.973154044479799,0.03863265049066706,0.3422414855950223,-0.0077100102228872935,-0.006998351809088761,0.0007106454343545713
0.1925,-9.855162198040482,0.009998936170748943,0.22770497662439926,-0.004431403685910051,-0.006620114581397179,-4.6654866503899914e-05
0.195,-9.856719118874539,-0.03751318907445524,0.3037033665651996,-0.005204975150966688,-0.004664656740436045,0.0011120165660222082
0.1975,-9.900037255661045,-0.1452952420896754,0.3341297553105719,-0.007971559463595238,-0.00861655032825999,-0.0007323729757301588
0.2,-9.906843059097344,-0.1487930806416098,0.33740525793363735,-0.008160503381034748,-0.007952464758609834,-0.0009553353671961028
0.2025,-9.946766118597264,-0.03296739876710113,0.34134875455889296,-0.006775373895266544,-0.005685964189337934,-0.0015852394904859288
0.20500000000000002,-9.881707437836168,0.04121225857642539,0.3219584684747422,-0.007989116739607912,-0.005455006839664863,-0.0017917249296347465
0.20750000000000002,-9.951056073137558,0.006537514432603669,0.39640540260636187,-0.008900959043358015,-0.0075397052403807195,-0.001009536536240131
0.21,-9.948587,-0.002391,0.307269,-0.009163,-0.007585640217826553,0.002749
0.2125,-9.948587,-0.002391,0.307269,-0.009163,-0.0033533802354448724,0.002749
0.215,-9.876457266036363,-0.10048451069090908,0.37438958749090906,-0.008488179781818183,-0.004492820218181817,-0.0014525198545454557
0.2175,-9.921551007519367,-0.11535025138972331,0.37637152046798417,-0.007728894709881424,-0.005252105290118577,-0.0005664109660079057
0.22,-9.906275850664944,-0.024874240239153248,0.30195540331259596,-0.008798587887210147,-0.005056224703886239,-0.005107133492768845
0.2225,-9.880953972936899,0.02425218499474838,0.29385196189706714,-0.007892934058334005,-0.002986521893835337,-0.0038134633368344492
0.225,-9.917588337593985,0.007605328242481185,0.43467305051691724,-0.007935267293233086,-0.0009712652255639146,0.0012097844454887214
0.2275,-9.967665068621555,-0.00024995797305766947,0.42927331116854633,-0.009439803032581458,-0.003103238358395997,0.0010841327161654132
0.23,-9.911734766444617,-0.046289628170410574,0.2796701296483343,-0.008174056275755227,-0.002037131903950428,-3.836439969015722e-05
0.2325,-9.814625745096825,-0.056486237855925686,0.20732407118822582,-0.00730579311231603,-0.002657667972114643,0.0013261651742835078
0.23500000000000001,-9.852868752671347,-0.040466231194889214,0.3116160665920031,-0.007051449344585547,-0.006028808032179178,-0.0007998694534269184
0.23750000000000002,-9.909228368767254,-0.045410144222730535,0.4065395275337178,-0.009198387822383483,-0.0032508548939190604,0.0005895206246549505
0.24,-9.964364082007123,-0.006410361528002671,0.32301250179346086,-0.006361450838459042,-0.000458,-0.0009778081191324016
0.2425,-9.867974182984785,0.01641882508255093,0.26619285344124327,-0.008046844117837484,-0.000458,-0.002014842654580768
0.245,-9.864301459676284,0.0018527806896552063,0.32553079738212515,-0.008247,-0.002223871695988737,-0.002138
0.2475,-9.946096144222565,-0.07357600001276665,0.3804947115804032,-0.007789,-0.002885187429118569,0.005736967055694454
0.25,-9.949764124315124,-0.06590704345975851,0.3578208382892707,-0.007789,-0.004503873291132507,0.0036073520931964465
0.2525,-9.82138666273859,-0.06097943072716142,0.21338677112033191,-0.008602678895313243,-0.0011180897979729256,-0.0008133843466430848
0.255,-9.7824327439414,-0.06039839752362942,0.2022098212444866,-0.008213662359798358,9.439155324511098e-05,-5.8983607435414306e-05
0.2575,-9.85451738847826,-0.015962759565217276,0.3029304354347829,-0.005439428913043471,-0.0030581089130434862,-0.0009418819565217416
0.26,-9.931373510071388,-2.8169555189430217e-05,0.40118558251510134,-0.007267624360241636,-0.004234862383305867,0.002320104755628777
0.2625,-9.909736501733741,0.007348139373970379,0.33234003250960975,-0.01040833446301092,-0.0017218007374284038,0.0026968583509845473
0.265,-9.79347098907441,-0.06963855860749074,0.21084218875763133,-0.0081177960600561,0.000611,0.0027347348226365266
0.2675,-9.851903885771325,-0.11100722600890969,0.32202048239894476,-0.008778670556013862,0.000611,0.0023385561326513754
0.27,-9.996290245099678,-0.0717975694437298,0.4559221305787773,-0.009067616704180041,0.0018640394405144722,0.0007918422379421113
0.2725,-9.965050435041801,-0.05768815331511243,0.3344845547588415,-0.005978363456591615,0.002250090733118974,-0.0007523629324758966
0.275,-9.875980606850952,0.028256046156297475,0.22489546497251744,-0.006207760646857318,0.0038200582968214575,0.0013550983828567046
0.2775,-9.949386774084283,0.04773067442364394,0.3297597475248955,-0.005442608399585749,0.0016507347311399455,0.0032679790010356276
0.28,-9.997963097369686,-0.0418970857674754,0.36892994331731915,-0.006888520840739848,0.0007824909800624417,0.0014553062142685412
0.28250000000000003,-9.998715588553926,-0.04453237916166229,0.3602722016502521,-0.006600118361758344,-0.0004674629954359978,1.2664119625253618e-05
0.28500000000000003,-9.916738229875346,-0.07921848152758966,0.21558995633187786,-0.006904641454545459,0.0010913629122667535,0.0027169129749900485
0.28750000000000003,-9.893845222453354,-0.026961183437871475,0.22703729257641936,-0.007285941818181823,-0.00043467107582376,0.0005548233584755568
0.29,-9.918929180360188,-0.01844488674881456,0.29112020949762907,-0.006109,-0.0001330022938388929,0.0024304340853080297
0.2925,-9.966998283650046,-0.029602184797742376,0.32481943932737556,-0.005916086349952965,0.0010045550470366893,0.0031906176528692415
0.295,-9.980116064808893,-0.014384000895885495,0.29867621778787656,-0.005563519483891918,0.0011148098872027713,0.0028921452016554268
0.2975,-9.928740690994077,-0.05406021750547735,0.2559477881522359,-0.004133991219670542,0.004363583049582065,0.005231295914955762
0.3,-9.909754334131737,-0.10934266049479961,0.2528261471950835,-0.005423966199180579,0.000486361282697783,0.0042682855341947745
0.3025,-10.013788945171147,-0.1510015827359942,0.3277004905839153,-0.004802328911524345,-0.0006847226483477457,0.002152518465000601
0.305,-9.949712819924148,-0.10319609927686496,0.3054856654260431,-0.0029439856485461375,0.002129157107458914,0.0030208572439949484
0.3075,-9.945488468234304,-0.016553585611462446,0.26956011719511175,-0.005507760596713017,0.0015891824458491369,0.000997056957437846
0.31,-9.941090179282906,0.017973657924955318,0.2636634092102441,-0.0019639620583680748,0.0009347849958308519,0.0025489110375223334
0.3125,-9.986264507087553,0.03589375306730197,0.34654462989874923,-0.0038712587254318047,0.0006487529481834425,0.004074623466349018
0.315,-10.025040663060278,-0.06276648362110868,0.3712757185427245,-0.004339937867078832,-0.00021693786707883224,0.0044267968293221415
0.3175,-9.959424840155744,-0.14838324414999396,0.2666555457936982,-0.005894290554690305,-0.0025877540864981423,0.003035697488918175
0.32,-9.951552304554873,-0.11079214087730627,0.21987783756879253,-0.004235297028164453,-0.002251904389770157,0.0035836473324700516
0.3225,-9.960684488381354,0.0003105795370674097,0.23712638661379093,-0.003586938284234378,-0.004066290508255105,0.0022877784817092865
0.325,-10.016738,0.071736,0.380201,-0.004276,-0.004145615691318319,0.004276
0.3275,-10.016738,0.071736,0.380201,-0.004276,-0.001957429762057866,0.004276
0.33,-10.036339340321604,-0.019879434026429506,0.3431242372997927,-0.006666703671389902,0.0009237079828052636,0.003629196115268278
0.3325,-9.970472373609297,-0.11468866761343804,0.2857397011813401,-0.006028977143766912,-0.002645557242477338,0.005031526699570142
0.335,-9.946058534723868,-0.1602568829486146,0.25558261353289585,-0.005470203355210466,-0.004276,0.0039664086665599325
0.3375,-9.991211758171923,-0.06693831882503518,0.2676235290699537,-0.0011127465023210758,-0.004276,0.0019160875780374399
0.34,-9.990699484950495,0.006391895643564771,0.33889195643564346,-0.0029034762376237786,-0.002725186534653463,0.0018122168316831977
0.3425,-9.980847352912148,0.04875268515794482,0.3255931849127769,-0.004539043862957742,-0.002473053691654877,0.00483204320289175
0.34500000000000003,-9.969516708380388,0.027306555399503774,0.2639515111669192,-0.003944337061505228,-0.001089714215788193,0.004290055708230013
0.34750000000000003,-9.963432773240966,-0.005483864920910249,0.2437029906246392,-0.0035374798614478675,-0.004429102971943263,0.004606933762844949
0.35000000000000003,-9.994888105894569,-0.07536432490415437,0.31255888605431414,-0.004836005766773183,-0.00618518490415337,0.0056166705111821225
0.3525,-10.01275284951689,-0.09789332737135249,0.37497307239133026,-0.003530544971546214,-0.0055299260782177145,0.003104471049763928
0.355,-9.941244274794283,-0.01806564707573273,0.3023950152065075,-0.0028798910589907622,-0.003971,0.00463472651978205
0.3575,-9.898177553492854,0.02153563115533419,0.2533885990081342,-0.002626503823738452,-0.003971,0.00349696814972756
0.36,-9.933005095337778,0.014764815108856104,0.2724267087851788,-0.0026436308525576726,-0.007567842950026548,0.0038830054398489534
0.3625,-10.012520304230339,-0.00816478090742806,0.32198490129211144,-0.0027382866599799396,-0.008040503321729894,0.004922363325269923
0.365,-9.99822339044776,-0.04623814507462679,0.31534911552238826,-0.003420812238805968,-0.004838302388059703,0.006811187761194032
0.3675,-9.883446348613633,-0.06649329679643017,0.25795978788429,-0.00403634038775196,-0.004345395836282507,0.00619565961224804
0.37,-9.817072,-0.090866,0.188905,-0.001527,-0.004691076543628215,0.004123
0.3725,-9.84983159984801,-0.06410165030156824,0.23129976573944497,-0.0018004637804583828,-0.007822306439083231,0.003876936323281062
0.375,-9.965520901387213,0.030415649577804585,0.38101529523522315,-0.002766190892641737,-0.009560868214716526,0.003007971652593486
0.3775,-9.88936189472554,-0.015339897356059607,0.2823525035297275,-0.007061461554153807,-0.005758733646490404,0.005067656754798016
0.38,-9.874092548243222,-0.03735440827851763,0.24274403966629243,-0.007987427453874534,-0.006059815421145518,0.007511380702711372
0.3825,-9.943483112273384,-0.07054193120487735,0.31716383192042374,-0.004775921623616228,-0.007344249523503934,0.005969555090646554
0.385,-9.950979,-0.074127,0.325203,-0.004429,-0.006927683719554896,0.005803
0.3875,-9.929254454108616,-0.10268517322958831,0.3157933443982964,0.0006068958098943258,-0.004123,0.005934479049471629
0.39,-9.87883338965985,-0.09213932449398028,0.2699858820440563,0.00027006812680721126,-0.004123,0.004250340634036056
0.3925,-9.860342643333333,-0.027563609333332746,0.2516478953333333,-0.00034109533333333806,-0.006346024666666688,0.005271012000000015
0.395,-9.94593829586126,0.06820903522849757,0.4024506924021558,-0.00092491451605342,-0.005716586444808991,0.0066815730114834744
0.3975,-9.950344428432155,0.03784939747519701,0.36523570542301353,0.000951726071400687,-0.004591093573939527,0.006181080912428713
0.4,-9.855436940093185,-0.03867449231619707,0.25931878033641276,-0.0031091807944405012,-0.003775289362710269,0.006086898791755506
0.4025,-9.788114601487798,-0.07085053087893894,0.2167472406254438,-0.003741820819710975,-0.0050397413503909146,0.0058335115565031955
0.405,-9.808287943028766,-0.07385057877749576,0.247188924483926,-0.002924071332487299,-0.005266615977157361,0.0047603270642977875
0.40750000000000003,-9.878659300562715,-0.06293622912732323,0.3293052031855099,-0.002855601850262412,-0.004996911263710009,0.003665
0.41000000000000003,-9.923337326833247,-0.007948538786332528,0.35756819541050067,-0.0014549905354410862,-0.004373795451300281,0.0035343251402346755
0.41250000000000003,-9.860299860559191,-0.0062435515050569615,0.21882098960142707,-0.00035138715050563746,-0.003225966876859028,0.008065776466389092
0.41500000000000004,-9.855923267974603,-0.04461927225396957,0.17887503789206435,0.000611,-0.0042967245079365115,0.01069
0.4175,-9.877812708076192,-0.13715194323809457,0.23907162232380913,0.000611,-0.004550546476190474,0.01069
0.42,-9.89426344637488,-0.13721436960989578,0.3664870433872503,0.0006349197145575618,-0.0055796796955280906,0.006069590057088506
0.4225,-9.933527678991437,-0.06614033857913136,0.3575410572153505,0.0010157061148112888,-0.002024564744687618,0.0030224674437044244
0.425,-9.901975397396718,0.03490037116985966,0.3074730437545479,0.0019599564556552628,-0.0024179564556552624,0.0033754046244643824
0.4275,-9.868493335935046,0.07504011283355923,0.3110375946847089,0.00019454769147496924,6.239498782137641e-05,0.006681536725304461
0.43,-9.900179398059299,-0.04295475568733068,0.3640077784366576,-0.0007221987061994567,0.00045749811320757025,0.00809456894878705
0.4325,-9.936580307644876,-0.15950808372442662,0.3153169865010944,-0.00106625036444952,-0.002291,0.00884500145779808
0.435,-9.903177339948616,-0.18127933125701778,0.23240624482063,-0.0008377567837092019,-0.002291,0.007931027134836809
0.4375,-9.840914902861993,-0.10748425503274314,0.23910450339558573,0.0033135206160562697,-0.00018636211496483174,0.0067154362114964835
0.44,-9.880099381442438,-0.056822937553148774,0.332749761967108,0.0074038136028880906,0.00038155449659045353,0.008169129553148817
0.4425,-9.978228777825022,0.00819480492933082,0.4239520833687655,0.005532065618502504,0.000983392912042987,0.007785777376474709
0.445,-9.960826873379835,0.03389951063728604,0.376359756550412,0.003016539020291687,0.0007318791819911213,0.007073641255548508
0.4475,-9.837929539743286,0.0537799414784883,0.2407869743142376,0.003200175987639653,0.0015201759876396531,0.009859778526265763
0.45,-9.792767492247023,0.005228876599100897,0.18820892971054579,0.0025823539080368956,0.000458,0.008597674406498938
0.4525,-9.9074657782822,0.010172789626942215,0.36569606902437196,-0.0009539746478429089,0.000458,0.009102982345610855
0.455,-9.949091744015842,-0.04349403569425782,0.3793386338883168,-0.001597963399603962,-0.002112455749702988,0.0069277574431683
0.4575,-9.931787383614283,-0.03886712136587686,0.3245525049801605,-0.0006366526680293267,-0.0012285690705783143,0.008716514526872696
0.46,-9.869964711468397,-0.05315584587358201,0.24107372247649955,-0.003976526794165295,-0.0031044591636952856,0.008617946515397093
0.4625,-9.875044441880064,-0.0734747675202595,0.2862831531928691,-0.0013814286547811764,-0.0012877205186385577,0.0097863354943274
0.465,-9.900343071188933,-0.1499836884784529,0.30891978255377006,-0.000731245232269925,-5.573569680977536e-05,0.010940264303190225
0.4675,-9.887735502100368,-0.1601083827139575,0.2635064978996322,0.002297778938016282,-0.0006035753425417793,0.007922124728257091
0.47000000000000003,-9.876006253463816,-0.06941472397758583,0.2713292832357351,0.005651,0.0028915505295556932,0.00733
0.47250000000000003,-9.847313784777839,-0.0011459798405800137,0.26539251090205973,0.005651,0.004155204189093221,0.00733
0.47500000000000003,-9.923013002484769,0.15480142461027158,0.3151329173379764,0.007733918129302793,0.0028678208435546156,0.006918618200522303
0.47750000000000004,-9.99146542449632,0.16670608542533846,0.3587836169154078,0.004058882041623751,0.000967655424546938,0.008945737902983331
0.48,-10.001619316285097,0.0318739596832261,0.38539328336933115,0.004350802908567311,0.0004744375233981302,0.01030141820014397
0.4825,-9.95837027449964,-0.07493069018478456,0.28535769863211,0.004831431696664263,0.00018631188864890992,0.012703303950083978
0.485,-9.88170754190334,-0.1973568928471515,0.18969162449037316,0.005909049508840859,0.002631227200000007,0.011957930690766224
0.4875,-9.805845849398821,-0.15991881551277032,0.21087409573280932,0.007042088408644396,0.0013729360000000056,0.009190019662082527
0.49,-9.941327352521029,-0.037683197202595976,0.35254475890410947,0.006411654832972846,0.0013482762701273678,0.008286259572218206
0.4925,-9.933007003944093,0.021641066860883337,0.3364313281995637,0.006303055656071238,0.0019622292032788814,0.008863062235065167
0.495,-9.898392145943381,0.048498550599399,0.3021679270631029,0.006489423295903845,0.002138,0.008393464817333541
0.4975,-9.916236013980704,0.05841217914281195,0.3150558100047446,0.0053493062628499136,0.002138,0.010546005775739362
0.5,-9.91025998921285,0.02970802829672477,0.24923406198702416,0.003850532869538028,0.0005832185570233721,0.012226280700383023
0.5025000000000001,-9.9739581329352,0.011088079112013951,0.33743149175643133,0.0022227114547017524,0.00020781966075196506,0.012351686881888537
0.505,-9.982107567624698,0.011668411794707245,0.36256871467201285,0.0032198290777866886,0.0011204004362469946,0.010392594816359268
0.5075000000000001,-10.018802682351243,-0.01799022821812423,0.3686003390890138,0.0034762971451483622,0.0021479544635124555,0.013603070492381797
0.51,-9.88261223851478,-0.04158120436914232,0.24413011054073513,0.005244767065609238,0.00027911646719538095,0.013211650598413857
0.5125,-9.843888297914052,-0.11479277920028563,0.20355143467814285,0.007279152901799025,-0.001973143255035515,0.014118090921044777
0.515,-9.826308625217184,-0.17889982678185742,0.1901533137509007,0.00914703130309577,-0.004429,0.013351035401967828
0.5175,-9.970458533549618,-0.17342773064885506,0.3335660774809137,0.010889013454198513,-0.0023329431106871384,0.00981176295801535
0.52,-9.954957112854277,-0.11555136102418799,0.37339394915870155,0.009944543098525077,0.0020673931138643167,0.006900461158702061
0.5225,-9.906880985854869,-0.0034972509309750544,0.3057178024495585,0.010605857401769902,0.0034846719433628114,0.00633317844955753
0.525,-9.842905363011033,0.10156073012654158,0.17515754435431685,0.008118446155094081,0.0013097581440622904,0.007753823491239468
0.5275,-10.01120827530175,0.14427182993186188,0.34193454380921273,0.006559361301103199,0.0005306409993510804,0.00918277196625566
0.53,-10.158941037798629,0.15768123734054232,0.519906409228564,0.004373388875457283,0.0004023888754572833,0.014224792683314806
0.5325,-9.956542686712265,0.0021427419818690063,0.24871183238110678,0.003481924151423582,-0.0004890758485764182,0.017026777222840753
0.535,-9.850311403456676,-0.10785402345667425,0.13055553145667617,0.00672,-0.002493377021077313,0.014422751906323172
0.5375,-9.96677373565964,-0.08974910232630773,0.26659128232630636,0.00672,-0.004868021030444944,0.013422470975800165
0.54,-10.078533266133915,-0.1567693369595737,0.4284340693990939,0.0076073648134852455,0.00168,0.010050364813485245
0.5425,-10.042334727086,-0.033495783408772545,0.37120018256282233,0.007232581133135636,0.00168,0.009675581133135635
0.545,-9.98547101066731,0.12306530283184257,0.2358940839153173,0.0071082630282540225,0.0022022514014327973,0.00993162009498521
0.5475,-9.884554327792,0.024167611981003506,0.17029878868550302,0.0056902418739434996,0.0003976506705304771,0.01624772265314333
0.55,-9.961598626976894,-0.0831204613576414,0.27063315676021477,0.005703440825137971,-0.003040699912049214,0.01388096055009198
0.5525,-10.006706594137682,-0.17734390609738512,0.2997026983353321,0.008392161727032851,-0.0008642360949868149,0.015673441151355234
0.555,-9.957180306807786,-0.21954516093016138,0.2881076622713223,0.009470223631025974,0.0009194472620519497,0.012055881844870126
0.5575,-9.937318411331114,0.05893124336106472,0.2808469918968385,0.011469149251247923,-0.00026506509151413555,0.008979354642262889
0.56,-9.99580671146953,0.1471690054616812,0.3368134065540174,0.009870289494674445,-0.004276,0.012263332159846298
0.5625,-10.101225253864019,0.19736831136381836,0.39705257363658203,0.009100253303435574,-0.004276,0.014956359493873628
0.5650000000000001,-10.02786210154583,0.07158190630469152,0.3789274285372079,0.00901,0.000577812114340593,0.018432484330884784
0.5675,-9.778723235157315,-0.16744919459265512,0.05358461173346013,0.0091421250819476,-0.005226312668979563,0.02073453504964709
0.5700000000000001,-9.842722661691546,-0.1622605552238796,0.14690018149254133,0.01005074348258709,-0.0058597051741293375,0.01626243641791032
0.5725,-10.021773909910836,-0.0471078565530714,0.45674718037376466,0.00986504623915964,-0.0029210300085501257,0.012818788518382793
0.5750000000000001,-10.04573519660116,-0.028845725161082462,0.40519072479058993,0.009090408440721629,-0.002443,0.012636434407216499
0.5775,-10.024186038472719,0.07146359878186719,0.38507520419886965,0.008340982217095394,-0.001022258825700762,0.011641810617141531
0.58,-9.898698756239982,0.026134366436855447,0.23949762473581837,0.008656568905143552,0.0003953481005370389,0.01757363566726325
0.5825,-9.850898018703603,-0.11678398844292373,0.23071719804840085,0.009778498716053234,-0.006832327728581484,0.017698475857131742
0.585,-9.901006003905547,-0.21213281686738988,0.28287983456491456,0.010267453527248952,-0.0052913496690906526,0.01726081418089714
0.5875,-10.026179490921598,-0.14289907964236467,0.42258129367262875,0.010770583081155439,-0.005714557565337018,0.01388968514442912
0.59,-10.003270868362426,-0.00789249560139807,0.36027462280863337,0.015366557597588003,-0.0024251541320216307,0.013507084271659787
0.5925,-9.928437512233433,0.07515668817021337,0.30524645953069873,0.015287513609726414,-0.001069,0.015537628547112494
0.595,-9.933107077655414,-0.02641917456482889,0.3120108511545271,0.013868210586145617,-0.0019326953463586975,0.020375174351687415
0.5975,-10.045813475045607,-0.07782747759961552,0.38189844631781084,0.014813,-0.0053360929044647225,0.016917298626980267
0.6,-10.041547359066199,-0.040732204669012506,0.38109842481611783,0.014772892548768792,-0.005474053086024999,0.013376406140070345
0.6025,-10.022503146568596,0.034440332842981564,0.3620550506427883,0.014261514742564752,0.0006708638311481527,0.014529102014710603
0.605,-9.808258452924886,0.10733395501708533,0.23767215172951273,0.013369749336370727,0.001230991384209615,0.016811311175588994
0.6075,-9.799990411363828,0.10432733730351892,0.22489575511060467,0.012602222631736694,-0.0037607609184102473,0.01652278148072657
0.61,-9.799137,0.104017,0.223577,0.012523,-0.0030466965061084813,0.016493
0.6125,-9.870818492551926,0.012403789313937486,0.2265955904049232,0.01887216353591151,-0.0028148717532694234,0.01700039753828941
0.615,-9.84188530416113,-0.018720562856143676,0.21344420780194423,0.013832046850828748,-0.000798971743478572,0.018120179027904044
0.6175,-9.779798890543633,0.033261875693850126,0.22294199886981442,0.010011662718168748,-0.0026174389270386977,0.013548423118740917
0.62,-9.866536924251253,0.020406750411591377,0.2790022771148793,0.010439365607833768,-0.003073772253801448,0.01657704016877637
0.6225,-9.878014411253883,0.05334243825810117,0.3054508348793891,0.011841807833771225,-0.0035838271347822734,0.018744982109704687
0.625,-9.907695005393222,-0.010295554213957982,0.3038806867101344,0.011565814859534734,-0.0014935270063591724,0.020132195282942928
0.6275000000000001,-9.834025430185944,-0.12786216880946902,0.22718431158657154,0.010792655706351104,-0.0008495090654431148,0.019616474494083543
0.63,-9.915348131003952,-0.07901224202371528,0.2165718433644269,0.012226912708300399,-0.0013124866213438747,0.01669342546086956
0.6325000000000001,-9.904685639296254,-0.0010765769314943722,0.3138666299092627,0.014750126771489886,-0.002355959379372396,0.019065800933711977
0.635,-9.967209443676664,0.04277666247281307,0.38290254374177485,0.013308398323751467,-0.00036005521091638784,0.018510898901433814
0.6375000000000001,-9.907204068839539,-0.0538904720630417,0.36848033703438243,0.012317972564469894,0.00629677893982832,0.0192183393266476
0.64,-9.73408980801097,-0.09961897212131005,0.15480959437328473,0.01692561476367159,0.004007698738506189,0.018274006120341982
0.6425,-9.847298669782528,-0.0582564513910954,0.34911759141179904,0.015725823168795373,-0.00015700404556430892,0.01837342797376595
0.645,-9.96826170019468,-0.01454058393251089,0.3895749936664495,0.015071589123945486,0.0016218735107073438,0.017170045554834514
0.6475,-9.92809378844906,0.051051553329006204,0.26856006912394714,0.014292471979234275,0.003180958364698226,0.01574109707981832
0.65,-9.840895222481754,0.12384227055961058,0.2595419788807791,0.015272,0.002427979367396507,0.019158003357664273
0.6525,-9.917872126033233,0.057287262015813266,0.31573426495478796,0.01433310516309238,-0.0003500630573308762,0.020460574450598876
0.655,-9.952295978099702,-0.03322346728589787,0.3697436481976998,0.012968462155943744,2.919749467405607e-05,0.02023321668512995
0.6575,-9.955875782618788,-0.025504216984645736,0.36491299980171715,0.015391361010760444,0.004455968482650155,0.02028879781888526
0.66,-9.816221997760161,-0.04346414868730665,0.26731827376450035,0.01473150476174584,0.005448642049570201,0.0195233210247851
0.6625,-9.829298789668698,-0.014169999682884345,0.31649012652924935,0.01740391659851454,0.0035777787532337646,0.01858788937661688
0.665,-9.88322759401834,0.011995864284035623,0.356585044269927,0.016493,0.0018979321326122328,0.022755
0.6675,-9.902386973505761,0.0699679240379336,0.3457771259565797,0.016493,-0.0009883433686025344,0.022755
0.67,-9.867500607894865,0.0028182678932410915,0.27824853049403625,0.015705174663746234,0.0005391848203131692,0.021741660582461245
0.6725,-9.821790113233735,0.0006083534554215016,0.24109856772048202,0.016490443816867463,0.0022875711132530037,0.020980301744578315
0.675,-9.99351791104856,-0.09480826729220293,0.29420741992337485,0.013754713378684873,0.0038599284854170996,0.020074800578622237
0.6775,-10.10134930505278,-0.02079711836109184,0.47310814513409893,0.017511516281179123,0.0007295327015403976,0.019072877150676366
0.68,-10.038763063631077,-0.010459325584098915,0.3375642022971157,0.015701243004163753,0.0057552431172912125,0.020368395886558265
0.6825,-9.87231470096944,0.00923864700762036,0.2799473029585986,0.01733642515515751,0.005126707106606961,0.021123792376463193
0.685,-9.893851632266152,-0.005299689954195332,0.2555153772565121,0.0169459564778207,0.0031872695178399354,0.022013563295564205
0.6875,-9.938054621504339,-0.030612258980231434,0.3918997747107039,0.02003442737463838,0.003766160318225651,0.025776985474927676
0.6900000000000001,-9.89295014895527,-0.03286358841157037,0.21633289481587173,0.018460619320373045,0.003866042348664469,0.021084633655761027
0.6925,-9.884529389265055,-0.07199749877667148,0.35701725580844024,0.020232276889521103,0.004498303679468943,0.021211417382645804
0.6950000000000001,-9.812146265432919,-0.041259416527116004,0.19354215235965228,0.017152738426894926,0.007230298325404453,0.019903350837297773
0.6975,-9.85382571167379,-0.0046857611859690215,0.1775046277305113,0.016845009571884124,0.0033583004057263065,0.020560434051156803
0.7000000000000001,-9.992855917996108,0.036550067363811174,0.2848826063229568,0.01891036050583663,0.003971,0.022978090710116764
0.7025,-9.99336422575227,-0.040686361170558134,0.2706550892282749,0.020987792204928676,0.003971,0.024146858544098582
0.705,-9.859047068114924,0.004841956243867888,0.09328401555710907,0.021584940098107956,0.011737485942536863,0.022661749039943953
0.7075,-10.011328585392821,0.027781954586934682,0.328537997212491,0.019216397720158825,0.007249420636922806,0.021788956278128158
0.71,-9.951541587424165,0.045131380459407136,0.44666207057338575,0.02128513668595472,0.009687972989654601,0.02167155483780466
0.7125,-9.841260614331638,0.05905417021450711,0.21071316486059755,0.024186509521304602,0.007347998024431565,0.021952253772868083
0.715,-9.822850082329104,-0.0033281931975991524,0.15635574729615453,0.018477861618963403,0.007025,0.02592833613061861
0.7175,-9.926986185319466,0.03723239369070809,0.24218486288718816,0.021471644645102345,0.004084924233626665,0.02543979649331351
0.72,-10.282023612036772,0.04577582656990881,0.6851684599322729,0.025032829511369138,0.00133104458635698,0.027520095597484303
0.7225,-10.013133451817446,-0.022963310162877802,0.31974031577487044,0.02477495523302693,0.0068833737203677515,0.02493712536687628
0.725,-9.749158865876886,0.030422318373984108,-0.04794305096399763,0.01829239066202089,0.0043004716840882844,0.02445645704994191
0.7275,-9.897678309897021,-0.010833037636856946,0.2088115200867245,0.019904835056910593,0.002564617647696452,0.026812606915989193
0.73,-10.176785119928528,0.20215250757924333,0.5445214139589815,0.021558224157862023,0.0017441011808576367,0.02401582194841513
0.7325,-10.112504445919825,-0.01747414688937579,0.4461514299192029,0.02193131909881915,0.007218332628962177,0.029116143837787527
0.735,-9.69191777936669,-0.13718253762952265,-0.06701778439448963,0.02548058895818227,0.007006810748529554,0.029169
0.7375,-9.7808097515591,-0.04930103751510599,0.09914995547498483,0.023029602755619973,0.0024909468213680603,0.029169
0.74,-10.04682335398477,0.02588345066624339,0.4749185288071052,0.019032979187817274,0.0011955475697969576,0.02499575801395941
0.7425,-10.062613679958996,0.030300256974168986,0.4491329508815027,0.01962796136121369,0.0025102504469045332,0.02527160590405911
0.745,-9.913334398842762,-0.006364018916492996,0.15810171677832996,0.02318986288828338,0.005498,0.02841940416412887
0.7475,-9.813869259326813,-0.023946448510979698,0.09480480217021824,0.02293271891008174,0.005498,0.026879061314313158
0.75,-9.833169753571429,-0.01848373571428571,0.12255431071428571,0.023079592857142856,-0.0017330988095238095,0.026459592857142857
0.7525000000000001,-10.113256886219055,0.05066735487619208,0.44890861105715035,0.0247323483619048,-0.002241574949206361,0.023918044361904704
0.755,-9.963773626666667,0.050373095474972866,0.2245559860684948,0.023324782135440876,0.004654488755617555,0.022550949167828915
0.7575000000000001,-9.746217104506002,0.022007217798479063,0.04477195729345107,0.022622849860259864,0.0015059087080164608,0.025309557268938583
0.76,-9.966019405009387,0.06273994991097921,0.3475238765578637,0.02341232847332405,0.001541836562708176,0.02498769809967905
0.7625000000000001,-10.065856057615214,0.05894391810089011,0.4139544332344231,0.023508848519348396,0.0034811274874341947,0.02741212925573797
0.765,-9.93451686152348,0.01224351179833489,0.10968206086382726,0.022265775969844505,0.007421672090466489,0.026503072429715713
0.7675000000000001,-9.83610266600901,-0.08367833189945789,0.059034382717574024,0.023543624083471732,0.006868834697652284,0.02742628277922699
0.77,-9.856871565300597,-0.07914972608633543,0.11529905319287448,0.024103188083960416,0.010716811916039586,0.027655232487920792
0.7725,-10.133923201438412,0.08966228908356196,0.5651335891390035,0.02676677876277224,0.008053221237227761,0.02778147688554455
0.775,-9.961473632513574,0.14083080399233375,0.40683686448418843,0.022803039412328318,0.006204589045033455,0.030460307058447787
0.7775,-9.832843063059727,0.032219797566274105,0.18561194373044035,0.021652653414244664,-0.0028737482018523306,0.031227231057170225
0.78,-9.91788389486429,0.02156101916277431,0.2532149770515169,0.02341967461264545,-0.0037251562364485134,0.03343556140223153
0.7825,-10.026516932705546,-0.1346898321721911,0.39408859452401523,0.027347789500672584,-0.002711181501938762,0.03166152050011872
0.785,-10.057706060477948,-0.0253299291547708,0.40824577673777107,0.02955981393424217,4.6042187650432726e-05,0.02734081638492384
0.7875,-10.04765251223737,0.026948353520448616,0.44192549969526834,0.0287895688532478,0.005824562052926974,0.029138615493183626
0.79,-10.006450668342948,0.053299913014618824,0.2399010759857782,0.027844654821019367,-0.001527,0.02957519120031612
0.7925,-10.053011419957329,0.06023518059265108,0.3672009367206629,0.028350921068352426,-0.001527,0.0321056938506519
0.795,-10.097715480252308,0.045083955587794405,0.40596072674603845,0.028405,0.0017435666419617394,0.032376
0.7975,-9.883485136185593,-0.04846911724411216,0.2115493667801368,0.028150118419211938,0.004305102210305421,0.032630881580788064
0.8,-9.777030927984438,-0.07894971495258962,0.031296509214682244,0.03045897345003652,0.0009870042791149274,0.031894675516654494
0.8025,-9.947842072720173,0.013934562469701053,0.36701780813627755,0.02880004960678697,0.004734,0.02920143375168327
0.805,-10.028095,0.013152,0.475849,0.0281,0.004900411974502038,0.031001
0.8075,-10.028095,0.013152,0.475849,0.0281,0.007197252949800793,0.031001
0.81,-9.81909647639394,0.0530213837620441,0.20137990903501396,0.0298150764122955,0.007375588337666307,0.032609366786970524
0.8125,-9.821681893689382,0.04612748734097494,0.28681898072805134,0.030289864214636607,0.0032740177604232267,0.03240477982113617
0.8150000000000001,-9.97762441184555,-0.1012294501083736,0.4603966722710109,0.031918,0.000305,0.03344214036124265
0.8175,-10.002926304089163,-0.08228497821983063,0.39904674968178316,0.03227440015680246,0.001267537162182942,0.03188738635818601
0.8200000000000001,-9.978300498937978,0.059248893953257636,0.338787083253776,0.033509600839045375,0.004273949525146506,0.02983165528780249
0.8225,-9.840084863863241,0.04837778725245681,0.2497494807300352,0.03483190288876043,0.0011002514163019127,0.030888977358989187
0.8250000000000001,-9.87004843079749,0.07296113901729756,0.1965659766722779,0.032670990999540725,-0.00175656271238336,0.031987556712077175
0.8275,-9.945504047638604,0.083094,0.34516698579055577,0.031765,-0.0012446602874743205,0.032376
0.8300000000000001,-9.90097247395973,0.042680834870564344,0.3117479628667283,0.03396139112176422,0.0013904264333653685,0.0342430043720039
0.8325,-9.812004619624023,0.03351382503417976,0.12634556478515457,0.03494919717285157,0.0055399725878906595,0.03679135657226564
0.835,-9.74129046256475,0.018542580391362282,0.0699341490317252,0.036584443797099624,0.0072549757659426395,0.03724049764296118
0.8375,-9.840134571173454,0.010603390564245386,0.19100679389525788,0.03567139712494458,0.006240995934393,0.03693637009689063
0.84,-9.968574414209783,0.009105181260440352,0.36187914173337415,0.03478402867122249,0.00412573450916589,0.03749567673717321
0.8425,-9.912938615670548,0.04757645800054172,0.2625571674993213,0.0364061002655107,0.008723965245191015,0.038496976830127344
0.845,-9.830760221615988,0.03326953585815416,0.15294968446379872,0.03672452038572207,0.009369550599580093,0.0392257958379345
0.8475,-9.852207959349872,0.0010962983746788113,0.24069443281437236,0.035728051086398614,0.006256195620188156,0.040845262309666404
0.85,-9.865388428011611,-0.10325972148040699,0.26347756400580535,0.03788443483309143,0.006002222931785174,0.04028229738751819
0.8525,-9.871453123744557,-0.035026187431058536,0.2836949074278345,0.038012949227543946,0.008455833278503501,0.034214219696823006
0.855,-9.844552880158204,-0.005209264103781393,0.3315477109318148,0.03553222986869166,0.013930436582819197,0.03427168643569054
0.8575,-9.791002679468438,0.043383383388705093,0.3022934192691025,0.03667270764119603,0.010889715481727525,0.03667788717607977
0.86,-9.885969739786269,0.052882425382124294,0.3513092501360103,0.03774222159974093,0.006768848724093251,0.0396954239896373
0.8625,-9.895104880926166,0.06353881667746132,0.36348858941062195,0.03800113973445596,0.0092315421955959,0.03956638937823834
0.865,-9.847488331657686,-0.09438784105863647,0.16350124933122104,0.0397467842599049,0.010844777629160059,0.04219188490649761
0.8675,-9.910736563917283,-0.11000892920370707,0.19755674898978173,0.04085035202281913,0.005835669370097304,0.03840026094604218
0.87,-10.026943676975236,0.00224266480743672,0.4668310269103971,0.04126490710413249,0.006387628416529956,0.03468810045777675
0.8725,-9.893255454312316,0.05585458908309503,0.3495358186103086,0.04203372532951291,0.009590920329512979,0.035280898925501486
0.875,-9.812180298387098,0.10164128153944427,0.09135463781539443,0.03934300031938678,0.010069375598850207,0.03535706204088151
0.8775000000000001,-9.929299472580649,0.11765793666560241,0.24801477236665964,0.03857607632066431,0.009942113101245606,0.0384255952890451
0.88,-10.05394538562187,0.10210543814352685,0.4323066363760627,0.04170364212985775,0.00826534320909164,0.042974112713979176
0.8825000000000001,-9.943353659057456,0.03236259256456951,0.29630842082809805,0.045012785653659786,0.01322780850353664,0.04361077492807758
0.885,-9.728324156455225,0.05712741085820903,0.11156350511194063,0.04390431089552239,0.008968692425373128,0.04034533111940299
0.8875000000000001,-9.852093457151744,0.07759273861940352,0.2070708133706493,0.04315765696517411,0.007101242475124328,0.042088067039801044
0.89,-10.094817911295303,0.0367856400352029,0.4583872557260576,0.041262308837507,0.007230113893911532,0.03873138232498599
0.8925000000000001,-10.01758452965517,0.05283433103448321,0.36209678758620417,0.041774893793103465,0.010817369655172517,0.03770621241379307
0.895,-9.850228662334404,0.07592358388424454,0.09713287313183072,0.04251273772990354,0.01219216412861737,0.03745642216720257
0.8975,-9.89132155715483,0.1315871961585429,0.14523465823493897,0.042761,0.012523,0.03832699722188957
0.9,-10.079099697335701,0.07981703753700393,0.4647597758910589,0.043897343919478984,0.011639585956187113,0.04202044840734163
0.9025,-10.048666781101243,0.05606421470692747,0.36381214134280765,0.04437103455772646,0.014009901626998195,0.04239977341385435
0.905,-9.906827565241084,0.08491660759625566,0.218541203852624,0.04292961943371639,0.016028632370572157,0.04369544614145246
0.9075,-9.882321247221894,0.019566633251985058,0.2081448852363465,0.04359359748371045,0.01128575455040877,0.04625632687122376
0.91,-10.097535288433846,0.027957861823282026,0.5002282556708728,0.04282611556802242,0.008698987639083718,0.04109262023375411
0.9125,-10.049914912856476,0.037482182047685754,0.38593763852267515,0.04076720056100983,0.011506710425432422,0.04268337718560073
0.915,-9.861180165232698,0.02224508488385334,0.10364497041975268,0.044043799488140904,0.013587378479093679,0.04425344904067163
0.9175,-9.856888225861594,0.026972976044912812,0.14975475267644214,0.046865948377635185,0.009171250197066964,0.04248175377176904
0.92,-10.008109407639113,0.09135422440861332,0.3759449499953434,0.04744374981265729,0.008094,0.041615083750582524
0.9225,-10.16965402893839,0.16409289285487888,0.6049697224811247,0.047742323741262,0.008094,0.04116746718985926
0.925,-10.056776788073542,0.14957969322511097,0.4475786151730933,0.046512322455965954,0.013505133498978444,0.041456587256363545
0.9275,-9.819345624462482,0.10250927811827082,0.11531359198939983,0.04439039045883718,0.009084104104687775,0.04207550821268842
0.93,-10.034740163881445,0.10763347832399457,0.3638094666991489,0.04617264122777106,0.016341,0.04281482325294358
0.9325,-10.050011142817702,0.07912907008038983,0.4401601040682094,0.048642733778319125,0.016341,0.043464489097848155
0.935,-10.039685949497136,0.08548865924802933,0.4275252413368359,0.04872153934705242,0.01727808310072708,0.04353536598483677
0.9375,-9.911660060343493,0.18344769023673219,0.21318043957914284,0.04711127835370571,0.010836227912734024,0.043659481819588425
0.9400000000000001,-10.034112955719632,0.1272314782501201,0.3886769076402723,0.045989135898520064,0.0086967449341356,0.04636086000975776
0.9425,-10.039457148143965,0.11882292942836983,0.45681201095271695,0.0491513056316161,0.011218494029640093,0.04850538390966832
0.9450000000000001,-9.823623892944724,0.07365646890452193,0.08545294934673266,0.04440432353768851,0.015535750874371777,0.045639172462311625
0.9475,-9.794548303155779,0.046034374877464146,0.04474615086200217,0.04700407864553538,0.012193440207189784,0.048362957046772334
0.9500000000000001,-10.01903967361391,-0.03800208486360206,0.2689852212440731,0.04710373615514608,0.010385,0.04775279153456177
0.9525,-10.17944387221373,0.013952505985354746,0.5595294554180429,0.048005746088356005,0.010385,0.04504676173493199
0.9550000000000001,-9.874660789785857,0.06179218068190071,0.19849903636319624,0.045502564433544716,0.014631005103481079,0.04440721769828926
0.9575,-9.776424685677712,0.09553753655700467,0.018523805029308504,0.046747583789927036,0.007638198652948867,0.0440239900777605
0.96,-9.963935004310015,0.14451676191871385,0.273134714517954,0.047108301843100185,0.005974057211720241,0.04285901995274104
0.9625,-10.130326330557214,0.20554121157379845,0.4063978382054652,0.04965665221333973,0.012662805703376776,0.048169204987471737
0.965,-9.892993,-0.038259,0.058584,0.051007,0.013619682292993672,0.051313
0.9675,-9.892993,-0.038259,0.058584,0.051007,0.01022007637335846,0.051313
0.97,-10.063149600138956,0.04653300984003837,0.35751036833090905,0.05035348743254158,0.009468,0.04649980200678625
0.9725,-10.079354326511552,0.08451402855065485,0.4172668322507682,0.05216464875747295,0.009468,0.04520623636451768
0.975,-9.943238467642637,0.19650660493788044,0.21652613341774127,0.049713299817994765,0.016768903996201633,0.04453888764738464
0.9775,-9.951174355008309,0.23966193387987716,0.24827300194666502,0.05072727455250456,0.01638887091240009,0.047706936367808865
0.98,-9.952174,0.245098,0.252272,0.050855,0.010847040506288597,0.048106
0.9825,-10.09186936810602,0.0018869418552775463,0.37990747541691394,0.04944281489386651,0.009884355961064876,0.05580829293303642
0.985,-9.90834131481651,-0.12144528786993969,0.10853878440217861,0.05360069954384025,0.010303579954226169,0.052041860250966784
0.9875,-9.736184847620548,-0.033883274958565246,0.03235461966695469,0.055622379891089924,0.01333651424512672,0.04951455293189168
0.99,-9.84103594410028,0.08304004434108483,0.23198945367639695,0.0552083249744351,0.012715487461652651,0.047117226369783945
0.9925,-10.002861455471788,0.19555671184830004,0.47921656459676065,0.054978,0.008218383522960818,0.05057761647703918
0.995,-9.993193288704564,0.18728877764611693,0.42100095960928763,0.05251153940752602,0.011742782981585258,0.05063986179663731
0.9975,-9.807194591747844,0.13127646868194692,0.12677587467047896,0.05344669449856739,0.012763393667621761,0.0530090316618912
1.0,-9.755747188560157,-0.032566203786982245,0.016886565680473378,0.052191675581854044,0.009323189822485208,0.054121215700197234
1.0025,-9.946901619066676,-0.008979085792839875,0.270649741835274,0.05187941764861931,0.005223531701435036,0.049670025385264834
1.0050000000000001,-10.10284667677641,0.14848810547606056,0.5390308616720412,0.05295497114410112,0.014754503774974935,0.04958912176358975
1.0075,-9.820892839681006,0.19096166472835946,0.1630363698355168,0.055264373470676045,0.015050536893171568,0.05036323720883865
1.01,-9.695802818525376,0.17049764595595304,0.04131906328120126,0.05000265561442707,0.012775127507181606,0.050109656540057466
1.0125,-9.844859252409828,0.24952824676029223,0.35944038771145304,0.052557994829237106,0.010346969549952165,0.05573157015639952
1.0150000000000001,-9.87379419959142,0.00512023689478916,0.22506116036772153,0.05634178271705821,0.009386239427987686,0.060495130704800726
1.0175,-9.864378247948085,-0.023881146182780373,0.21225559214083964,0.05619750349816739,0.008231690656732528,0.05861887081896287
1.02,-9.854962296304754,-0.052882529260349906,0.19945002391395775,0.05605322427927657,0.00707714188547737,0.05674261093312502
1.0225,-9.84554634466142,-0.08188391233791943,0.18664445568707583,0.05590894506038575,0.005922593114222212,0.054866351047287175
1.025,-9.773326595710152,0.24133192723328933,0.08507496439588208,0.057727,0.00447518301735192,0.05242891992287907
1.0275,-9.851379297818125,0.2740637055366334,0.22053400151671387,0.057727,0.011936010163881985,0.05538730593830343
1.03,-9.782690308938284,0.09238660732651142,0.09398891677007187,0.05778033859929648,0.010241395775503679,0.05870222647585544
1.0325,-10.162061383578505,0.12947155816757236,0.5365050905852208,0.060597108154780914,0.010369659389190917,0.05742210531180046
1.035,-10.185622849115079,-0.008817637199351783,0.5516617276628963,0.062369403474878495,0.017486083643436106,0.05826929011345223
1.0375,-9.967195291150722,-0.006277771993516926,0.19404887662883652,0.060811834748784384,0.013593436434359667,0.05710090113452184
1.04,-9.905106750504565,0.16050739705910888,0.07479744251801894,0.05859186418068233,0.01392578944738108,0.05289072836136466
1.0425,-10.136823976235952,0.25226488338014946,0.49915801833332873,0.05723174309925094,0.015109838305243437,0.05340846731273406
1.045,-10.171480485703064,0.24617974665248454,0.5564130769913332,0.05735017844164339,0.014403816460959222,0.05405848314945151
1.0475,-10.049890983840232,0.08405726402029157,0.24140344184316992,0.06049556315272561,0.015059498294319882,0.05812130749386167
1.05,-9.659909001006245,-0.13677191120809723,-0.13121829732678508,0.06429033008425779,0.016412717972964716,0.05853557741407523
1.0525,-9.705125464295326,-0.06761750724131685,-0.04040463666121147,0.06652261408256047,0.012724237323149677,0.05542932117839608
1.055,-10.19339898230849,0.1134272621334769,0.7331804644085633,0.063225,0.01634083240792281,0.05277762562087342
1.0575,-10.08469607536393,0.3118851383756349,0.5771068792236033,0.063225,0.023856280470925466,0.05366930308805986
1.06,-9.639818162962504,0.2630053344057141,-0.03185508835338816,0.06348927956525115,0.013978440869497726,0.058381441810418426
1.0625,-9.653443708407732,0.2737117015759646,-0.006063586600419221,0.06311644530704139,0.014724109385917242,0.057387488471391974
1.065,-9.990199089388842,0.17148747201257147,0.2702718492945773,0.065973,0.015119,0.064599
1.0675000000000001,-10.137429703208177,0.043460708047126845,0.3815559928546791,0.065973,0.015119,0.064599
1.07,-10.090641705499992,0.18816133533333187,0.5495669695555476,0.06358887205555554,0.02867482113888884,0.05585949872222233
1.0725,-9.799472539277776,0.13012071192592572,0.2313112081728384,0.06260016845061728,0.02669822301543209,0.06030785585802471
1.075,-9.947565823378472,0.2502913869565219,0.29570860570206614,0.06143409423853644,0.00946873676645279,0.0581955761344737
1.0775000000000001,-10.051070663178908,0.2391217730434777,0.3444827110192469,0.06305155199097182,0.012227196676170247,0.06066878550487064
1.08,-10.013245795334868,0.08984630742194176,0.15112817927067487,0.06483991743227142,0.016799,0.06316709757686491
1.0825,-9.965935332463653,0.036560285920393676,0.10829959363788005,0.0658570869690951,0.016799,0.05896846165090964
1.085,-10.055736200098291,0.058283675955648054,0.2903217670098885,0.0655710923056638,0.0218470480887024,0.05746281922924784
1.0875000000000001,-10.07339325211867,0.1097528262391397,0.33578038036560026,0.06441976402756962,0.023766347521726204,0.05659932302067721
1.09,-9.995641859780457,0.2366451546777525,0.3276120799560917,0.06653058926140827,0.02420009833464012,0.05762329463070413
1.0925,-9.81105754680053,0.2881253773170438,0.2537734974767135,0.06447364132091443,0.023236623123261142,0.05986098180234671
1.095,-9.90846060420216,0.21662731670681795,0.25021638001241775,0.06411247514963367,0.013596828501179659,0.062036353351545996
1.0975,-10.031447253808514,0.159026600809638,0.25099503200298023,0.06510662363591206,0.016082525240283047,0.063527901604371
1.1,-9.96296756862066,0.0069490748446014005,0.09218066700763429,0.06957083059249335,0.016905839782831316,0.06478805492170878
1.1025,-9.918578208815799,0.09375671249350977,0.14594194811550948,0.06490920937918004,0.023961801661814563,0.057605857990400404
1.105,-9.976044293012203,0.1443513295627573,0.41601208844095805,0.06406889796169078,0.019275747828335937,0.05676981539157844
1.1075,-10.028844798606865,0.2849115092215517,0.3144550397067172,0.062372786293535445,0.014698402742270666,0.05694489503116216
1.11,-9.861384458678154,0.35237565308109214,-0.000760715462966053,0.06776752478288632,0.013008591893359006,0.06004559189335901
1.1125,-9.707276931321836,0.19426482191889885,-0.07981654953703844,0.06738418521711366,0.016332263106641185,0.06336926310664119
1.115,-9.926210475180683,0.010894998023665031,0.16945726132075398,0.0695173423153182,0.014813,0.06444891023025265
1.1175,-10.106124085618799,-0.03871870906939435,0.37793593301886275,0.06990129483210744,0.014813,0.06073597202750249
1.12,-10.05815023506524,0.28916555596362564,0.2792190364570938,0.07095087335705806,0.017134795460656375,0.05913057075207585
1.1225,-9.973288633037928,0.3563191362287782,0.20794337716556247,0.07015788604936787,0.016952,0.05923480272606873
1.125,-9.904982208127635,0.37367903473810954,0.18605522119205298,0.07092932486453943,0.016952,0.06357304130042143
1.1275,-10.09542613653152,0.20599390938400627,0.3812739467263644,0.06821028977369004,0.0145337716035339,0.06477028929928598
1.1300000000000001,-10.073138281206361,0.16077040941343987,0.28987195528852394,0.06941233814295901,0.015579431935407338,0.06463704689622417
1.1325,-9.913507606941046,0.02813500953623088,0.061968425235433944,0.06954503424979243,0.020558644412288146,0.06433331320128098
1.135,-9.787365170088783,0.24675260327360815,0.017318025220339952,0.07015256900403552,0.020159,0.06239931785956418
1.1375,-10.009466092251813,0.35856177975786724,0.2905165044067748,0.07247907055690068,0.020159,0.06511342861985468
1.1400000000000001,-10.017016479697864,0.25885761282979847,0.35303730869078853,0.07079010870090595,0.017866108650553516,0.06517588854984893
1.1425,-9.830433003330713,0.19568987843205016,0.06598256795600915,0.0682391373197172,0.017238926529458035,0.0658562195600943
1.145,-9.813026967067188,0.18711379958051894,0.07174858393174563,0.06769133653750445,0.017206592001421953,0.06661831347316033
1.1475,-9.863164530968124,0.17374349261523897,0.093660703566773,0.06683771441166017,0.014929645064581144,0.06699728690603152
1.1500000000000001,-10.148253,0.126734,0.39395,0.070402,0.01647073473181996,0.069639
1.1525,-10.148253,0.126734,0.39395,0.070402,0.02174035531753883,0.069639
1.155,-9.901238922961555,0.2180784355196965,0.2792049645942071,0.07005625120075938,0.01069,0.06393711401993356
1.1575,-9.780749727252019,0.23890314492643547,0.026823454326849683,0.06954946435057745,0.01069,0.06330425253599115
1.16,-9.767493577853106,0.24393001502824752,-0.0030960774237295575,0.06962646289265531,0.01040992375141235,0.0633841626666666
1.1625,-9.792789733333334,0.2773211095238107,0.020175708571429404,0.0715653552380953,0.012865910476190564,0.06558117904761913
1.165,-9.732983544,0.22018603608163168,-0.06666608000000143,0.07189063395918367,0.01724351232653068,0.06833216097959188
1.1675,-9.845182761392053,0.20607042923855107,0.1150510536669564,0.06995314338976193,0.01909,0.06865057169488097
1.17,-10.116529092778341,0.23658902129199663,0.45978524493193057,0.06854848248642695,0.01924034132032413,0.06796968843811473
1.1725,-10.305435310721544,0.27703374197812736,0.7202073328129774,0.06829601238177668,0.021004331790070097,0.06809509842473839
1.175,-10.119024082390238,0.268396544682924,0.46108060419511515,0.07091469936585368,0.0230414058048779,0.07118423312195121
1.1775,-9.855612569975122,0.15273514519132808,0.17936482984006655,0.0714664729581803,0.01586963316668643,0.07125985619239426
1.18,-9.873806438113968,0.1363978068854405,0.12181240501836418,0.07194038806776447,0.011411228636417596,0.07106979325198437
1.1825,-10.039862437209866,0.07501191551481623,0.22651773559815047,0.07716073365551751,0.009812066730151156,0.07328499596238557
1.185,-9.974113674388922,0.09429276729130952,0.10250707960786622,0.07938548707504006,0.018027294202364704,0.06934578319529434
1.1875,-9.883239995068623,0.17957998057156438,0.09207925886756581,0.07776817182579764,0.018979242469253164,0.0668718391064108
1.19,-9.87089691114094,0.1642768277404928,0.10768295463087207,0.0762230059060403,0.01909,0.06997611507829969
1.1925000000000001,-10.05662894981485,0.22452577117270217,0.43132579339225174,0.07842211964177677,0.012403514374923914,0.06929385407721154
1.195,-9.965883632551105,0.21674285554130845,0.2764151085157811,0.08117025096649332,0.020846549754445397,0.07121343065198986
1.1975,-9.846081256066288,0.20233650957783955,0.09292065045361009,0.08262318892222088,0.021330439610499578,0.07227887620660457
1.2,-9.80648677606329,0.08627987284405333,0.03226081892378872,0.07804361547740277,0.018340534863319557,0.07204962636484688
1.2025000000000001,-9.92053385753631,0.06639634542388913,0.20900528580797653,0.07903571732084329,0.013686710238875617,0.06670131426697855
1.205,-9.933801750699503,0.12218521812810068,0.23019462600984514,0.08006843266995095,0.022022701950739253,0.06630379625615791
1.2075,-9.80953047937021,0.375842341496049,0.17622337746776806,0.0818845117342998,0.02244497140514523,0.069333
1.21,-9.720923142810609,0.3789160502684848,0.21382230274288425,0.08104371870353948,0.017732711124727914,0.06963255918406831
1.2125000000000001,-9.826044514246558,0.2818802878497086,0.25122204884302385,0.08039866227525595,0.01592520045150357,0.07363478347174092
1.215,-9.88688596793692,0.16792249341486593,0.09284458479561697,0.08239790784036055,0.011707332700353896,0.07533137438043132
1.2175,-9.903154,0.133907,0.039455,0.083078,0.012731598580972161,0.075747
1.22,-9.97134989931223,0.3007395082871353,0.2892235363752661,0.08204580470613965,0.020159,0.07275096556339182
1.2225,-9.961067651684436,0.3449481282729197,0.3330893383368856,0.08046987368869941,0.020159,0.07353864443496799
1.225,-9.86413491120594,0.3642976884147321,0.1088138807017517,0.0798971757230916,0.015272,0.07223366913229035
1.2275,-9.802707781204361,0.409871880644856,0.033022071578946294,0.08242787834992892,0.015272,0.0765368579800854
1.23,-9.830922306772806,0.2877667185225292,-0.008653994797009009,0.0810191113134851,0.014819287419200751,0.08080220063047283
1.2325,-10.017047468294852,0.15204031653558736,0.2957335446139063,0.08203830514886161,0.016858509810539667,0.08296913527145353
1.235,-10.073486708627309,0.0614934537293048,0.35472467059035384,0.08428368667626591,0.026390651617470586,0.07755292988240935
1.2375,-10.041896689524838,0.1419729828293751,0.3829301571274303,0.08457181231101513,0.026006274406047507,0.07620792419006477
1.24,-10.05395416988916,0.21097538314912323,0.386179,0.08360215470481881,0.025738821337945132,0.07427048807169248
1.2425,-10.010805061682381,0.290879023984325,0.33617456695971776,0.08402076456960937,0.022495528737602664,0.07611150684951624
1.245,-10.087793479013776,0.2731265779550392,0.3586636471065927,0.08386932902102984,0.017934450094271248,0.07492591982596089
1.2475,-10.013548282694382,0.2559544667633547,0.21219419862379835,0.08632031522359203,0.018837622879703506,0.07621604596567563
1.25,-9.882498974850984,0.17244094545603006,0.08816653711112926,0.08493431109659508,0.019996881358700088,0.07674589303502899
1.2525,-9.801630108718872,0.2655944269617029,0.04619695521842174,0.08519630526332979,0.024834355352331083,0.07269268916142738
1.2550000000000001,-9.856323792236463,0.28841132513796286,0.18964194271205131,0.08424664173256824,0.02074483496894889,0.07736057217828783
1.2575,-9.928759695979878,0.3322667119031533,0.19801835125854905,0.08537921261850487,0.01873110085370642,0.07660552492099676
1.26,-9.950568107856801,0.2495755853460621,0.12904005737470106,0.08491,0.014177096439140828,0.080023
1.2625,-9.849834739952268,0.2735126484486869,-0.03652150087509648,0.08491,0.01914552814638018,0.080023
1.2650000000000001,-9.721574650786186,0.23791919853307553,-0.19915770515500963,0.08934300378395679,0.025383414522211885,0.07911421933844673
1.2675,-9.885180957974383,0.3846375064551596,0.15512440266016836,0.09226627243441125,0.025743529151921945,0.07940682677242214
1.27,-10.165952077680553,0.5100558643170237,0.49479189545006286,0.09299739263728264,0.02764658574039633,0.07783744026202995
1.2725,-10.339833369507478,0.47761148972422207,0.8050423405192031,0.09118432713950671,0.03463935379215518,0.08249985097614226
1.2750000000000001,-10.083779079592773,0.31215758459744936,0.5315772355766029,0.09206033388249914,0.03223620394777693,0.08639533580976062
1.2775,-9.800755640015534,0.2809814350916993,0.13115696108484892,0.0904420000808206,0.02277881114703109,0.08602212489275722
1.28,-9.929697276606735,0.22795022663287032,0.030316761669705115,0.08622375981623769,0.013682978708910996,0.0839115095857426
1.2825,-10.117376184779404,0.13708914366415936,0.23140166209267113,0.09155094117386134,0.023450308419801877,0.08606763100831681
1.285,-10.078521127098593,0.08558938959624564,0.23094500953990685,0.09389036052582153,0.024435,0.08380610873239445
1.2875,-9.788872466506023,0.3352918026574896,0.028367137583473867,0.09063257726678145,0.02888918262306354,0.078496
1.29,-9.76006833986544,0.4036676848689203,-0.03888038952285108,0.09163,0.024478886353723504,0.078496
1.2925,-9.814362212017631,0.4492354520516585,0.029955369109890467,0.09163,0.016924533236408683,0.078496
1.295,-10.038335492715103,0.38143309337962333,0.35234288156706717,0.08817568811306714,0.029932,0.08532634652119989
1.2975,-9.973002932551303,0.2572027348545557,0.2875324178692458,0.09024166395336396,0.02723429148533683,0.08700105384093744
1.3,-9.909055993791055,0.1703027386612455,0.13303001718798785,0.09206551667187986,0.02328721997184853,0.08601137316233967
1.3025,-9.928663905808571,0.2036344671567093,0.08205174185486411,0.09006151311854865,0.018904487159837363,0.08463382571160463
1.305,-9.943637282824003,0.22032413830154587,0.10028425312056655,0.09002824740717671,0.023426800059157767,0.08453718383124463
1.3075,-10.070497267218812,0.3462095763088713,0.3559573957001744,0.09239686852650435,0.024049562951661895,0.08540970484315408
1.31,-9.909260474321881,0.38563417324260224,0.2725991556891885,0.09546272688083565,0.024129,0.08485793718626364
1.3125,-9.760787861051115,0.36744962275018,0.11745652699784018,0.0961325305975522,0.022205813534917206,0.08614287760979121
1.315,-9.74914714592387,0.218531808312098,-0.15573073213263397,0.09533212414971905,0.016900270146395547,0.09106333222125507
1.3175000000000001,-10.018990549820382,0.2830162866408196,0.19843769827334068,0.097106165051832,0.014999274960829223,0.09004935748674522
1.32,-10.056490415035102,0.3140939990138853,0.37305185202995333,0.09168854266812308,0.02788009044468718,0.08845988440006242
1.3225,-9.85305292780153,0.2558995853081602,0.19113315999063754,0.09693551291621161,0.028754585486035267,0.0888345511249805
1.325,-9.83837815106962,0.228178785713524,0.10413189795678977,0.09586448944251805,0.02654315058949058,0.08633671226460395
1.3275000000000001,-9.932028486275678,0.23853557041489626,0.15222785236057984,0.09528764637100688,0.021362575507866827,0.08422849917024351
1.33,-10.05984294842614,0.30768675846336724,0.2738855568380191,0.10076579290297041,0.021023034322376337,0.08693834175683175
1.3325,-9.873425952867066,0.3210097849559982,0.013575497600738506,0.09950214490968039,0.021509154571560902,0.08880155558128765
1.335,-9.777181190444026,0.3314059934388285,-0.10194202546056405,0.09624392138875773,0.028608539555975542,0.08516868128956065
1.3375000000000001,-9.8748344923187,0.3496021810646691,0.3060396082886876,0.09407588781707762,0.02341780178635231,0.08678884380135746
1.34,-9.973812671930709,0.39232695964393194,0.339074130340424,0.09634103405268865,0.023824,0.08600881231324438
1.3425,-9.899916633937206,0.41570264884397956,0.1309570847876797,0.09923019961024905,0.023824,0.08803141740887768
1.345,-9.743445094926505,0.33880788546862767,0.015422745516043203,0.09965251230599019,0.020980255754702064,0.08857279267267264
1.3475,-9.807346579231861,0.23329482188715367,-0.0638361427785655,0.10053834109056421,0.021613345737316245,0.0918633690090089
1.35,-10.021118215584417,0.265557911051216,0.1617750310218116,0.10075216412643966,0.015550724430287249,0.09200173937760338
1.3525,-10.05593457021645,0.351573175022463,0.25188593366985346,0.1027143364828882,0.031115350459854835,0.08781617136976226
1.355,-10.104154541747572,0.5008539565048533,0.3230746930001587,0.10089037831609105,0.032834,0.08882749364953046
1.3575,-10.008078280755061,0.4422784625977572,0.3034406122247208,0.09868930365842703,0.0329585949483146,0.09095547694382015
1.36,-9.901905341195715,0.35787723198982596,0.05874856244230778,0.0994355491840814,0.023320751146647282,0.09390580198437207
1.3625,-9.963416845659944,0.41521132755466816,0.15025458687988533,0.09914464857956266,0.02322357256042159,0.09157732683990547
1.365,-9.891946353987485,0.3264103281438734,0.08027093021447293,0.09974832854243879,0.02688722031715173,0.09118790062093687
1.3675,-9.724372964090168,0.12265631997327198,-0.09111094581687404,0.10111041341272248,0.021341407035664513,0.09089611630354215
1.37,-9.760596409536658,0.323734347343711,-0.03922364849571233,0.09692154947318292,0.025099196597905632,0.08539729892097721
1.3725,-9.91578191444539,0.538407848893194,0.1482942662199155,0.10069668627555356,0.027515049299625043,0.08878468627555357
1.375,-10.108798,0.598996,0.512912,0.096975,0.028404667220606566,0.088575
1.3775,-10.108798,0.598996,0.512912,0.096975,0.02992503707519731,0.088575
1.3800000000000001,-9.888385219060691,0.49954128799999487,0.11330282929390906,0.09869188125559114,0.02630801111821067,0.09784510961661388
1.3825,-9.854783513936336,0.2520522890138062,-0.026129479192793,0.09697368971051043,0.01951856383423404,0.10202363040960964
1.385,-10.104609197350888,0.19361370156725918,0.3896860668432742,0.10285448165926396,0.025308175929568542,0.09572026904822335
1.3875,-10.06980775166561,0.27614415111040463,0.43045394988895863,0.10374354236992384,0.030134386690989765,0.09356124041878176
1.3900000000000001,-9.95743147558873,0.4637425429879188,0.2823745315978166,0.10097627792907556,0.02564328854986582,0.09193178272498573
1.3925,-9.707479987075656,0.5662802294478545,-0.1483905964826329,0.1020761888752557,0.02124701055214713,0.09557137775051142
1.395,-9.67492881767675,0.42530379566264903,-0.23125645376675888,0.10233312952943854,0.02308880857467623,0.10026751970902481
1.3975,-10.003793491705192,0.2728083015660189,0.15097825528500336,0.10529681377223765,0.030543,0.10221205491710032
1.4000000000000001,-10.044236,0.164395,0.282162,0.107207,0.030841991556110657,0.102473
1.4025,-10.044236,0.164395,0.282162,0.107207,0.03371669694708922,0.102473
1.405,-9.85812171312022,0.2382719056349163,0.1464495681906763,0.10843798512279572,0.024282,0.0933898234543844
1.4075,-9.897996983876318,0.4310827332248952,0.21458969938320244,0.10856632359771318,0.024282,0.09235889399468558
1.41,-10.036395072276582,0.5207651057762582,0.32995180459556706,0.10762217220808873,0.0281,0.09615530996086102
1.4125,-9.99908272994129,0.441541358561641,0.2420395142367875,0.10709976521526417,0.0281,0.0973300844422701
1.415,-9.757923644315573,0.25659448394345713,-0.22101075131327633,0.11077686980790143,0.028878007512383674,0.10180560544883407
1.4175,-9.723465184487134,0.21001855469372993,-0.1195286868358108,0.11184102812613264,0.02607255680318958,0.09948409340340704
1.42,-9.998622053503544,0.2936165733900684,0.37425587529077753,0.11017741900709213,0.030221685219858064,0.09714495500709219
1.4225,-9.984621038793708,0.3783005348028683,0.3657386753602496,0.11144963838198994,0.031546276763979884,0.09738921133088548
1.425,-9.805771705014141,0.4560282111238201,0.09935252806837541,0.10971453007885387,0.028076060157707756,0.09777486108469273
1.4275,-9.668949557428514,0.5641541647373759,-0.29144847940782803,0.10837785617521799,0.022907,0.09993368675725003
1.43,-9.679054204690528,0.5223990129642035,-0.25695977983771967,0.111636,0.023164877116945034,0.10363564591885434
1.4325,-9.890494508245038,0.39922511763245294,0.17888496379954122,0.111636,0.026095384267303227,0.10643852210023878
1.435,-9.913916,0.385581,0.227164,0.111636,0.029711913827022797,0.106749
1.4375,-9.943479671241295,0.2659829519322682,0.19113382746142293,0.11326122504438071,0.028540639696845557,0.10355072948245254
1.44,-9.833917512011862,0.28746445985328334,-0.010568343845795698,0.11474699089121276,0.02573910703605443,0.10180708369283603
1.4425000000000001,-9.841255252757922,0.3862796958888761,0.08482228585297771,0.11374702220696109,0.02024091588262812,0.09805842858436069
1.445,-9.8636009678731,0.4675942346648898,0.0016439518096512291,0.11167001662045165,0.02181921273112558,0.0986937042513774
1.4475,-9.878781417901557,0.43192030406732446,0.024414626852334042,0.1110884972065145,0.024727444647333063,0.09975961156142157
1.45,-9.781002809015027,0.44755684373956556,-0.07297850584306981,0.11352003839732883,0.03139620934891473,0.10146361669449078
1.4525000000000001,-9.749644907948749,0.39207066984073313,-0.10137791983714481,0.11226393226679424,0.03174249966710561,0.10280983433361279
1.455,-10.04082954289173,0.3377744399041306,0.19840227118222353,0.11175780590328968,0.03127302418838759,0.10156765860387079
1.4575,-10.228630139078437,0.41327015265384437,0.46845849933729,0.11511671733956501,0.032136313435196844,0.10127989552160105
1.46,-10.001926819381515,0.512898127896169,0.28147909443358965,0.11877771641724086,0.03564028576189718,0.09992000054478452
1.4625000000000001,-9.732749749142751,0.613336957058169,-0.09114845771512958,0.1163398318218233,0.03243289658708523,0.09850868210222714
1.465,-9.665464669274849,0.6096876207300669,-0.2383463821148944,0.11647152601080378,0.030210322075626114,0.10547504361106583
1.4675,-9.940456257030613,0.49835730818137053,0.3244646420396196,0.11791333946636112,0.029817256264527744,0.11124143921100023
1.47,-10.25663818804373,0.43513712403995974,0.6938142692487967,0.11816348743490915,0.02978,0.11030594369542988
1.4725,-10.20505783032668,0.3550057791022355,0.5433416703924914,0.11702907222561698,0.030952927774383025,0.10875982842773213
1.475,-9.983812158927769,0.48189442935030413,0.019700723216730442,0.11848331303952757,0.017108858064515786,0.10279985715583813
1.4775,-10.040083041021033,0.5882135361136083,0.13778705662412405,0.11914321470429624,0.01581671221283484,0.10260475397447422
1.48,-10.016195694465077,0.6136167389213092,0.1477590346949615,0.11880138008841734,0.019060052484526913,0.10390508622458
1.4825,-9.929532459959812,0.521916698551566,-0.03362666083433294,0.11661337004420873,0.026782986242263267,0.10467712674865362
1.485,-9.757462598294603,0.3970894055649919,-0.2780007399583143,0.11884999101138005,0.030553132450713096,0.10639264960410327
1.4875,-9.89259596053855,0.3327874445584217,0.03697542314474034,0.11936343862798526,0.026446391857669425,0.10780358012502006
1.49,-10.07964143126354,0.3196214336462087,0.3189839264981955,0.12475083725631769,0.03431316678700361,0.10349417415162454
1.4925,-9.95826454362324,0.5140295576763982,0.167776651880542,0.1265902329635707,0.03575852917623889,0.10283687839842469
1.495,-9.805317138889164,0.7596845746301257,-0.011194633228225195,0.12370118774678615,0.031097992568517863,0.10553629280620926
1.4975,-9.954311743387505,0.8068149673215306,0.1454008544587308,0.11955825710405037,0.026177679605465173,0.10980808071469005
1.5,-9.987362304899458,0.4331033424832429,0.2450516046121928,0.11692881192148101,0.029282738828598786,0.11886104037663582
1.5025,-9.806293846450691,0.34306905274178295,0.040973379166937024,0.12025142227577396,0.03477747118736024,0.11349432599425482
1.5050000000000001,-9.781093058627103,0.3201548504638231,-0.08203216682744167,0.11896041936920249,0.031018939369201456,0.11100269187384008
1.5075,-9.95977656652087,0.3713046516817894,0.09382055767739685,0.12187483196256331,0.025504,0.10766045275140862
1.51,-10.060348634105626,0.43476097427943866,0.17942655867825455,0.12348059226816924,0.025504,0.10651333804603189
1.5125,-9.878429199521708,0.6229470660289326,0.12523757137391106,0.12645320492646173,0.036325352911634294,0.10716884606002627
1.5150000000000001,-9.701455919490579,0.5454985891472807,-0.056652269878193315,0.12602060538205975,0.038332,0.1109070303875971
1.5175,-9.848615161108283,0.44537500444768247,0.10742001795115802,0.12607678436748088,0.026213418403207654,0.11003098642362368
1.52,-10.17884490829268,0.383409012224987,0.260719341692382,0.12830487542060734,0.025754233877551134,0.11049079549029367
1.5225,-10.007705948769669,0.4387534768974626,0.15737298779194536,0.13122671747293463,0.03153045394793821,0.10822087035172981
1.5250000000000001,-9.954019341923685,0.5581916465091725,0.15495979479382174,0.13084125239859498,0.032531956791608585,0.10544743905114742
1.5275,-9.982475185803969,0.689460661652129,0.3248841296136055,0.1278105931648724,0.032834,0.10815940649971688
1.53,-9.99122996621564,0.7065338749237997,0.33947618874803814,0.12732976015952144,0.02330115515168786,0.10933219888904722
1.5325,-9.984979730408774,0.668143089611167,0.020744032303094073,0.1291540524027916,0.02945954161515447,0.11628810648055825
1.5350000000000001,-9.797243179943953,0.4925049523506423,-0.24352651826119776,0.13049540190510625,0.03241310285765939,0.11914649887031187
1.5375,-9.779797624410717,0.3447433275576908,-0.13804358245093423,0.1319368856966556,0.030339785758360962,0.1153423237319509
1.54,-10.1390612747025,0.3875240810748569,0.34604818357006484,0.13255877619961612,0.032343959462572014,0.11009546917466403
1.5425,-10.08501417503817,0.5127421264122126,0.36346177381679523,0.13230652297709924,0.03515726606870227,0.10790883194656489
1.545,-9.76370340000001,0.7014379919999945,0.0960766875555634,0.1316934274814815,0.03453540548148151,0.10882386977777775
1.5475,-9.567505122009674,0.6608269545978276,-0.2189085896105224,0.12877349430744395,0.034208,0.11388190462318534
1.55,-9.709394960016846,0.43711661205894314,-0.26444953847578934,0.12756147184842104,0.02263681411368397,0.11658318741894741
1.5525,-10.03479605212021,0.38552375956629337,-0.05710542858691911,0.12709785235120802,0.02398183602121388,0.11071269748968772
1.555,-10.047714162203045,0.5025544601914295,0.24929053672680854,0.12988552369056952,0.040110168027616085,0.11059411703122546
1.5575,-9.69291389605417,0.6553501581033093,0.12059089734122219,0.13339491840812887,0.028284463234545924,0.1137871485182051
1.56,-9.800432439163746,0.8117539485317589,0.037906101037345104,0.12754025048834988,0.02548074951165014,0.11585175211937453
1.5625,-9.984502207947655,0.8172553746409192,0.07091884128630704,0.12932915528247688,0.02369184471752314,0.12147366573571657
1.565,-9.831296046532046,0.43650881353659765,-0.20164400768457544,0.13462443755128106,0.0354706380429403,0.128804679671163
1.5675000000000001,-9.842803684811239,0.3159338719450818,-0.030538398719762216,0.13385698269295232,0.039177352947561826,0.12458660716737151
1.57,-10.06651638722646,0.2548457897503424,0.3835572102400229,0.13560194967969816,0.03816555458296525,0.11790108158625663
1.5725,-10.099223675543067,0.3031533502095209,0.27335614034518707,0.13547316094404752,0.03212426859757564,0.11404499532471701
1.575,-10.10282,0.308465,0.261239,0.135459,0.03237875746190436,0.113621
1.5775000000000001,-9.752847675208178,0.7460280988265354,-0.08260955452241103,0.13633267449259928,0.04103996228729631,0.11362757988286674
1.58,-9.753515387324034,0.7330121788691296,-0.0015093302566263622,0.13624725647108935,0.04035773469066125,0.1169527415568098
1.5825,-9.753705,0.729316,0.021521,0.136223,0.037202210132706956,0.117897
1.585,-9.972993750036755,0.404113,0.012294933676354869,0.138819,0.031875529342027246,0.121257
1.5875000000000001,-9.845009413542506,0.5210111591149771,-0.1355596597110309,0.13790102290782502,0.03377984016022137,0.1198528062276476
1.59,-9.752646623357967,0.6863067577073154,-0.1615643045100385,0.13660299072242618,0.03576488938057324,0.11786725699489765
1.5925,-9.879707745274729,0.8390168557142873,0.038934102747255894,0.14244591483516492,0.036346,0.12012683813186818
1.595,-10.00481481199616,0.8387946644337814,0.265315394408187,0.1391743268873961,0.035881090626999367,0.12386854690658985
1.5975000000000001,-9.74346251280482,0.3375380574759728,-0.15627879402775297,0.14272431119800985,0.03813851978670441,0.13085251067188078
1.6,-9.774408481898622,0.20507284266680678,-0.09850032500259315,0.1459628294160508,0.034653412823982384,0.1284481338607264
1.6025,-9.924479168423026,0.24291686406786772,0.157924913727494,0.1461298244488394,0.030986070927448685,0.12353105789528462
1.605,-10.106602832082372,0.4555875122324197,0.3267501276398782,0.14115420219650415,0.037188222261952265,0.114237091065528
1.6075,-9.862450919917,0.602678563176626,-0.05648770382311946,0.13859825111980215,0.03795484020113334,0.11129783101923546
1.61,-9.641328713176215,0.9924970680070536,-0.2799607051723462,0.13663125850248503,0.034666943876863775,0.11404094421035783
1.6125,-9.83228487676768,0.963351463492063,0.034613776046181655,0.13303681327561323,0.03197110995670991,0.12148622049062063
1.615,-10.007351051593663,0.6093030078657973,0.01004610916123048,0.1351238573252563,0.040775,0.12886627717614169
1.6175,-9.942602542267787,0.4837019099844704,-0.06979339259707784,0.13636739223671945,0.040775,0.12550865147872017
1.62,-9.83490226665815,0.5755315951728044,-0.05657771882193196,0.1394221740825287,0.043669174082528676,0.125075
1.6225,-9.956005253948454,0.752032,0.2939258917630919,0.13995197955579924,0.03845625579928695,0.12263892775706052
1.625,-10.047952326032965,0.7576717003838338,0.18208456694513434,0.13692442763603524,0.0330500756378415,0.12052757236396477
1.6275,-9.915857952205355,0.72885856285196,-0.10129173868731976,0.13785385683912363,0.03554737106616507,0.1266588242531533
1.6300000000000001,-9.898934552784244,0.6514574578570445,-0.1215434793662324,0.14054688030803286,0.03618500922682012,0.12928084434609438
1.6325,-9.875921361220419,0.397412420872143,-0.03965102330108196,0.14671208446495038,0.038072157922309946,0.13069319494567644
1.635,-10.049095282300009,0.4389002509588618,0.20281935337371254,0.14768838356328165,0.034819,0.11943984871548807
1.6375,-10.089034043467315,0.666205265932506,0.36849073222685147,0.13987829456461903,0.034819,0.11566058714701494
1.6400000000000001,-10.065247407960166,0.7041851458296581,0.34401134188646226,0.13932516994460975,0.03867885494420792,0.11617136394637613
1.6425,-9.724075946144326,0.7877168463675066,-0.20447883933854016,0.14523850895079088,0.03559297582724564,0.12812683069438904
1.645,-9.892623537002015,0.6155638767265401,-0.09814818227305525,0.1421192244446235,0.02889644888924695,0.12735483711961337
1.6475,-10.016325099254127,0.5681030380894087,0.1194649107402305,0.14714968651147797,0.03895737302295596,0.1272264572952074
1.6500000000000001,-9.90463193839929,0.5949968857813516,-0.03425683525126171,0.15092997790725887,0.04449877266326764,0.12843385250465297
1.6525,-9.93405435132152,0.8405182789479726,0.20720585514931583,0.14807878800679766,0.04177741373148814,0.12337977897871635
1.655,-10.050906610304093,0.8715882656710716,0.43687782511065365,0.14492124135010345,0.03956190690017511,0.12828718452475726
1.6575,-10.158750589012874,0.6231319483261841,0.23788950695279365,0.1455113193133047,0.03157803965665247,0.13569000480686685
1.6600000000000001,-9.925456419310997,0.34173446177216316,-0.1439789397660697,0.14727624680019222,0.02877133050472694,0.1265741279410348
1.6625,-9.752700961095972,0.5401011493670956,-0.2594835933023595,0.14625052071783365,0.031080684313411395,0.12131444653100447
1.665,-9.728207412132823,0.8564620231162201,-0.2347238600063805,0.15000063948275863,0.0402648384482758,0.12475495587484041
1.6675,-9.860300534993613,0.8884851056194123,0.12953158908684287,0.15038481603448275,0.0361744881034483,0.1280777901021711
1.67,-10.189614293269145,0.7923045299181597,0.3240317477323146,0.14837151830524797,0.03789227899855555,0.1317744400770341
1.6725,-9.948677410508736,0.4920131297319735,0.02826718022146174,0.14760077876424327,0.03981996926978021,0.13498697672283755
1.675,-9.513205583610187,0.5125175683436222,-0.4774176363075457,0.15019631229235875,0.03958393320677099,0.1281313044138585
1.6775,-9.48196893421927,0.8268788615567146,-0.44568415332700534,0.1474093993355482,0.034389990071191284,0.12445855126720458
1.68,-9.907178628525841,1.0647176129674598,0.18099864636886123,0.14763794648372677,0.034904100842373845,0.12666128571793206
1.6825,-10.024185691193368,0.8197024733120508,0.03798964246329961,0.15095949665603078,0.03975803074664985,0.1387965287045315
1.685,-9.723973978239716,0.4371335967671533,-0.22373091121635524,0.15217366510951258,0.04293895260001621,0.13964847982219325
1.6875,-9.741706463670896,0.3920438965489372,-0.08491683892346236,0.14906768350440475,0.04526780320051726,0.12851779431019156
1.69,-9.970445330253215,0.8999240283516374,0.21951573016721898,0.151831753530817,0.0391156333014812,0.1208154728045866
1.6925000000000001,-10.068588845279614,1.0657657224172665,0.2517404318868076,0.14906496316546744,0.038026,0.1248888259395685
1.695,-10.013270300581294,1.0699751138417268,0.18800461308201283,0.14484048431654664,0.038026,0.12819146315395694
1.6975,-9.958352613164253,0.893998135174063,0.048147388003349084,0.14901420713961003,0.041223187060653206,0.13798808412011013
1.7,-9.752662070068453,0.5794436340385869,-0.19414399203484312,0.15261161966397008,0.03386102545115137,0.14095511829495952
1.7025000000000001,-9.926756592347159,0.6116653174950792,-0.2320448415581821,0.1503164607889544,0.027419519861932674,0.12816980702169525
1.705,-9.942371434268694,0.7158816046623225,-0.16689343279078941,0.15062561918055223,0.03799538803187671,0.1229015232777911
1.7075,-9.90116583884852,0.9205722528845056,0.06879440747533588,0.15366963407544984,0.04405883924318053,0.12491856029715614
1.71,-9.86114492289457,0.9533188059616613,0.15477404072843365,0.1504398645303515,0.046265941290734795,0.132682270939297
1.7125000000000001,-10.0082404279981,0.865388086048727,0.21980283411371596,0.14493131901576653,0.04007411414237884,0.13502023282369804
1.715,-9.939358660317529,0.4782659517969645,-0.14145669732500687,0.15022821879720985,0.03560645625691591,0.1349626833485685
1.7175,-9.895665119161745,0.5382057583044406,-0.16072085901695393,0.15238001581634594,0.03619172073156795,0.13086800832349016
1.72,-9.947612481143075,0.6904670241303089,-0.002488563158698609,0.15054915297771004,0.03909033718422553,0.12728369228614977
1.7225000000000001,-9.904552378887464,0.8927920000604007,0.11038154032284808,0.14755765060503986,0.043055869538962045,0.12766551950760668
1.725,-9.932362281719232,0.8720580159211871,-0.01646682839438058,0.1529733569873679,0.03205058099626598,0.1285312860252642
1.7275,-9.84521142906173,0.8312221162278536,-0.16935465742432887,0.15233689709700485,0.03179649687773099,0.1298042058059903
1.73,-9.884008134670731,0.8446300966861974,-0.08363372070306963,0.15793194040778066,0.044135,0.12947381042418557
1.7325,-9.733185536886186,0.6991957755425399,-0.14680221286461817,0.15668111972814627,0.044135,0.13510291305054276
1.735,-9.888617186123453,0.726619389613729,0.08775651289258615,0.1550404573961128,0.03838956356509692,0.13358149338212563
1.7375,-10.004220542087145,0.8294682863112928,0.1288316401757084,0.1548184486524991,0.03906273767066372,0.13218893664964976
1.74,-9.66580035141606,0.7062714779854015,-0.46924631027737157,0.15350652919708027,0.0405238165547445,0.13503141670072996
1.7425,-9.74010138765408,0.7408281551887232,-0.2546714691758338,0.15501951067128522,0.0427422429885332,0.13016837276158633
1.745,-9.945279671014335,0.7853761065325854,0.10437229779080391,0.15583300876078876,0.04322217960566962,0.127518
1.7475,-10.021220685099376,0.823594455792225,0.22051772004117756,0.15786141256789932,0.04613899605036034,0.127518
1.75,-9.960293760045184,0.9194662815878651,0.026748280135549446,0.158643770372761,0.04689206374051961,0.13031361965467161
1.7525,-9.959242021366306,0.9278919786336945,0.10167826800617828,0.15722196335085012,0.04881789266151463,0.13554659521483758
1.7550000000000001,-9.973696,0.913438,0.200861,0.156076,0.045083008399562044,0.138666
1.7575,-10.245097,0.729914,0.338355,0.15684,0.032529,0.130878
1.76,-10.09315257949075,0.8661266861349997,0.08204486725678417,0.15399724799903913,0.03336212081671872,0.13161323874849867
1.7625,-9.79501620199376,1.1333951825846698,-0.42087175341099275,0.14841936773961095,0.034996821330771054,0.13305588084314196
1.7650000000000001,-9.91272,0.897896,-0.266619,0.150884,0.0354352262031833,0.14844
1.7675,-9.91272,0.897896,-0.266619,0.150884,0.03835121235568937,0.14844
1.77,-9.963538299513683,0.5966127743198757,-0.06062169881389773,0.15470867419308246,0.04431670569296209,0.13534168633656998
1.7725,-9.809499486283052,0.8124082900825396,-0.08405065277664615,0.1552399748869482,0.04899085391554008,0.12694520067472195
1.7750000000000001,-9.971339527272738,1.139159287272744,0.1958305309091078,0.15804779636363653,0.04332071636363601,0.12945252000000018
1.7775,-10.121271764831748,0.8909533930207915,0.08197818134405804,0.15667559456619687,0.03921608269964515,0.14273743797526614
1.78,-9.896634337717368,0.6213261430897958,-0.3192899894284571,0.15645625666805152,0.03837045370763846,0.1441716240750193
1.7825,-9.543946494023388,0.4494465573672046,-0.7296429785815138,0.15750178321562108,0.04084175485073296,0.14388659362336043
1.7850000000000001,-9.676825678492166,0.7398995053804923,-0.3889276332755555,0.15929637674549296,0.03735571898852704,0.13708623216108598
1.7875,-10.077842430761956,1.1599880761938781,0.4881786496504712,0.16041119604218512,0.04521932518070909,0.13779832977840994
1.79,-10.088461197394741,0.8556084616166514,0.09579676388927252,0.15708653937892536,0.039622017659920836,0.14895054820888576
1.7925,-9.98238403935799,0.6018983152198203,-0.18999202732728337,0.15885550831123516,0.03440718749476626,0.1481121020586183
1.795,-9.816201015673085,0.6265615459772073,-0.17825067851630988,0.16273925039214135,0.046426,0.13776185139803537
1.7975,-9.81964792601336,0.7290228717076661,-0.0585473848298578,0.16701842930609057,0.046426,0.13788792772652259
1.8,-9.82006,0.741272,-0.044237,0.16753,0.04303479105339098,0.137903
1.8025,-10.042303671924836,0.9548697100364053,0.029505066560187546,0.16285269030182034,0.042104323166177335,0.1406312888690546
1.805,-10.006148118472035,0.9211755466559686,-0.030496561483024966,0.16316119327822806,0.04339233445148861,0.1443851781462161
1.8075,-9.876339263900702,0.894567675219858,-0.03215039597162972,0.16094559906382963,0.045659551801418556,0.14449329733333327
1.81,-9.73338,1.025227,-0.066954,0.16081,0.041593001572812094,0.143706
1.8125,-9.73338,1.025227,-0.066954,0.16081,0.03862113419938526,0.143706
1.815,-9.824292072096425,0.8406787726830101,-0.19968836875853596,0.1622707914375251,0.035991964856568914,0.15750319105504235
1.8175000000000001,-9.824796770388108,0.6165379642490856,-0.2752414502531172,0.16317149673603862,0.035477155747689816,0.15004056539654445
1.82,-9.923507787068528,0.6083139698413759,-0.057049435742384365,0.15964079701142136,0.046884,0.14247556344543136
1.8225,-9.977202396611675,0.8191161692322343,0.0001257342068529954,0.1619270719352792,0.046884,0.13726844547588832
1.825,-10.031662348690125,1.1289268833359183,0.11273297758487277,0.16362345946364906,0.04325850717718189,0.13970955876608263
1.8275000000000001,-10.038949228566114,1.0570219747760001,-0.011157796608283935,0.1625059645016276,0.039907647738334974,0.14901849498062364
1.83,-10.19893882015967,0.7770138034627381,0.20418900028177372,0.16186225840951796,0.0412159376518474,0.14885563845021915
1.8325,-10.082166553760175,0.6160849642892913,0.041296953694425875,0.16612353470256735,0.04773424587977462,0.1482294146806512
1.835,-9.913070413921814,0.7281769876923035,-0.10308291119294186,0.1657150237578815,0.047342,0.1410793089735183
1.8375000000000001,-9.999495290794457,1.0180141487179641,0.15355507308954713,0.16275309407313981,0.047342,0.14040582258091633
1.84,-9.978073109756409,1.0446678887279095,0.08859950461709612,0.16516190468715183,0.04408977556440046,0.14627012912275136
1.8425,-9.91893384426708,0.9005682240621096,-0.027877187145964072,0.16431810060248445,0.039164372173912984,0.14928748976708076
1.845,-9.724678041411764,0.8070611449411725,-0.34886827388235325,0.16236888589675869,0.03899208741416564,0.14303222820648268
1.8475000000000001,-9.70625955028516,0.9449036840332109,-0.34371599426061883,0.1640912367994225,0.0428989852508726,0.1451747061581041
1.85,-9.638239060933037,0.9725745994763557,-0.35769769062202766,0.1651687307680103,0.04640861177403978,0.15095581002856234
1.8525,-9.620335732211997,0.9437287762075528,-0.4392601648079986,0.16885338889558876,0.04043695315138043,0.15019375384322436
1.855,-9.985652,1.060497,0.155428,0.167377,0.0429099510194061,0.146913
1.8575,-9.985652,1.060497,0.155428,0.167377,0.04590526953238243,0.146913
1.86,-9.892450648382999,0.9447698517856804,0.074153808675392,0.16557189204594738,0.04153376036950738,0.15323198617399014
1.8625,-9.834587514890613,1.0178288254998853,-0.12448186803105588,0.1658437187485298,0.042718359209597816,0.15429572632321803
1.865,-9.720742415637329,0.6389008639427851,-0.5319940946499018,0.17307835289883491,0.03280862254469952,0.15658702917983625
1.8675,-9.881666235571744,0.6962295980664321,-0.34540573192203317,0.17347778362057453,0.03663451156130425,0.152105
1.87,-10.090735680293196,0.8476575187831095,-0.03841222121687957,0.17136678816519554,0.04440922361601565,0.1516019290447665
1.8725,-10.236970214870748,1.0195833223644424,0.390414702364448,0.1731336982282472,0.05665115007250972,0.14642764284047907
1.875,-9.963425348043039,1.076036394355216,0.06292810634648371,0.16922132948697957,0.05420898846093872,0.1517176619366911
1.8775,-9.890116592452832,1.108781298867924,-0.16481792452829702,0.1693455954716981,0.04409602641509455,0.1558380603773584
1.8800000000000001,-10.083069324115899,0.9238969768401838,-0.06012692049079213,0.17261421864301799,0.043622069945939465,0.15787766751381901
1.8825,-10.135613408241513,0.852695335302191,0.057146333987732986,0.17893637461459044,0.045469800600133684,0.16108715209378616
1.885,-10.044808441203754,0.8113114986333667,0.05889044024819665,0.1761443669153804,0.04911163308461958,0.1554114680927635
1.8875,-9.958530979585367,0.8995273364878021,0.04531819265853684,0.17342835317073174,0.04896520534146346,0.15356514636585364
1.8900000000000001,-9.831384437682047,0.9017198882081963,-0.20560415444919847,0.17711864447749137,0.043371,0.15440808815000406
1.8925,-9.779709039495675,0.9235041329992733,-0.09617444782994922,0.1784127328570274,0.043371,0.1545377512292896
1.895,-9.952024851474746,1.0567595302626251,0.1921907368080792,0.17012623765656565,0.03913352775757578,0.15092205244444448
1.8975,-9.815855767451932,0.9419385494601923,-0.14374453554763744,0.169668,0.037548460561173676,0.152869
1.9000000000000001,-9.64651992838626,0.8449202535821057,-0.5211039536438505,0.169668,0.03389937824621354,0.152869
1.9025,-9.539106609514818,0.8653137970142722,-0.8013054385861768,0.17477051569264568,0.04104806415367765,0.15249574457958284
1.905,-9.591581605814772,0.9517043809144207,-0.50467173730363,0.175929,0.042913,0.1518480045486518
1.9075,-9.889594745887605,1.1783394126781066,0.009337424373377479,0.18041251385375023,0.048055270077592215,0.15283414260521982
1.9100000000000001,-10.059011409382862,1.1926646391907887,0.3248769060822362,0.1760690178915046,0.053673257973387595,0.162948
1.9125,-10.020892335203804,0.9888637386477139,0.1776873668011267,0.17587583091095188,0.04788838116683705,0.162948
1.915,-9.727636317212674,0.6395088838507277,-0.4952714957331671,0.18396332285336853,0.03794852317040951,0.15923732724570647
1.9175,-9.678981207234742,0.8559092248473137,-0.48028073305604135,0.1837447839100362,0.04084380729685218,0.15209110865854233
1.92,-9.805215883848865,1.1302046285569018,-0.16970774749730333,0.18464865217898646,0.04483720782571861,0.14990593804545246
1.9225,-9.909823406075333,1.2632305946050986,0.06597454619683518,0.1862643682624544,0.04855864058323185,0.16039562648845698
1.925,-9.858826572349304,1.14103540062338,-0.0784080927254503,0.18584114882983782,0.04280584764118538,0.16335650066036245
1.9275,-9.905361135621243,1.1508633377259903,-0.300579511806696,0.18292476956703055,0.036297615945050925,0.15982429384521038
1.93,-10.006843442616281,1.1819188638155464,-0.1765072720198585,0.18272542075094067,0.04029251908734276,0.16200189648226715
1.9325,-9.872435828183137,0.9566697865854705,-0.16008925575255925,0.18678692741354141,0.05201445962981065,0.17229409532391676
1.935,-9.951249618921251,0.8676904350167068,-0.022729439751780794,0.18161721517899762,0.040775,0.15777089871121688
1.9375,-10.041477337697474,0.9346570530943524,0.0445764176047152,0.1831386076622059,0.04369625242765351,0.1543903223827238
1.94,-9.979395600028989,1.0239934588028388,-0.043851178333250945,0.18515024846417696,0.04787404182424263,0.15547339668003282
1.9425000000000001,-9.771509181918486,1.1427280406677554,-0.2632938050264076,0.18167319411020533,0.0468763670427128,0.15840246804564725
1.945,-9.751500308312494,1.1722503029170017,-0.20460978560987264,0.18045806947539397,0.04783052805911966,0.15958509032645782
1.9475,-9.878252488556116,1.0383716547961663,-0.11196314861133635,0.18448922002273835,0.04587966918629202,0.1643970953418873
1.95,-9.882942812527855,0.9015273177023969,-0.1290331709333913,0.189063,0.04385844615003748,0.166003
1.9525000000000001,-9.801775201828425,0.9984432111333764,-0.22095199534752383,0.18390422726361894,0.0425117823356296,0.16253431063243556
1.955,-9.726282052958526,1.0171208204442306,-0.251055537547707,0.18172005530849344,0.04569842066574371,0.16052039665563114
1.9575,-9.659497109504604,1.02617633111178,-0.3702875851634271,0.1848046221609583,0.04608407041955096,0.16148420545115272
1.96,-9.704931956711803,1.2229439104061917,-0.27183596398452153,0.18697587988394604,0.04416061934235958,0.16026924959381036
1.9625000000000001,-9.784398481611468,1.1566640350932393,-0.23793047098905304,0.18472589191911257,0.04644683385002743,0.1627802630734126
1.965,-9.898848181868631,1.1118738041104954,-0.12705958448618673,0.18832613625046057,0.04709528602087182,0.16561199810435867
1.9675,-9.947874849994049,1.1468762051993817,-0.0009630121461713381,0.1894698021092727,0.048106,0.16611877927865729
1.97,-10.007172,1.211143,0.143472,0.189216,0.04855367240180292,0.164934
1.9725000000000001,-10.007172,1.211143,0.143472,0.189216,0.05254913182227969,0.164934
1.975,-9.831952422697492,1.167108684350089,-0.21430556780050303,0.18288811484492123,0.03842712322626415,0.16751134524504785
1.9775,-10.008869620801958,1.156370853559873,-0.12869479190974492,0.18290757280956915,0.04569770087807545,0.169668
1.98,-10.02868032250551,1.0322718164117086,-0.08410592528800687,0.18373896615675167,0.055131,0.1693767501038716
1.9825000000000002,-9.945812453698453,1.1190862850047267,-0.18078483051936373,0.18260523667610945,0.055131,0.1668568011709158
1.985,-9.928506385043667,1.1321618560799451,-0.19390880757888257,0.18280324979148646,0.04802979148949567,0.16658834694783226
1.9875,-9.83676567956566,1.1785247730427264,-0.2313940175938318,0.18582711558737908,0.04878555167204345,0.16633587684318202
1.99,-9.955613053747928,1.1851481033288602,0.23348107668534437,0.18826482014047827,0.053565847434298805,0.16682511098413702
1.9925,-10.062964859464918,1.4285425283687099,0.2710787038718324,0.18940268771209845,0.05027968588745964,0.16884679133138658
1.995,-9.945183117924266,1.3607242790243081,-0.040652944640907795,0.18620393496054188,0.04513428467756055,0.17420373085372684
1.9975,-9.736643480893152,0.9999283995774209,-0.44076488004802816,0.18374716945018005,0.037740436004801745,0.1796948778199281
2.0,-9.605633700465171,0.6456037437437437,-0.6237022954719426,0.19247602261084615,0.040928,0.17335342713301535
2.0025,-9.644758186946946,0.7666675634034008,-0.5332733432632653,0.1935132996996997,0.040928,0.16411239963963983
2.005,-9.804925412532375,1.053366000977966,-0.2588627664022149,0.19285085946567362,0.04897292311852292,0.1596626620336789
2.0075,-9.81186800525613,1.3283064114921883,-0.18272655697104537,0.1927058916703786,0.051771,0.1583891083296214
2.0100000000000002,-9.838842100108781,1.4108141582117772,-0.15674866524641495,0.19224765596152282,0.050244,0.1592222747709541
2.0125,-9.570966193298098,1.3851144144918377,-0.3964528246787208,0.18707132990617326,0.050244,0.16843896265867764
2.015,-9.570022306014828,1.091907203727987,-0.3623354411700704,0.18459447385542177,0.04337753114921231,0.17045476640871182
2.0175,-9.556225125514365,1.0570504335333633,-0.47271470730537846,0.18607890373493982,0.044954282363299396,0.17175333886468958
2.02,-9.937725935235497,1.044296833601821,-0.15838583744254486,0.19200642556541525,0.04349861243230957,0.1692414516769056
2.0225,-9.959434940453267,1.1223141967158994,-0.053011555020031235,0.19048334921006999,0.04826065245948696,0.16766556894097953
2.025,-9.946888877431755,1.1948346217436512,-0.12421392167160215,0.18918955670482734,0.04740595920262574,0.16499348652629886
2.0275,-9.810891315283012,1.3162775359955097,-0.16385850591305515,0.1923946348955246,0.051636024420782724,0.16742961458009753
2.0300000000000002,-9.78140430261975,1.307908459124597,-0.1965277356549757,0.1927601146713354,0.04481331413019248,0.16845396247015848
2.0325,-9.598830581989482,1.0579917264554952,-0.5362359854974005,0.19314229500557062,0.04379361026897971,0.17762879385643873
2.035,-9.44727577334923,1.0827671067048092,-0.6967728549694001,0.19547358061472506,0.03838665157652357,0.16933705253276135
2.0375,-9.664337084774846,1.4352430434596266,-0.2999887318084205,0.19979830078627606,0.05008746390278812,0.1667936873481057
2.04,-9.85450915356127,1.4745483624923046,0.06834697041510439,0.196088,0.0498805240828549,0.173791
2.0425,-10.030759941562264,1.4338753721187922,-0.10842544511105441,0.196088,0.04255331469927632,0.173791
2.045,-9.711832148319614,1.0604390751499757,-0.5385075202687225,0.19018804586739202,0.04392629219547302,0.1761043213404782
2.0475,-9.742398798867871,1.2226073039623997,-0.3347906223464709,0.19631965422430947,0.05034129600469719,0.17056275233352952
2.05,-9.769990474602913,1.1694879763058779,-0.04726706641558911,0.19280661131488486,0.05430221147863161,0.17535245559194376
2.0525,-9.778201200707386,1.178212945921075,-0.04110816333387863,0.18861110541018467,0.046828939757654515,0.17404152096610434
2.055,-9.820207646773309,1.1320018865729653,-0.390990173346257,0.18784377553078085,0.04508597516238479,0.1701378256713524
2.0575,-9.841477356102764,1.3391248725157627,-0.3519959886185151,0.19457082514784324,0.04379240952011628,0.17026743637421232
2.06,-9.966833813243195,1.402855920557734,-0.08196006929196621,0.19067886040924723,0.04893297151687092,0.17482851424156454
2.0625,-9.984239402667955,1.3449661959920323,-0.09406739729582905,0.18748889056558218,0.05028617697833042,0.17415191151083478
2.065,-9.735211994744532,1.034539789489051,-0.4398619127007235,0.1970152423357663,0.04591025547445274,0.17579460233576652
2.0675,-9.750999715017217,1.116668808702636,-0.4052454115269879,0.19710337742824352,0.043479550952927666,0.17116097370838135
2.07,-9.879042462020658,1.2282184544431616,-0.2310234858323877,0.19465198491389224,0.0436330451435132,0.16679441511672435
2.0725000000000002,-9.992067040884418,1.3155094065208,0.014117850434210183,0.19198601275747482,0.05192471770420544,0.1663301092542102
2.075,-9.807472023398793,1.40137444765158,-0.3023001786507361,0.20136215798462834,0.04965825243381703,0.17348134722459424
2.0775,-9.64104222953807,1.402834850837668,-0.44634526414409537,0.19887523951556546,0.04655021488393743,0.17174091132054958
2.08,-9.723146941559111,1.4294341888327404,-0.3096896189545139,0.19384506863391585,0.04989209616436099,0.1729863855123851
2.0825,-10.006087207192204,1.3375512226549515,-0.02821062415693598,0.20048469732097735,0.04404083472379341,0.17759290040678785
2.085,-9.873688492964527,1.1434141939641256,-0.4211522510960527,0.19899762283300126,0.04153742597688318,0.17556224782144295
2.0875,-9.882683093471503,1.3892523983419602,-0.5290816062176128,0.19504070072538873,0.044218002487046534,0.16560558196891229
2.09,-9.854670132612084,1.5178880188429968,-0.25320708119209206,0.1930778103781608,0.05790271500125324,0.1697343552316539
2.0925000000000002,-9.859263386162656,1.4646965996556065,-0.23711101332075418,0.196892542619567,0.0530454914760866,0.17412022199209726
2.095,-9.941980977212866,1.5260049846473749,-0.2436170691835192,0.19540605104215347,0.0530741426742966,0.17101778656564876
2.0975,-9.96926322260337,1.5078165393374698,-0.1637902384202421,0.19334050760377194,0.05100944438462147,0.17501872054162995
2.1,-9.96863853303371,1.2764837138261396,-0.25071341428739835,0.19971899448846855,0.04669725688941431,0.17890566157303353
2.1025,-10.01352187355763,1.2972603480070832,-0.046373736973596286,0.19627794391178355,0.052476883448165,0.1748188879201545
2.105,-9.960459950347227,1.3112420309987824,-0.06789487437481709,0.19404118038374585,0.05671180259463221,0.1736563650918787
2.1075,-9.819112197307986,1.3232333980661986,-0.3153456811407963,0.19626889532201025,0.05476247604428734,0.1748629173844994
2.11,-9.691033887916396,1.2976718801286153,-0.5630222354855342,0.19406084019935677,0.04444448009646318,0.17240569385852098
2.1125,-9.771655390064304,1.33899116913183,-0.4884469034726741,0.19676404215434065,0.04135522684887482,0.17073252395498406
2.115,-9.951331157880796,1.2881829107284894,-0.1276694691390645,0.19790061403973552,0.054131605033113095,0.1717722717880794
2.1175,-9.955332027929467,1.4367271335769662,-0.029640623078267106,0.2028837135817445,0.060137093366313316,0.17138908515439238
2.12,-9.753022945061746,1.659339434923706,-0.2799712926810619,0.19490540722693148,0.04904645454105063,0.17764961709857138
2.1225,-9.664036,1.629603,-0.45373,0.195019,0.042708151544715356,0.179747
2.125,-9.664036,1.629603,-0.45373,0.195019,0.03831777235772357,0.179747
2.1275,-9.54236040289733,1.1332715891983276,-0.5191300079887462,0.19450082731364277,0.042914713783403474,0.17884040981715896
2.13,-9.728848696495438,1.4175391305040779,-0.15507070098895376,0.19124484798847813,0.05047118555928944,0.1660200931733074
2.1325,-9.751042212770042,1.4841203085741677,-0.25964451091694,0.19191751226116174,0.051624593989438236,0.17332375473835768
2.1350000000000002,-9.655533904504876,1.491233121479864,-0.5857157695321528,0.19392885249183928,0.046146943155602735,0.17650592422198028
2.1375,-9.554797436829324,1.4290558090555914,-0.7069923787326963,0.19314888584607895,0.04468751223597987,0.1743457153435298
2.14,-9.434262333186778,1.655012420531804,-0.6017153480804881,0.1947106139497292,0.05459170459549022,0.178428987307848
2.1425,-9.470739184550233,1.671223695326922,-0.4046401796330664,0.19302838380344292,0.05536798812899057,0.18399348259274242
2.145,-9.758443290437958,1.4648218826277355,-0.16140145284671362,0.1892868930656934,0.05311785795620436,0.18598847547445257
2.1475,-9.981695654118887,1.1117951574848142,-0.11496358417437202,0.19520911407133407,0.04967699852575963,0.18932156867106997
2.15,-9.830866297903773,1.0077503234464789,-0.2729895997761972,0.19981081639686668,0.048334042297650176,0.18429046712420757
2.1525,-9.64156749818012,1.2883674655442967,-0.3710274095367934,0.1971172193557492,0.045145890956971774,0.17504840729837823
2.1550000000000002,-9.688850233959283,1.483834108587292,-0.45921017203392067,0.1979141023563903,0.044746,0.17770777504159777
2.1575,-9.78375821280174,1.4552440526724284,-0.6134438075861858,0.19763844353448268,0.04655465018318992,0.18276375484374988
2.16,-9.975770782144064,1.6223061181883836,-0.33507112747769496,0.1964849009684413,0.050559957687304924,0.1818240913900269
2.1625,-10.024596549377662,1.5377413645707831,0.03842502539148518,0.19571360440054603,0.06226160441660686,0.18876828658154685
2.165,-9.880634834523807,1.2404069964285669,-0.1256397241666699,0.19735213452380956,0.05135623857142838,0.19445954035714294
2.1675,-9.820783029732004,0.9778544560221144,-0.36912920985939013,0.1990071732051436,0.047342,0.18684880709049403
2.17,-9.85919087998765,1.1168738366164956,-0.3220983671559796,0.19993136867484756,0.04824434660492395,0.1792750726711432
2.1725,-10.084869132228224,1.4048576596699667,-0.09144332107319819,0.20102978562035514,0.047881082735860996,0.17522366653230897
2.1750000000000003,-9.95337,1.425155,-0.153037,0.203876,0.04644422988612481,0.182343
2.1775,-9.872696710224318,1.4187861378443318,-0.3451669312057051,0.20292690769576788,0.048387694167505775,0.18315669793903533
2.18,-9.771639,1.410808,-0.585844,0.201738,0.05312710955126503,0.184176
2.1825,-9.824207422130359,1.3138003072011413,-0.4763715176366505,0.2067222840121874,0.05172174495967517,0.182583621886612
2.185,-9.899121664245945,1.2074299482581776,-0.31455792394948917,0.21209476604501598,0.054978,0.18002387068308356
2.1875,-9.989575838130342,1.2910018913026429,-0.08055631895537607,0.2070710418006431,0.054978,0.1750009687867618
2.19,-9.885212815245856,1.653293650960051,-0.10536924507635759,0.210841335322513,0.06163110889381336,0.17967709460142534
2.1925,-9.715897652771163,1.7287531916008831,-0.26679983446606487,0.2113205013331736,0.05702784957776866,0.18341747829669983
2.195,-9.73770986236172,1.7256625584654237,-0.31492907519679997,0.20481161016442506,0.0473784679621332,0.19182766234180332
2.1975000000000002,-9.817166096237003,1.459852814484712,-0.44852559803972075,0.2065359513331238,0.04641360759533593,0.1941119930475891
2.2,-9.773336077859282,1.3838771293806287,-0.587396373397486,0.20986839162958512,0.04965721469633218,0.19541279737823225
2.2025,-9.657618181392658,1.2609970111557365,-0.7498544031942354,0.21025364715333736,0.053123883877330295,0.19714550143595921
2.205,-9.615730987682346,1.2689291152831126,-0.4725051426847334,0.2110030733877159,0.062461,0.19306416960412662
2.2075,-9.76913176956334,1.3798434492562388,-0.20969257485364495,0.21052255991362764,0.062461,0.1904710320993282
2.21,-9.904348001875725,1.4771840767744926,-0.13594205374912582,0.21221344847568066,0.05899942235047717,0.19334999760763313
2.2125,-9.868170254571742,1.456064093314061,-0.41981590632452637,0.21146414723527296,0.05199255186122179,0.19457325739067588
2.215,-9.945150412732632,1.3126365350546294,-0.36840237018420124,0.210975508718603,0.05235244124391988,0.19394577394466153
2.2175000000000002,-9.92652726155662,1.2117908978264982,-0.17159363510841,0.2147298849542174,0.0547384442072292,0.19133544603855387
2.22,-9.873538048311724,1.3409595226624371,-0.22133907428072164,0.2186815030743542,0.054978,0.191632338792843
2.2225,-9.792404147613436,1.410252557529156,-0.4121105272047242,0.21484682535042104,0.04834034903128916,0.19008565442327663
2.225,-9.839447511181813,1.4733867062566264,-0.4725558207140291,0.21884680989749036,0.04720200428891245,0.18711626706727946
2.2275,-9.97165432566985,1.4331338417815478,-0.3547513279321298,0.2210169804453871,0.046919072859667725,0.18966326768469427
2.23,-10.046802804409857,1.4535177211413746,-0.07617566614786209,0.22139993042801556,0.0564362845136186,0.188273022153048
2.2325,-9.845701489002566,1.389318441432228,-0.34149061677747916,0.21753152664961653,0.059712,0.1882090532992327
2.235,-9.77305375613292,1.464304335975902,-0.4555549389482685,0.217060855476933,0.04930663836326497,0.1881767934444564
2.2375000000000003,-9.700251075965149,1.649342649016043,-0.5667802222174546,0.21749160720507588,0.04732596974943521,0.18791856793203568
2.24,-9.870718032126401,1.6935317033672819,-0.3404010367740278,0.2172718137933901,0.04859434298898381,0.19098443827478734
2.2425,-10.03271013493915,1.5648971867392596,0.06399131825755372,0.21542430216527853,0.054656363113389304,0.1937026978347215
2.245,-9.847782022624562,1.4715616824019022,-0.34155155889762573,0.21847876449717116,0.05302883078663962,0.1930612288300785
2.2475,-9.751297975326397,1.5680450917637059,-0.7324438756950866,0.221986138621403,0.046501465919571564,0.1934510079479224
2.25,-9.59667006209901,1.3842856914059407,-0.6808611902574258,0.21917988847524753,0.0460383241980198,0.1968913950891089
2.2525,-9.740160108882373,1.4895452801457403,-0.4852380211421824,0.22298549261940587,0.052000049764752344,0.19562313722613867
2.255,-9.85623322033924,1.584808434439442,-0.23933094566628,0.22459809880236703,0.05886944115818574,0.19450693197633148
2.2575,-10.094605361278091,1.7193248101207015,-0.05585372311480463,0.22068176051124286,0.05116251096804783,0.19172727488757416
2.2600000000000002,-9.824769810950006,1.678298027643572,-0.4570661918483109,0.2220292899506323,0.05500718339554454,0.20184612662974122
2.2625,-9.559467457110156,1.5016808355327989,-0.7461442647200687,0.2238612993136666,0.051632927694159905,0.20300328485249858
2.265,-9.488529137586829,1.3897006726797003,-0.7488215596769278,0.22248342114682604,0.05124586534000973,0.1993424039799708
2.2675,-9.699129301179136,1.4696878317428548,-0.2926901528218252,0.22222428348247455,0.05215115345501537,0.1966265396349539
2.27,-9.902976140187368,1.6480413741754167,-0.03645769288968111,0.2226531752673235,0.05602629688257144,0.19663105074462928
2.2725,-9.733888814198032,1.7427096134647055,-0.3948823443127069,0.2179971658601196,0.051241565498304054,0.19443261487320307
2.275,-9.618262759819881,1.8705321074419292,-0.6291365451730051,0.2183185002054037,0.04934273427081694,0.1926269918786539
2.2775,-9.407163872849202,1.70520214504874,-0.9098858232946463,0.2217115022505798,0.04939822806960553,0.20362489547099677
2.2800000000000002,-9.432015698865243,1.747564264933141,-0.8673971690654343,0.2261491537073677,0.0552319888169667,0.20100463751523256
2.2825,-9.471623645546542,1.4765628046395842,-0.5741323420906617,0.2237526161527442,0.057269,0.19826960989021467
2.285,-9.578631378451785,1.565332495475792,-0.5517935745186604,0.2236725959242533,0.059049126040725666,0.1955589138134855
2.2875,-9.562738651802551,1.5236129456461438,-0.5686799600665563,0.2245607408763173,0.05714572090959505,0.1963199435385469
2.29,-9.598973196401674,1.690845433807534,-0.5606418931380752,0.22756187364016742,0.055953828619246845,0.19325237640167361
2.2925,-9.788515543247733,2.0521835893462317,-0.44512324952239296,0.22380234372410376,0.057728305490633895,0.19345417539263118
2.295,-9.845275802659616,2.0510909910662516,-0.37290367000240504,0.22021835991027808,0.0573360894913082,0.20048990567011113
2.2975,-9.875997996587676,1.8355320252132843,-0.3599875251184831,0.2223568940284358,0.05378171848341255,0.20974023450236917
2.3000000000000003,-9.883520396335447,1.470272816302521,-0.3098497100461926,0.21788338303969879,0.054499246558609465,0.20986013219011818
2.3025,-10.046917490939549,1.582679750469373,-0.14756417939316405,0.22178198920686568,0.05513186285853747,0.2009833574652247
2.305,-9.914275814458543,1.5806893731883114,-0.33596644197843184,0.22145444279453796,0.05524021558272425,0.20651201260082544
2.3075,-9.696802850292146,1.5423700639980928,-0.7425460419530183,0.22158097784693556,0.04862959156240048,0.20307891683709098
2.31,-9.795990693360732,1.7369463710400705,-0.564156565736381,0.22272085706895522,0.05021441513506993,0.19718200918837264
2.3125,-9.930093975947301,1.8634731898229286,-0.27132649320118446,0.2283341321085393,0.056504477004895144,0.20240746256118933
2.315,-9.694372894328358,1.445800401316662,-0.45871726963452425,0.23045820111335225,0.0553765793755549,0.21319672948769688
2.3175,-9.626606714029853,1.3406103363162611,-0.7318055437063216,0.22593650791448186,0.044007629908834694,0.2024740987494962
2.32,-9.730213229885049,1.394309756168578,-0.7021077777777814,0.2267342211494252,0.0482246942528732,0.19537253701149468
2.3225000000000002,-9.73396677999814,1.6960223816963924,-0.5231758779844993,0.23456909795651765,0.05971541319772327,0.1907219134869825
2.325,-9.806242186293323,1.91996032254086,-0.3703415738493291,0.2317939448648124,0.059865,0.1858876747891464
2.3275,-9.899290988090033,2.1262986924131386,-0.18696382954165558,0.22654575856185816,0.059865,0.18472989002072385
2.33,-9.969868317934155,2.141436486814025,-0.36585666109917414,0.22534275689042102,0.051635226869465166,0.200413788272832
2.3325,-9.891053226039343,1.8443945335875054,-0.5628958085013196,0.221337144116812,0.047413420166294844,0.20864049891705544
2.335,-9.794347217194655,1.580999611402676,-0.607233518568414,0.21790286369305312,0.050341768267562655,0.20584085343752448
2.3375,-9.717854887474035,1.3798934954417756,-0.48358270257852326,0.216857,0.05876122158132677,0.19950601505560336
2.34,-9.63242181231533,1.4175943051716653,-0.5886354602320851,0.21907324079391743,0.05831214838895567,0.19393866490276143
2.3425000000000002,-9.790485942628086,1.7962442264588474,-0.4121775748774759,0.2227259772828512,0.05423827162583468,0.18945602271714881
2.345,-9.914075006857594,2.1314073658499613,-0.2335063074528818,0.22736998778339348,0.05523305730605692,0.1944281598588054
2.3475,-9.829592504567986,1.894048960125137,-0.40951397410349977,0.22711257562454873,0.054719074204572775,0.20406260905896564
2.35,-9.476220676794334,1.607262617315736,-0.91526212629546,0.22477437373672363,0.052288208754425455,0.2080961710975216
2.3525,-9.417711182207917,1.5361454053427732,-0.8638154171097514,0.22748018579980694,0.051386271400064354,0.2046166672159639
2.355,-9.436054262102381,1.5525193659240164,-0.8355425084674839,0.22783408200579525,0.054501082005795225,0.2035294201577592
2.3575,-9.658052081651636,1.7654349846233037,-0.6039594686735417,0.22912285820669667,0.05578985820669668,0.1957959189600775
2.36,-9.66822,1.898015,-0.579866,0.2277,0.05608444490536016,0.19395
2.3625000000000003,-9.66822,1.898015,-0.579866,0.2277,0.05824931153173238,0.19395
2.365,-9.725827939738323,1.8208279210661396,-0.6110834819667783,0.2296942259331831,0.057996306483295776,0.2071615906578225
2.3675,-9.64229025777642,1.7292796365946512,-0.6595280377362654,0.228134729953143,0.057606432488285744,0.20511523075275345
2.37,-9.931982813054338,1.7057102534587234,-0.3706554974276418,0.23040494981424875,0.062919,0.20378612414766034
2.3725,-10.030972978499758,1.7452502373619816,-0.07698608165626762,0.22927076375180028,0.062099169006240976,0.2021236583365338
2.375,-9.94966108433543,1.9109463419606594,-0.2197813308114996,0.2275073338377001,0.06049583045313371,0.2011867003265111
2.3775,-9.840836147729554,2.080672525883567,-0.5023256745878734,0.22342726508242425,0.05564918308194643,0.20042179181651668
2.38,-9.700536574294647,1.8765230424476809,-0.6671683772876831,0.22311753374929805,0.053228449906167555,0.2034703893624186
2.3825,-9.787506404548875,1.6276777679782017,-0.4399404696126539,0.22863918746330866,0.047063472236747526,0.2080939123778969
2.3850000000000002,-9.850348487954097,1.8160496678202895,-0.4620132031644485,0.227547,0.0569216191539215,0.19579380387667317
2.3875,-9.717913548838306,1.8726273815080523,-0.6300362002185713,0.22964896117261388,0.056577390554472716,0.19785705609350518
2.39,-9.598185968379335,1.8553530546928294,-0.8114133934337526,0.23261628129234585,0.04805556203734457,0.200139839973393
2.3925,-9.714918148163862,2.0397683566457907,-0.7406422764337299,0.2271454577542166,0.045509,0.1977101084144577
2.395,-10.035403975670562,2.063034412843627,-0.1286752941346716,0.22598230192543126,0.05810562662214803,0.19816832556483036
2.3975,-9.857004344946342,1.858722559399001,-0.5083966820224128,0.22241786041497738,0.058869197347960874,0.2070802629334604
2.4,-9.597435645013741,1.7154187748369263,-0.8948290526208368,0.22267955000392936,0.04707202466011777,0.20135900867583514
2.4025,-9.92058493146403,1.966646872069141,-0.5687248007198613,0.2200368912754422,0.05021816467426308,0.1964510961760317
2.4050000000000002,-10.197272,2.153276,0.077714,0.232129,0.06081207831604603,0.205556
2.4075,-10.197272,2.153276,0.077714,0.232129,0.05739253059182402,0.205556
2.41,-9.83932830265936,1.8623534149417986,-0.735375649428813,0.22298582120095595,0.05313436458799075,0.19892847008093742
2.4125,-9.688572769906724,1.7995390811223289,-0.721845923333076,0.2250841047868651,0.058565976952131546,0.20003904082324833
2.415,-9.695731157917818,1.9167149330160818,-0.5920412235309371,0.2310133637193438,0.050549,0.2023935752087055
2.4175,-9.814847654393374,2.0897895802273823,-0.356861822861785,0.22854307057657952,0.050549,0.19914242759785614
2.42,-9.826038,2.106049,-0.334768,0.228311,0.05746744002543092,0.198837
2.4225,-9.42663218948103,1.8517418652085444,-0.9623339026968976,0.22909662917516213,0.05015065278962069,0.208529571297497
2.4250000000000003,-9.38988549255409,1.8809295488550974,-1.0608806436188174,0.22632461758206504,0.04969165892714285,0.20340400560448296
2.4275,-9.826513714299477,2.0074017506933655,-0.33115821945870483,0.22055535075100033,0.060332732425941664,0.1975062903122493
2.43,-10.107924543488764,1.9989558138872874,-0.06547864938567331,0.2234711750343019,0.060451269229938674,0.20740325587296693
2.4325,-9.801583222702522,1.7303035783581169,-0.4752210574516478,0.2212492252740306,0.0536625620504121,0.20752611377167965
2.435,-9.653745663390863,1.9852008905583771,-0.727058962720811,0.22240457474111677,0.04847772942131991,0.2017470570558376
2.4375,-9.693267705850921,2.0582174143734973,-0.6711244507079882,0.22308924472348382,0.053611633716270375,0.20397139406892867
