time,acc_x_g,acc_y_g,acc_z_g,gyro_x_rad_s,gyro_y_rad_s,gyro_z_rad_s
1765408571.869714,-9.499921246515695,-2.6251028221890484,-0.6138364765665371,-0.008482409992068916,-0.0031084373103266597,-0.0008471218854689363
1765408571.869964,-9.540959981078846,-2.6050028461344126,-0.5922601816244495,-0.007805047052643911,-0.003597939663769297,-0.001618464966370215
1765408571.870214,-9.582715956752386,-2.5831275940655467,-0.5708264342757674,-0.007190101449604401,-0.004062774064033092,-0.0022479033600035997
1765408571.870464,-9.62690642155303,-2.558185805726305,-0.5492083295578735,-0.006729355500139287,-0.004535898433232034,-0.0026468238282149783
1765408571.870649,-9.675159921351252,-2.5291378500460073,-0.5271087862412461,-0.00651534375925829,-0.005055417180578047,-0.0027298010235455973
1765408571.870899,-9.728929790741375,-2.4952720614410993,-0.5042781698083078,-0.006637713573851602,-0.005663839684928589,-0.002418652529451773
1765408571.871149,-9.789419822205423,-2.456260361921261,-0.48052930903902263,-0.007179549649583904,-0.006407111481413632,-0.0016464861894173344
1765408571.871399,-9.857526522558441,-2.4121889885207666,-0.45574860352368074,-0.008213803900521751,-0.007333452342050419,-0.0003615572958184824
1765408571.871611,-9.933800843622873,-2.3635614783369685,-0.4299023979583762,-0.009799985248061527,-0.008492055979163745,0.0014692760676292191
1765408571.871811,-10.018430254774508,-2.31127285635533,-0.4030385649297162,-0.011981271302070754,-0.009931719607210465,0.0038577393333210463
1765408571.872011,-10.111240099295253,-2.2565562723280883,-0.3752838396525155,-0.014782201279190155,-0.01169947735182427,0.006792221049051872
1765408571.872211,-10.211711902099854,-2.2009058065705536,-0.3468376884514068,-0.018207096966098076,-0.013839308671482243,0.010236977429303283
1765408571.872411,-10.319015845926582,-2.145981276028608,-0.31796345447705177,-0.022239335033141832,-0.01639098304618583,0.014132637104636506
1765408571.872555,-10.432054733325428,-2.0935023477079815,-0.2889773011579379,-0.026841556165732385,-0.01938908944322531,0.01839809502916799
1765408571.872805,-10.549516903356183,-2.04514018797441,-0.2602351621709991,-0.03195684493091253,-0.02286228728795765,0.02293377797707213
1765408571.873055,-10.669935381824734,-2.0024153476745763,-0.23211779986072378,-0.03751085554611354,-0.026832804002306705,0.027626146399838156
1765408571.873305,-10.791750035894902,-1.966610483476807,-0.20501438430825233,-0.04341479753960025,-0.031316187750227716,0.0323531785612958
1765408571.873551,-10.913369159196849,-1.9387055345663669,-0.17930542909170724,-0.04956913248521826,-0.036321301259280105,0.03699047352774195
1765408571.873801,-11.033227215419192,-1.9193408403169683,-0.15534596934750997,-0.055867772646420594,-0.041850521171389626,0.041417523531860755
1765408571.874051,-11.14983633594876,-1.9088104962266885,-0.13344957004880623,-0.0622025243744627,-0.04790009872052442,0.04552366423772949
1765408571.874301,-11.261830012455341,-1.9070845926894437,-0.1138735839127512,-0.06846749310774314,-0.054460643433149186,0.04921323411341416
1765408571.874494,-11.36799780233759,-1.9138556628272687,-0.09680632705980417,-0.07456316677371008,-0.061517701064845505,0.05240956556491098
1765408571.874744,-11.46730990865566,-1.9286023115513802,-0.08235736873477262,-0.08039991842613203,-0.0690523996334064,0.055057572673535636
1765408571.874994,-11.558930730374186,-1.9506619311349078,-0.0705525573023819,-0.08590071297367942,-0.07704213271116678,0.05712486236341856
1765408571.875244,-11.642221286413115,-1.979304624681942,-0.06133527558828301,-0.09100286374801031,-0.0854612387631404,0.058601444890987814
1765408571.875525,-11.716731633830342,-2.013801635328914,-0.054574528999832755,-0.09565875956052665,-0.0942816180645211,0.059498230514232614
1765408571.875775,-11.782185395600983,-2.053483249452992,-0.05007922666314248,-0.09983556758880013,-0.1034732134889206,0.0598445623562918
1765408571.876025,-11.838458774326291,-2.0977829095098404,-0.04761715756710369,-0.1035140061164561,-0.11300428958577709,0.05968505628441806
1765408571.876275,-11.88555605275233,-2.146265832117277,-0.04693697838801865,-0.10668636449006291,-0.12284148410110286,0.059076009923607266
1765408571.876581,-11.92358311200318,-2.1986415635781364,-0.04779164174174488,-0.10935401095624586,-0.1329496573289522,0.058081619440600585
1765408571.876831,-11.952720327308958,-2.2547606269574345,-0.04996167248901109,-0.1115246575501082,-0.14329159971784713,0.05677021798231752
1765408571.877081,-11.973196223813973,-2.314596018717964,-0.05327659509352078,-0.11320964080035008,-0.15382766726482142,0.055210730012874305
1765408571.877331,-11.985263142019663,-2.3782111497907894,-0.0576329360216953,-0.11442143836031875,-0.16451540783600344,0.05346951650177191
1765408571.877516,-11.98917584112537,-2.4457169216645953,-0.0630075177067098,-0.11517159164914888,-0.1753092359729663,0.05160775617397772
1765408571.877849,-11.9851738361355,-2.517221592138503,-0.06946476857086761,-0.11546915407894151,-0.1861602163964539,0.04967946253931331
1765408571.878183,-11.973468510895826,-2.592777528604851,-0.07715643678083522,-0.11531973471144787,-0.19701602377248692,0.04773018266530078
1765408571.878537,-11.954236265762608,-2.672328976054656,-0.0863121970535724,-0.1147251556724165,-0.20782115240978855,0.045796376043631466
1765408571.878787,-11.927618567427551,-2.755665089854791,-0.09722097831464188,-0.11368368911005783,-0.21851744718526786,0.04390543790908712
1765408571.879037,-11.893728717098703,-2.842382920599189,-0.11020510213104631,-0.11219079161262632,-0.22904500349323176,0.04207630567306346
1765408571.879287,-11.852664015843649,-2.9318652615625704,-0.1255911629103163,-0.11024021866471267,-0.23934342979193776,0.04032055856220117
1765408571.879516,-11.804521436314237,-3.0232774373919895,-0.14368184427735145,-0.10782538595121696,-0.24935339000167284,0.03864388378922885
1765408571.879766,-11.749415100521253,-3.115584951752672,-0.16473153578546212,-0.1049408497130962,-0.2590182733230062,0.0370477463877972
1765408571.880016,-11.687494499424817,-3.207590999405405,-0.18892664490869956,-0.10158379640483008,-0.2682858077972149,0.03553108357701623
1765408571.880266,-11.618962937410293,-3.2979901333051784,-0.21637003691178186,-0.09775544897086133,-0.2771094525364194,0.03409186130808058
1765408571.880569,-11.5440957258941,-3.385432590015364,-0.24706872679960268,-0.0934623075372093,-0.2854494567357288,0.03272837342240728
1765408571.880819,-11.46325717103333,-3.4685931069559652,-0.2809246117780787,-0.08871715157631027,-0.2932735367750812,0.031440211388829235
1765408571.881069,-11.376914786314186,-3.5462381748667315,-0.31772893647467076,-0.08353974316827621,-0.30055717915265795,0.030228869134025935
1765408571.881319,-11.28564883733175,-3.6172861502467057,-0.35716167786149144,-0.07795718283769662,-0.307283616395424,0.02909797441225885
1765408571.881538,-11.190155399005784,-3.6808555625507045,-0.39879695502925694,-0.07200387413721566,-0.3134435367567069,0.028053166724739495
1765408571.881788,-11.091241354394501,-3.7362986206006976,-0.44211524795079565,-0.06572105160797319,-0.3190345793425415,0.027101675912661514
1765408571.882038,-10.989810058257202,-3.7832191573967813,-0.48652302819271237,-0.05915583273606245,-0.3240606548861359,0.02625168398449548
1765408571.882288,-10.886837097970606,-3.821476147278249,-0.5313800474262417,-0.05235978816878548,-0.3285311333173025,0.025511561654449795
1765408571.882567,-10.783337281874024,-3.851174705048495,-0.5760331612283113,-0.04538709039266577,-0.3324599401211192,0.02488906170535962
1765408571.882817,-10.680326508245628,-3.8726462278979046,-0.6198531753985114,-0.038292376338424076,-0.3358645873695919,0.02439053762620505
1765408571.883067,-10.578784208546919,-3.886418841145589,-0.6622692901552595,-0.031128513748003014,-0.3387651414489002,0.0240202468246262
1765408571.883317,-10.479622136702599,-3.8931792985232883,-0.7027959545277095,-0.023944482106087045,-0.34118312220761726,0.023779790481529756
1765408571.883538,-10.383663269922367,-3.893728167954242,-0.7410491821240218,-0.016783568461252812,-0.34314034667733867,0.023667731985350583
1765408571.883788,-10.291631959586907,-3.8889311150126065,-0.776751668241569,-0.00968204013104514,-0.34465776106849316,0.02367942195910589
1765408571.884038,-10.204154738552205,-3.879669809934944,-0.8097269483554541,-0.00266839684543788,-0.3457543286736722,0.02380704255858808
1765408571.884288,-10.121770525695181,-3.866796237794774,-0.8398830180052363,0.004236763778085938,-0.34644605584075205,0.02403987063368037
1765408571.884537,-10.044948634665001,-3.8510941733567403,-0.8671866722728239,0.011020302576429448,-0.3467452534654034,0.024364748335299835
1765408571.88487,-9.974112566679274,-3.833251283920702,-0.8916312579124865,0.017675618036868367,-0.34666014287934654,0.024766735011136094
1765408571.885204,-9.909667059619814,-3.813844349750536,-0.9132014677666108,0.024201403252671158,-0.34619489846775686,0.025229892578278013
1765408571.885581,-9.852025214289318,-3.793338237892349,-0.9318389701243746,0.030600259684947336,-0.34535016778796007,0.025738134755970647
1765408571.885831,-9.801631743415713,-3.772097018500461,-0.9474126576615812,0.03687733293541087,-0.34412405054612843,0.026276062411935017
1765408571.886081,-9.75897787482832,-3.7504039183244973,-0.9596972824963023,0.04303910104536592,-0.3425134782078047,0.026829723374049885
1765408571.886331,-9.724603568576487,-3.7284863310287535,-0.9683638348457693,0.0490924145029866,-0.3405159178961408,0.02738726969644838
1765408571.889148,-9.699083647613149,-3.7065426425753154,-0.9729841537842709,0.055043859551872916,-0.3381313154775454,0.02793951433469673
1765408571.889398,-9.68299635193387,-3.684768320797106,-0.9730511686404546,0.060899474965039634,-0.33536418036779914,0.02848039081242274
1765408571.889648,-9.676875542315695,-3.6633789870383207,-0.9680148953159098,0.06666479586740705,-0.33222568631624005,0.029007299289298984
1765408571.889898,-9.681150404727324,-3.6426282708606377,-0.9573327619358223,0.072345148996366,-0.3287356187887142,0.02952130626575446
1765408571.889196,-9.696078106947907,-3.6228186598873755,-0.9405310712286191,0.07794610120786868,-0.3249239630435444,0.03002716781550169
1765408571.889446,-9.721675434817355,-3.604304345394992,-0.9172726104420917,0.08347396670262879,-0.32083192391404164,0.030533159881468364
1765408571.889696,-9.757655604376628,-3.5874858039622364,-0.887423868925096,0.08893629722618285,-0.3165122035260767,0.031050711176221237
1765408571.889946,-9.803376511693632,-3.5727961560916723,-0.8511143479980278,0.09434229945669328,-0.31202842172961576,0.031593843138007074
1765408571.889537,-9.857806488709503,-3.5606793101181373,-0.8087803048485672,0.09970313255183977,-0.30745363389708413,0.032178435553569376
1765408571.889787,-9.919512909901288,-3.5515602016344947,-0.7611861966117723,0.10503203581165005,-0.3028679822576254,0.03282136317253259
1765408571.890037,-9.986677496305738,-3.5458086783451743,-0.7094192917946123,0.11034423503651736,-0.29835560749097007,0.033539581489319195
1765408571.890287,-10.057139786912927,-3.5437004806901884,-0.6548561989096692,0.11565659081433805,-0.2940010272688342,0.03434925861154794
1765408571.890638,-10.128467279898345,-3.5453802804992045,-0.5991036679281,0.12098698427974051,-0.28988523572785796,0.035265038598837714
1765408571.890888,-10.198048006456833,-3.550831935590007,-0.5439189928011989,0.12635347185437443,-0.2860817925610516,0.036299481937258814
1765408571.891138,-10.263199690327374,-3.5598598334989022,-0.4911170322540605,0.131773264290777,-0.28265316341807933,0.03746267912052886
1765408571.891388,-10.321289184643339,-3.5720831110065956,-0.4424713462133187,0.13726159797418558,-0.27964753734674613,0.03876199812209478
1765408571.891593,-10.369855597012979,-3.5869427000166128,-0.3996167913995589,0.14283058017601108,-0.27709627290896255,0.04020192184325791
1765408571.891843,-10.406729778905051,-3.6037201634143012,-0.3639603709871459,0.14848810639807458,-0.2750120390398478,0.04178395276419992
1765408571.892093,-10.430142162549583,-3.6215669891871274,-0.33660611473764157,0.15423695759538156,-0.27338766484432914,0.04350658989442692
1765408571.892343,-10.438811027989054,-3.6395429818326304,-0.31829858706700553,0.16007418343558005,-0.272195707251146,0.04536540051085478
1765408571.892525,-10.432004348533246,-3.656662285497051,-0.3093885403399319,0.16599086512476505,-0.27138876284010116,0.04735320851805125
1765408571.892858,-10.409570315859982,-3.671945095955965,-0.30982275825398475,0.17197232252247263,-0.2709005637663138,0.049460405676119236
1765408571.893192,-10.371934421263132,-3.6844722478482126,-0.31915791597021226,0.17799877950808038,-0.270647893054922,0.05167537397206048
1765408571.893616,-10.32006421224785,-3.693439130865711,-0.3365960194353764,0.1840464371222806,-0.27053332370643063,0.05398499900379968
1765408571.893866,-10.25540598908927,-3.698205399039282,-0.3610374955872346,0.1900888500446389,-0.27044873021263865,0.05637525374228319
1765408571.894116,-10.179800397953528,-3.6983375843268202,-0.3911471160159824,0.1960984810544291,-0.27027945171912493,0.05883182627806194
1765408571.894366,-10.095385770526686,-3.6936422715546042,-0.4254271260801894,0.20204832177913884,-0.26990891522276705,0.06134074750482839
1765408571.894526,-10.004498413919816,-3.684187493626796,-0.4622915124442448,0.20791349690896813,-0.26922346611371767,0.06388895694592028
1765408571.894776,-9.909577303610043,-3.6703098747567884,-0.5001360891768641,0.2136727912910239,-0.2681171183090785,0.06646474603107366
1765408571.895026,-9.81307733602288,-3.652605535490678,-0.5374011510110065,0.21931004525236647,-0.26649593861298065,0.06905804203482488
1765408571.895276,-9.717391891306148,-3.631904041266015,-0.5726260372456502,0.22481535449221668,-0.26428181327845063,0.07166052647261686
1765408571.895519,-9.624783147963162,-3.6092261203106295,-0.6044970492669204,0.23018599221945832,-0.2614153930451428,0.07426560073208822
1765408571.895769,-9.537317868335645,-3.5857268520394894,-0.6318909352522968,0.23542695291962737,-0.2578580663068748,0.07686821797289607
1765408571.896019,-9.456807183520516,-3.562626527345804,-0.6539150995833191,0.2405510160129828,-0.2535928661684842,0.07946460974341898
1765408571.896269,-9.384750784062259,-3.5411319747506034,-0.6699431343301486,0.2455782549254598,-0.2486242764027837,0.08205196174950463
1765408571.89666,-9.32228810475932,-3.5223524647321205,-0.6796415937241612,0.2505349653560911,-0.24297696602409116,0.08462812822913851
1765408571.89691,-9.27016079961384,-3.5072164419560883,-0.6829827504681476,0.25545204082153233,-0.23669355441814754,0.08719149226928381
1765408571.89716,-9.22869152655333,-3.4963973691740544,-0.6802388943727414,0.2603628792220995,-0.22983158554412947,0.08974105599515454
1765408571.89741,-9.197783629020453,-3.4902573681614117,-0.6719557629358534,0.26530096164665257,-0.22245995973728863,0.09227677957798845
1765408571.897523,-9.17694474077402,-3.4888153648247417,-0.6589050493460816,0.2702972953277302,-0.21465512004497336,0.09480011115132413
1765408571.897856,-9.165334803824944,-3.491742909684943,-0.6420185387933055,0.27537794248739583,-0.2064973058515821,0.0973146001567621
1765408571.89819,-9.161835870613169,-3.498387318293721,-0.6223093567626659,0.28056185891474866,-0.19806716591787135,0.09982648037272211
1765408571.898517,-9.165137982831205,-3.5078193060726472,-0.600788426962891,0.2858592424386776,-0.18944296616974657,0.10234513011416589
1765408571.898767,-9.173832968368103,-3.5189009813796504,-0.5783856116805087,0.2912705458905619,-0.18069854317198736,0.10488334126555485
1765408571.899017,-9.18650659802507,-3.530369361209482,-0.5558849357519293,0.2967862462931509,-0.17190206252768028,0.10745734548617963
1765408571.899267,-9.201819570817024,-3.5409298498107153,-0.5338820817278095,0.30238739075525767,-0.16311555994070534,0.11008655921857924
1765408571.899587,-9.218569473565754,-3.549353252936416,-0.5127698866853728,0.30804687140211495,-0.15439516994189864,0.11279302657084038
1765408571.899837,-9.235728834833186,-3.5545694263572294,-0.4927536893628955,0.31373132493602557,-0.14579187123955786,0.1156005636359684
1765408571.900087,-9.25245779764317,-3.5557510648034585,-0.4738938963544722,0.31940350958425545,-0.13735249947542208,0.11853363367503005
1765408571.900337,-9.268093111656768,-3.552382105617658,-0.45616946021074106,0.3250249830731137,-0.1291207196019656,0.12161600026239253
1765408571.900502,-9.282117817505021,-3.5443060025358384,-0.43955374443669715,0.3305588919509414,-0.12113763317407761,0.1248692152510187
1765408571.900752,-9.29411777345275,-3.5317495515516293,-0.42409326105951245,0.3359726859796068,-0.1134417282100561,0.12831101045198703
1765408571.901002,-9.303731855793117,-3.515318467103551,-0.40997936177990624,0.34124058334247587,-0.10606796684414176,0.13195367923596707
1765408571.901252,-9.310602894594915,-3.495961866258018,-0.39760250307919104,0.3463456228530021,-0.0990459564634803,0.13580255241681818
1765408571.901565,-9.314336892745896,-3.4749045253262763,-0.38757864848838397,0.3512811491403692,-0.09239734819234505,0.1398546948403731
1765408571.901815,-9.314478404548066,-3.453548821218186,-0.38073945796642333,0.356051593561622,-0.08613280569716719,0.14409797599699806
1765408571.902065,-9.31050918303857,-3.433352739733384,-0.3780827787548627,0.36067244210946675,-0.08024903346636263,0.14851067849939537
1765408571.902315,-9.30187502463664,-3.4156948803971496,-0.38068559291706705,0.36516932716934286,-0.07472640460136384,0.15306177636546844
1765408571.902532,-9.288042009844338,-3.4017401710071997,-0.3895859910998324,0.3695762464173639,-0.06952766372228174,0.1577119441662869
1765408571.902782,-9.268577657595793,-3.392320339142053,-0.4056447083126993,0.3739329903505185,-0.06459802799086839,0.1624152771946532
1765408571.903032,-9.243245578723702,-3.3878416315891338,-0.4294017869956055,0.37828193502896895,-0.059866836161885414,0.16712163374619726
1765408571.903282,-9.212096657270914,-3.388229597310179,-0.4609487207110928,0.38266442690866315,-0.05525074493845152,0.17177945564368546
1765408571.903578,-9.175538298678452,-3.392917360002214,-0.4998376697364129,0.38711705550103326,-0.05065832723103975,0.1763388767978644
1765408571.903828,-9.134366532168842,-3.4008797691817185,-0.5450452111248768,0.3916681602122773,-0.045995765592407326,0.18075488959616506
1765408571.904078,-9.089752605813608,-3.4107112036474865,-0.5949994452771615,0.39633492141806564,-0.0411731801822815,0.18499031098227312
1765408571.904328,-9.043184373645177,-3.4207401744917134,-0.6476685554004429,0.4011213356006134,-0.036111028910051676,0.18901828780573796
1765408571.904515,-8.996371201674998,-3.429170245208537,-0.7006989752427467,0.4060172883386181,-0.030745983618736178,0.19282411410475764
1765408571.904765,-8.951127329582572,-3.4342347569994796,-0.7515843797564223,0.4109988355248903,-0.025035708869326885,0.19640619504256301
1765408571.905015,-8.90925136609883,-3.434352074132212,-0.7978436182546483,0.41602969114066113,-0.018962047767550373,0.19977606634701692
1765408571.905265,-8.872418685020525,-3.428267830835232,-0.8371864435019095,0.4210638049787133,-0.012532270009849406,0.2029574517488133
1765408571.905555,-8.842099575688682,-3.415170786579185,-0.8676501332934513,0.4260488026282302,-0.005778262389988269,0.20598441094228467
1765408571.905805,-8.819510205461768,-3.394769900468682,-0.8876968378667407,0.43092996489553426,0.0012462005411133018,0.20889869989434867
1765408571.906055,-8.80559704258024,-3.3673228387229837,-0.8962688650483457,0.43565436470438595,0.008469741441535762,0.2117465380328883
1765408571.906305,-8.801049357495934,-3.3336107561399637,-0.8928054495234733,0.44017477259212984,0.015808704068713406,0.21457505027120274
1765408571.90747,-8.806329193752617,-3.2948606452586255,-0.87722934132552,0.4444529848467993,0.023172932962428915,0.21742870924519261
1765408571.90772,-8.821704235010683,-3.2526237841818246,-0.849914946943269,0.44846230506507956,0.030471446019320187,0.22034611974010265
1765408571.90797,-8.847267789006196,-3.2086251098075946,-0.8116510378360366,0.45218900688950586,0.03761754646608512,0.2233574486362888
1765408571.90822,-8.882933639483278,-3.1646019975215838,-0.7636086133017138,0.4556327146293772,0.044533109260352324,0.22648271828367134
1765408571.907533,-8.928402042219274,-3.122151139660698,-0.7073180018223023,0.45880574674166197,0.0511519980264702,0.22973107442189197
1765408571.907866,-8.983104059801034,-3.0825995012613987,-0.6446507944659238,0.4617315585468116,0.057422743737711036,0.2331010380676902
1765408571.9082,-9.046140559154969,-3.0469111112872693,-0.577795081404943,0.46444248787757814,0.0633106762266999,0.2365816690255261
1765408571.908528,-9.116235992302437,-3.0156369955417444,-0.5092095878873276,0.46697705169260695,0.06879962602673781,0.2401545038224538
1765408571.908778,-9.191724444886134,-2.9889112312525934,-0.4415449493480901,0.469377058777869,0.07389315025979988,0.24379606702174686
1765408571.909028,-9.270578321728552,-2.966491533096225,-0.3775273722655489,0.4716847883552375,0.07861506709813715,0.2474806831999182
1765408571.909278,-9.350481832248192,-2.94783767842337,-0.319808309201558,0.47394044680081165,0.0830089934806609,0.2511832533533098
1765408571.909479,-9.428944253103515,-2.932215882874247,-0.2707911663963577,0.4761800685063118,0.08713660755354202,0.25488163714475415
1765408571.909729,-9.50344191888216,-2.9188132101091915,-0.23245208829758873,0.47843396797740895,0.09107447721217553,0.25855832658167116
1765408571.909979,-9.571572862369305,-2.906844794471461,-0.2061765324641057,0.4807257731181823,0.0949094632260432,0.26220121048667344
1765408571.910229,-9.631204928109097,-2.8956388590206963,-0.19263520490072333,0.48307199279062807,0.09873289476815497,0.26580339106637946
1765408571.910503,-9.680598676775375,-2.8846895113655955,-0.1917198699573399,0.4854820192868089,0.10263392050306969,0.2693621831169576
1765408571.910753,-9.71849126630779,-2.8736734901727825,-0.20255123409225997,0.4879584434669922,0.10669263737664084,0.2728775627693626
1765408571.911003,-9.744135332491386,-2.8624331902467377,-0.22355989077965774,0.49049756381293347,0.11097373470769949,0.2763504155021617
1765408571.911253,-9.757294768595278,-2.850933726987282,-0.25263056418640445,0.49308999909959933,0.11552139738257533,0.2797809529416439
1765408571.911464,-9.758204860084609,-2.839205624683575,-0.2872917602402531,0.49572135868498673,0.12035606549519798,0.2831676169278342
1765408571.911714,-9.747506802012513,-2.8272860243175333,-0.32492829238603405,0.4983729684766853,0.12547338687683518,0.2865066765016606
1765408571.911964,-9.726166942459137,-2.815170103619992,-0.36299344250069976,0.501022683294578,0.1308453943967826,0.28979258100399014
1765408571.912214,-9.695390534667514,-2.802781534096752,-0.39920029423939246,0.5036458347396886,0.13642365982829477,0.2930189938852387
1765408571.9125,-9.656539201272862,-2.7899670988251932,-0.4316763720070503,0.5062163684185031,0.1421439691992025,0.29618031559309693
1765408571.91275,-9.611060085967958,-2.77651650788337,-0.4590709176727474,0.5087082106242353,0.1479319531727605,0.299273415967467
1765408571.913,-9.56043159437059,-2.762204166975027,-0.480609994058659,0.511096860691725,0.15370909082336595,0.30229923778069884
1765408571.91325,-9.506126077238564,-2.7468452500729894,-0.4961005154059906,0.5133611323560464,0.15939857439518726,0.3052639126966338
1765408571.913536,-9.449586099205169,-2.730354253351069,-0.5058881617960452,0.5154848914030562,0.16493064492303772,0.3081790746364414
1765408571.913786,-9.392210048309877,-2.7127914767824657,-0.5107749813701332,0.5174585841417993,0.1702471300424933,0.3110611846309218
1765408571.914036,-9.335344238403668,-2.694383467822153,-0.5119025779163253,0.5192803285465639,0.17530498639587125,0.31392988362536944
1765408571.914286,-9.280280058226884,-2.6755085699448626,-0.5106091628112245,0.5209563520766141,0.18007865729177716,0.3168056153393919
1765408571.91452,-9.22825487176068,-2.65664736202047,-0.5082730835417574,0.5225006231870493,0.18456104072576246,0.31970693900232655
1765408571.91477,-9.18045489895002,-2.6383067533430298,-0.5061581790585326,0.5239336418169381,0.18876289873213437,0.32264802187599145
1765408571.91502,-9.13801776491298,-2.6209324090842294,-0.505275612668061,0.5252804979283192,0.1927106735405644,0.3256367517807078
1765408571.91527,-9.102031382027251,-2.6048256545188346,-0.5062748396627651,0.5265684265494401,0.19644287308626335,0.32867377629295647
1765408571.915491,-9.073524580733256,-2.590078960935978,-0.5093751276115893,0.5278241507203606,0.20000537603765167,0.33175260560747905
1765408571.915824,-9.053444958632415,-2.5765402281544976,-0.5143470506234367,0.5290713152768184,0.2034461599851924,0.33486074386126435
1765408571.916158,-9.04262171491013,-2.5638114583942078,-0.5205481355126592,0.5303282929401352,0.2068100805477536,0.33798165725548174
1765408571.916542,-9.041714984682471,-2.5512824525339703,-0.5270086280065718,0.5316065914602105,0.21013438802258882,0.34109725552623654
1765408571.916792,-9.051156705807534,-2.5381949394199492,-0.5325550132885571,0.5329100024112026,0.21344559722885134,0.3441904690534009
1765408571.917042,-9.07108998687898,-2.5237273200817336,-0.5359533595307654,0.5342345235319411,0.21675810575167984,0.3472474743968327
1765408571.917292,-9.10131401078955,-2.507085910040255,-0.5360529904561135,0.5355689818041817,0.22007464068558233,0.35025918277591084
1765408571.917512,-9.141240544889712,-2.487586852494677,-0.5319131134821125,0.5368961981558736,0.22338829408700164,0.3532217596593214
1765408571.917762,-9.189867264124262,-2.4647150788379446,-0.5229000569851933,0.5381944763054279,0.2266856537947167,0.3561361574301024
1765408571.918012,-9.245772774947357,-2.438152644927854,-0.5087495931555067,0.5394391802244434,0.2299503905921231,0.35900685871716426
1765408571.918262,-9.307138078956063,-2.4077766836748125,-0.4895950742926835,0.5406041959927729,0.23316666071717218,0.36184017797667656
1765408571.91849,-9.371798502242903,-2.3736343304452863,-0.465964788377558,0.5416631527066618,0.2363218414382432,0.36464251294234196
1765408571.91874,-9.437328232092671,-2.335905832637161,-0.4387502704894436,0.5425903806080729,0.23940838022936436,0.3674188873220745
1765408571.91899,-9.501156288383806,-2.294867131402436,-0.40914455426568624,0.5433616693560679,0.24242477860219028,0.3701720262738722
1765408571.91924,-9.560708157492618,-2.2508611242083854,-0.3785502822126133,0.5439549263613146,0.24537584558444336,0.3729020914429041
1765408571.919472,-9.613562328495902,-2.204284142690515,-0.348463239614616,0.5443508355960864,0.24827233691892647,0.3756070756742629
1765408571.919722,-9.657607409769822,-2.155590670775801,-0.3203430398160627,0.5445336037615387,0.25113001924312056,0.37828371208699507
1765408571.919972,-9.691184830840363,-2.1053141910897315,-0.29548520759780483,0.5444918485744629,0.25396814573572324,0.380928609648511
1765408571.920222,-9.713203935591704,-2.0540959810173907,-0.2749083995377547,0.5442196132817299,0.2568073372051738,0.3835392402335551
1765408571.921458,-9.72321909161797,-2.0027087462653266,-0.25926955982011846,0.5437173883396296,0.2596669330959753,0.3861144188276846
1765408571.921708,-9.721461824048438,-1.952060285854851,-0.24881804001314037,0.5429929297450199,0.2625620111348915,0.38865405523017804
1765408571.921958,-9.708825437334724,-1.903165357474554,-0.2433948144566237,0.5420616322659917,0.2655004489294924,0.39115818422906945
1765408571.922208,-9.686804909730041,-1.857081561829594,-0.2424750633497834,0.5409462602915053,0.26848053430943924,0.3936255256288856
1765408571.921544,-9.657399674557618,-1.81481511916836,-0.24524464559184708,0.5396759405852183,0.27148962957121514,0.3960519901870546
1765408571.921877,-9.622989850548562,-1.7772111086691185,-0.25069614009397706,0.5382844465372467,0.27450423573904725,0.3984295766331715
1765408571.922211,-9.58619715517801,-1.7448471368613205,-0.25772882963460947,0.536807919605165,0.2774915484798492,0.40074601242211855
1765408571.922487,-9.549740673869461,-1.7179489036376174,-0.265238659926346,0.5352822584049035,0.2804123316558,0.4029853312634142
1765408571.922737,-9.51629549744177,-1.6963422471784024,-0.27218857215238496,0.5337404500934,0.283224713256718,0.4051294024260606
1765408571.922987,-9.488359367602188,-1.6794510762462007,-0.2776563382391171,0.5322101209315001,0.2858883636993802,0.407160254584981
1765408571.923237,-9.468129810843463,-1.666345057863092,-0.28086379019178764,0.5307115500943167,0.28836847827902706,0.40906288135759716
1765408571.923558,-9.457393503122484,-1.6558343092174967,-0.28119413611414285,0.5292563341745206,0.29063906538144335,0.41082809237425405
1765408571.923808,-9.457431614416747,-1.6466001272158073,-0.2782013443722114,0.5278468121199753,0.29268519648810143,0.4124549113967573
1765408571.924058,-9.468947906491632,-1.6373427784547934,-0.27161109374265685,0.5264762611995039,0.2945040185854608,0.41395205664192475
1765408571.924308,-9.492027261868907,-1.626923142951721,-0.26131197200374057,0.5251297742234531,0.296104413978159,0.4153381889310448
1765408571.924467,-9.526129631071266,-1.61447690116241,-0.24733925786492397,0.5237856636975399,0.29750525271009304,0.41664085856960487
1765408571.924717,-9.570119501100539,-1.5994870979513978,-0.22985763914695334,0.5224172256036531,0.2987322964072232,0.41789434742726134
1765408571.924967,-9.62232639938324,-1.5818102270732441,-0.20915047354297783,0.5209947128976944,0.29981400650637513,0.4191367973952789
1765408571.925217,-9.680629312895354,-1.5616593620439032,-0.1856220294026085,0.5194873925151811,0.3007767364038615,0.42040709049126906
1765408571.925634,-9.742557916073407,-1.539553470982039,-0.1598158374428359,0.5178655906594386,0.3016399761521994,0.4217419140898512
1765408571.925884,-9.805406079354036,-1.5162446358894999,-0.13244563867389256,0.5161026727462225,0.3024124174645155,0.4231733534441834
1765408571.926134,-9.866356727159044,-1.4926353954219223,-0.10442663487210083,0.5141769366513079,0.30308957364388467,0.4247272341279771
1765408571.926384,-9.922618691904457,-1.4696978081087761,-0.0768893205013234,0.5120733975945164,0.30365349302349465,0.42642229658917385
1765408571.926849,-9.971573520549807,-1.4484040632063777,-0.05116086650722626,0.5097854109964446,0.30407475811565826,0.4282701311167392
1765408571.927182,-10.010924420905507,-1.4296748338845133,-0.028708298504404973,0.5073160342978612,0.304316541572382,0.4302756592137198
1765408571.927516,-10.03883445705587,-1.4143459721953273,-0.01104768509179472,0.5046789871138484,0.3043401062463677,0.4324378541482607
1765408571.927515,-10.054039465716565,-1.403148067993003,0.0003694901392007919,0.50189904331293,0.30411088393028407,0.4347503830224585
1765408571.927765,-10.055923250050313,-1.396689474983134,0.004277777588784168,0.4990116940570541,0.3036041935759948,0.4372019419139893
1765408571.928015,-10.044547629365308,-1.3954337569080855,-0.00028838911230501615,0.4960619765901779,0.30280977111585533,0.4397762321084326
1765408571.928265,-10.020636605074609,-1.3996671055263132,-0.013900158047064423,0.49310246651604867,0.3017345364807116,0.4424517311139917
1765408571.928557,-9.985519972805204,-1.4094579082865293,-0.03666509397717778,0.49019054039693655,0.30040332431497396,0.44520155679062823
1765408571.928807,-9.941044948683306,-1.4246163564397776,-0.06818595107275303,0.48738509418535064,0.298857559818806,0.44799374608572673
1765408571.929057,-9.889464565884474,-1.4446647624253288,-0.10754964466567694,0.4847429594468424,0.29715204527407674,0.4507921841093844
1765408571.929307,-9.833310465512808,-1.4688286962295278,-0.15334884564908585,0.48231530960060653,0.2953501736119514,0.45355827872645377
1765408571.929519,-9.77525689102118,-1.4960561322945913,-0.20373735112021482,0.4801443721583257,0.29351803351860684,0.45625332161986787
1765408571.929769,-9.717982503407447,-1.5250678546194634,-0.25651848261827775,0.47826073466549596,0.2917180060323305,0.4588413249602242
1765408571.930019,-9.664036741887548,-1.5544378302202702,-0.3092638073326149,0.4766814651274903,0.29000255845260137,0.46129198671359845
1765408571.930269,-9.615717743149878,-1.582696742070781,-0.35945619748357627,0.4754091920301574,0.28840900924526874,0.4635833461644953
1765408571.930471,-9.574968987769727,-1.608445834382869,-0.4046462403650759,0.4744322063546296,0.28695602113993784,0.46570368345996516
1765408571.930721,-9.543300908115544,-1.6304638877167286,-0.4426069561603803,0.47372554077004286,0.2856423913807995,0.4676523174312504
1765408571.930971,-9.52174099763957,-1.6477900759866086,-0.4714718325689455,0.4732528583170577,0.28444832334363473,0.46943915332442887
1765408571.931221,-9.510812306262395,-1.6597704496002486,-0.4898452093639457,0.4729688885656171,0.2833388951993468,0.47108307821775536
1765408571.931485,-9.510537272811591,-1.6660641868246797,-0.49687924171018366,0.4728221206626126,0.2822690636535131,0.4726095281074529
1765408571.931735,-9.520462578911024,-1.6666144448716775,-0.4923160881163125,0.4727574959998851,0.2811893622331077,0.4740476904220055
1765408571.931985,-9.539700903961668,-1.661594752460378,-0.47649724022098283,0.4727189101383915,0.280051478678247,0.4754278219837534
1765408571.932235,-9.56698645156398,-1.651344271517458,-0.4503433856877121,0.47265141580351233,0.2788130670919588,0.4767790696557657
1765408571.932551,-9.600742180801543,-1.636304658332576,-0.4153072351098887,0.47250310629609166,0.2774413823552086,0.47812802945635446
1765408571.932884,-9.639157133655099,-1.6169689738671191,-0.3732998352399715,0.4722267271458248,0.2759155218994644,0.47949810687676137
1765408571.933218,-9.680271758149946,-1.5938496860877844,-0.32659093877188927,0.4717810870891938,0.27422716465555164,0.48090955680705044
1765408571.933612,-9.722068000666072,-1.5674681006473965,-0.277687035386374,0.47113232310647646,0.27237974195784337,0.4823799087333078
1765408571.933862,-9.762560065998498,-1.5383615906942607,-0.22919469630363656,0.4702550426923012,0.27038606002263543,0.48392437562257523
1765408571.934112,-9.799881809499604,-1.507098947256346,-0.18367944097871813,0.4691333203855658,0.26826457441867785,0.4855558549172228
1765408571.934362,-9.832367467945009,-1.4742904449700172,-0.14353092587009605,0.46776145153202403,0.2660347460142079,0.48728427148430553
1765408571.934584,-9.858623011771579,-1.4405801599763826,-0.11084481706027514,0.4661442883261332,0.26371210177885246,0.4891152526708846
1765408571.934834,-9.87758560650074,-1.40661402127285,-0.08733006084442732,0.4642969604806538,0.26130374708343973,0.49104838983604077
1765408571.935084,-9.888569325497729,-1.3729856551616595,-0.07424590367197773,0.46224384417445435,0.25880512035936104,0.4930755325318245
1765408571.935334,-9.891296913841346,-1.340169713845259,-0.07236618720153427,0.46001675618794874,0.256198702001997,0.49517961264966265
1765408571.935597,-9.885919017386279,-1.3084565867515363,-0.08196280988492528,0.4576524673341358,0.2534551272754323,0.49733440845132404
1765408571.935847,-9.873022125136737,-1.2779028215326633,-0.10279943626794952,0.45518973055500755,0.25053671810393896,0.4995054877529184
1765408571.936097,-9.853624234949185,-1.248309249821491,-0.13413027024095422,0.45266610118241946,0.24740295399678386,0.5016523677500767
1765408571.936347,-9.829154300016073,-1.2192348184276496,-0.17470442261574576,0.4501148779436134,0.24401699951310607,0.503731716947517
1765408571.936563,-9.801409420049117,-1.190048824049151,-0.22278242784560906,0.44756249721573477,0.24035220554594916,0.5057012100170484
1765408571.936813,-9.772483811726735,-1.1600173691246258,-0.2761757114222239,0.44502666618544384,0.23639754755916118,0.5075234589610522
1765408571.937063,-9.744666761952665,-1.128411735966887,-0.3323187525804403,0.4425154302141543,0.2321612280693805,0.5091693520591234
1765408571.937313,-9.720312513031715,-1.0946192069947684,-0.38837658343481934,0.4400272401527004,0.2276720478819868,0.5106202060868449
1765408571.937492,-9.701691128341183,-1.0582341375228554,-0.44138173793675395,0.4375519252885893,0.22297849298478628,0.511868384725264
1765408571.937742,-9.690833592202301,-1.0191112002416172,-0.48839021666539184,0.43507232757698605,0.21814569636977393,0.512916383094547
1765408571.937992,-9.689385883696243,-0.9773726978342957,-0.5266460491594251,0.43256627577577816,0.21325054502612947,0.513774709279839
1765408571.938242,-9.698485945105935,-0.9333734845032025,-0.553744807766684,0.43000860145980274,0.2083753148619466,0.5144591038503218
1765408571.938443,-9.718675030330239,-0.8876357149701616,-0.5677851025330376,0.4273729859654473,0.20360037323685762,0.5149876805338831
1765408571.938693,-9.74985120131756,-0.8407692588365967,-0.5674954740387494,0.42463351979568303,0.19899662283207706,0.5153784731763907
1765408571.938943,-9.791267907907828,-0.7933930487880858,-0.5523260575674297,0.42176592693221476,0.1946184047215,0.5156477035416601
1765408571.939193,-9.84157529057161,-0.7460699037574365,-0.5225001559232795,0.4187484635041581,0.1904975613357707,0.5158088984675238
1765408571.93947,-9.898897463566295,-0.6992638487038145,-0.479026064112287,0.41556255109297907,0.18663932776246334,0.5158728099868679
1765408571.93972,-9.960936951194116,-0.6533247677782059,-0.4236703492599495,0.41219323604836244,0.1830206289357171,0.5158479363723067
1765408571.93997,-10.02509783405833,-0.6085000289832282,-0.3588915014791248,0.4086295609920546,0.17959113024479367,0.5157413228290788
1765408571.94022,-10.088620733947725,-0.56496687084276,-0.2877316760985682,0.40486489863094666,0.17627702832603112,0.5155592739617656
1765408571.940528,-10.148723994679278,-0.5228742992790806,-0.21366648292659016,0.40089724882256317,0.17298718769250723,0.5153076634452648
1765408571.940861,-10.202745539863306,-0.4823809005142771,-0.14041769371935675,0.39672944783613046,0.16962094017156626,0.514991670685874
1765408571.941195,-10.24827886629888,-0.4436765670694774,-0.07173999929672582,0.3923691949040371,0.1660767073339244,0.5146149700777104
1765408571.941516,-10.283295113135257,-0.4069813614564134,-0.011199322446123672,0.38782878769964774,0.16226057171613203,0.5141785899173109
1765408571.941716,-10.306242562987775,-0.3725218164342807,0.03803608481304292,0.3831244936698406,0.15809400935026785,0.5136797864964882
1765408571.941916,-10.316116560616155,-0.34049152782815084,0.07337272047169477,0.3782755619247475,0.15352019616346507,0.5131113065544096
1765408571.942116,-10.312496544523007,-0.31100704560067716,0.09292607456624921,0.37330296566032845,0.14850854599067975,0.512461336840904
1765408571.942316,-10.29555131725507,-0.28407110645966,0.09561061932631354,0.3682280164911944,0.14305732420106182,0.5117142908666712
1765408571.942484,-10.266017341134987,-0.2595537201562223,0.08119034750996623,0.36307100178462537,0.1371942597168781,0.510852403086029
1765408571.942734,-10.225156675141886,-0.23719841213505474,0.050295471158547635,0.3578499956500157,0.13097509778583288,0.509857933110548
1765408571.942984,-10.174700802272978,-0.21665633022124856,0.004408084615549828,0.35258000359929764,0.1244800918707188,0.5087156539556076
1765408571.943234,-10.116784542840865,-0.1975450541035998,-0.054183625373128014,0.347272592776504,0.1178085752108839,0.5074152203329025
1765408571.943501,-10.053871447682637,-0.17952275872871473,-0.12246528374485768,0.3419360967129282,0.11107193498349466,0.5059529969021626
1765408571.943751,-9.988669457738188,-0.16236351994859677,-0.1968144219472946,0.3365763723139109,0.10438545764758296,0.5043329836304572
1765408571.944001,-9.924034209924955,-0.1460173994437409,-0.2731603880682315,0.3311979736917882,0.09785961519803496,0.5025666089728008
1765408571.944251,-9.862857953231355,-0.1306403500387361,-0.3471857195980465,0.32580553176562826,0.0915914588345493,0.5006713620733846
1765408571.944464,-9.807944529126063,-0.11658430912412394,-0.4145619370398392,0.32040509613071577,0.08565686715153914,0.4986684714806889
1765408571.944714,-9.761874288358754,-0.10434642896787023,-0.4712062657691873,0.31500519878378347,0.08010439270373844,0.4965800526877716
1765408571.944964,-9.726865968560052,-0.09448594370701036,-0.513541289658539,0.30961744214432013,0.07495132642587977,0.49442627407903866
1765408571.945214,-9.704644630711849,-0.08752447280095264,-0.5387366755277898,0.3042565012335378,0.07018237951824227,0.4922230842881273
1765408571.945467,-9.696325437983955,-0.08384828347335929,-0.5449110573808412,0.29893954166686737,0.06575110899468825,0.48998090543459516
1765408571.945717,-9.702322455874617,-0.08362916314401903,-0.531274530689567,0.293685156239969,0.06158390933632339,0.48770448327440546
1765408571.945967,-9.722290131293143,-0.08677604804046529,-0.4981986977518991,0.28851199543572287,0.05758608634415337,0.48539386897715153
1765408571.946217,-9.755102982436528,-0.09292455508631843,-0.44721012670310945,0.28343731211499684,0.053649285744219594,0.4830463229695731
1765408571.946507,-9.798876492450525,-0.101466714096741,-0.3809117944363036,0.27847565337706853,0.049659448597785774,0.4806587754048204
1765408571.946757,-9.851029915236323,-0.11161764545703046,-0.3028434447120817,0.27363790088409495,0.045504541705689384,0.47823035304215206
1765408571.947007,-9.908390620004154,-0.12250914366452287,-0.2172941444341088,0.26893078715969987,0.04108152301385165,0.4757644294672358
1765408571.947257,-9.967339332339394,-0.13329361280277294,-0.12907840089340034,0.2643569188406801,0.036302257056947035,0.4732697262942505
1765408571.948169,-10.023994105994822,-0.14323842591901942,-0.04328357378450153,0.25991523618767076,0.03109829356091321,0.4707601893789731
1765408571.948419,-10.074426776965785,-0.15179234276064826,0.035005201446426805,0.2556017471906797,0.025424502406931622,0.46825362710465757
1765408571.948669,-10.114900405377728,-0.15861168103291334,0.10099414327441801,0.25141031991284146,0.019261527257057282,0.46576935721356305
1765408571.948919,-10.142112424573996,-0.16354275136074245,0.15047107548860028,0.24733331866184577,0.012616944516211228,0.4633253126750461
1765408571.948456,-10.153426956928218,-0.1665665085898662,0.1800795641546408,0.24336192344890925,0.005524980842067801,0.460935162189704
1765408571.948706,-10.147079953978395,-0.16771915759182177,0.18755716048296467,0.239486058575867,-0.0019552986605579506,0.45860598201092806
1765408571.948956,-10.122341169214117,-0.1670067565988229,0.17191771005060708,0.23569395425738038,-0.009743298274623214,0.45633688787402205
1765408571.949206,-10.079617661325578,-0.16433208982638564,0.13355979301055138,0.2319714512699836,-0.017741551971180276,0.45411884048129586
1765408571.949472,-10.020485697743355,-0.15944881313464562,0.07428754135553438,0.22830121679497004,-0.02584151604002962,0.45193562115481783
1765408571.949722,-9.947642123161636,-0.15195224798144152,-0.0027642723119100303,0.2246620715187557,-0.03393018925213459,0.4497657816801988
1765408571.949972,-9.864772233219895,-0.14130943417703234,-0.09330204383191257,0.2210286341252703,-0.0418971383231395,0.4475852373569672
1765408571.950222,-9.776338576796848,-0.126924312608153,-0.19213478319609273,0.2173714577067584,-0.049641393658480144,0.4453701043528152
1765408571.950477,-9.687303202395851,-0.10822823380046272,-0.2935087273384601,0.21365776191865443,-0.05707763039067151,0.4430993790615412
1765408571.950727,-9.60280337015261,-0.08478214964558689,-0.39149027658128455,0.20985277618061798,-0.06414109153796484,0.4407571142722392
1765408571.950977,-9.52780634611401,-0.056375284428067725,-0.4803660686768008,0.20592162611262504,-0.07079083758895148,0.43833385195207797
1765408571.951227,-9.466771615178352,-0.023105933339176973,-0.5550257677310054,0.20183162678835817,-0.07701110008835889,0.4358271987889476
1765408571.951525,-9.423348065216018,0.014567013057092966,-0.6112946133648446,0.19755479373239063,-0.08281075172080642,0.43324154616025906
1765408571.951775,-9.40012962450142,0.05580908996547567,-0.6461892792714624,0.19307034732251044,-0.0882211390457652,0.43058701949765205
1765408571.952025,-9.398486971090254,0.09943495098512663,-0.6580796971545436,0.1883669680244113,-0.09329269588483367,0.42787779521467084
1765408571.952275,-9.418487023303692,0.14397225731471344,-0.6467482595250521,0.1834445554633731,-0.09809082739910416,0.42512996674236386
1765408571.952581,-9.45890632248227,0.18776075091496164,-0.6133458137918951,0.17831525492054984,-0.10269153972343038,0.4223591901139905
1765408571.952831,-9.517338012374774,0.2290783513613733,-0.5602524824328794,0.17300355311895363,-0.10717722329048114,0.4195783833080397
1765408571.953081,-9.59038410707865,0.2662818938203885,-0.4908604136591493,0.167545325822287,-0.11163289476230585,0.41679575898942134
1765408571.953331,-9.673916201642065,0.2979475857417628,-0.4093024642955331,0.16198583907627478,-0.1161430567685101,0.41401341358478855
1765408571.95363,-9.763380991638403,0.3229967043114853,-0.32015322607455987,0.15637683723047818,-0.12078915812849145,0.41122659365328834
1765408571.95388,-9.854123414272205,0.3407949851670464,-0.22812703030694573,0.15077296163069145,-0.1256474808923941,0.40842366259946633
1765408571.95413,-9.941699917949366,0.35121777801038834,-0.13779361656070235,0.145227813899849,-0.13078720317448525,0.4055867359253573
1765408571.95438,-10.022156809815526,0.35467594929209567,-0.05332754233651183,0.13979000557089633,-0.13626840610271987,0.40269293844204745
1765408571.954572,-10.092253388482531,0.35209976685984606,0.021697468152101378,0.13449953125938388,-0.142139879964251,0.3997162253455448
1765408571.954772,-10.149615827993404,0.34488072508550216,0.0844627684116516,0.1293847709466464,-0.14843670289666241,0.3966296669612259
1765408571.954972,-10.192814318154221,0.33477504951817544,0.1330046109666628,0.1244603647729613,-0.15517770625536853,0.39340802609456166
1765408571.955172,-10.221362190085413,0.3237765957304243,0.16625828017102412,0.11972611378418291,-0.16236310180382751,0.39003039126782146
1765408571.955372,-10.235642166928887,0.3139696424251561,0.184046974612921,0.1151669614248167,-0.16997268099781254,0.38648259892740777
1765408571.955536,-10.236771768482324,0.3073732510924008,0.18701951181367313,0.110754023181343,-0.17796502382929189,0.38275918624662414
1765408571.955786,-10.226426053024575,0.3057890270794943,0.17654595366630163,0.10644655866132736,-0.18627804185609864,0.3788646522351296
1765408571.956036,-10.206639430332814,0.310663777870849,0.15458397116821734,0.10219471683178989,-0.19483098827953668,0.3748138633233757
1765408571.956286,-10.179608421747934,0.3229775943829914,0.12352938184154298,0.09794283781429253,-0.20352788020388304,0.3706315216716715
1765408571.956617,-10.14751450749894,0.3431660399491912,0.08606256934575185,0.09363307552177073,-0.2122621221290542,0.3663507151406221
1765408571.956867,-10.112381480176595,0.37108254227940396,0.04500025792008838,0.0892091111913479,-0.22092198871338134,0.36201067165868805
1765408571.957117,-10.075975619374978,0.40600402098342,0.00315987935014164,0.0846197418209819,-0.22939653295048784,0.3576539298599849
1765408571.957367,-10.039750072366067,0.4466793941846774,-0.03675922162375293,0.07982214047409288,-0.2375814573386071,0.3533231994222024
1765408571.957499,-10.004828146330784,0.4914170475809924,-0.07227719429427054,0.07478460263341832,-0.24538451388584842,0.3490582119762366
1765408571.957749,-9.972015414833667,0.538203963282247,-0.10121996143328382,0.06948862117779586,-0.2527300578614326,0.3448928562542949
1765408571.957999,-9.941828911776527,0.5848464334924828,-0.12179312055974788,0.06393016993071389,-0.2595624608127774,0.34085285164390233
1765408571.958249,-9.914533176395366,0.6291205141527503,-0.13264465647775367,0.058120116418507575,-0.2658481903817702,0.33695414639959365
1765408571.958514,-9.890176219036103,0.6689198895452964,-0.13291535642684374,0.052083730506722735,-0.27157647098483195,0.33320214030301737
1765408571.958764,-9.868622198692174,0.7023896924008436,-0.12227359173535285,0.04585931232935354,-0.27675853021952956,0.3295917422251745
1765408571.959014,-9.849580879043145,0.7280368101346008,-0.10092926983512705,0.03949602508179784,-0.28142551417766803,0.32610819372143757
1765408571.959264,-9.832636053593635,0.7448098576572965,-0.06962114378959351,0.03305107337948732,-0.2856252364805415,0.322728527230789
1765408571.959586,-9.817275525074212,0.7521449532944806,-0.029573406474265332,0.02658641358817213,-0.2894180099204637,0.31942348662828524
1765408571.959836,-9.802924206409509,0.7499765617384525,0.017578732885537605,0.020165225037008513,-0.29287187670008746,0.3161597223856758
1765408571.960086,-9.788980669810618,0.7387157966938707,0.06989085233959987,0.013848405879718577,-0.29605758689304623,0.31290208187982027
1765408571.960336,-9.77485670177705,0.7192012294659945,0.1252321434470097,0.007691365723691539,-0.29904367524833747,0.30961584040888573
1765408571.960508,-9.760018575422327,0.6926288924995233,0.18142116535199315,0.0017413540926954154,-0.30189196657690714,0.3062687503060032
1765408571.960758,-9.744027245013358,0.6604686859633226,0.2363649979292665,-0.003964508002939816,-0.3046538092345407,0.3028328156106777
1765408571.961008,-9.726573134036064,0.6243740586287077,0.28819126665861394,-0.00940041949671854,-0.30736728970609933,0.2992857263285099
1765408571.961258,-9.70750069098157,0.5860908570202493,0.3353623699320339,-0.01455233148385321,-0.3100556079654189,0.295611912775208
1765408571.961485,-9.686818663588951,0.5473697819010125,0.376762042091562,-0.019417706658745974,-0.3127266952452814,0.291803204989239
1765408571.961735,-9.66469380153646,0.5098854217781329,0.41174645153410805,-0.024004727347278466,-0.3153740482827754,0.2878590961527751
1765408571.961985,-9.641428180695018,0.4751639790705528,0.44015578506749403,-0.028331077348447736,-0.3179786470082213,0.2837866109101956
1765408571.962235,-9.617422937505417,0.4445217326544427,0.4622870438568528,-0.03242240696179359,-0.32051172136570816,0.27959978162148774
1765408571.962536,-9.593133018456227,0.4190164697670031,0.4788330484602614,-0.03631057051289286,-0.3229380558466772,0.27531875045086257
1765408571.962786,-9.569018344032322,0.3994139591643282,0.49079560794436006,-0.04003171443452721,-0.32521949208203127,0.27096854070067544
1765408571.963036,-9.545497053658051,0.3861709709661442,0.4993826805260301,-0.04362429541857192,-0.3273183144576085,0.26657756411965483
1765408571.963286,-9.522906446055385,0.3794356801937486,0.505900302269386,-0.04712711829138339,-0.3292002615072978,0.2621759462765469
1765408571.96359,-9.501476338490686,0.37906553435327806,0.5116495968090544,-0.05057749488215485,-0.3308369768673117,0.25779376804063986
1765408571.96384,-9.48131743565515,0.38466147776817244,0.5178369075021658,-0.0540096291454946,-0.33220778837098486,0.25345934425881256
1765408571.96409,-9.462424463784672,0.39561565320108905,0.5255016477486105,-0.05745332223897757,-0.3333007723965084,0.24919767884403468
1765408571.96434,-9.444691388007795,0.41116775820450085,0.5354632317909438,-0.06093306316512757,-0.33411311034428953,0.2450292281705758
1765408571.964573,-9.427934731617217,0.43046394108991026,0.5482864676501494,-0.06446753331335289,-0.3346507746870687,0.24096906474718946
1765408571.964823,-9.411920964205805,0.4526121986815246,0.5642642900351633,-0.06806951743931379,-0.33492760641072034,0.2370264727545939
1765408571.965073,-9.396394761670672,0.47672976740165307,0.5834172438350574,-0.07174618522772197,-0.33496387288143026,0.2332049480826676
1765408571.965323,-9.38110591075775,0.5019802946526893,0.6055096883688477,-0.07549968489200011,-0.3347844232455969,0.22950253607991886
1765408571.965474,-9.365833015260623,0.527600680299311,0.6300822208713133,-0.07932797073650319,-0.3344165852675988,0.2259124244912513
1765408571.965724,-9.350402019409392,0.5529188261854779,0.6564982445665507,-0.08322577244245498,-0.33388797627177563,0.22242370955390978
1765408571.965974,-9.334697661956065,0.5773641130857532,0.6840009755901206,-0.0871856085780219,-0.3332244290428287,0.21902226221936863
1765408571.966224,-9.318666742347808,0.6004724403057131,0.7117763234290826,-0.0911987535957617,-0.33244824281903407,0.2156916351381569
1765408571.966512,-9.302313090935145,0.6218873057271505,0.7390166363561245,-0.0952560908213145,-0.3315769384982264,0.21241396540205662
1765408571.966762,-9.285684859836035,0.6413578550201079,0.7649796583356296,-0.09934882198979768,-0.3306226267715308,0.20917084018021642
1765408571.967012,-9.268855315025032,0.6587341912831973,0.7890366773172759,-0.10346903986673248,-0.3295920112614072,0.20594410420991324
1765408571.967262,-9.251899077782468,0.673959608702231,0.8107048755664261,-0.10761018303995085,-0.3284869620201117,0.202716599930299
1765408571.967516,-9.234866557504482,0.6870590885110134,0.8296615003737166,-0.11176737724167543,-0.32730550807420383,0.1994728366961767
1765408571.967766,-9.217759565971388,0.6981236237805153,0.8457405284444819,-0.11593764243590583,-0.3260430241296756,0.19619958216080136
1765408571.968016,-9.200510641462687,0.7072905426421058,0.8589146819005518,-0.12011992883085902,-0.3246933623844849,0.19288636261093312
1765408571.968266,-9.182967906852223,0.7147205797634678,0.8692666050528026,-0.12431494569847716,-0.32324972492673315,0.1895258545631372
1765408571.968493,-9.164886800870878,0.7205728660508907,0.8769533456567934,-0.12852476191751852,-0.32170515766448887,0.18611414625736972
1765408571.968743,-9.14592968334836,0.7249794193898037,0.8821685822433335,-0.13275218160703725,-0.3200526305414709,0.18265084490054964
1765408571.968993,-9.125673799977536,0.728021214818428,0.8851071287122804,-0.13699992889472737,-0.31828473660774126,0.17913900741924607
1765408571.969243,-9.103627378263472,0.7297082647032482,0.8859356876232367,-0.14126970787662002,-0.31639309974973245,0.17558488401909203
1765408571.969492,-9.079253011918388,0.7299659604461731,0.884772659403171,-0.1455612272613525,-0.3143676236863667,0.17199748715409022
1765408571.969742,-9.051997197826967,0.7286291153287756,0.8816785160125179,-0.14987128660001198,-0.31219573189813277,0.1683880258190375
1765408571.969992,-9.021324809994246,0.72544408310897,0.8766570818159743,-0.15419301469983157,-0.30986173843457254,0.1647692610778944
1765408571.970242,-8.986757132242886,0.720078526913833,0.8696668985277805,-0.15851533609857005,-0.3073464629065883,0.16115483685601015
1765408571.970519,-8.947911749424833,0.7121380893945116,0.8606407761492675,-0.1628227187657989,-0.3046271671020016,0.15755862936738071
1765408571.970769,-8.904542337423495,0.7011891743529243,0.8495112154686306,-0.1670952247670289,-0.3016778461824319,0.15399415224202434
1765408571.971019,-8.856576190357949,0.6867868749293703,0.8362396331696476,-0.1713088496861635,-0.298469859796974,0.1504740565613158
1765408571.971269,-8.804146771864213,0.6685064699426626,0.8208471342810366,-0.17543610489897607,-0.2949728559500127,0.14700976724868411
1765408571.971522,-8.74761762935119,0.6459760053026845,0.8034432872357027,-0.17944677560101105,-0.29115593487131575,0.14361128774042373
1765408571.971772,-8.687593448809519,0.6189067925039905,0.784248033158478,-0.18330877492552394,-0.2869890053478659,0.1402871834469398
1765408571.972022,-8.62491468473144,0.5871185605608319,0.763602103281515,-0.18698900710825925,-0.2824442754364859,0.137044731962391
1765408571.972272,-8.560634030333516,0.5505564864387112,0.7419632797272322,-0.19045415504797086,-0.2774977913333266,0.1338902082068765
1765408571.972498,-8.49597527346669,0.5092982548685026,0.719888271901875,-0.19367132621729852,-0.2721309160437847,0.1308292496090149
1765408571.972748,-8.432277241578477,0.4635505225544191,0.698001955589303,-0.19660852145496685,-0.26633164057659187,0.12786722042545084
1765408571.972998,-8.37092742755755,0.4136354682461119,0.676957428193901,-0.19923492098419585,-0.26009563566389726,0.12500947865716816
1765408571.973248,-8.313291324098067,0.3599691996681924,0.6573920210978254,-0.20152100189305341,-0.25342696306784707,0.12226145731783981
1765408571.973536,-8.260643955381175,0.3030344245393241,0.6398852625390956,-0.20343851009011102,-0.24633837521580187,0.11962850415208641
1765408571.973786,-8.2141092168825,0.24334997364077343,0.6249237918028935,-0.20496031046719845,-0.23885116163638198,0.11711546665865072
1765408571.974036,-8.174610858762028,0.18143974612671848,0.6128758615912574,-0.20606013603343024,-0.2309945531002837,0.11472604764091521
1765408571.974286,-8.142837228728586,0.117803678319556,0.6039759823476273,-0.20671225551958494,-0.2228047424667093,0.1124619851782709
1765408571.974563,-8.119220732249977,0.052893353357917575,0.5983193387194442,-0.20689108607617415,-0.21432360454463417,0.11032213034172611
1765408571.974813,-8.10393212767193,-0.012905405910884482,0.5958652714364938,-0.20657079824970065,-0.2055972046206266,0.10830150557320968
1765408571.975063,-8.096888901830532,-0.07928131722304713,0.596448612382977,-0.2057249902162257,-0.19667419242168405,0.10639042828379938
1765408571.975313,-8.097776195579499,-0.1459971393619331,0.599797134410542,-0.2043265329848097,-0.18760418442234042,0.1045737838975599
1765408571.975623,-8.106078439386442,-0.21288030478842337,0.605553402400752,-0.2023476960942857,-0.178436232188013,0.10283053118478477
1765408571.975873,-8.121119975379079,-0.27980605859862345,0.6132997854750051,-0.1997606521863696,-0.16921745555664658,0.1011335128184111
1765408571.976123,-8.142112939029355,-0.3466751000037912,0.6225855332884778,-0.19653842829169504,-0.15999189609186878,0.09944962078334675
1765408571.976373,-8.168210166950287,-0.41338772264623985,0.6329542927184207,-0.1926563194904156,-0.15079962751975715,0.09774033630857488
1765408571.976564,-8.198560100064048,-0.4798158871896245,0.643969776137805,-0.18809371325715288,-0.1416761470015673,0.09596264101203604
1765408571.976814,-8.23236001316879,-0.5457741399203414,0.6552370522255196,-0.1828362088367052,-0.13265206232079452,0.0940702884627159
1765408571.977064,-8.26890363668185,-0.610990453984236,0.6664171179100407,-0.17687787349795597,-0.12375308324587792,0.09201542884830005
1765408571.977314,-8.307619350194274,-0.6750789138842502,0.6772328592862101,-0.17022346068798877,-0.11500031291951465,0.08975057833945942
1765408571.97761,-8.34809568210865,-0.7375170466311054,0.6874653551166634,-0.16289041477134072,-0.10641080949544171,0.08723090351143586
1765408571.97786,-8.390092008349972,-0.7976308457462926,0.6969409996854408,-0.1549104947174334,-0.09799835727417237,0.08441674755797623
1765408571.97811,-8.433534105005053,-0.8545900160133453,0.7055119366130992,-0.14633086771911644,-0.08977437158716185,0.08127627361523368
1765408571.97836,-8.478496140146211,-0.9074152128593892,0.7130338350215535,-0.13721455977287994,-0.08174887244883498,0.07778806074812804
1765408571.978648,-8.52517206971442,-0.9549986727995629,0.7193450533760217,-0.1276401993463598,-0.0739314822564514,0.07394346790012886
1765408571.978898,-8.573839793662556,-0.9961395875323552,0.724249773937202,-0.11770103804851913,-0.06633240713026649,0.06974857257869514
1765408571.979148,-8.624821091538978,-1.0295950617279368,0.7275060764495123,-0.1075032685860606,-0.05896334087276321,0.0652254845583068
1765408571.979398,-8.6784399603722,-1.0541457389619828,0.7288194580328934,-0.09716368699842155,-0.05183819801464943,0.06041283763923261
1765408571.979601,-8.734981889544363,-1.068672357457813,0.7278429445443813,-0.08680677036711698,-0.04497356346117585,0.055365297786766465
1765408571.979851,-8.79465664989659,-1.0722367760783897,0.7241854649741364,-0.07656126673831136,-0.038388765809943486,0.05015200789523325
1765408571.980101,-8.857567032091307,-1.0641596294251348,0.7174295911399275,-0.06655642026857236,-0.032105544184069454,0.04485400349852812
1765408571.980351,-8.923685540352604,-1.044087097396239,0.7071582141068814,-0.05691797915915682,-0.026147356487148013,0.03956074745366604
1765408571.980611,-8.992840403491245,-1.012040724046406,0.6929881205238679,-0.04776415480838801,-0.020538429584311523,0.03436601879514348
1765408571.980861,-9.064711533803758,-0.9684459478418944,0.674607464892812,-0.039201717478959196,-0.015302661459038544,0.029363442901442598
1765408571.981111,-9.138836388097626,-0.9141365971036518,0.6518138357516964,-0.031322424998222964,-0.010462467917890924,0.024641970392547626
1765408571.981361,-9.214625149953658,-0.8503341592276216,0.6245495665454576,-0.024199979913677748,-0.006037648193257506,0.020281607675190046
1765408571.981605,-9.291384240724028,-0.7786023616573035,0.5929309360416551,-0.017887689671932754,-0.0020443355432101695,0.016349677667667113
1765408571.981805,-9.368346784797323,-0.7007795223177273,0.5572681376431136,-0.012416963539220758,0.001505905124281447,0.012897846879464474
1765408571.982005,-9.444708171223459,-0.6188930860534992,0.5180735040224611,-0.0077967269766283185,0.004606776285480039,0.00996009529415591
1765408571.982205,-9.519664197682461,-0.5350625352486784,0.47605626789051714,-0.004013779387875276,0.007257693010581991,0.007551729801552566
1765408571.982405,-9.592448630193969,-0.4513980717275063,0.4321030321713582,-0.0010340719682561735,0.00946393040949092,0.00566945509233561
1765408571.982573,-9.662366770911621,-0.3699026303938459,0.38724431905954443,0.0011951597510321292,0.011236445826909304,0.00429242930978614
1765408571.982773,-9.728822039857606,-0.29238375382936926,0.3426090660970747,0.0027425129162171997,0.012591381533982047,0.0033841616760038992
1765408571.982973,-9.791333446938525,-0.22038015813913872,0.2993702468590227,0.003688928101781468,0.013549295226843573,0.0028950675853194165
1765408571.983173,-9.849542827454334,-0.15510625531145472,0.2586854832315244,0.004123778300640883,0.014134199008171946,0.002765481377422895
1765408571.983373,-9.903211789579924,-0.09741679381564401,0.22163673734497136,0.004140753184352381,0.014372506791573935,0.0029289262174564757
1765408571.983576,-9.952209572498665,-0.047792802056265064,0.1891733181605567,0.0038337689999997085,0.014292000820099508,0.0033154452456070622
1765408571.983776,-9.996494242021274,-0.006348701409491782,0.16206248938361786,0.0032931230307130703,0.013920928953976999,0.0038548091384656
1765408571.983976,-10.03609037702157,0.027141170501997217,0.14085148110190612,0.002602080573946226,0.013287322097324715,0.00447943858325916
1765408571.984176,-10.071066383362549,0.05319974290233902,0.12584348192334266,0.0018340435168868311,0.012418570934048414,0.0051269184571080565
1765408571.984376,-10.101514067802798,0.07259181959668266,0.1170886423126188,0.0010504116533873805,0.011341243209733762,0.005742026107960992
1765408571.984618,-10.127532469520826,0.08625985025937193,0.11438984397842344,0.0002992114229770692,0.01008108559946918,0.006278234676813427
1765408571.984818,-10.149217241048973,0.09525464597178444,0.11732210257725578,-0.00038547354838185956,0.008663146122512724,0.006698676174249549
1765408571.985018,-10.16665603690115,0.10066515975348705,0.12526371773061384,-0.0009832828075865905,0.007111959645762406,0.006976565768208433
1765408571.985218,-10.17992956296235,0.10355173438143238,0.13743660606424288,-0.001486632153426432,0.005451745377259979,0.007095112433715908
1765408571.985418,-10.189117411845652,0.10488694252231262,0.15295287123890314,-0.0018991441080330536,0.003706571515805555,0.007046974138104922
1765408571.985646,-10.194307560270818,0.10550726469564034,0.17086463324364853,-0.002233592764170257,0.0019004550606718893,0.006833345674585756
1765408571.985846,-10.195608212018614,0.10607774594245183,0.1902142002265132,-0.002509522211168499,5.738197132025417e-05,0.006462781734822484
1765408571.986046,-10.19316045595459,0.10707075480302462,0.21008170990016908,-0.00275071050899796,-0.0017987552321905716,0.005949856087068739
1765408571.986246,-10.187150151173565,0.10875905433438121,0.22962765742250618,-0.0029826533648964998,-0.003644301691926329,0.0053137467846448155
1765408571.986446,-10.177817646113548,0.11122250294116066,0.24812838364529818,-0.003230231208207014,-0.005456064406148808,0.004576822900086667
1765408571.986545,-10.165464192288237,0.11436686808074725,0.2650032556676392,-0.003515698542541309,-0.00721161300824629,0.003763292862845685
1765408571.986745,-10.150454044355953,0.11795255425086586,0.27983261192703834,-0.003857096674049809,-0.008889653730158192,0.0028979602904074114
1765408571.986945,-10.133211373891465,0.12163053794058552,0.2923657877764785,-0.0042671466120393475,-0.010470472288368534,0.0020051220772089582
1765408571.987145,-10.114211514730496,0.1249824696317628,0.30251905563557224,-0.004752636685895281,-0.011936432707111888,0.0011076346496826938
1765408571.987345,-10.093966733292651,0.1275618463934742,0.3103640733701305,-0.005314284806105577,-0.013272501195516108,0.0002261661411953242
1765408571.987542,-10.073007473199013,0.12893343742815577,0.3161081198317237,-0.005947029005093678,-0.014466745705136645,-0.0006213546227148382
1765408571.987742,-10.051860661627927,0.12870859234883872,0.32006786116344477,-0.006640679768021331,-0.015510752892301168,-0.0014200867803491372
1765408571.987942,-10.031027108192443,0.12657447236290728,0.3226387376884562,-0.007380852193159019,-0.016399906267046703,-0.0021584252860780313
1765408571.988142,-10.010960203019156,0.1223156827587925,0.32426232572491825,-0.008150086388365913,-0.01713347636116152,-0.002827961515237652
1765408571.988342,-9.99204790342115,0.11582743838750696,0.3253940235581886,-0.008929063208104215,-0.017714484759038706,-0.0034232841848305805
1765408571.988569,-9.97459938469899,0.10712016357496999,0.32647300058133966,-0.009697829606455188,-0.018149326309799273,-0.003941656820789329
1765408571.988769,-9.958836954824775,0.09631596875310271,0.3278957364355219,-0.010436959573308837,-0.018447170876873274,-0.004382608514634195
1765408571.988969,-9.944893168758478,0.08363764310955787,0.3299940093323359,-0.011128587665025669,-0.01861920618898081,-0.004747473262688314
1765408571.989169,-9.932812606446017,0.06939096319216942,0.3330179468003511,-0.011757261049826424,-0.018677809106612635,-0.005038916683346344
1765408571.989369,-9.922557467522742,0.053941586651490805,0.3371245387409461,-0.012310566442193999,-0.018635735292356792,-0.005260494222850574
1765408571.989559,-9.914016033611496,0.03768851421885272,0.3423717531006212,-0.012779504907338354,-0.01850540129515891,-0.005416281438526299
1765408571.989809,-9.907013214040937,0.02103664168462481,0.3487182172736034,-0.013158609874277803,-0.018298308509149867,-0.005510599888512105
1765408571.990059,-9.901322699323432,0.004370980303695201,0.3560283681140694,-0.01344582612743408,-0.018024634454626008,-0.005547839936681397
1765408571.990309,-9.896680464042724,-0.01196520769555565,0.3640828603296717,-0.013642185113353389,-0.017692999159517706,-0.005532367115225877
1765408571.990535,-9.892799394474334,-0.027686574508293777,0.37259374698847114,-0.013751324006478334,-0.01731040322762393,-0.005468494452976668
1765408571.990735,-9.889384765414057,-0.04257490546434106,0.3812236078479591,-0.01377890372692551,-0.016882324394703725,-0.005360501550547617
1765408571.990935,-9.886150251963652,-0.05648087153984276,0.3896075392659249,-0.013731984541418227,-0.016412947297609348,-0.005212676768423494
1765408571.991135,-9.882834100584217,-0.06931873325867766,0.39737674417172847,-0.01361841622075728,-0.015905488920522206,-0.005029355763445204
1765408571.991335,-9.879214915717991,-0.08105538085906107,0.40418231606132327,-0.013446291864014234,-0.01536257394953743,-0.004814933280562854
1765408571.991538,-9.875126242340901,-0.09169583849717623,0.4097176944148073,-0.013223500213903755,-0.014786611510459081,-0.004573834809620557
1765408571.991738,-9.870468839670567,-0.10126767436007517,0.4137382284118354,-0.01295739386153672,-0.014180126925477734,-0.0043104466414331894
1765408571.991938,-9.86521938978706,-0.10980655917687128,0.4160763706145881,-0.012654576184990576,-0.013546009924955043,-0.004029014540383432
1765408571.992138,-9.859434499958784,-0.11734459107295213,0.4166513017070236,-0.012320801306373605,-0.0128876555060078,-0.0037335297446488176
1765408571.992338,-9.853249279030228,-0.1239022196331725,0.4154723218908279,-0.011960976470867203,-0.01220899331747453,-0.0034276226723820706
1765408571.992536,-9.846870371048292,-0.1294839586354794,0.4126360426388472,-0.011579251908165814,-0.011514420703665687,-0.003114480287351193
1765408571.992736,-9.840563906489976,-0.13407768234962603,0.40831803347754914,-0.011179179053359491,-0.010808669338870328,-0.0027967985501770936
1765408571.992936,-9.834639279559193,-0.1376570127184899,0.40275997219962917,-0.01076391427844147,-0.010096644964861365,-0.0024767805401948494
1765408571.993136,-9.829430002835599,-0.14018598707796676,0.39625356317411287,-0.010336442125771981,-0.009383282466904695,-0.0021561897750305235
1765408571.993336,-9.825273117923496,-0.14162494740734727,0.38912258651930803,-0.009899791365921515,-0.008673449376870795,-0.0018364605896098623
1765408571.993455,-9.822488649766889,-0.14193661097015764,0.38170435478234166,-0.009457221023784358,-0.0079719090725661,-0.0015188534765424935
1765408571.993655,-9.821360341895007,-0.14109156861398944,0.37433154835498234,-0.009012360285080139,-0.007283332195656646,-0.0012046307246563446
1765408571.993855,-9.822118539843293,-0.13907279621612795,0.3673150461804173,-0.008569292491497096,-0.006612336200007812,-0.0008952234656469056
1765408571.994055,-9.824925807211125,-0.1358789886813463,0.3609282162187782,-0.008132578031357024,-0.005963538366344283,-0.0005923654658424658
1765408571.994255,-9.829865735044516,-0.13152666903841886,0.35539322198759987,-0.007707215006414644,-0.005341612452669812,-0.00029817690554090765
1765408571.994456,-9.83693534281166,-0.12605119993268105,0.35087000813163355,-0.007298541571679475,-0.004751334428983534,-1.5189289232085976e-05
1765408571.994656,-9.84604136157348,-0.11950702130895306,0.3474485404912108,-0.006912090019143622,-0.004197595551964614,0.0002536891471290408
1765408571.994856,-9.85700056134741,-0.11196751929180654,0.34514467663752957,-0.006553408139327757,-0.003685363061120307,0.0005052585858428778
1765408571.995056,-9.869544236320554,-0.10352481695267454,0.34389996799249095,-0.006227865546356372,-0.003219581687434081,0.0007361458843081803
1765408571.995256,-9.883327005402554,-0.09428954147735977,0.34358575873985764,-0.00594046085043014,-0.0028050240396427202,0.0009429352024508514
1765408571.995501,-9.89794008246189,-0.08439038157331444,0.34401187098136676,-0.0056956411951786376,-0.0024461056314497476,0.0011222936893501483
1765408571.995701,-9.912928960965779,-0.07397307344610207,0.34493975047498504,-0.00549714041084208,-0.002146679936569479,0.001271083285888391
1765408571.995901,-9.927815034786054,-0.06319841885853164,0.34609936538673475,-0.005347837644295916,-0.0019098264227293588,0.0013864595040874873
1765408571.996101,-9.942120172833098,-0.052239115149679806,0.34720872854387486,-0.005249636741588422,-0.001737644791744255,0.0014659652226068143
1765408571.996301,-9.955392776668795,-0.041275485734636255,0.3479947156934763,-0.005203368551695425,-0.001631070633070819,0.001507629363108345
1765408571.99653,-9.967233396302493,-0.03049042381122189,0.3482136794156008,-0.005208722623343008,-0.0015897288519820369,0.0015100767065525076
1765408571.99673,-9.977317662443914,-0.020063903026671312,0.347670150168143,-0.005264219257323469,-0.001611842274157489,0.0014726478921935537
1765408571.99693,-9.985414339703647,-0.01016740240580104,0.34623190252367186,-0.005367234119204851,-0.0016942142481434315,0.0013955203512813026
1765408571.99713,-9.99139682418482,-0.0009586759844191737,0.343840031870781,-0.005514082759145657,-0.0018323015013842175,0.0012798139959156547
1765408571.99733,-9.995247207637227,0.007422609740202098,0.3405133001170061,-0.005700162978533756,-0.0020203827260268947,0.0011276616497434807
1765408571.997468,-9.997052792865153,0.014857920724788271,0.3363465937222814,-0.005920144156515249,-0.002251813109115508,0.0009422248513565559
1765408571.997668,-9.996995548723763,0.021251395695207526,0.33150379431087923,-0.0061681873855912095,-0.0025193439283513345,0.000727641651488273
1765408571.997868,-9.995335518891896,0.026529997878282606,0.3262057695210646,-0.006438177655701499,-0.002815482429698686,0.0004889029023175355
1765408571.998068,-9.992389672982773,0.030642601164322547,0.320714577465229,-0.006723948045021136,-0.003132865286223216,0.00023166369563589734
1765408571.998268,-9.988507997073318,0.033558433285910884,0.31531524875466793,-0.007019475861798779,-0.003464614672325309,-3.799522566197723e-05
1765408571.998524,-9.984048691639881,0.035265326828678015,0.3102965965558795,-0.007319032399279844,-0.0038046426161510083,-0.000313835037320992
1765408571.998724,-9.979354262678829,0.03576817931316496,0.3059324547823704,-0.007617272628484899,-0.004147872179016941,-0.0005897306405954435
1765408571.998924,-9.974730182208624,0.03508788662325228,0.30246464392824574,-0.00790926026445665,-0.004490353331395818,-0.0008599224361462428
1765408571.999124,-9.970427658475916,0.03326083878098305,0.30008881696381706,-0.008190436713463738,-0.0048292634986724075,-0.0011192284508574342
1765408571.999324,-9.966631755561693,0.03033891950706901,0.29894405620893844,-0.008456556072213888,-0.005162794409981899,-0.0013632041843182018
1765408571.999467,-9.963455529790325,0.02638984673367776,0.2991066455801802,-0.008703617560990452,-0.005489936962122113,-0.0015882449763955358
1765408571.999667,-9.960940109718218,0.02149760860331186,0.3005879753835142,-0.008927826756665855,-0.005810185618786854,-0.001791631897208952
1765408571.999867,-9.959060010558511,0.01576268254776463,0.30333624511316065,-0.009125606671556569,-0.006123194354910258,-0.001971525743083805
1765408572.000067,-9.957732648715327,0.009301703691599167,0.30724153168982843,-0.00929366386477732,-0.006428424266184512,-0.0021269148540430808
1765408572.000267,-9.95683098322157,0.0022463127172186554,0.3121437279184551,-0.009429100457748635,-0.0067248247758523476,-0.0022575225492039016
1765408572.001493,-9.956198290569672,-0.005258942364096177,0.31784275307404886,-0.00952955428605373,-0.007010586900498465,-0.0023636802713881723
1765408572.001693,-9.955664155522479,-0.01305962026852855,0.32411041058883294,-0.009593346268745686,-0.00728300189657683,-0.002446174066960863
1765408572.001893,-9.955060790345883,-0.02099518463864204,0.3307033707723677,-0.009619613680840793,-0.007538451027336062,-0.0025060752205356383
1765408572.002093,-9.954238728919625,-0.028903399190174494,0.33737679169731566,-0.009608408610536306,-0.007772537743498601,-0.0025445693577389916
1765408572.002293,-9.953080753120673,-0.03662508361226348,0.34389786130262623,-0.009560744194184862,-0.007980352220531308,-0.0025627998112515925
1765408572.001555,-9.951512724396139,-0.04400896178134786,0.35005817687759266,-0.009478579211982828,-0.00815683676445329,-0.0025617398079701287
1765408572.001755,-9.949510061717994,-0.050916344449924926,0.3556837169482528,-0.009364741722364107,-0.008297206054526423,-0.002542105336204597
1765408572.001955,-9.947099043200977,-0.0572254166350639,0.36064136835196464,-0.009222799814881496,-0.00839737048141606,-0.0025043172724906575
1765408572.002155,-9.944352760426101,-0.06283490862213834,0.3648414075952736,-0.00905689093139705,-0.008454313104338768,-0.002448516986826257
1765408572.002355,-9.941382206107333,-0.06766693219740622,0.368235833776642,-0.008871522943565172,-0.008466380301767041,-0.002374633829223887
1765408572.002553,-9.938323570618085,-0.07166880229174144,0.3708130246565327,-0.008671362573429662,-0.008433461549114847,-0.002282496494193679
1765408572.002753,-9.935323363605598,-0.07481375603174378,0.3725898342099297,-0.008461029529237605,-0.00835705125681268,-0.0021719752245817525
1765408572.002953,-9.932523330751762,-0.07710058548641012,0.37360272033739683,-0.008244915466672954,-0.008240200657986625,-0.0020431401454655005
1765408572.003153,-9.930047110257746,-0.07855223342014915,0.3738994888070929,-0.008027043541291856,-0.008087377410940698,-0.0018964224536716775
1765408572.003353,-9.927990139922288,-0.07921333471908114,0.37353277173983623,-0.0078109775241872,-0.007904254539283244,-0.0017327665094579565
1765408572.003592,-9.926413664007226,-0.07914662218156782,0.37255573138185216,-0.00759978189140367,-0.007697449455994159,-0.0015537593397492646
1765408572.003792,-9.925343037915587,-0.0784281935395822,0.37101999135439767,-0.007396028420820703,-0.007474229577188351,-0.0013617212657021076
1765408572.003992,-9.924770031127425,-0.07714186910339792,0.36897554006392164,-0.007201841591799094,-0.007242196245842371,-0.0011597420775506227
1765408572.004192,-9.92465848771317,-0.07537312771174166,0.36647224143353063,-0.007018974039940783,-0.007008956139009472,-0.0009516537606809252
1765408572.004392,-9.924952443969717,-0.07320325996238855,0.3635625015143924,-0.00684890342970549,-0.0067817896819431156,-0.0007419399545307115
1765408572.004589,-9.92558557942518,-0.07070438042283922,0.36030452430437565,-0.006692942258016412,-0.006567328859566438,-0.0005355889955077805
1765408572.004789,-9.926490728685105,-0.06793582121528718,0.3567654880438718,-0.006552350843826189,-0.006371261805886401,-0.0003379006243002846
1765408572.004989,-9.927608181199117,-0.06494223438038348,0.35302393573778773,-0.0064284399390107366,-0.006198086479853024,-0.0001542589000289218
1765408572.005189,-9.928891689887472,-0.061753509795943635,0.34917071774838465,-0.00632264443297749,-0.006050936834694577,1.0113547604583584e-05
1765408572.005389,-9.930311508688511,-0.058386409382681,0.34530800076031576,-0.006236548161648311,-0.0059315008159317225,0.0001504036401015543
1765408572.005543,-9.931854342703346,-0.05484765082040151,0.3415462246720547,-0.006171846313339465,-0.005840042767602496,0.00026244266152576526
1765408572.005743,-9.933520668710935,-0.05113806112911472,0.3379993341682087,-0.006130245955058259,-0.00577553523083451,0.000342913194944691
1765408572.005943,-9.935320238199587,-0.047257356766524185,0.3347788733997282,-0.006113320800822384,-0.005735894595158959,0.00038951470845581727
1765408572.006143,-9.937266590019993,-0.04320906546725022,0.3319875115136393,-0.006122346428528222,-0.005718299668477558,0.00040107579509310787
1765408572.006343,-9.939371184991014,-0.039005093742663345,0.32971244966522656,-0.00615814375734443,-0.005719555412011683,0.00037760378106461675
1765408572.006602,-9.941637563145528,-0.0346695072690478,0.328019153079774,-0.006220953594212543,-0.005736452581208256,0.0003202674126347675
1765408572.006802,-9.944055874522034,-0.030241221733258498,0.326945949802395,-0.006310356897444121,-0.005766072322706322,0.00023131544769468656
1765408572.007002,-9.946598242255526,-0.02577542967267115,0.3265001101287976,-0.006425246175687545,-0.005805994096221183,0.00011394072605875798
1765408572.007202,-9.94921557430421,-0.021343677875721893,0.32665600028020614,-0.0065638438160164755,-0.005854384518742277,-2.7897124643341344e-05
1765408572.007402,-9.95183653331323,-0.017032577986192256,0.32735580712291207,-0.006723754490608909,-0.005909968786160508,-0.0001896769865079979
1765408572.007563,-9.95436930839185,-0.012941190348027782,0.3285131408001735,-0.006902034216407144,-0.005971906709045802,-0.0003665370626944257
1765408572.007763,-9.956706537113588,-0.00917716517695817,0.3300194717031506,-0.007095260708060423,-0.006039606870450317,-0.0005534981229082825
1765408572.007963,-9.95873322838875,-0.005851783189730842,0.3317528729657297,-0.00729959762293941,-0.00611251679894654,-0.0007456732873155578
1765408572.008163,-9.960337005236639,-0.003074150086044773,0.333588107890011,-0.007510855403085282,-0.006189927512003069,-0.0009384456912957428
1765408572.008363,-9.96141960242781,-0.0009449575509496689,0.33540691519927573,-0.007724559389266118,-0.006270826420750753,-0.0011275971686403713
1765408572.00854,-9.9619083531032,0.00044964186551563906,0.3371074083041713,-0.007936038491519458,-0.006353821987728355,-0.0013093799216762267
1765408572.00874,-9.961766316882999,0.001043472115261254,0.3386116798401794,-0.008140543743144138,-0.006437149735168879,-0.0014805358583841243
1765408572.00894,-9.960999753216104,0.0007946289132978149,0.33987091903207256,-0.008333397612915275,-0.006518757466889726,-0.0016382781502964842
1765408572.00914,-9.959661912852448,-0.0003116093323497691,0.340867642933081,-0.008510166488104423,-0.006596459770191471,-0.0017802520578810608
1765408572.00934,-9.95785256379351,-0.0022613132597997768,0.3416149742596899,-0.008666843394128198,-0.0066681452993753,-0.001904488239640819
1765408572.009527,-9.955713095738982,-0.005011860555853727,0.3421531323718413,-0.008800025630375097,-0.0067320123364923365,-0.002009356524255416
1765408572.009727,-9.953417371207738,-0.008493299359546905,0.34254343958151123,-0.008907071178307127,-0.006786800805601397,-0.0020935254533960648
1765408572.009927,-9.951158814483485,-0.012611059648339655,0.34286034414608,-0.008986217976219709,-0.006831987148455896,-0.0021559329463916393
1765408572.010127,-9.949134607035417,-0.017249844800009666,0.3431822450592717,-0.00903665239680347,-0.006867913034470726,-0.0021957741458211878
1765408572.010327,-9.947528171832557,-0.022278406578510067,0.34358207330602347,-0.009058519238926992,-0.0068958253980779816,-0.002212512325602235
1765408572.010544,-9.946491294199888,-0.027554832920413917,0.34411854847985984,-0.009052875008562885,-0.006917811128084604,-0.002205916524771742
1765408572.010794,-9.946127323179237,-0.03293198183148754,0.34482894071202214,-0.009021595249817476,-0.006936617890917117,-0.0021761239270299926
1765408572.011044,-9.946476958281654,-0.03826276624079561,0.3457241096244417,-0.008967251218610492,-0.006955366689577755,-0.002123716416179377
1765408572.011294,-9.947508008568454,-0.043405111472055245,0.3467864248423735,-0.008892972015358925,-0.006977180396997255,-0.0020497931689956147
1765408572.011491,-9.949110155823096,-0.048226501662312384,0.34797084225773683,-0.008802308768629592,-0.007004769684265184,-0.001956019320460925
1765408572.011691,-9.951095367965335,-0.052608018421870364,0.3492091103365249,-0.00869911722306534,-0.007040026285776979,-0.0018446355961987682
1765408572.011891,-9.953204357627335,-0.05644766859450728,0.3504169138996805,-0.008587469736194675,-0.007083668654178006,-0.0017184215387247442
1765408572.012091,-9.955119205366353,-0.05966273364732053,0.35150353304300536,-0.008471595781622614,-0.00713496924134563,-0.0015806109721264513
1765408572.012291,-9.956481761668854,-0.06219096126896543,0.3523831720541616,-0.008355836837895295,-0.007191575791164479,-0.0014347619260019358
1765408572.012515,-9.956916832176999,-0.06399062727720609,0.35298674060633856,-0.008244594330817097,-0.007249430332605818,-0.0012845872774070954
1765408572.012715,-9.956058734022813,-0.06503969426592539,0.3532728347786157,-0.008142251527295708,-0.007302789859724758,-0.0011337589292770376
1765408572.012915,-9.953579642148279,-0.06533437995670899,0.35323686750290206,-0.008053060048884484,-0.007344355717008925,-0.0009857056690446542
1765408572.013115,-9.949218020956653,-0.06488741917225134,0.3529174250435337,-0.007980993692299978,-0.007365518219882222,-0.0008434287017973341
1765408572.013315,-9.942805248079,-0.06372623664094157,0.35239893943950235,-0.007929581482179392,-0.007356718064522747,-0.0007093564345676346
1765408572.013509,-9.934288409219889,-0.06189120907814614,0.35180993687692774,-0.00790173664017318,-0.007307919153035021,-0.0005852532921226302
1765408572.013709,-9.923747307304714,-0.05943416408692122,0.3513165960576624,-0.007899599339638913,-0.007209178716134227,-0.00047219102484775017
1765408572.013909,-9.911403923002192,-0.05641718768617658,0.3511119123083403,-0.007924409229563422,-0.007051287761248714,-0.0003705870218385414
1765408572.014109,-9.897622777013575,-0.05291170236290459,0.3514011288203687,-0.007976418605671134,-0.0068264396184421405,-0.00028030982228874454
1765408572.014309,-9.882900962635842,-0.048997685150504774,0.35238429796452947,-0.008054850273440472,-0.006528873641501701,-0.00020084497332740833
1765408572.014551,-9.867847247304862,-0.0447628362075684,0.35423711661874246,-0.008157898461297065,-0.006155439446690987,-0.00013150578634447732
1765408572.014751,-9.853150607030583,-0.040301480764392876,0.3570915825724913,-0.008282768113903891,-0.005706031183912809,-7.166575588374869e-05
1765408572.014951,-9.839539624984416,-0.03571300733358149,0.3610183039487266,-0.008425747264194434,-0.005183846060301091,-2.0984096423282313e-05
1765408572.015151,-9.827735136600387,-0.031099703355631062,0.3660122753224404,-0.008582308593325596,-0.004595428014339987,2.0405701845462687e-05
1765408572.015351,-9.818399342967481,-0.026563901291664093,0.3719836936601716,-0.008747239446692846,-0.003950471325967206,5.17723350398979e-05
1765408572.015546,-9.812085452927185,-0.02220439231468536,0.3787550876842611,-0.008914803193518507,-0.0032613806171405578,7.175281970201303e-05
1765408572.015746,-9.809192689201597,-0.018112203876679257,0.3860657171698024,-0.009078936604092236,-0.0025426088962667596,7.84296350110211e-05
1765408572.015946,-9.809931784141357,-0.014366227751090904,0.3935837885924512,-0.009233486277380172,-0.0018098203364820041,6.953327398662665e-05
1765408572.016146,-9.814305293449726,-0.011029768991690543,0.4009263190589896,-0.009372482797347538,-0.0010789467993190035,4.276603542752807e-05
1765408572.016346,-9.822105037000028,-0.008149323519764,0.40768522415463077,-0.009490445248614952,-0.00036522395098074876,-3.790503030229841e-06
1765408572.016485,-9.83292652897043,-0.005756176394837088,0.41345671193564215,-0.009582698900171908,0.00031769935909379925,-7.125692369896382e-05
1765408572.016685,-9.84619847838133,-0.0038699707079419554,0.41787035977496656,-0.009645673808067972,0.0009584926304678496,-0.0001596112778748865
1765408572.016885,-9.861224571831276,-0.002502299556426797,0.4206149899255358,-0.009677139385087527,0.001548659001360145,-0.00026748248005256946
1765408572.017085,-9.877234078543381,-0.0016585076816826414,0.4214598703764349,-0.009676333492556765,0.0020828159873161477,-0.0003921070263980049
1765408572.017285,-9.893436755240671,-0.0013372328713585927,0.4202704073429325,-0.009643967971368659,0.0025587472948313188,-0.0005294389932884599
1765408572.017573,-9.909076516578324,-0.0015288525979645215,0.4170170808516545,-0.009582120546926236,0.0029772312343571863,-0.0006743841322346197
1765408572.017773,-9.923478445207888,-0.0022146172852438918,0.4117761793781765,-0.00949403713997135,0.0033416536935068123,-0.0008211284193818487
1765408572.017973,-9.936085336081781,-0.003367270848859619,0.4047220185630342,-0.009383869004163783,0.0036574469220642643,-0.0009635392286438002
1765408572.018173,-9.946482276756134,-0.004952395676485079,0.3961122197686505,-0.009256371180379178,0.003931440021917572,-0.0010956134367992366
1765408572.018373,-9.954409620034037,-0.006929257409103062,0.38626881200880137,-0.00911659736475476,0.004171213699150754,-0.0012119266529068762
1765408572.018527,-9.959765624145792,-0.00925096458627969,0.3755577533654679,-0.008969628103811347,0.004384511632652229,-0.0013080243423682998
1765408572.018777,-9.962600187960398,-0.011864935131675669,0.36436849962942314,-0.008820354256850616,0.004578719050960614,-0.0013807106976044385
1765408572.019027,-9.963100932045938,-0.014714535561915418,0.3530943764974175,-0.008673314776324338,0.0047604118431452905,-0.0014282242342941258
1765408572.019277,-9.961572824254723,-0.017741508261379667,0.34211419295267,-0.008532573553688305,0.004934992788232798,-0.0014503098729547045
1765408572.019565,-9.95841280422206,-0.020887880772230555,0.3317756205673817,-0.008401620685546746,0.005106433661683371,-0.0014481927044107533
1765408572.019765,-9.954081168424205,-0.02409646496011821,0.32238092920468236,-0.008283292934961307,0.005277127497521887,-0.0014244457370111028
1765408572.019965,-9.94907145978561,-0.02731035105683986,0.31417548890520397,-0.008179717278813734,0.0054478414900824505,-0.0013827472810347746
1765408572.020165,-9.943880302019963,-0.030472660681275097,0.3073392009118964,-0.008092284833927177,0.0056177589711960884,-0.001327548601407771
1765408572.020365,-9.938978482483904,-0.03352744193785838,0.3019810095537562,-0.008021659471505264,0.0057846036582935014,-0.0012637003140060377
1765408572.020555,-9.93478486407072,-0.03642146252850283,0.2981368674817011,-0.007967819400841427,0.005944842885394657,-0.0011960923720710662
1765408572.020755,-9.931645048554927,-0.03910597028900783,0.29577164073793605,-0.007930125367205228,0.006093966099815114,-0.0011293415876775861
1765408572.020955,-9.929816576779677,-0.04153784138322662,0.29478518091335654,-0.007907407464101159,0.006226829208771918,-0.001067531492888447
1765408572.021155,-9.929461693486703,-0.04368039587143875,0.29502225772446333,-0.007898062632656674,0.006338042933728533,-0.0010139967259903072
1765408572.021355,-9.93064762518963,-0.04550454584781892,0.29628550608781523,-0.007900155449648649,0.00642236794788631,-0.0009711538401133028
1765408572.021568,-9.933353282266545,-0.046990442216291034,0.29835012520269627,-0.007911515844527393,0.006475070865510197,-0.0009403955707756618
1765408572.021768,-9.937480550454906,-0.048128921891428304,0.3009788122159737,-0.007929829773022982,0.006492200487055209,-0.0009220658769683619
1765408572.021968,-9.94286809288414,-0.04892171731634822,0.30393546344043054,-0.007952722922065402,0.006470761339749595,-0.000915515172166614
1765408572.022168,-9.949305946168296,-0.04937995438415408,0.30699664354634837,-0.00797784165880904,0.006408783158692888,-0.0009192146493244533
1765408572.022368,-9.956549927263703,-0.049521460965680004,0.30996050563878474,-0.008002936797602524,0.006305302882700879,-0.0009309037237455711
1765408572.02252,-9.964335464555509,-0.04936799224167916,0.31265333292943487,-0.008025952423846867,0.006160285688361175,-0.0009477585365750262
1765408572.02272,-9.972390635007566,-0.04894320124701101,0.3149339890692617,-0.008045114639142403,0.00597451131697587,-0.0009665877088517024
1765408572.02292,-9.980448127894677,-0.048271340212554775,0.31669652765094536,-0.008059007700760398,0.0057494433793337935,-0.0009840656969249194
1765408572.02312,-9.988255876492156,-0.047376038520832275,0.31787125285934925,-0.008066623789102662,0.00548709040717777,-0.0009969983656435146
1765408572.02332,-9.995586178250306,-0.046278650813466986,0.31842453171871055,-0.008067380180310762,0.005189865135744802,-0.0010025922781649783
1765408572.023617,-10.002243087036849,-0.04499645207036566,0.31835745959836614,-0.008061108499626506,0.00486045039127516,-0.0009986889188493475
1765408572.023817,-10.008067803568808,-0.043541581115849035,0.31770327487338207,-0.008048026982841933,0.004501678499935486,-0.0009839362207245005
1765408572.024017,-10.012941938178923,-0.04192146069971487,0.31652351731230255,-0.008028706658516432,0.004116425515692031,-0.0009578908612705192
1765408572.024217,-10.016788785938548,-0.04014064409559757,0.31490318620658364,-0.008004039745532087,0.0037075186156023156,-0.0009210574072549873
1765408572.024417,-10.019572833162869,-0.03820341133947774,0.31294519017798794,-0.007975215103833592,0.003277658641886542,-0.0008748686539549684
1765408572.024594,-10.021297591505054,-0.03611643022725605,0.3107642327974559,-0.007943700419242593,0.0028293659609703557,-0.0008216048688767713
1765408572.024794,-10.022001825777227,-0.03389121083484752,0.3084803346452062,-0.007911224895331092,0.0023649607587885174,-0.000764249403897819
1765408572.024994,-10.02175440172804,-0.0315464322257335,0.30621246022101145,-0.007879752833133632,0.001886586545860685,-0.0007062863106982929
1765408572.025194,-10.020648076989007,-0.029110229211141824,0.3040727451764129,-0.007851438777034809,0.001396277938478942,-0.0006514558627107165
1765408572.025394,-10.01879242942113,-0.02662225893089096,0.3021614278034765,-0.007828555849855905,0.000896060728211695,-0.0006034892886543949
1765408572.025553,-10.016305978380814,-0.024135063517612125,0.30056220426904734,-0.007813387829174026,0.0003880579775414723,-0.0005658431054890326
1765408572.025753,-10.013307698583045,-0.021714118783036078,0.2993377997756533,-0.007808075542927216,-0.00012542905354327903,-0.0005414497806428758
1765408572.025953,-10.009908521829564,-0.019436091816848005,0.298525992882946,-0.00781441568589518,-0.0006418842784256787,-0.0005324982553318772
1765408572.026153,-10.006203768618576,-0.017385188997641562,0.29813673595424234,-0.007833626934844864,-0.0011585816597278916,-0.0005402553770461912
1765408572.026353,-10.002267523874096,-0.015647939694504866,0.2981511375512753,-0.007866118073824702,-0.00167261429651552,-0.0005649378953035422
1765408572.026505,-9.998149764697521,-0.014307130973675617,0.2985229201353163,-0.00791130543082674,-0.0021809324184558876,-0.0006056463263946862
1765408572.026705,-9.993876657099914,-0.013435697237004487,0.299182596277668,-0.007967524239155595,-0.002680386150509941,-0.0006603757378775309
1765408572.026905,-9.989453946190293,-0.013091162264120779,0.3000440968597481,-0.008032060438935857,-0.003167776075916679,-0.0007261175920351197
1765408572.027105,-9.984872874271558,-0.013310928344104868,0.30101312772258726,-0.008101304413295277,-0.003639911888358896,-0.0007990546252224738
1765408572.027305,-9.980117722139804,-0.014108555433276986,0.30199633521843733,-0.008171006770182064,-0.00409367094427912,-0.0008748302524835896
1765408572.027538,-9.97517396927803,-0.01547126188417892,0.30291041950586023,-0.008236604154557268,-0.004526043118335745,-0.0009488580243482928
1765408572.028518,-9.970036128978201,-0.0173590612247126,0.3036904205304639,-0.008293579858020463,-0.004934151898406842,-0.00101663596733047
1765408572.032498,-9.964714386985044,-0.01970595789183521,0.3042963695960422,-0.008337826013637998,-0.005315252234267349,-0.0010740427867092454
1765408572.035533,-9.959239253881163,-0.022423302324590184,0.30471748543531374,-0.00836597767486329,-0.005666715649859246,-0.001117605880410866
1765408572.037457,-9.9536636482598,-0.025404878808300224,0.3049733044963157,-0.008375692845279952,-0.00598601643151576,-0.0011447349809624308
1765408572.040468,-9.948062167567542,-0.028532919912607323,0.305111558965544,-0.008365857292980911,-0.006270729853855592,-0.001153908464645125
1765408572.042488,-9.94252765480663,-0.03168430151688721,0.30520308309107524,-0.008336698805892773,-0.0065185494638862855,-0.0011447888871855604
1765408572.043549,-9.937165467383,-0.03473659764217162,0.30533441687497614,-0.008289801261074694,-0.0067273284662425405,-0.0011182417329286642
1765408572.047473,-9.932086107202737,-0.037574035554291445,0.305599016630135,-0.008228013755224571,-0.006895148128587344,-0.0010762437980226143
1765408572.04945,-9.92739702322227,-0.040093326906369776,0.3060880082466778,-0.008155254954323817,-0.007020410576026514,-0.0010216899588876176
1765408572.052474,-9.923194376268084,-0.04220895358444314,0.30688127125173204,-0.008076220185316247,-0.007101945714172114,-0.0009581261635162282
1765408572.053469,-9.919555429427184,-0.043857194074338225,0.308039499813495,-0.007996010336974788,-0.007139117719196777,-0.0008894434164813674
1765408572.055574,-9.916532134828635,-0.04499831383474506,0.30959785562238723,-0.00791971525424924,-0.007131918632095718,-0.0008195639988589946
1765408572.059538,-9.914146433897201,-0.04561685127503284,0.31156178624500264,-0.007851994781892184,-0.007081042404570801,-0.0007521446434833727
1765408572.062565,-9.912387679071042,-0.04572046012778675,0.31390538872147616,-0.0077967040345849415,-0.0069879375436375955,-0.0006903168980797007
1765408572.064565,-9.911212422696298,-0.04533796897331199,0.3165724176474469,-0.00775660534676795,-0.006854838309993066,-0.0006364820235717514
1765408572.067463,-9.91054667444984,-0.04451708865213312,0.3194798035083329,-0.007733198533490037,-0.0066847735944678,-0.0005921734031733414
1765408572.069558,-9.910290572504854,-0.04332174963674951,0.32252334668787114,-0.007726684330401435,-0.006481549486029452,-0.0005579918838330389
1765408572.07259,-9.910325165064238,-0.04182875221109916,0.3255850304431372,-0.007736056040957154,-0.006249697610312947,-0.000533610221283175
1765408572.074582,-9.910520702775806,-0.040123517111127514,0.3285412200387812,-0.007759297345833724,-0.005994380144966473,-0.000517835503063426
1765408572.077513,-9.910745638752124,-0.03829516056756857,0.33127097802793715,-0.007793654097121054,-0.005721245877733027,-0.0005087163831361821
1765408572.079594,-9.910875488288264,-0.03643152690546657,0.3336638163709858,-0.007835943829474144,-0.005436237164990871,-0.0005036858564918888
1765408572.082571,-9.910800782287831,-0.03461487169175365,0.33562636322356126,-0.007882866371440577,-0.005145352618020992,-0.000499737054513551
1765408572.084504,-9.910433523064034,-0.03291858705668684,0.33708759962627993,-0.00793128251834492,-0.004854376083819259,-0.0004936328694227901
1765408572.08752,-9.909711803871742,-0.031404936013491674,0.3380024678970501,-0.00797843593718565,-0.00456858971585059,-0.0004821444699929857
1765408572.08955,-9.908602523310833,-0.030123476206856147,0.33835373805139235,-0.008022104496219155,-0.004292494236974916,-0.0004622999276088664
1765408572.092501,-9.907102316808462,-0.029109855646564403,0.3381520803871463,-0.0080606775768998,-0.004029560382476329,-0.0004316111745145933
1765408572.094471,-9.905236900124471,-0.028384920608538693,0.3374343711981835,-0.008093163319367762,-0.0037820343026387596,-0.00038824567811649054
1765408572.097515,-9.903059010265675,-0.027954365191739446,0.33626032400173,-0.008119134114955278,-0.0035508185544735394,-0.0003311218737336409
1765408572.099504,-9.900645100998872,-0.027809228517244006,0.33470759875363776,-0.008138621214974374,-0.0033354466425832945,-0.00025992787498524834
1765408572.102582,-9.898090977374169,-0.02792736607468701,0.3328657087452778,-0.008151971550992633,-0.0031341596504837997,-0.00017507937745736072
1765408572.104505,-9.895506672917302,-0.028275754142561095,0.33082933063970793,-0.008159682695522094,-0.002944079963648801,-7.763751640648088e-05
1765408572.107528,-9.893010988017839,-0.028813325056694976,0.3286917918874429,-0.008162234446046723,-0.002761464910942698,3.079740861347413e-05
1765408572.109565,-9.890726051446778,-0.02949404738824964,0.32653934814914903,-0.008159935505689683,-0.0025820173447429922,0.00014820841206516743
1765408572.112511,-9.88877203456985,-0.03027009619264353,0.32444650148186815,-0.008152800423594975,-0.0024012318662546585,0.00027229873529216735
1765408572.11556,-9.887261948146435,-0.031095079559585848,0.32247236069365515,-0.008140467037374012,-0.0022147599929405225,0.0004006433139237473
1765408572.11606,-9.88629644742894,-0.03192729020410459,0.3206580056247322,-0.00812215975409642,-0.002018777838611528,0.000530851000512492
1765408572.120542,-9.88595870374498,-0.032732811968222364,0.31902485627471505,-0.008096699575570122,-0.0018103336644202358,0.0006607248375223014
1765408572.121042,-9.886309551791667,-0.03348813050199174,0.31757410713851275,-0.008062558182288277,-0.0015876455801945295,0.0007884002019515887
1765408572.124547,-9.887383292283394,-0.03418183249352528,0.31628742096020507,-0.008017950999042643,-0.001350318848941088,0.0009124431185277657
1765408572.127574,-9.88918472083305,-0.034815104523319755,0.3151292071008603,-0.007960962915255628,-0.0010994591228019452,0.0010319034674864398
1765408572.129521,-9.891688018735959,-0.035400993970724715,0.31405071053741274,-0.007889699614080065,-0.0008376680671935492,0.001146329458850355
1765408572.13256,-9.894837942300798,-0.03596262735194453,0.31299574376498535,-0.00780245543656002,-0.0005689172687996327,0.0012557513724954215
1765408572.134624,-9.898553384968585,-0.03653067150932645,0.3119074596569279,-0.007697883675167456,-0.00029830674562021653,0.001360636295768337
1765408572.137514,-9.902733083294322,-0.037140234454424416,0.31073536887315,-0.007575149474437547,-3.17290213119518e-05,0.0014618105181233916
1765408572.139513,-9.90726303897235,-0.03782723475827654,0.3094418256516774,-0.007434044835726925,0.00022452412077536926,0.001560348567790022
1765408572.142479,-9.912025008167149,-0.038624213229914196,0.30800724805963664,-0.007275052341294936,0.0004641647884972516,0.0016574366115523797
1765408572.14454,-9.916905160432167,-0.039555743482732546,0.3064334044099906,-0.007099356005110792,0.0006812745897724976,0.0017542270662265094
1765408572.147533,-9.921801908366474,-0.040633939765376804,0.3047443372477127,-0.006908808431779815,0.000870594734471525,0.0018517046038333308
1765408572.148531,-9.926632042238072,-0.04185482030438822,0.30298486596010576,-0.006705868493622117,0.001027719024578544,0.00195057957256605
1765408572.152501,-9.931334557494017,-0.043196254565795456,0.3012168922494198,-0.00649352128856591,0.0011491880479987389,0.0020512174409748054
1765408572.1545,-9.935871844741662,-0.04461790303787786,0.29951389059047184,-0.006275184758262441,0.0012325012655882205,0.00215360791025464
1765408572.157503,-9.940228262002483,-0.04606315393750165,0.29795415373032985,-0.006054600150179092,0.0012760750563540933,0.00225737566412469
1765408572.1595,-9.944406519734342,-0.04746279483762381,0.29661359456474606,-0.0058357004177654725,0.0012791768180352725,0.0023618325449493768
1765408572.160506,-9.948422615907692,-0.048740075289955845,0.2955589757935126,-0.005622452578432804,0.0012418593996651405,0.0024660656397425046
1765408572.164561,-9.95230011093241,-0.0498167944075272,0.2948422326471481,-0.005418675671298574,0.0011649093994980336,0.0025690485400126444
1765408572.167499,-9.956064375666664,-0.05061995331272276,0.2944962305642793,-0.005227842958636382,0.0010498102749267302,0.0026697570737100615
1765408572.170525,-9.959737258113108,-0.051088329299362086,0.29453208789883045,-0.005052883002128479,0.000898710819084091,0.0027672692651020537
1765408572.172538,-9.963332501289887,-0.05117814831600448,0.29493812445927475,-0.004895997611304602,0.0007143854141156324,0.0028608340783330363
1765408572.174673,-9.966852168508998,-0.050867001993431936,0.29568043687461965,-0.00475851522474197,0.0005001747890032995,0.0029499038591196624
1765408572.177502,-9.970284243727843,-0.050155406172933285,0.29670498748254137,-0.004640796939949099,0.00025990008615859754,0.003034137213594118
1765408572.178541,-9.973601504880918,-0.04906592163482959,0.2979409954065782,-0.004542209689056035,-2.255095229056217e-06,0.003113386775676531
1765408572.182544,-9.976761730791525,-0.0476403326315651,0.299305375731895,-0.004461176373598852,-0.00028189844705494465,0.003187686390098972
1765408572.184497,-9.979709225414087,-0.04593569441248842,0.30070791056906404,-0.004395305207958594,-0.000574616681985852,0.0032572454431181955
1765408572.185577,-9.982377493955655,-0.04401996432373901,0.3020567263879629,-0.004341590032644686,-0.0008761854034148978,0.0033224490748167594
1765408572.189557,-9.984692781328977,-0.04196756403730269,0.3032636243688761,-0.004296662104089844,-0.001182778407086935,0.0033838575972727778
1765408572.192503,-9.986578179282214,-0.03985492863731032,0.30424896326581696,-0.004257066315791348,-0.0014911464715697345,0.0034421990106997175
1765408572.194565,-9.987958067082847,-0.03775615147815503,0.3049459855172723,-0.0042195340805414195,-0.0017987357349998805,0.003498352056528744
1765408572.197531,-9.988762643345634,-0.03573915382337097,0.3053044751738308,-0.004181229133825,-0.0021037247745080813,0.00355331925509199
1765408572.199505,-9.988932222555363,-0.03386300689629597,0.305293453503727,-0.004139946369155967,-0.002404975805310147,0.003608188766002104
1765408572.2025,-9.988420933169769,-0.03217679345343004,0.3049025301302881,-0.004094245798490339,-0.0027019131924130454,0.0036640831326991024
1765408572.204523,-9.98719956256071,-0.03071979791567089,0.30414172870578515,-0.0040435071845663605,-0.002994353745606003,0.0037220945730785195
1765408572.207502,-9.985257496595347,-0.029522277496549596,0.30303997555771356,-0.003987899855017003,-0.0032823139314741736,0.0037832108810797326
1765408572.209478,-9.982603848953328,-0.028605988802095327,0.3016426931575294,-0.003928276044690008,-0.0035658136219334077,0.003848241550664514
1765408572.212512,-9.979267877785514,-0.027984070082828535,0.30000893252498056,-0.003866008404192416,-0.0038446925686500496,0.00391775702477458
1765408572.215493,-9.975298699694706,-0.02766047175112781,0.29820831059714115,-0.003802796152812137,-0.004118456920905631,0.003992051486777305
1765408572.217558,-9.970764241365872,-0.027629463431160853,0.29631787764703504,-0.003740459481424336,-0.004386173533142691,0.004071131681920899
1765408572.220543,-9.965749350952155,-0.027875653434376205,0.29441897923957333,-0.0036807345811050384,-0.004646423730187726,0.004154726182647814
1765408572.222512,-9.960352996034946,-0.02837459939950094,0.2925941019595551,-0.0036250778351099733,-0.004897316317121753,0.004242306589450495
1765408572.224496,-9.9546845111732,-0.02909378710629144,0.29092356827893273,-0.003574488184231872,-0.005136548963392479,0.004333115011188294
1765408572.227515,-9.94885897994922,-0.029993736108546647,0.2894819113502178,-0.003529359514803675,-0.005361503689544488,0.004426197451213293
1765408572.228456,-9.94299203631906,-0.031029229230327797,0.2883339361802024,-0.0034893773991755777,-0.005569364547812445,0.004520446325698146
1765408572.232497,-9.937194520750896,-0.032150910157865246,0.28753075510182186,-0.003453473871726163,-0.005757247581369142,0.004614654846052635
1765408572.234467,-9.931567409693013,-0.033307505341114006,0.2871062526024398,-0.0034198490158710076,-0.005922332663859422,0.004707581711331068
1765408572.237566,-9.926197323817593,-0.03444867591225129,0.2870744256032672,-0.003386060421478485,-0.00606198772523306,0.004798019250943569
1765408572.239536,-9.921152915967452,-0.03552817568467293,0.2874279903671233,-0.003349173799398934,-0.0061738805632043,0.004884856041567931
1765408572.241506,-9.916482588575269,-0.03650680237194723,0.28813862585276256,-0.003305962161932239,-0.00625607765530423,0.0049671289666159395
1765408572.245459,-9.912214053663218,-0.037354689885527516,0.28915911757349194,-0.0032531364246253256,-0.006307127532432011,0.005044067701678345
1765408572.245959,-9.908355988427497,-0.03805274935932089,0.2904273441084047,-0.003187584432035021,-0.006326119825600569,0.005115140400574428
1765408572.249512,-9.904901544177578,-0.038593336803097254,0.2918716242410741,-0.003106587801217873,-0.00631270790956869,0.005180107654462719
1765408572.252484,-9.901833048503162,-0.038980299548620444,0.29341669518464764,-0.0030079821263434615,-0.006267088126187159,0.005239082948101825
1765408572.255548,-9.899127072368069,-0.039228396323746924,0.2949896220021368,-0.002890234149291493,-0.006189938601562244,0.005292587735136
1765408572.256048,-9.896759057143587,-0.03936187881295746,0.2965250872285417,-0.0027524314839185806,-0.00608232944829695,0.005341584759705106
1765408572.260583,-9.894706841027679,-0.03941198678753354,0.2979696413404697,-0.0025942080187464963,-0.005945621335184468,0.005387476593288095
1765408572.2626,-9.892952693198575,-0.03941332656882554,0.2992846314179467,-0.0024156478773886933,-0.005781371157070573,0.005432064058310489
1765408572.264522,-9.891483796940717,-0.039399500066272686,0.30044767810030193,-0.002217213800471338,-0.005591260911312126,0.005477466160482651
1765408572.267574,-9.890291375759606,-0.03939874442119246,0.3014526652220839,-0.001999732424177061,-0.005377059225275277,0.005526006725680325
1765408572.269496,-9.889368780113685,-0.03943049447002186,0.30230824763204484,-0.0017644465688378584,-0.005140617983025657,0.005580074295443835
1765408572.272515,-9.888708954299494,-0.03950355224130127,0.3030350035669681,-0.00151312131519446,-0.0048839019307900045,0.005641964198438791
1765408572.277024,-9.888301847637754,-0.039616048172964824,0.30366159190065994,-0.00124817176736576,-0.004609045466126343,0.00571371664141335
1765408572.277524,-9.888132387654041,-0.03975690649672607,0.3042204318545269,-0.000972770292447768,-0.004318425922203746,0.005796970062146538
1765408572.279567,-9.888179437180655,-0.03990831814152138,0.3047433430266268,-0.0006908926617478362,-0.0040147379648086175,0.00589285062160857
1765408572.280502,-9.888415798319986,-0.04004877420880491,0.30525740464232104,-0.0004072748431512867,-0.003701052095268362,0.006001912866071667
1765408572.28451,-9.888809073542221,-0.040156333621511484,0.30578129214791633,-0.0001272703571696302,-0.0033808419318882258,0.006124132740197859
1765408572.287514,-9.889323175742144,-0.04021180724829781,0.30632254955244276,0.0001433837136460381,-0.0030579675834093416,0.006258937462682225
1765408572.289557,-9.889920357793471,-0.04020142266822728,0.30687635433818705,0.0003988706109509391,-0.002736604592522012,0.006405247553842863
1765408572.292564,-9.890563627054023,-0.04011847363689961,0.30742607559168944,0.000633640041787822,-0.0024211114410692654,0.006561512943950469
1765408572.295513,-9.891219315118954,-0.039963676454439934,0.30794544330768103,0.0008427689838482815,-0.0021158366622877393,0.006725744766903878
1765408572.296013,-9.89185951035579,-0.039744437346141616,0.3084017939760194,0.0010223132075247278,-0.0018248791307608043,0.006895562464858171
1765408572.299537,-9.89246410050017,-0.03947364577058262,0.3087598073282883,0.0011696307729412688,-0.0015518272652217154,0.0070682781094861934
1765408572.30051,-9.893022257342071,-0.039168564455211274,0.3089852746018706,0.0012836638794495533,-0.0012995089619479122,0.007241025848775176
1765408572.305521,-9.893533239816618,-0.03884985762580663,0.30904857704569283,0.0013651672988570145,-0.0010697819306746724,0.007410926072437822
1765408572.307487,-9.894006408501179,-0.03854020949034264,0.30892768607364385,0.0014168663165965783,-0.0008633864635210704,0.00757526348541708
1765408572.310459,-9.89446040187697,-0.03826185890900298,0.3086106093075746,0.0014435146670774078,-0.0006798751858032927,0.00773165885407566
1765408572.3125,-9.894921504344348,-0.03803286286865592,0.30809718818920945,0.00145181114079801,-0.0005176306298369833,0.007878220398653591
1765408572.315508,-9.895421265209123,-0.037862676753420865,0.3073999959046136,0.0014501349187167737,-0.0003739794376380281,0.008013666171919821
1765408572.317514,-9.895993453543127,-0.03774822579751769,0.3065440254615379,0.0014480814211639715,-0.00024540679990789664,0.008137411027623345
1765408572.319488,-9.896670585496341,-0.037671755570475314,0.30556510084914956,0.0014558165519613334,-0.00012786439040937268,0.008249612199999598
1765408572.322511,-9.897480493788128,-0.037601387950196075,0.3045073303204325,0.0014833037696031061,-1.7151223898693354e-05,0.008351168218057944
1765408572.325521,-9.898443475337492,-0.037494652129336524,0.3034200785434045,0.0015394854115373543,9.066762978494887e-05,0.008443668783469176
1765408572.327504,-9.899570329263815,-0.037304543379963126,0.3023547544249271,0.0016315138547964402,0.00019885146218575134,0.008529298427358651
1765408572.329573,-9.900861289133612,-0.036987083470837095,0.3013614842074332,0.0017641278662770753,0.00030963570734734714,0.008610701234785502
1765408572.332515,-9.902305741190764,-0.03650901678556775,0.30048575537085803,0.001939253980148275,0.00042399247425109986,0.008690814606047577
1765408572.335497,-9.903882722996304,-0.03585417759954146,0.29976531013035657,0.0021558839957884273,0.0005415321647759062,0.0087726779317415
1765408572.335997,-9.90556231149002,-0.035027186458898706,0.29922767990283655,0.00241024221321317,0.0006605569585539298,0.008859221695769137
1765408572.339432,-9.907307994072264,-0.03405352809257274,0.2988886847688536,0.0026962154715790662,0.0007782541580471851,0.008953047314089918
1765408572.342453,-9.90907999478958,-0.03297581347664319,0.29875205886543515,0.0030059824987552428,0.0008909976210554636,0.009056216713671968
1765408572.344469,-9.910839358562079,-0.03184705388541495,0.2988101698743033,0.003330754387167024,0.0009947119719269253,0.009170077479265341
1765408572.347482,-9.912552377964253,-0.030722707617775968,0.29904557525997216,0.003661531365093304,0.0010852506638936944,0.009295148247998115
1765408572.348529,-9.91419470082116,-0.029653611362365696,0.29943294314312524,0.003989793286213433,0.0011587473601529117,0.009431078485737234
1765408572.352503,-9.91575432978562,-0.028681406627351063,0.29994080351668573,0.0043080655791161255,0.001211916240886223,0.009576681129357867
1765408572.35448,-9.917232905824354,-0.02783689713255131,0.30053281657932013,0.004610327454636964,0.0012422914328080342,0.009730022998023051
1765408572.357514,-9.918645165705913,-0.02714051123238924,0.3011686834844265,0.004892247126493692,0.001248402611131796,0.009888552951812481
1765408572.358517,-9.920017019266,-0.026603357528236695,0.30180517170923604,0.005151240201588303,0.0012298843846704841,0.010049254021653097
1765408572.360501,-9.921382965277683,-0.026227567661938764,0.30239768562157593,0.005386357953364175,0.0011875164162881598,0.010208818412678912
1765408572.364544,-9.922783434658054,-0.02600549402414371,0.30290242815562995,0.005598026051707959,0.0011231920288094458,0.010363853010024779
1765408572.367559,-9.924262306539694,-0.02591831182670504,0.3032788220125946,0.005787670909472668,0.0010398148866479573,0.010511119955817959
1765408572.369529,-9.9258645588176,-0.025935161896873817,0.3034917561126285,0.005957286474091815,0.0009411261115128327,0.01064780337396527
1765408572.372579,-9.927633880239512,-0.026013972393877337,0.3035133433408482,0.006109005053858747,0.0008314689272369264,0.010771777554991396
1765408572.374589,-9.929610015841488,-0.02610463478535661,0.3033240073995752,0.006244738066096388,0.0007155041666349208,0.010881841880027117
1765408572.377562,-9.931825616899806,-0.02615454635801539,0.3029127697573846,0.006365943349828451,0.0005978951065563047,0.010977886974940055
1765408572.378532,-9.934302505698435,-0.02611589600430605,0.30227668665107166,0.00647355408115691,0.00048298267804323724,0.011060963566441295
1765408572.380516,-9.937047604825146,-0.025953571081743957,0.30141961942102813,0.00656807372801164,0.0003744740678663218,0.011133236611322749
1765408572.384505,-9.940049214348022,-0.025652229998363276,0.3003508547917763,0.006649808366093026,0.0002751715751845545,0.011197820646546518
1765408572.386492,-9.9432745895722,-0.025220964049963324,0.299084278247316,0.006719179165384469,0.0001867724202138952,0.011258508696058728
1765408572.388491,-9.946669661164325,-0.024694186320812144,0.2976386264288634,0.006777040857392307,0.0001097671510954178,0.011319426786216837
1765408572.392532,-9.95016129095725,-0.024128067082533535,0.2960388586602338,0.006824932286016856,4.344887048481488e-05,0.011384665471587608
1765408572.394508,-9.953661943620475,-0.0235929373593216,0.2943182108514609,0.006865204017589846,-1.3978194841630459e-05,0.011457950091937837
1765408572.397447,-9.957076280234766,-0.023163259595453504,0.2925202901235032,0.006900999914655745,-6.522085123435349e-05,0.011542403740878563
1765408572.399558,-9.96030889973563,-0.022907498582342294,0.29070058048831393,0.006936104621544416,-0.00011368255550707575,0.011640429753712133
1765408572.402556,-9.963272205258171,-0.022880137750034446,0.2889267837078645,0.006974697045004724,-0.00016323379857395123,0.01175370362205635
1765408572.404501,-9.965893321712976,-0.023117188243971156,0.28727757144717986,0.007021063775607167,-0.0002179735279724268,0.011883233713290458
1765408572.407555,-9.968119292129916,-0.02363525395765058,0.28583969774316564,0.007079323454326188,-0.000281977995664328,0.012029439762423697
1765408572.409523,-9.96992021463078,-0.02443315138131028,0.28470379793520184,0.007153197596333773,-0.0003590326032319471,0.012192211182592887
1765408572.412578,-9.971290192293775,-0.025494677793266616,0.28395924290894137,0.007245844657976258,-0.00045235156438776025,0.012370934087114718
1765408572.414591,-9.972245973316674,-0.026791405740474675,0.2836882309084959,0.007359760445195553,-0.0005643058324204423,0.012564499931859683
1765408572.417553,-9.972823290037446,-0.02828500724140138,0.2839593180912688,0.007496741554592004,-0.000696191899668555,0.012771317516945829
1765408572.419523,-9.973071283921971,-0.02992908582835911,0.2848209234816431,0.007657906138487451,-0.0008480736021451566,0.012989342988890821
1765408572.422505,-9.97304577761549,-0.031670516062320395,0.2862956295258182,0.007843762842084705,-0.0010187167000386852,0.013216129686076765
1765408572.425591,-9.972802254939658,-0.03345000740101419,0.2883760127652414,0.008054311095913471,-0.0012056214610817722,0.013448894062597505
1765408572.426091,-9.972389252998239,-0.03520151991367171,0.29102236871292764,0.008289145681524852,-0.001405149693527377,0.013684599932631073
1765408572.42953,-9.971842648006149,-0.03685063223457752,0.29416233620309323,0.008547532216333236,-0.0016127380380376029,0.013920072531325363
1765408572.432507,-9.971181124969847,-0.03831282537599797,0.29769222927926203,0.008828424683344884,-0.0018231820747026681,0.014152152691274197
1765408572.435493,-9.970402969230358,-0.03949325322288078,0.3014798414640469,0.009130411998910942,-0.0020309649513483704,0.014377883991468159
1765408572.437486,-9.969484294679514,-0.04028934009761217,0.3053686123111871,0.009451601227229461,-0.002230596350049648,0.014594701520072008
1765408572.440553,-9.968378998760603,-0.040596521759796333,0.30918331698951484,0.009789461937366723,-0.002416927125715811,0.014800578320434864
1765408572.442505,-9.967020893526067,-0.040316314301198614,0.31273758771662963,0.01014066540369025,-0.00258541004722363,0.014994096507407153
1765408572.445465,-9.965328256227233,-0.03936537373209149,0.31584326811477453,0.010500955482103431,-0.0027322863326570976,0.015174439082384666
1765408572.447532,-9.963210491653703,-0.0376844207472973,0.3183209570553181,0.010865088013605749,-0.0028546916683890046,0.015341327033073624
1765408572.449481,-9.96057615654628,-0.035246377343440584,0.32001069080796135,0.011226872667983312,-0.0029506900620099234,0.01549493750156413
1765408572.452545,-9.957341604414125,-0.03206325527821821,0.32078188049262063,0.011579342593256443,-0.003019250824661394,0.015635829789418385
1765408572.455463,-9.953439800664128,-0.028191096409597716,0.32054207468410106,0.011915061113119798,-0.003060179530778573,0.015764887588891392
1765408572.457543,-9.948829004030417,-0.02373189089881889,0.31924434590964795,0.01222655258506051,-0.0030740041442934934,0.015883272517826456
1765408572.460548,-9.943500809771171,-0.018831390560996426,0.3168929485732852,0.012506820900955984,-0.0030618139845604297,0.01599238257962349
1765408572.462509,-9.937486708013337,-0.013672342451218697,0.3135466366761835,0.012749899374272127,-0.003025057648397816,0.0160938142579445
1765408572.464471,-9.930862165340523,-0.008463603021787893,0.30931899217535846,0.012951365498785767,-0.002965320498026371,0.01618932806180306
1765408572.465545,-9.923747380096163,-0.003426283184213223,0.30437533215815055,0.013108757378481163,-0.0028841112606259175,0.016280811131036924
1765408572.469518,-9.916304121289084,0.0012217555022385838,0.29892603285011804,0.013221844088796791,-0.0027826850720438006,0.016370225005673
1765408572.4725,-9.908728343400217,0.005281839040866195,0.29321633100065775,0.01329272284494836,-0.00266192214117165,0.016459531342463
1765408572.473495,-9.901238719552973,0.00858962944028654,0.28751295706488944,0.01332573536779268,-0.0025222762008791314,0.016550601621381247
1765408572.477472,-9.894061968257205,0.011028065781346295,0.28208842444016796,0.013327212511193523,-0.002363806157963547,0.016645127207080602
1765408572.480536,-9.887416649032781,0.012536585499781537,0.2772043211989637,0.01330506985812664,-0.002186298943656559,0.016744545949908374
1765408572.482106,-9.881497542272397,0.01311539849111089,0.2730952573779995,0.013268286388235578,-0.0019894755754999473,0.016849994493835868
1765408572.485515,-9.876462576555873,0.012824251756539838,0.2699550494105294,0.013226303627607586,-0.001773252965087153,0.01696228907145355
1765408572.487515,-9.87242367934231,0.01177591322860953,0.2679263290447968,0.013188387860162682,-0.001538022227564025,0.0170819347054459
1765408572.489617,-9.86944222614649,0.010125226286434703,0.26709421229145625,0.013163006423513354,-0.001284902130968203,0.017209161827226344
1765408572.492612,-9.867529123559596,0.00805491641451551,0.2674840956809023,0.01315727658591801,-0.0010159288190812658,0.017343986967951093
1765408572.494584,-9.86664899424274,0.0057594666962574375,0.2690631718978739,0.01317654277659552,-0.0007341481128438114,0.017486287585462695
1765408572.497546,-9.866727472710474,0.0034284907764932358,0.2717449814715205,0.013224122089333667,-0.0004435868879961389,0.017635872487685937
1765408572.500562,-9.867660366054993,0.0012311538220805937,0.2753962815178404,0.013301235315555894,-0.0001490956093691133,0.017792526237914535
1765408572.502105,-9.86932341036657,-0.0006968302648762962,0.2798456044200511,0.013407118421158735,0.00014392867716830405,0.017956013033241843
1765408572.505547,-9.871581498294155,-0.002262418294505522,0.2848929078911721,0.01353929030389073,0.0004299142065356672,0.01812603841677236
1765408572.507544,-9.874296536529656,-0.0034200107290063993,0.290319635339116,0.013693938417603774,0.0007035429713390601,0.01830217767521148
