time,acc_x_g,acc_y_g,acc_z_g,gyro_x_rad_s,gyro_y_rad_s,gyro_z_rad_s
1765409914.551052,-9.850550,-0.933764,1.815519,-0.008094,-0.006414,-0.001680
1765409914.551302,-9.699903,-0.878766,1.555476,-0.005498,-0.002138,-0.000153
1765409914.551552,-9.543877,-0.966643,1.532759,-0.008705,-0.007330,-0.001374
1765409914.551802,-9.772835,-0.918221,1.834050,-0.009010,-0.014508,-0.003818
1765409914.552073,-9.772835,-0.918221,1.834050,-0.009010,-0.006567,-0.003818
1765409914.552323,-9.652080,-0.884146,1.571018,-0.007636,-0.004429,-0.000611
1765409914.552573,-9.772835,-0.883548,1.853180,-0.009010,-0.009010,-0.002291
1765409914.552823,-10.082495,-0.997130,2.314084,-0.007636,-0.011606,0.000611
1765409914.553032,-10.104015,-1.012673,2.123984,-0.008705,-0.012523,-0.003207
1765409914.553232,-9.843375,-0.841702,1.536346,-0.005956,-0.017104,-0.010385
1765409914.553432,-9.851745,-0.744859,1.510043,-0.007178,-0.029322,-0.008247
1765409914.553632,-10.069344,-0.599593,1.730033,-0.006567,-0.029322,-0.010537
1765409914.553832,-10.065758,-0.535629,1.681611,-0.012370,-0.024129,-0.014355
1765409914.554048,-10.028693,-0.290531,1.541128,-0.014661,-0.025198,-0.018631
1765409914.554298,-10.105211,-0.086681,1.483740,-0.020159,-0.031612,-0.017410
1765409914.554548,-10.240912,0.159015,1.455045,-0.028100,-0.040623,-0.012065
1765409914.554798,-10.219989,0.217599,1.274510,-0.034208,-0.035888,-0.008094
1765409914.555118,-10.130320,0.057987,1.286466,-0.036041,-0.034208,0.004734
1765409914.555368,-10.164392,-0.207437,1.348637,-0.043219,-0.032223,0.010385
1765409914.555618,-10.327594,-0.102224,1.665471,-0.045204,-0.032223,0.010079
1765409914.555868,-10.327594,-0.102224,1.665471,-0.045204,-0.029780,0.010079
1765409914.556061,-10.217599,0.168580,1.427546,-0.053909,-0.031765,0.025809
1765409914.556311,-10.217599,0.168580,1.427546,-0.053909,-0.034972,0.025809
1765409914.556561,-10.087276,0.064562,0.999522,-0.070097,-0.022144,0.043219
1765409914.556811,-10.234934,-0.026303,1.325323,-0.075136,-0.022144,0.050702
1765409914.557145,-10.387374,0.028694,1.576996,-0.087354,-0.012828,0.053145
1765409914.557345,-10.491391,-0.015543,1.682209,-0.096669,-0.017868,0.059559
1765409914.557545,-10.272595,-0.032281,1.355811,-0.105680,-0.022602,0.069180
1765409914.557745,-10.441175,0.170971,1.519608,-0.111330,-0.022755,0.070860
1765409914.557945,-10.614536,0.055595,1.847202,-0.126144,-0.017410,0.084910
1765409914.558166,-10.599592,0.000598,1.757532,-0.137903,-0.015577,0.091477
1765409914.558416,-10.364656,-0.307269,1.428742,-0.149204,-0.012217,0.102473
1765409914.558666,-10.050214,-0.345528,1.146580,-0.158061,-0.015424,0.101098
1765409914.558916,-10.342537,-0.069345,1.474175,-0.166308,-0.013439,0.105069
1765409914.559097,-10.514107,0.041846,1.690578,-0.172569,-0.005345,0.118661
1765409914.559347,-10.633666,0.062171,1.898015,-0.181427,-0.000916,0.127671
1765409914.559597,-10.478239,-0.099235,1.759923,-0.190590,0.000611,0.138819
1765409914.559847,-10.432806,-0.248685,1.782042,-0.194408,0.000611,0.144164
1765409914.560086,-10.621711,-0.355093,2.123386,-0.203113,-0.002291,0.152411
1765409914.560336,-10.616331,-0.295313,2.020564,-0.211512,-0.002749,0.157603
1765409914.560586,-10.381992,0.134505,1.688187,-0.216246,-0.001680,0.158061
1765409914.560836,-10.149448,0.057389,1.261956,-0.232434,-0.004429,0.173333
1765409914.561044,-10.243901,-0.027499,1.428742,-0.245568,-0.013592,0.181427
1765409914.561294,-10.243901,-0.027499,1.428742,-0.245568,-0.008247,0.181427
1765409914.561544,-10.451936,-0.380201,1.584768,-0.268781,0.006414,0.188757
1765409914.561794,-10.034670,-0.286944,1.243424,-0.273820,0.006414,0.187077
1765409914.562080,-10.221185,-0.101626,1.476566,-0.277486,0.001374,0.189368
1765409914.562280,-10.518888,-0.228360,1.817910,-0.293979,0.001374,0.194408
1765409914.562480,-10.693446,-0.230751,2.104256,-0.293979,0.006109,0.194408
1765409914.562680,-10.742467,-0.249283,2.040889,-0.313068,0.007941,0.197309
1765409914.562880,-10.518888,-0.142874,1.614658,-0.324675,0.001222,0.198989
1765409914.563082,-10.576279,0.027499,1.470588,-0.332158,-0.014813,0.205251
1765409914.563332,-10.539214,-0.117169,1.614658,-0.345750,-0.007636,0.212887
1765409914.563582,-10.512313,-0.074725,1.814921,-0.358120,-0.002749,0.214261
1765409914.563832,-10.778334,-0.483022,2.117408,-0.368657,-0.003971,0.222050
1765409914.564239,-10.783714,-0.501554,2.055237,-0.374308,-0.010079,0.213956
1765409914.564489,-10.868602,-0.041248,1.938068,-0.378431,-0.014508,0.211512
1765409914.564739,-10.755618,-0.260641,1.823290,-0.392023,-0.007636,0.221744
1765409914.564989,-10.679100,-0.522477,2.052845,-0.401033,-0.020769,0.220980
1765409914.565113,-10.650405,-0.707795,1.838833,-0.413403,-0.023671,0.216399
1765409914.565446,-10.459108,-0.594213,1.516619,-0.423024,-0.024740,0.211818
1765409914.565780,-10.616331,-0.276184,1.870516,-0.433409,-0.024282,0.211512
1765409914.566069,-10.807029,-0.203252,2.168221,-0.437380,-0.027642,0.217773
1765409914.566319,-10.860830,-0.380201,2.232185,-0.447306,-0.029627,0.221286
1765409914.566569,-10.701816,-0.950502,1.994859,-0.459676,-0.035125,0.223271
1765409914.566819,-10.752031,-0.469871,1.789813,-0.459523,-0.041692,0.215941
1765409914.567105,-10.842896,-0.087279,2.034911,-0.469603,-0.046120,0.221133
1765409914.567355,-10.580463,-0.151243,2.008608,-0.485332,-0.045357,0.229380
1765409914.567605,-10.142874,-0.368245,1.480153,-0.488081,-0.040317,0.239306
1765409914.567855,-10.337755,-0.786705,1.805356,-0.486860,-0.060628,0.248164
1765409914.568068,-11.068268,-0.986370,2.609995,-0.494190,-0.060628,0.242208
1765409914.568318,-11.083213,-0.770564,2.446198,-0.503964,-0.049633,0.234725
1765409914.568568,-10.444761,-0.737685,1.834050,-0.505186,-0.040012,0.240834
1765409914.568818,-10.214011,-0.969632,1.758728,-0.514349,-0.044899,0.240223
1765409914.569062,-10.782518,-0.765184,2.575322,-0.512058,-0.038943,0.233809
1765409914.569312,-10.549974,-0.939742,2.532281,-0.524122,-0.038943,0.235489
1765409914.569562,-10.161406,-1.203969,1.991870,-0.525802,-0.044440,0.235794
1765409914.569812,-9.849353,-1.036585,1.666667,-0.519388,-0.045509,0.229074
1765409914.570073,-10.044236,-1.010880,1.859158,-0.512974,-0.058338,0.231060
1765409914.570406,-10.227163,-0.921808,2.302726,-0.512363,-0.059559,0.227547
1765409914.570740,-10.014943,-0.850072,1.915949,-0.520305,-0.049786,0.221286
1765409914.571080,-10.222381,-0.361071,1.751554,-0.515570,-0.040623,0.223271
1765409914.571330,-10.493782,-0.019130,1.869321,-0.515723,-0.042913,0.238848
1765409914.571580,-11.080223,-0.555954,2.820421,-0.538325,-0.043219,0.240375
1765409914.571830,-11.346245,-0.487805,3.013510,-0.544281,-0.036346,0.234725
1765409914.572066,-10.872787,-0.454328,2.443806,-0.540005,-0.043219,0.235183
1765409914.572316,-10.308464,-0.266619,2.065997,-0.552222,-0.051313,0.234725
1765409914.572566,-10.028693,-0.144668,1.694165,-0.567036,-0.057421,0.234267
1765409914.572816,-9.681969,-0.288140,1.480751,-0.565203,-0.055436,0.236252
1765409914.573061,-10.420253,0.040650,1.873505,-0.575588,-0.054214,0.238390
1765409914.573311,-10.639645,-0.352702,2.214251,-0.588111,-0.056352,0.244041
1765409914.573561,-9.858918,-0.334768,2.111430,-0.593150,-0.052687,0.242666
1765409914.573811,-9.765063,-0.162602,1.333692,-0.603382,-0.053145,0.240528
1765409914.574085,-9.559420,-0.591822,1.212338,-0.622472,-0.053145,0.244652
1765409914.574335,-9.559420,-0.591822,1.212338,-0.622472,-0.064599,0.244652
1765409914.574585,-11.334289,-0.236729,2.539454,-0.622777,-0.053145,0.236710
1765409914.574835,-11.136416,-0.736490,2.889167,-0.650266,-0.038943,0.239001
1765409914.575049,-10.823768,-0.371832,1.830464,-0.640339,-0.042302,0.239154
1765409914.575299,-10.548779,-0.608560,1.840028,-0.653015,-0.042302,0.241444
1765409914.575549,-10.600189,-0.741870,2.240555,-0.668897,-0.052382,0.236863
1765409914.575799,-11.239238,-0.093257,2.882592,-0.661262,-0.054978,0.229838
1765409914.576031,-10.960065,-0.665949,3.091224,-0.683405,-0.044899,0.238696
1765409914.576364,-10.581060,-0.576279,1.974533,-0.674701,-0.047953,0.233809
1765409914.576698,-10.010758,-0.477044,1.838235,-0.673326,-0.045357,0.237168
1765409914.577022,-10.376613,-0.669536,2.503587,-0.673021,-0.060476,0.232740
1765409914.577272,-11.169893,-0.170971,2.690100,-0.683864,-0.052840,0.226784
1765409914.577522,-10.443566,-0.491392,2.126972,-0.686002,-0.052840,0.233656
1765409914.577772,-10.443566,-0.491392,2.126972,-0.686002,-0.047647,0.233656
1765409914.578023,-9.690936,-0.609756,1.567432,-0.703259,-0.041844,0.239765
1765409914.578273,-10.239119,-0.575084,1.856767,-0.704480,-0.055589,0.232892
1765409914.578523,-10.388569,-0.491989,2.326638,-0.715781,-0.045662,0.226478
1765409914.578773,-10.308464,-0.326399,2.504782,-0.724486,-0.039248,0.222660
1765409914.579017,-10.308464,-0.326399,2.504782,-0.724486,-0.046731,0.222660
1765409914.579267,-10.571496,-0.307269,2.632711,-0.746477,-0.058185,0.229227
1765409914.579517,-10.956479,-0.358680,3.155786,-0.757167,-0.050702,0.224798
1765409914.579767,-10.257052,-0.649211,2.582496,-0.753502,-0.029627,0.224035
1765409914.580035,-9.524748,-0.457915,2.050454,-0.770454,-0.036041,0.214414
1765409914.580285,-9.524748,-0.457915,2.050454,-0.770454,-0.050396,0.214414
1765409914.580535,-10.691652,-0.223577,2.423481,-0.794430,-0.020464,0.213039
1765409914.580785,-11.119080,-0.613343,3.153993,-0.786031,-0.020464,0.210290
1765409914.581007,-10.798659,-0.670732,2.916069,-0.774119,-0.032376,0.208916
1765409914.581257,-10.333572,-0.001196,2.442013,-0.762054,-0.032376,0.206014
1765409914.581507,-10.519486,0.190100,2.363701,-0.769079,-0.035277,0.210749
1765409914.581757,-9.913916,0.239718,1.947633,-0.768163,-0.025045,0.218232
1765409914.582061,-9.202533,-0.422047,1.478957,-0.778700,-0.015730,0.222202
1765409914.582311,-8.593973,-0.767575,0.817193,-0.774577,-0.021075,0.209679
1765409914.582561,-9.169056,-0.269608,1.351626,-0.794125,-0.021533,0.191201
1765409914.582811,-10.034073,0.193687,1.680416,-0.810618,-0.009468,0.198837
1765409914.583088,-10.566116,-0.077714,2.378048,-0.826348,0.008399,0.202196
1765409914.583338,-11.041367,-0.050813,3.363223,-0.845743,0.009621,0.197157
1765409914.583588,-11.041367,-0.050813,3.363223,-0.845743,0.012523,0.197157
1765409914.583838,-10.664154,-0.077116,2.596843,-0.870178,0.002291,0.185398
1765409914.584017,-10.376613,0.337159,2.739120,-0.880562,0.001527,0.187230
1765409914.584267,-9.833811,-0.161406,2.272836,-0.891100,0.012981,0.192575
1765409914.584517,-10.023911,0.131516,2.647058,-0.879188,0.027794,0.193950
1765409914.584767,-9.953370,-0.335964,2.113821,-0.882853,0.028863,0.194255
1765409914.585037,-9.613820,-0.329986,1.750358,-0.892016,0.015272,0.178831
1765409914.585287,-9.093734,0.473458,1.653515,-0.876439,0.026267,0.177609
1765409914.585537,-8.138450,-0.246891,1.452654,-0.899652,0.053909,0.195171
1765409914.585787,-9.191773,-0.477044,1.930296,-0.911258,0.046578,0.186467
1765409914.586030,-10.048421,-0.652798,2.007412,-0.915687,0.052993,0.175166
1765409914.586280,-9.618603,-0.771760,2.106647,-0.933860,0.051007,0.163865
1765409914.586530,-9.502629,-0.056193,2.048063,-0.929737,0.045968,0.163406
1765409914.586780,-9.509803,0.099833,2.308704,-0.954019,0.062614,0.161879
1765409914.587038,-8.854016,-0.037661,1.825681,-0.979828,0.062614,0.165850
1765409914.587288,-8.008727,-0.399330,1.285868,-0.992351,0.058643,0.162185
1765409914.587538,-7.888569,-0.929579,1.165710,-0.990671,0.067806,0.149357
1765409914.587788,-9.033954,-0.279173,1.184840,-0.959669,0.068875,0.155618
1765409914.588015,-10.815398,-0.737685,2.535868,-0.950965,0.078802,0.161421
1765409914.588265,-11.218314,-1.009086,3.498923,-0.942718,0.093921,0.140652
1765409914.588515,-9.878048,-0.475849,3.134265,-0.931111,0.124158,0.131641
1765409914.588765,-9.505020,0.052606,2.283596,-0.933708,0.113926,0.132405
1765409914.589094,-9.062648,0.498565,2.058823,-0.933708,0.087965,0.132405
1765409914.589344,-8.102582,0.296509,1.915351,-0.967458,0.098960,0.137750
1765409914.589594,-8.212577,-0.264228,0.997728,-0.976774,0.118661,0.137903
1765409914.589844,-8.666904,-0.736490,1.400048,-0.987769,0.126602,0.131794
1765409914.590069,-9.665230,-0.233142,1.711501,-1.002430,0.124617,0.119730
1765409914.590319,-10.381992,-0.416069,2.783357,-1.017091,0.128740,0.122784
1765409914.590569,-10.793877,-0.216404,3.049976,-0.998001,0.126296,0.123242
1765409914.590819,-10.547584,0.003587,2.969273,-1.003193,0.134085,0.116981
1765409914.591086,-8.705762,-0.363462,1.487924,-1.010524,0.147982,0.119882
1765409914.591336,-8.590386,0.148254,1.414395,-1.005026,0.140499,0.112399
1765409914.591586,-9.817072,0.178144,1.865734,-1.022741,0.140499,0.121104
1765409914.591836,-9.387254,0.020325,1.621234,-1.034653,0.150426,0.119730
1765409914.592077,-8.136059,-0.389168,0.184122,-1.055575,0.190590,0.117744
1765409914.592327,-8.560496,-0.584648,0.767575,-1.051605,0.191201,0.114537
1765409914.592577,-10.206240,0.325203,3.014108,-1.072985,0.180053,0.097433
1765409914.592827,-10.775943,0.631277,3.439741,-1.109789,0.192117,0.097128
1765409914.593070,-9.051291,-0.132712,1.623625,-1.107499,0.216857,0.115454
1765409914.593320,-8.226924,-0.203252,1.092778,-1.073138,0.201127,0.122478
1765409914.593570,-9.301768,-0.995935,2.556193,-1.072221,0.168141,0.113621
1765409914.593820,-10.271400,-0.584648,3.513869,-1.054506,0.188146,0.092241
1765409914.594136,-9.423719,-0.252272,1.023434,-1.042900,0.223424,0.098197
1765409914.594386,-8.898851,-0.063367,0.345528,-1.054353,0.211359,0.111483
1765409914.594636,-9.802128,-0.115973,2.531085,-1.072374,0.205403,0.102320
1765409914.594886,-10.755618,0.111191,3.501913,-1.079857,0.205403,0.103236
1765409914.595058,-9.577354,-0.714969,1.296030,-1.101848,0.238696,0.104000
1765409914.595308,-8.021879,-0.363462,-0.286944,-1.118800,0.224493,0.094379
1765409914.595558,-8.744021,-0.186514,1.208154,-1.121243,0.229685,0.091172
1765409914.595808,-9.708273,-0.202654,2.590865,-1.111317,0.245262,0.098349
1765409914.596119,-9.815279,-0.477044,2.503587,-1.115440,0.245262,0.094684
1765409914.596369,-9.815279,-0.477044,2.503587,-1.115440,0.254731,0.094684
1765409914.596619,-9.200740,-0.157819,1.947633,-1.115134,0.265574,0.076511
1765409914.596869,-9.374700,-0.202056,1.534553,-1.107651,0.260839,0.093462
1765409914.597052,-9.016020,-0.749641,1.636777,-1.124450,0.261756,0.083078
1765409914.597302,-10.520084,-0.499761,2.455762,-1.120785,0.247553,0.076358
1765409914.597552,-10.419655,-0.080105,2.780966,-1.139416,0.249386,0.078038
1765409914.597802,-9.971304,-0.241511,2.479675,-1.175610,0.258854,0.074373
1765409914.598056,-7.929220,-0.532042,-0.084888,-1.155452,0.276569,0.080023
1765409914.598306,-7.103060,-0.560736,-0.524868,-1.118189,0.258243,0.091324
1765409914.598556,-8.207794,-1.040172,0.679101,-1.111011,0.248775,0.079260
1765409914.598806,-8.886894,-0.708991,1.741989,-1.097725,0.256105,0.064752
1765409914.599032,-10.103418,0.081301,2.294356,-1.087951,0.295811,0.060628
1765409914.599282,-9.931252,0.093257,1.853180,-1.100932,0.295811,0.069180
1765409914.599532,-8.934121,-0.166188,1.651721,-1.115134,0.307265,0.072388
1765409914.599782,-9.024389,-0.207437,1.260162,-1.125672,0.317955,0.069944
1765409914.600053,-8.713532,-0.573888,1.172884,-1.134529,0.300851,0.077885
1765409914.600303,-9.457196,-0.805237,2.014586,-1.146136,0.283441,0.054367
1765409914.600553,-10.989956,-0.145863,2.491033,-1.142471,0.295811,0.052993
1765409914.600803,-10.461500,-0.498565,1.915351,-1.146747,0.315970,0.061392
1765409914.601060,-9.893590,-0.049020,2.244141,-1.138347,0.308945,0.062461
1765409914.601310,-9.172644,-0.787900,0.777738,-1.157132,0.321010,0.056505
1765409914.601560,-8.858201,0.217599,0.294118,-1.148121,0.310167,0.062614
1765409914.601810,-9.264107,-0.398733,0.725729,-1.153619,0.329562,0.058490
1765409914.602018,-9.441055,-0.039455,1.661286,-1.158964,0.330173,0.058490
1765409914.602268,-9.619798,0.115973,1.886657,-1.190576,0.347430,0.055436
1765409914.602518,-9.544475,-0.148254,1.923123,-1.207375,0.332311,0.063072
1765409914.602768,-8.472022,-0.279173,0.988761,-1.195616,0.345292,0.069028
1765409914.603048,-7.615374,-0.515304,0.248087,-1.157284,0.336587,0.088575
1765409914.603298,-8.059541,-1.072453,0.095050,-1.144914,0.325133,0.081856
1765409914.603548,-9.341224,-0.792085,1.483740,-1.134529,0.314443,0.066584
1765409914.603798,-8.779291,-0.211023,0.613343,-1.118036,0.314443,0.059407
1765409914.604081,-8.861788,-0.379005,1.489718,-1.136667,0.320704,0.061545
1765409914.604331,-9.334049,-0.233142,0.199665,-1.136209,0.324522,0.060018
1765409914.604581,-8.247847,-0.074725,0.602582,-1.152550,0.340252,0.052993
1765409914.604831,-9.046508,-0.649211,0.953491,-1.180192,0.354149,0.062156
1765409914.605119,-9.881036,-0.027499,1.077236,-1.163851,0.349415,0.057116
1765409914.605369,-9.188784,0.093257,1.623625,-1.169349,0.351400,0.055436
1765409914.605619,-9.734576,-0.219393,1.805954,-1.170876,0.348651,0.076664
1765409914.605869,-10.027497,-1.056910,1.549498,-1.147969,0.340099,0.081398
1765409914.606088,-9.681372,-1.443687,1.585366,-1.158811,0.362854,0.064904
1765409914.606338,-10.208033,-1.260162,1.286466,-1.158811,0.364381,0.064904
1765409914.606588,-10.542801,-0.484218,1.743185,-1.141860,0.369573,0.041233
1765409914.606838,-10.719152,0.050215,1.749163,-1.148274,0.369268,0.056200
1765409914.607093,-9.852941,-0.338355,1.822094,-1.188286,0.352775,0.056505
1765409914.607343,-10.688664,-0.925394,2.333811,-1.206764,0.341016,0.044440
1765409914.607593,-10.393950,-0.866810,1.499880,-1.164309,0.356134,0.043982
1765409914.607843,-10.442370,-0.716164,2.111430,-1.140944,0.373544,0.048106
1765409914.608078,-9.192968,-0.185318,0.546389,-1.130864,0.375988,0.046273
1765409914.608328,-8.772118,-0.162602,0.789694,-1.120632,0.379042,0.058796
1765409914.608578,-10.127929,-0.479436,0.821377,-1.114676,0.363770,0.075442
1765409914.608828,-10.923002,-0.830344,1.678025,-1.111928,0.361785,0.064752
1765409914.609054,-10.797463,-0.339550,2.296748,-1.129032,0.379500,0.051771
1765409914.609304,-10.318028,0.102822,1.273912,-1.129642,0.368810,0.058643
1765409914.609554,-8.947871,-0.356887,0.388570,-1.151175,0.368810,0.078496
1765409914.609804,-8.637014,-0.983979,0.222382,-1.154230,0.355218,0.062461
1765409914.610041,-8.637014,-0.159015,-0.224773,-1.151023,0.378736,0.051465
1765409914.610291,-9.061452,-0.266619,0.251076,-1.154688,0.379195,0.051618
1765409914.610541,-9.245575,-0.321019,0.373027,-1.150565,0.377820,0.050702
1765409914.610791,-9.831419,0.458513,0.877571,-1.156979,0.369879,0.055436
1765409914.611051,-10.666546,-0.170373,1.677427,-1.170418,0.381791,0.066584
1765409914.611301,-10.101624,-0.622908,1.317551,-1.160644,0.374919,0.078954
1765409914.611551,-10.101624,-0.622908,1.317551,-1.160644,0.370642,0.078954
1765409914.611801,-9.751313,-0.423242,0.337159,-1.189507,0.365450,0.070097
1765409914.612134,-10.142874,-0.420253,1.413199,-1.201877,0.360105,0.065668
1765409914.612384,-9.974891,-0.504543,0.994739,-1.160644,0.355371,0.075289
1765409914.612634,-10.005977,-0.800454,0.532640,-1.160949,0.358425,0.071319
1765409914.612884,-10.972021,-0.416069,1.169297,-1.140027,0.359800,0.070555
1765409914.613070,-10.054996,-0.730512,0.940937,-1.127810,0.379653,0.071929
1765409914.613320,-9.543280,-0.336561,0.709589,-1.132697,0.379653,0.076358
1765409914.613570,-9.293399,-0.258250,-0.380799,-1.138042,0.383623,0.079107
1765409914.613820,-9.071017,-0.515304,0.459708,-1.155604,0.357203,0.086285
1765409914.614064,-10.249879,-0.655189,0.766977,-1.157132,0.341321,0.084452
1765409914.614314,-10.099234,-1.067671,0.685079,-1.171639,0.341168,0.081092
1765409914.614564,-9.434480,-0.594213,0.313247,-1.161866,0.364381,0.076664
1765409914.614814,-9.197751,-0.655189,0.047824,-1.161713,0.369268,0.085979
1765409914.615147,-8.865973,-0.692850,-0.747250,-1.149648,0.352011,0.089644
1765409914.615397,-9.287420,-0.214012,-0.329986,-1.146747,0.350942,0.087201
1765409914.615647,-9.882233,-0.671927,0.180536,-1.153161,0.350484,0.087965
1765409914.615897,-9.911524,-0.714969,1.126255,-1.142623,0.355218,0.090561
1765409914.616037,-10.471663,-0.819584,1.280488,-1.142623,0.350178,0.090561
1765409914.616287,-9.888808,-0.346724,1.212936,-1.173319,0.348651,0.076053
1765409914.616537,-8.951457,-0.350311,-0.695839,-1.188744,0.348651,0.097280
1765409914.616787,-8.951457,-0.350311,-0.695839,-1.188744,0.317803,0.097280
1765409914.617151,-9.230033,-0.817790,-0.296509,-1.146136,0.302684,0.089339
1765409914.617401,-9.215686,-1.042563,-0.151841,-1.124145,0.302989,0.091477
1765409914.617651,-9.604255,-1.191415,0.425634,-1.110706,0.332616,0.084758
1765409914.617901,-10.745455,-0.208034,0.399330,-1.096809,0.332616,0.072540
1765409914.618186,-10.208033,-0.210426,0.817790,-1.112996,0.332769,0.084147
1765409914.618436,-9.736967,-0.224773,0.381396,-1.118800,0.320093,0.096975
1765409914.618686,-9.964130,-0.285748,-0.417264,-1.124145,0.321773,0.089644
1765409914.618936,-8.794834,-0.111789,-0.545194,-1.142471,0.326813,0.097586
1765409914.619159,-10.115973,-0.428623,0.643831,-1.153924,0.315206,0.095295
1765409914.619409,-11.322930,-0.017336,1.313964,-1.143998,0.314901,0.104763
1765409914.619659,-11.366570,-0.561932,1.313367,-1.153008,0.306654,0.114690
1765409914.619909,-10.968434,-0.924199,0.649211,-1.135140,0.306654,0.117592
1765409914.620092,-10.968434,-0.924199,0.649211,-1.135140,0.312610,0.117592
1765409914.620342,-10.112385,-0.717360,0.234338,-1.149954,0.306043,0.100182
1765409914.620592,-9.949186,-0.102822,0.172166,-1.144151,0.293673,0.100945
1765409914.620842,-9.977283,-0.282162,0.084290,-1.160339,0.268475,0.107054
1765409914.621081,-10.566712,-0.291726,0.102224,-1.171334,0.273515,0.110872
1765409914.621331,-9.856527,-0.668340,0.035868,-1.190729,0.282983,0.107818
1765409914.621581,-8.391916,-1.000717,-0.713773,-1.174388,0.287718,0.107818
1765409914.621831,-8.286106,-0.242109,-1.614060,-1.136362,0.272140,0.112552
1765409914.622082,-9.764465,-0.089072,0.216404,-1.127046,0.260381,0.126296
1765409914.622332,-10.832137,-0.657580,0.820182,-1.114524,0.260381,0.136681
1765409914.622582,-10.832137,-0.657580,0.820182,-1.114524,0.254731,0.136681
1765409914.622832,-10.211619,-1.212338,0.223577,-1.101390,0.250302,0.117286
1765409914.623121,-10.031085,-0.610952,-0.612147,-1.107193,0.247706,0.110414
1765409914.623371,-9.265303,-0.269010,-0.936155,-1.111928,0.247553,0.122478
1765409914.623621,-9.589908,-0.269010,-0.972621,-1.121090,0.226326,0.131641
1765409914.623871,-10.670731,-1.036585,0.850072,-1.142013,0.234572,0.119271
1765409914.624159,-11.462217,-0.909852,0.936753,-1.123076,0.237016,0.113316
1765409914.624409,-11.153753,-0.683285,0.712578,-1.114676,0.248622,0.115759
1765409914.624659,-10.031085,-0.817790,-0.542802,-1.097572,0.239306,0.119730
1765409914.624909,-10.083690,0.065160,-0.371832,-1.098947,0.239001,0.115759
1765409914.625079,-9.940218,-0.518293,0.124342,-1.087646,0.231976,0.139583
1765409914.625329,-9.678382,-1.252391,-0.374223,-1.086424,0.216094,0.141873
1765409914.625579,-10.386775,-0.561932,0.463893,-1.079552,0.198378,0.129198
1765409914.625829,-10.399329,-0.603778,0.107604,-1.088867,0.207694,0.130114
1765409914.626054,-8.272357,-0.703611,-2.073768,-1.114829,0.202044,0.134696
1765409914.626304,-8.702175,-1.126255,-1.056910,-1.124756,0.181274,0.130878
1765409914.626554,-11.468195,-1.120277,1.102343,-1.081690,0.148898,0.130267
1765409914.626804,-11.623624,-0.442372,1.615256,-1.048703,0.164475,0.129045
1765409914.627043,-11.325919,-0.834529,0.595409,-1.043969,0.202655,0.131031
1765409914.627293,-10.011955,-1.035987,-1.007891,-1.028544,0.206778,0.131489
1765409914.627543,-10.225369,-0.963654,-0.066954,-1.020450,0.156687,0.126755
1765409914.627793,-11.773073,-0.094452,1.300813,-1.016327,0.176082,0.122173
1765409914.628039,-11.437110,0.228360,0.790292,-1.026712,0.176082,0.118966
1765409914.628289,-10.107603,0.053802,-0.538020,-1.038776,0.197157,0.145386
1765409914.628539,-9.735173,0.008967,-1.084409,-1.033737,0.158367,0.157756
1765409914.628789,-11.140601,-0.566714,1.035390,-1.055881,0.129351,0.144928
1765409914.629054,-11.407818,-0.783118,0.486609,-1.040456,0.159589,0.153480
1765409914.629304,-9.774031,-0.887135,-1.819703,-1.026712,0.159589,0.145844
1765409914.629554,-9.486489,-0.742468,-1.217121,-1.032973,0.147371,0.145997
1765409914.629804,-11.887852,-0.282162,0.554758,-1.006095,0.107665,0.147982
1765409914.630079,-10.707196,-0.703611,0.915232,-1.014647,0.113163,0.150273
1765409914.630329,-9.189383,-0.480631,-1.666667,-1.016022,0.106138,0.144622
1765409914.630579,-9.129601,-0.597202,-2.140124,-1.009455,0.106138,0.143859
1765409914.630829,-10.057388,-0.742468,0.142276,-1.017091,0.071929,0.154091
1765409914.631068,-11.459826,-0.043042,0.387374,-1.017091,0.076358,0.143401
1765409914.631318,-10.261834,0.043042,-0.836322,-1.029919,0.119882,0.146302
1765409914.631568,-9.067430,-0.451937,-1.669058,-1.034806,0.104000,0.163712
1765409914.631818,-10.349113,-0.694644,0.198470,-1.007928,0.053756,0.159436
1765409914.632111,-10.354494,-0.700024,0.162602,-0.981050,0.063988,0.157298
1765409914.632361,-9.032160,-0.551769,-2.122190,-0.961807,0.041081,0.160352
1765409914.632611,-8.513269,-0.530846,-1.822094,-0.945467,0.041081,0.159894
1765409914.632861,-9.818865,-0.717360,-0.505141,-0.939663,0.017410,0.154854
1765409914.633112,-9.397416,-0.791487,-1.544117,-0.917367,0.036957,0.162490
1765409914.633362,-9.063844,-0.584051,-2.158656,-0.925308,0.040164,0.158214
1765409914.633612,-9.405785,-0.432807,-1.445480,-0.928362,0.023366,0.168293
1765409914.633862,-10.976804,-0.528455,0.289335,-0.941038,0.023366,0.160199
1765409914.634062,-10.976804,-0.528455,0.289335,-0.941038,0.024893,0.160199
1765409914.634312,-11.412002,-0.828551,0.258847,-0.936456,0.030849,0.160352
1765409914.634562,-10.679100,-0.986968,-0.265423,-0.936456,0.019090,0.160352
1765409914.634812,-10.614536,-0.694644,0.246294,-0.913244,-0.012370,0.160352
1765409914.635074,-11.067071,-0.710186,0.159015,-0.899041,-0.012370,0.162643
1765409914.635324,-11.067071,-0.710186,0.159015,-0.899041,-0.000611,0.162643
1765409914.635574,-10.413676,-0.511119,0.033477,-0.867429,-0.009927,0.164628
1765409914.635824,-10.872787,-0.462099,0.732903,-0.868650,-0.022602,0.164628
1765409914.636056,-11.233858,-0.456719,0.181731,-0.866971,-0.029780,0.167530
1765409914.636389,-11.467000,-0.411286,0.438785,-0.867123,-0.029780,0.167835
1765409914.636723,-11.086202,-0.718556,-0.046628,-0.865901,-0.035736,0.166919
1765409914.637055,-10.578670,-0.115375,0.194883,-0.866818,-0.051313,0.161116
1765409914.637305,-9.852941,-0.374223,-0.536824,-0.880868,-0.051313,0.160047
1765409914.637555,-9.392036,-0.206839,-1.750358,-0.878577,-0.068111,0.172569
1765409914.637805,-9.898373,-0.734098,-0.845289,-0.883311,-0.078038,0.167072
1765409914.638082,-10.436392,0.247489,-0.627092,-0.888656,-0.072235,0.150731
1765409914.638332,-10.191295,-0.167384,-0.202056,-0.878272,-0.079718,0.164934
1765409914.638582,-10.010758,-0.350909,-1.160928,-0.847423,-0.079718,0.180358
1765409914.638832,-10.236728,-0.192492,-1.035390,-0.847423,-0.085521,0.180358
1765409914.639052,-10.817192,-0.746652,0.795074,-0.819170,-0.070860,0.179136
1765409914.639302,-11.022836,-0.471066,-0.107604,-0.798706,-0.062919,0.174097
1765409914.639552,-9.966521,-0.841702,-0.447154,-0.790460,-0.076358,0.179594
1765409914.639802,-10.153036,-0.541607,-0.142276,-0.784809,-0.100487,0.176235
1765409914.640081,-10.153036,-0.541607,-0.142276,-0.784809,-0.109956,0.176235
1765409914.640331,-10.295910,-0.291726,0.434601,-0.782366,-0.100029,0.180358
1765409914.640581,-8.990912,-0.707795,-1.729435,-0.792139,-0.100029,0.174860
1765409914.640831,-8.362027,-0.278575,-2.020564,-0.782824,-0.102778,0.161421
1765409914.641097,-9.340625,-0.295313,-0.328790,-0.790918,-0.102778,0.166614
1765409914.641347,-10.321615,-0.365854,0.044237,-0.790918,-0.111177,0.166614
1765409914.641597,-10.227761,-0.428025,0.355093,-0.774577,-0.110261,0.162948
1765409914.641847,-10.016139,-0.438785,-0.048422,-0.773203,-0.100335,0.161879
1765409914.642070,-9.751313,-0.369440,-0.408895,-0.764956,-0.104458,0.167377
1765409914.642403,-9.640123,-0.418460,-0.431612,-0.746325,-0.124922,0.168904
1765409914.642737,-9.561213,-0.359876,-0.633668,-0.736245,-0.114385,0.174555
1765409914.643064,-9.463174,-0.262434,-1.138809,-0.717767,-0.122937,0.175318
1765409914.643314,-8.994499,-0.649211,-1.213534,-0.717003,-0.114079,0.172417
1765409914.643564,-9.265303,-0.624103,-0.875179,-0.700357,-0.122631,0.167224
1765409914.643814,-9.429100,-0.229555,-0.909852,-0.695165,-0.108123,0.167988
1765409914.644058,-9.609037,-0.571497,-0.344333,-0.693790,-0.118661,0.171348
1765409914.644308,-10.294117,-0.498565,-0.098637,-0.694248,-0.118966,0.164475
1765409914.644558,-10.267813,-0.463893,-0.573290,-0.688292,-0.119119,0.167224
1765409914.644808,-9.777617,-0.517695,-0.328790,-0.688292,-0.110719,0.167224
1765409914.645056,-10.205642,-0.371832,0.137494,-0.689056,-0.124158,0.160352
1765409914.645306,-10.632471,-0.340746,0.356289,-0.680962,-0.142332,0.164934
1765409914.645556,-10.160210,-0.200861,-0.038259,-0.675312,-0.134390,0.163254
1765409914.645806,-9.442251,-0.243305,-0.643233,-0.676533,-0.123853,0.170279
1765409914.646110,-8.822930,-0.461502,-0.994739,-0.664316,-0.131489,0.178067
1765409914.646443,-9.090147,-0.372429,-1.082018,-0.658818,-0.150120,0.166308
1765409914.646777,-9.980272,-0.028694,-0.320421,-0.661262,-0.153785,0.158672
1765409914.647051,-9.625775,-0.076518,-0.609756,-0.652709,-0.110261,0.165544
1765409914.647301,-9.375896,-0.490196,-0.625299,-0.651182,-0.110261,0.172264
1765409914.647551,-9.717837,-0.377810,-0.269608,-0.643547,-0.127976,0.163559
1765409914.647801,-10.294117,0.060378,0.543998,-0.626748,-0.129351,0.153938
1765409914.648050,-9.528933,0.083692,-0.075323,-0.623541,-0.109498,0.169515
1765409914.648300,-9.106885,-0.399928,-0.816595,-0.606131,-0.131336,0.173638
1765409914.648550,-9.544475,-0.467480,-0.043042,-0.602619,-0.134849,0.156992
1765409914.648800,-9.453012,0.094452,0.141081,-0.596204,-0.135459,0.156382
1765409914.649068,-9.020205,0.191296,-0.639646,-0.595135,-0.127213,0.167072
1765409914.649318,-8.836680,-0.249880,-0.848876,-0.588874,-0.133321,0.173944
1765409914.649568,-9.273074,-0.411286,-0.739479,-0.578795,-0.132100,0.174249
1765409914.649818,-9.630558,-0.550574,-0.309660,-0.571464,-0.127213,0.169210
1765409914.650069,-9.734576,-0.029292,-0.416069,-0.568868,-0.117744,0.159741
1765409914.650319,-9.346603,0.384983,-0.765184,-0.562301,-0.107207,0.163101
1765409914.650569,-9.083571,0.257054,-0.949306,-0.557415,-0.101556,0.182954
1765409914.650819,-9.305355,-0.631277,-0.734098,-0.561232,-0.112552,0.186008
1765409914.651048,-9.842180,-0.449546,0.141081,-0.547183,-0.107207,0.169057
1765409914.651298,-9.463772,-0.296509,-0.483022,-0.548404,-0.100029,0.166308
1765409914.651548,-9.528933,-0.224773,-0.536824,-0.543365,-0.120188,0.162948
1765409914.651798,-9.346005,-0.200861,-0.695839,-0.541685,-0.116675,0.160352
1765409914.652074,-9.410568,-0.176949,-0.315638,-0.535576,-0.118355,0.162032
1765409914.652324,-9.282639,-0.279173,-0.566714,-0.527940,-0.118661,0.158367
1765409914.652574,-9.279052,-0.081301,-0.598398,-0.530536,-0.127213,0.153022
1765409914.652824,-9.497847,-0.085485,-0.578670,-0.521984,-0.117897,0.159283
1765409914.653107,-9.347799,-0.108800,-0.639646,-0.512516,-0.117897,0.168752
1765409914.653440,-9.830821,-0.232544,-0.083692,-0.507629,-0.109192,0.165086
1765409914.653774,-9.830223,-0.563128,0.086083,-0.495259,-0.106443,0.173180
1765409914.654080,-9.387852,-0.862625,-0.332377,-0.492816,-0.105680,0.162796
1765409914.654330,-8.792442,-0.571497,-1.117886,-0.479224,-0.105985,0.158978
1765409914.654580,-8.917980,-0.505141,-0.908058,-0.468075,-0.110567,0.163101
1765409914.654830,-9.505020,-0.571497,-0.162004,-0.451124,-0.107512,0.166766
1765409914.655087,-9.733380,-0.618723,0.011956,-0.447306,-0.098655,0.155923
1765409914.655337,-9.191773,-0.744859,-0.428025,-0.438907,-0.081856,0.159436
1765409914.655587,-8.902437,-0.801052,-0.906265,-0.432034,-0.099113,0.160658
1765409914.655837,-9.793758,-0.629483,0.440579,-0.421802,-0.111483,0.157603
1765409914.656066,-9.820659,-0.758010,0.089670,-0.412945,-0.095448,0.165544
1765409914.656316,-9.824244,-0.796867,-0.084888,-0.400728,-0.089797,0.164017
1765409914.656566,-9.591104,-0.658776,0.018532,-0.397521,-0.089797,0.156687
1765409914.656816,-9.377091,-0.294118,-0.496174,-0.397521,-0.098349,0.156687
1765409914.657109,-9.216881,-0.661167,-0.425036,-0.378126,-0.102014,0.176693
1765409914.657359,-9.312529,-0.791487,-0.450143,-0.375529,-0.101556,0.174860
1765409914.657609,-9.482305,-1.053921,0.019130,-0.366061,-0.085979,0.172722
1765409914.657859,-9.309540,-1.006695,-0.140483,-0.356898,-0.085979,0.163559
1765409914.658056,-9.309540,-1.006695,-0.140483,-0.356898,-0.089644,0.163559
1765409914.658389,-9.371113,-1.110713,-0.210426,-0.338267,-0.094990,0.162643
1765409914.658723,-9.513988,-0.827953,-0.008369,-0.327729,-0.090103,0.156687
1765409914.659163,-9.142754,-1.133429,-0.280966,-0.325286,-0.079260,0.160352
1765409914.659413,-8.909611,-1.245815,-0.631875,-0.313679,-0.087201,0.158978
1765409914.659663,-9.073409,-1.058106,-0.573888,-0.306807,-0.090103,0.150426
1765409914.659913,-9.252748,-1.017456,-0.254663,-0.297186,-0.071777,0.153174
1765409914.660075,-9.121233,-1.153754,-0.430416,-0.279624,-0.071777,0.158825
1765409914.660325,-9.126015,-1.351028,-0.032281,-0.275958,-0.069791,0.152105
1765409914.660575,-9.130797,-1.548302,-0.265423,-0.267559,-0.071777,0.143859
1765409914.660825,-9.259325,-1.465806,-0.552367,-0.247859,-0.072388,0.136528
1765409914.661041,-9.250358,-1.270923,-0.312052,-0.233045,-0.045815,0.132252
1765409914.661291,-9.348397,-1.153754,0.117169,-0.225867,-0.045815,0.128740
1765409914.661541,-9.447034,-1.113104,0.278575,-0.218232,-0.050549,0.124464
1765409914.661791,-9.548659,-1.494500,0.125538,-0.212734,-0.056658,0.122937
1765409914.662038,-9.414154,-1.844811,-0.162004,-0.195782,-0.054825,0.115454
1765409914.662288,-9.375896,-1.661286,0.102822,-0.186619,-0.052687,0.094990
1765409914.662538,-9.677187,-1.245815,0.505141,-0.181732,-0.047342,0.083230
1765409914.662788,-9.590506,-0.999522,0.116571,-0.170890,-0.050396,0.079871
1765409914.663075,-9.421328,-1.166308,0.010760,-0.163101,-0.053756,0.085521
1765409914.663325,-9.598277,-1.370158,0.218795,-0.153480,-0.049175,0.076511
1765409914.663575,-9.662840,-1.397656,0.395744,-0.145080,-0.057116,0.070860
1765409914.663825,-9.427306,-1.304400,-0.147059,-0.143095,-0.054062,0.060018
1765409914.664067,-9.375298,-1.220708,-0.382592,-0.130267,-0.051465,0.055589
1765409914.664317,-9.375896,-1.247011,0.004185,-0.121562,-0.040775,0.052687
1765409914.664567,-9.520563,-1.105332,0.216404,-0.114232,-0.039554,0.042150
1765409914.664817,-9.520563,-1.105332,0.216404,-0.114232,-0.041233,0.042150
1765409914.665071,-9.412958,-1.041368,-0.077714,-0.102167,-0.036499,0.038790
1765409914.665321,-9.478717,-1.073051,0.060378,-0.094684,-0.038943,0.036805
1765409914.665571,-9.738162,-1.105930,0.482425,-0.089644,-0.035736,0.027336
1765409914.665821,-9.616212,-1.205763,0.161406,-0.082314,-0.035736,0.023366
1765409914.666089,-9.618603,-1.107126,-0.104017,-0.077885,-0.039248,0.013897
1765409914.666339,-9.691534,-0.957078,-0.056193,-0.073457,-0.036805,0.003512
1765409914.666589,-9.677784,-0.946915,0.064562,-0.066890,-0.028405,0.001985
1765409914.666839,-9.806311,-0.811812,0.365854,-0.062919,-0.019700,-0.002902
1765409914.667040,-9.869678,-0.704806,0.606169,-0.059559,-0.019700,-0.004276
1765409914.667290,-9.693925,-0.746652,0.206839,-0.053909,-0.020159,-0.002902
1765409914.667540,-9.701099,-0.848876,0.038259,-0.049633,-0.023518,-0.009163
1765409914.667790,-9.921089,-0.834529,0.553563,-0.046273,-0.022907,-0.013286
1765409914.668042,-10.033475,-0.783716,0.505739,-0.039248,-0.027031,-0.011759
1765409914.668242,-9.881634,-0.731707,0.014945,-0.039248,-0.026267,-0.011759
1765409914.668442,-9.791965,-0.840507,-0.068149,-0.027336,-0.019090,-0.005040
1765409914.668642,-9.895385,-1.287661,0.322812,-0.022144,-0.016493,-0.002902
1765409914.668842,-9.983260,-1.355213,0.582257,-0.013439,-0.012065,-0.010843
1765409914.669031,-9.818865,-1.038976,0.270206,-0.007330,-0.008705,-0.014508
1765409914.669281,-9.636537,-0.645624,-0.082496,0.001374,-0.008094,-0.014203
1765409914.669531,-9.708870,-0.384385,0.288140,0.002749,-0.014813,-0.009621
1765409914.669781,-9.854136,-0.214012,0.356289,0.004123,-0.008094,-0.004429
1765409914.670028,-9.936632,-0.295313,0.396939,0.000305,-0.011148,-0.003971
1765409914.670228,-9.813485,-0.039455,0.038259,-0.006567,-0.005956,-0.012065
1765409914.670428,-9.808702,0.190100,0.057389,-0.008094,-0.009927,-0.003971
1765409914.670628,-9.963533,0.395744,0.191296,-0.012675,-0.007025,0.000916
1765409914.670828,-10.161406,0.099235,0.573888,-0.018021,0.000458,0.008552
1765409914.671074,-9.864896,-0.289335,0.154830,-0.017868,0.000458,0.010385
1765409914.671274,-9.888210,-0.329986,0.191296,-0.018479,-0.007330,0.003360
1765409914.671474,-9.959349,-0.107604,0.274988,-0.016493,-0.000611,0.003818
1765409914.671674,-10.194283,0.061573,0.504543,-0.016493,-0.005803,0.003818
1765409914.671874,-10.100429,-0.025705,0.422047,-0.018173,-0.001680,0.011606
1765409914.672033,-9.984456,-0.296509,0.234338,-0.019090,-0.001527,0.014813
1765409914.672233,-10.019128,-0.383788,0.331181,-0.014203,-0.006720,0.010385
1765409914.672433,-10.112385,-0.184122,0.400526,-0.007330,-0.004734,0.008094
1765409914.672633,-10.112385,-0.184122,0.400526,-0.007330,-0.000611,0.008094
1765409914.672833,-9.915112,-0.125538,0.166188,-0.005651,-0.014050,0.004429
1765409914.673055,-10.187708,-0.159015,0.453132,-0.003512,-0.014050,0.007483
1765409914.673255,-10.102820,-0.072932,0.432807,0.000305,-0.010537,0.006567
1765409914.673455,-9.991630,0.084888,0.355093,-0.001069,-0.003512,0.005040
1765409914.673655,-9.791965,-0.078910,0.136298,0.002443,-0.007789,0.007636
1765409914.673855,-9.991630,-0.331181,0.327594,0.001985,-0.009774,0.006414
1765409914.674059,-10.060975,-0.188307,0.389766,0.005040,-0.009774,-0.003360
1765409914.674259,-9.927068,0.118364,0.280368,0.007025,-0.004429,-0.004429
1765409914.674459,-9.743543,0.335964,0.131516,0.006414,-0.007941,-0.005651
1765409914.674659,-9.958152,0.314443,0.407700,0.002138,-0.017410,-0.001374
1765409914.674859,-9.959349,0.093257,0.412482,0.000764,-0.012523,0.003818
1765409914.675045,-9.900764,0.064562,0.291726,0.001527,-0.004429,0.000611
1765409914.675245,-9.771041,0.142276,0.189503,0.001527,-0.004581,-0.005345
1765409914.675445,-9.973696,0.280966,0.428025,-0.004276,-0.009316,-0.004276
1765409914.675645,-10.093256,0.245098,0.567312,-0.006109,-0.009316,-0.002749
1765409914.675845,-10.011955,0.139885,0.476447,-0.004123,-0.007025,-0.000764
1765409914.676018,-9.752509,0.072334,0.151841,-0.006261,-0.002443,-0.001833
1765409914.676218,-9.784791,0.129125,0.202056,-0.009163,-0.009621,-0.001833
1765409914.676418,-9.986848,0.218795,0.503348,-0.009774,-0.007025,-0.004734
1765409914.676618,-10.028693,0.307269,0.490196,-0.012065,-0.007025,-0.002902
1765409914.676818,-9.821855,0.193687,0.235533,-0.017410,-0.005651,-0.001222
1765409914.677053,-9.763269,0.044237,0.236729,-0.018479,-0.009010,0.002443
1765409914.677253,-9.974891,-0.092061,0.448350,-0.017257,-0.011301,-0.000611
1765409914.677453,-10.081299,-0.094452,0.559541,-0.018631,-0.008247,-0.004734
1765409914.677653,-9.947392,-0.027499,0.327594,-0.015424,-0.000153,-0.001527
1765409914.677853,-9.772835,-0.005978,0.121951,-0.015424,-0.003665,0.000305
1765409914.678080,-9.869678,-0.109397,0.383788,-0.014355,-0.009010,0.000305
1765409914.678280,-10.016738,-0.224175,0.422047,-0.015272,-0.009010,-0.000764
1765409914.678480,-9.895385,-0.171569,0.292922,-0.014508,-0.001527,-0.004887
1765409914.678680,-9.793758,-0.016738,0.109995,-0.011912,-0.003360,-0.005956
1765409914.678880,-9.872069,-0.034672,0.237924,-0.012523,-0.008552,-0.004429
1765409914.679067,-10.102820,-0.052606,0.546389,-0.012523,-0.008399,-0.002902
1765409914.679317,-10.088473,-0.107006,0.485414,-0.009010,-0.002749,-0.000916
1765409914.679567,-10.088473,-0.107006,0.485414,-0.009010,-0.001069,-0.000916
1765409914.679817,-9.897178,-0.098637,0.230751,-0.012828,-0.009010,-0.003207
1765409914.680039,-10.040051,-0.115375,0.469273,-0.009163,-0.012065,-0.003054
1765409914.680239,-10.060975,-0.100430,0.359876,-0.007025,-0.005192,-0.002902
1765409914.680439,-9.916306,-0.084888,0.261836,-0.012523,-0.000305,-0.001527
1765409914.680639,-9.954566,-0.197274,0.320421,-0.008552,-0.005651,-0.003054
1765409914.680839,-10.038258,-0.142276,0.387972,-0.005040,-0.011912,-0.002138
1765409914.681073,-10.023313,-0.063367,0.279770,-0.005651,-0.004887,-0.001069
1765409914.681273,-9.857722,-0.049020,0.216404,-0.008552,-0.010537,-0.004429
1765409914.681473,-9.948587,-0.041248,0.400526,-0.009163,-0.010537,-0.001985
1765409914.681673,-10.008368,-0.023912,0.375418,-0.008552,-0.009927,-0.001985
1765409914.681873,-9.903154,-0.094452,0.172166,-0.008247,-0.006414,0.000153
1765409914.682033,-9.873264,-0.150646,0.318030,-0.008705,-0.003665,-0.001374
1765409914.682233,-10.004781,-0.040650,0.425634,-0.009010,-0.006567,-0.003054
1765409914.682433,-9.946198,0.001793,0.317432,-0.009316,-0.007941,-0.000305
1765409914.682633,-9.833811,-0.059182,0.194285,-0.009316,-0.005040,0.000153
1765409914.682833,-9.861309,-0.139287,0.314443,-0.008705,-0.007483,0.000611
1765409914.683031,-10.029292,-0.133907,0.460904,-0.009621,-0.011606,0.002138
1765409914.683231,-10.029292,-0.133907,0.460904,-0.009621,-0.007941,0.002138
1765409914.683431,-9.887612,-0.090268,0.217001,-0.008247,-0.004887,0.000305
1765409914.683631,-9.875656,-0.105811,0.326399,-0.007178,-0.005803,0.002138
1765409914.683831,-10.035867,-0.107604,0.496174,-0.010385,-0.010232,0.002138
1765409914.684057,-10.005977,-0.067551,0.381396,-0.003971,-0.004123,0.001069
1765409914.684257,-9.870873,-0.064562,0.176949,-0.005498,-0.005803,0.001222
1765409914.684457,-9.884026,-0.084888,0.332975,-0.005192,-0.006109,0.002443
1765409914.684657,-10.013150,-0.072932,0.534433,-0.005498,-0.007483,0.000000
1765409914.684857,-9.990434,0.013152,0.411286,-0.002902,-0.002291,0.001833
1765409914.685037,-9.869678,0.003587,0.221186,-0.008858,-0.002291,0.000458
1765409914.685237,-9.866092,-0.022119,0.236131,-0.004887,-0.007330,0.002443
1765409914.685437,-10.054996,0.017934,0.524868,-0.005040,-0.009316,0.001374
1765409914.685637,-10.008368,0.060976,0.485414,-0.006261,-0.008705,0.001222
1765409914.685837,-9.758488,0.046628,0.133309,-0.005192,-0.009010,0.001833
1765409914.686053,-9.746531,0.039455,0.118962,-0.006261,-0.009010,0.000000
1765409914.686253,-9.946198,0.043042,0.448350,-0.008094,-0.005651,-0.000458
1765409914.686453,-10.068746,0.080105,0.448350,-0.008399,-0.009621,-0.000153
1765409914.686653,-10.068746,0.080105,0.448350,-0.008399,-0.003207,-0.000153
1765409914.686853,-9.858918,0.049020,0.221186,-0.009010,-0.003818,0.000916
1765409914.687052,-10.026302,-0.027499,0.466284,-0.009010,-0.008247,-0.000764
1765409914.687252,-10.099234,0.031086,0.528455,-0.007636,-0.007025,-0.003512
1765409914.687452,-9.864896,0.077714,0.174558,-0.008552,0.000000,-0.001527
1765409914.687652,-9.778812,0.014347,0.110593,-0.011759,-0.006261,-0.001833
1765409914.687852,-9.999999,-0.045433,0.471066,-0.012217,-0.010843,-0.001374
1765409914.688017,-10.133906,-0.004185,0.506337,-0.010079,-0.009621,-0.002291
1765409914.688217,-9.994021,-0.001196,0.192492,-0.010385,-0.001985,-0.000764
1765409914.688417,-9.884026,-0.090268,0.217599,-0.012675,-0.004734,-0.001222
1765409914.688617,-10.008965,-0.090866,0.382592,-0.010996,-0.010232,-0.001069
1765409914.688817,-10.014346,-0.028694,0.416069,-0.009316,-0.013286,-0.003054
1765409914.689041,-9.850550,-0.059182,0.184720,-0.008247,-0.007483,-0.002749
1765409914.689241,-9.846365,-0.087279,0.188905,-0.007636,-0.011454,-0.001985
1765409914.689441,-10.098038,-0.039455,0.512912,-0.008247,-0.007025,-0.002749
1765409914.689641,-10.124342,-0.083692,0.508130,-0.006567,-0.007025,-0.002902
1765409914.689841,-9.940817,-0.083094,0.230751,-0.008094,-0.004734,-0.002443
1765409914.690144,-9.885818,-0.040650,0.236131,-0.008705,-0.005803,-0.002749
1765409914.690344,-10.023911,-0.062171,0.407700,-0.010232,-0.010232,-0.002596
1765409914.690544,-10.020324,-0.049020,0.405308,-0.009927,-0.005956,-0.000153
1765409914.690744,-9.820060,-0.014347,0.189503,-0.006109,-0.005956,-0.000916
1765409914.690944,-9.820060,-0.014347,0.189503,-0.006109,-0.006872,-0.000916
1765409914.691038,-9.995216,-0.101626,0.486011,-0.009774,-0.012675,-0.000153
1765409914.691238,-10.108798,-0.087877,0.522477,-0.009774,-0.007636,-0.000916
1765409914.691438,-9.863700,-0.038259,0.206839,-0.008552,-0.007941,-0.003054
1765409914.691638,-9.770443,-0.055595,0.144668,-0.009010,-0.007941,-0.000153
1765409914.691838,-9.921089,-0.080703,0.381396,-0.008094,-0.006872,-0.000611
1765409914.692027,-10.064561,-0.043042,0.452535,-0.006872,-0.007025,0.001374
1765409914.692227,-9.881634,-0.062171,0.238522,-0.009621,-0.007025,0.001069
1765409914.692427,-9.709468,-0.088474,0.108800,-0.009621,-0.003665,0.001069
1765409914.692627,-9.909132,-0.052606,0.355691,-0.003512,-0.007483,0.001222
1765409914.692827,-10.097439,-0.025705,0.603778,-0.007178,-0.008247,0.000305
1765409914.693048,-9.962935,-0.068149,0.340746,-0.008094,-0.006567,-0.001680
1765409914.693298,-9.833811,-0.026303,0.200861,-0.007789,-0.006567,-0.001985
1765409914.693548,-9.930056,-0.062171,0.335964,-0.009163,-0.007941,-0.001985
1765409914.693798,-10.058583,-0.056193,0.553563,-0.006261,-0.009010,-0.001680
1765409914.694058,-9.970109,-0.026303,0.298900,-0.007025,-0.004429,-0.001222
1765409914.694225,-9.740554,-0.009565,0.133907,-0.006414,-0.004276,0.000000
1765409914.694391,-9.780008,-0.033477,0.205643,-0.006720,-0.005192,0.000764
1765409914.694558,-9.780008,-0.033477,0.205643,-0.006720,-0.007178,0.000764
1765409914.694725,-10.063964,0.001196,0.417264,-0.007636,-0.005651,0.000611
1765409914.694891,-9.913916,0.033477,0.253467,-0.005651,-0.005651,0.000153
1765409914.695031,-9.874461,0.019727,0.252272,-0.008247,-0.005803,-0.000458
1765409914.695231,-10.062768,-0.047226,0.523673,-0.008552,-0.008094,0.000000
1765409914.695431,-10.192491,-0.016141,0.597800,-0.008552,-0.004887,0.000000
1765409914.695631,-9.988043,0.005978,0.289335,-0.008858,-0.002443,-0.001527
1765409914.695831,-9.843375,0.037064,0.148254,-0.007636,-0.003512,-0.001527
1765409914.696062,-9.939023,0.027499,0.358680,-0.006872,-0.009316,-0.000458
1765409914.696262,-10.057985,-0.009565,0.494978,-0.010079,-0.009316,0.000458
1765409914.696462,-9.996411,-0.008369,0.381396,-0.009468,-0.007025,0.000916
1765409914.696662,-9.812887,-0.004782,0.115375,-0.008552,-0.003665,-0.000611
1765409914.696862,-9.915709,0.005978,0.321616,-0.006872,-0.006109,-0.002443
1765409914.697057,-10.086082,-0.070540,0.494978,-0.007330,-0.009468,-0.002596
1765409914.697257,-10.013150,-0.054400,0.343137,-0.010079,-0.004429,-0.000916
1765409914.697457,-9.811094,0.005978,0.095648,-0.010690,-0.004429,-0.002291
1765409914.697657,-9.811094,-0.041846,0.224773,-0.008705,-0.007178,-0.000611
1765409914.697857,-10.060376,-0.056791,0.417264,-0.007330,-0.007178,-0.001222
1765409914.698149,-10.090864,-0.027499,0.481827,-0.008705,-0.005803,-0.002443
1765409914.698349,-9.845168,-0.040053,0.174558,-0.008858,-0.002138,-0.001680
1765409914.698549,-9.778812,-0.032281,0.161406,-0.009316,-0.007483,-0.000458
1765409914.698749,-9.991630,-0.063367,0.459708,-0.009316,-0.010079,-0.002138
1765409914.698949,-10.082495,-0.080105,0.510521,-0.008247,-0.006414,-0.003054
1765409914.699087,-9.930056,-0.020923,0.296509,-0.007330,-0.004123,-0.001527
1765409914.699337,-9.753107,-0.003587,0.123147,-0.010232,-0.001374,-0.000305
1765409914.699587,-9.854136,-0.038259,0.301291,-0.007941,-0.008094,-0.000611
1765409914.699837,-10.010758,-0.056791,0.444165,-0.007178,-0.009621,-0.000305
1765409914.700112,-9.940817,-0.054400,0.312649,-0.008094,-0.006720,0.000153
1765409914.700312,-9.775226,-0.032281,0.153037,-0.007636,-0.005345,-0.002138
1765409914.700512,-9.867287,-0.060378,0.347920,-0.010690,-0.007941,-0.000458
1765409914.700712,-10.065159,-0.078910,0.499163,-0.009468,-0.007941,-0.002902
1765409914.700912,-10.131515,-0.039455,0.546987,-0.008858,-0.006261,-0.001069
1765409914.701108,-9.907937,-0.072932,0.230751,-0.010232,-0.002749,-0.000458
1765409914.701308,-9.770443,-0.045433,0.139885,-0.007483,-0.005345,-0.001527
1765409914.701508,-9.913916,-0.083692,0.371832,-0.009163,-0.010232,-0.000611
1765409914.701708,-9.982065,-0.078910,0.457915,-0.008399,-0.006872,-0.000611
1765409914.701908,-9.903752,-0.009565,0.256456,-0.006720,-0.003665,-0.001222
1765409914.702065,-9.770443,-0.005978,0.132712,-0.005956,-0.003818,-0.000764
1765409914.702265,-9.930654,-0.040650,0.373027,-0.006720,-0.006720,-0.000305
1765409914.702465,-10.142276,-0.040650,0.608560,-0.004734,-0.010232,-0.000611
1765409914.702665,-10.026900,-0.022716,0.330583,-0.007025,-0.003207,0.001985
1765409914.702865,-9.794952,-0.003587,0.151243,-0.009316,-0.000153,-0.001833
1765409914.703064,-9.836202,-0.046628,0.266619,-0.008094,-0.006261,-0.000916
1765409914.703264,-10.019128,-0.039455,0.478240,-0.008552,-0.010843,0.000764
1765409914.703464,-9.980272,0.009565,0.316236,-0.008552,-0.007178,-0.001374
1765409914.703664,-9.791367,0.003587,0.141679,-0.005956,-0.002596,0.000153
1765409914.703864,-9.881634,-0.032281,0.290531,-0.007941,-0.003971,0.000611
1765409914.704061,-10.136297,-0.046628,0.593018,-0.011301,-0.005498,-0.001374
1765409914.704261,-10.127929,-0.031683,0.448350,-0.006414,-0.005498,0.001374
1765409914.704461,-9.832017,-0.004782,0.139885,-0.007789,-0.007178,0.000764
1765409914.704661,-9.850550,-0.027499,0.231946,-0.008858,-0.007178,-0.000916
1765409914.704861,-10.066953,-0.035868,0.481827,-0.006567,-0.007789,-0.000305
1765409914.705055,-10.125537,0.008967,0.486609,-0.008552,-0.007330,-0.001069
1765409914.705255,-9.905546,-0.010760,0.178144,-0.008552,-0.003360,0.000305
1765409914.705455,-9.842180,-0.011956,0.239120,-0.008094,-0.007941,-0.002443
1765409914.705655,-10.089668,-0.052009,0.575084,-0.007636,-0.010385,0.000458
1765409914.705855,-10.092658,-0.032281,0.486011,-0.008247,-0.005345,-0.002443
1765409914.706113,-9.839190,-0.030488,0.144668,-0.008247,-0.001833,-0.000611
1765409914.706313,-9.797942,0.013152,0.155428,-0.009621,-0.003207,-0.002443
1765409914.706513,-9.936033,-0.025705,0.384983,-0.010537,-0.009927,-0.001222
1765409914.706713,-10.013150,-0.021521,0.406504,-0.010232,-0.009010,0.000000
1765409914.706913,-9.851147,-0.016738,0.176949,-0.006261,-0.004429,-0.002596
1765409914.707177,-9.799137,-0.035868,0.197872,-0.010385,-0.010079,0.000764
1765409914.707377,-10.007172,-0.020325,0.481827,-0.006720,-0.010079,-0.001222
1765409914.707577,-10.138689,-0.056193,0.536824,-0.009316,-0.007636,-0.000764
1765409914.707777,-9.977283,-0.039455,0.332377,-0.008094,-0.005192,-0.004734
1765409914.707977,-9.807508,-0.032879,0.084888,-0.009927,-0.006414,-0.001527
1765409914.708201,-9.888808,-0.074127,0.328790,-0.010996,-0.007789,0.000153
1765409914.708401,-10.053204,-0.038259,0.502152,-0.009010,-0.007789,-0.002596
1765409914.708601,-10.053204,-0.038259,0.502152,-0.009010,-0.008247,-0.002596
1765409914.708801,-9.777617,-0.049020,0.143472,-0.010843,-0.005345,-0.001069
1765409914.709001,-9.900167,-0.015543,0.301291,-0.009621,-0.007789,-0.002291
1765409914.709111,-10.089668,-0.095050,0.553563,-0.007941,-0.012065,-0.001833
1765409914.709311,-10.002390,-0.052009,0.351506,-0.006567,-0.010232,-0.001069
1765409914.709511,-10.002390,-0.052009,0.351506,-0.006567,-0.002749,-0.001069
1765409914.709711,-9.766856,-0.105213,0.263630,-0.008399,-0.013134,-0.003054
1765409914.709911,-9.993423,-0.076518,0.494978,-0.007330,-0.013134,-0.001985
1765409914.710124,-9.993423,-0.076518,0.494978,-0.007330,-0.005040,-0.001985
1765409914.710324,-9.863700,-0.032281,0.170971,-0.006261,-0.002902,-0.002749
1765409914.710524,-9.892395,-0.051411,0.313247,-0.007789,-0.007483,-0.001680
1765409914.710724,-10.132710,-0.041846,0.544596,-0.006414,-0.010690,-0.001222
1765409914.710924,-10.035867,-0.080105,0.413678,-0.005498,-0.004734,0.001222
1765409914.711067,-9.398612,-0.234338,0.098039,-0.006414,-0.004276,-0.000916
1765409914.711267,-9.340028,0.198470,0.124940,-0.009927,-0.010996,-0.014813
1765409914.711467,-9.491868,0.514108,0.155428,-0.009163,0.003054,-0.002596
1765409914.711667,-9.593494,-0.078312,0.441774,-0.002443,0.000611,0.022449
1765409914.711867,-9.835604,-0.341942,0.755021,-0.007941,0.000611,0.001374
1765409914.712095,-10.337157,-0.098039,0.933166,-0.012675,0.005498,-0.006872
1765409914.712345,-9.907937,-0.248685,-0.142874,-0.009927,-0.004581,-0.000611
1765409914.712595,-9.733380,-0.192492,-0.006576,-0.003818,-0.004581,-0.003512
1765409914.712845,-9.873264,0.350909,0.569106,-0.004581,0.010385,-0.006261
1765409914.713124,-10.181729,0.442970,0.942731,-0.011301,0.006414,0.002596
1765409914.713324,-10.016738,-0.153037,0.359876,-0.016341,-0.001985,0.010690
1765409914.713524,-9.783595,-0.630081,-0.068149,-0.006109,-0.003360,0.006109
1765409914.713724,-9.765661,-0.347920,0.163199,-0.003818,0.001222,-0.012065
1765409914.713924,-9.960544,0.332377,0.658776,-0.010690,0.012675,-0.014355
1765409914.714110,-9.984456,0.506934,0.399330,-0.011148,0.003207,0.000458
1765409914.714310,-9.903154,0.008369,0.141081,-0.006109,-0.001985,0.009774
1765409914.714510,-9.959349,-0.411286,0.450741,-0.005192,0.010537,0.008094
1765409914.714710,-9.940817,-0.310856,0.492587,-0.005498,0.010537,-0.003360
1765409914.714910,-9.940817,-0.310856,0.492587,-0.005498,-0.001222,-0.003360
1765409914.715107,-9.873264,0.166786,0.237924,-0.007025,-0.001680,-0.006720
1765409914.715307,-9.895982,0.185318,0.344333,-0.004123,0.004429,0.001527
1765409914.715507,-9.897178,0.060378,0.346724,-0.008399,0.004581,0.005040
1765409914.715707,-9.964130,-0.169775,0.312052,-0.011148,0.002291,0.002291
1765409914.715907,-9.970109,-0.211023,0.300096,-0.008094,0.000458,-0.003360
1765409914.716104,-9.913916,-0.114180,0.301291,-0.006872,0.003971,-0.005956
1765409914.716304,-9.757292,0.005978,0.178144,-0.008094,0.009316,-0.003054
1765409914.716504,-9.848756,0.129125,0.273792,-0.009010,0.003971,-0.002749
1765409914.716704,-10.107005,0.193687,0.463295,-0.007636,0.003207,0.003054
1765409914.716904,-10.090864,-0.112386,0.412482,-0.008247,0.009316,0.009316
1765409914.717068,-9.896580,-0.398135,0.178742,-0.006872,0.007178,0.002749
1765409914.717268,-9.923481,-0.231946,0.377212,-0.009927,0.003054,-0.009468
1765409914.717468,-10.042442,0.123147,0.383190,-0.009316,-0.000305,-0.009927
1765409914.717668,-10.069344,0.313247,0.362267,-0.006261,0.004581,-0.000611
1765409914.717868,-9.961740,0.053204,0.356887,-0.006414,0.015119,0.007636
1765409914.718102,-9.907339,-0.288140,0.398733,-0.010537,0.010996,0.006414
1765409914.718302,-10.023911,-0.324008,0.386179,-0.007789,0.001374,-0.002138
1765409914.718502,-10.143471,-0.041248,0.347920,-0.007178,0.003207,-0.002138
1765409914.718702,-9.941415,0.114778,0.167384,-0.004123,0.009774,-0.004276
1765409914.718902,-9.890003,0.072932,0.310856,-0.008858,0.007483,-0.001527
1765409914.719097,-9.996411,-0.021521,0.383788,-0.009163,0.001527,-0.000153
1765409914.719297,-9.997607,-0.002391,0.326997,-0.006720,0.001527,0.000153
1765409914.719497,-9.966521,-0.070540,0.282162,-0.007025,0.005651,0.002138
1765409914.719697,-9.960544,-0.183525,0.326997,-0.008094,0.009010,0.000153
1765409914.719897,-10.105211,-0.094452,0.480631,-0.007330,0.001833,-0.001833
1765409914.720121,-10.092658,0.112386,0.300693,-0.008552,0.003054,-0.000764
1765409914.720321,-9.887612,0.083094,0.113582,-0.009010,0.003054,0.002138
1765409914.720521,-9.916306,-0.052606,0.204448,-0.008399,0.003054,0.000916
1765409914.720721,-10.196077,-0.135701,0.483620,-0.007025,-0.001985,0.002596
1765409914.720921,-10.244500,-0.111191,0.526662,-0.006261,-0.001680,0.000305
1765409914.721109,-10.023911,-0.032281,0.303682,-0.007636,0.001374,-0.000916
1765409914.721309,-9.941415,0.028694,0.216404,-0.007941,-0.003665,-0.001374
1765409914.721509,-10.007771,0.021521,0.354495,-0.009468,-0.002138,-0.002291
1765409914.721709,-10.066953,-0.051411,0.298900,-0.009316,-0.004123,0.000611
1765409914.721909,-9.909731,-0.032281,0.144668,-0.009774,-0.002596,0.000153
1765409914.722074,-9.927068,-0.009565,0.263630,-0.009010,-0.003054,0.000000
1765409914.722274,-9.959349,-0.157819,0.353898,-0.008094,-0.003054,0.001985
1765409914.722474,-10.046029,-0.132114,0.349115,-0.009316,-0.007483,0.000000
1765409914.722674,-10.046029,0.003587,0.249880,-0.007330,-0.003971,-0.001833
1765409914.722874,-9.905546,0.035868,0.214012,-0.006414,-0.001985,-0.000458
1765409914.723064,-9.953370,0.028694,0.327594,-0.007789,-0.003054,-0.000153
1765409914.723264,-10.136297,0.005978,0.517695,-0.007483,-0.006261,-0.000305
1765409914.723464,-10.083690,-0.065758,0.407700,-0.006109,-0.004734,0.000611
1765409914.723664,-9.888808,-0.119560,0.212817,-0.005651,-0.003360,-0.000764
1765409914.723864,-9.804518,-0.104615,0.143472,-0.009163,-0.007636,-0.003054
1765409914.724134,-9.804518,-0.104615,0.143472,-0.009163,-0.009010,-0.003054
1765409914.725165,-9.989238,0.088474,0.280368,-0.007941,-0.012981,-0.002138
1765409914.727105,-9.866092,0.068149,0.209828,-0.007789,-0.004429,0.000305
1765409914.730079,-9.859515,-0.025108,0.273792,-0.007636,-0.006414,0.000611
1765409914.732110,-9.934838,-0.138690,0.290531,-0.010537,-0.006414,0.001833
1765409914.735049,-10.021520,-0.135103,0.302487,-0.009163,-0.010385,-0.002443
1765409914.737090,-10.022716,-0.028694,0.401722,-0.007789,-0.004581,-0.004276
1765409914.740052,-9.860114,0.046628,0.247489,-0.010079,-0.000764,-0.001374
1765409914.742137,-9.804518,0.049020,0.182927,-0.008247,-0.006261,-0.000153
1765409914.744191,-9.950979,-0.025705,0.348517,-0.009927,-0.012828,-0.000153
1765409914.747091,-10.039454,-0.155428,0.454328,-0.005651,-0.007330,0.002596
1765409914.750121,-9.885221,-0.160210,0.222382,-0.008552,-0.003665,-0.000458
1765409914.752078,-9.762672,-0.033477,0.131516,-0.006414,-0.004123,-0.004581
1765409914.755049,-9.918698,0.066954,0.324605,-0.006872,-0.010537,-0.006872
1765409914.758084,-10.055594,0.013152,0.472262,-0.006261,-0.007178,0.000611
1765409914.760135,-9.985652,-0.050813,0.430416,-0.006567,-0.001833,0.003360
1765409914.763086,-9.833811,-0.074725,0.240316,-0.008858,-0.006414,0.000000
1765409914.765074,-9.864896,-0.120756,0.276184,-0.010232,-0.006414,-0.001527
1765409914.767091,-9.864896,-0.120756,0.276184,-0.010232,-0.009163,-0.001527
1765409914.770073,-9.986848,-0.013152,0.370636,-0.008247,-0.006414,-0.004276
1765409914.772045,-9.811094,0.103419,0.198470,-0.006720,-0.002902,-0.002138
1765409914.773070,-9.755498,-0.003587,0.175155,-0.008399,-0.005345,0.000305
1765409914.777092,-9.908535,-0.096844,0.442372,-0.006261,-0.010537,-0.001374
1765409914.780099,-10.003586,-0.086083,0.464491,-0.006720,-0.006109,-0.001069
1765409914.780599,-9.807508,-0.078910,0.197274,-0.006720,-0.004581,-0.002596
1765409914.785117,-9.729793,-0.058584,0.134505,-0.008552,-0.004581,-0.002596
1765409914.788119,-9.940218,0.008369,0.426829,-0.009163,-0.005651,-0.000764
1765409914.790056,-9.999999,0.004782,0.479436,-0.010079,-0.005651,-0.000916
1765409914.792175,-9.860114,-0.014347,0.251674,-0.010079,-0.004887,-0.000916
1765409914.795086,-9.794355,-0.033477,0.183525,-0.007330,-0.003054,0.000153
1765409914.797134,-9.968913,-0.026303,0.475251,-0.007025,-0.009468,-0.000153
1765409914.800123,-10.044236,-0.071736,0.504543,-0.009163,-0.003360,0.001985
1765409914.801193,-9.870873,-0.099833,0.172166,-0.009163,-0.003360,0.000458
1765409914.805125,-9.793160,-0.038259,0.164993,-0.005956,-0.003971,-0.001222
1765409914.807108,-9.909132,-0.066356,0.376614,-0.007483,-0.006872,-0.001680
1765409914.810106,-10.034073,-0.046628,0.491989,-0.007941,-0.005803,0.001069
1765409914.812072,-9.875058,0.007174,0.240913,-0.007941,-0.000458,0.003054
1765409914.815097,-9.803323,-0.011956,0.155428,-0.010537,-0.002596,0.003665
1765409914.815597,-9.906742,-0.112984,0.354495,-0.009163,-0.005956,0.001680
1765409914.820089,-10.062768,-0.139287,0.422047,-0.006720,-0.009010,0.001222
1765409914.822093,-9.948587,-0.062171,0.279770,-0.004887,-0.003971,-0.000916
1765409914.825097,-9.808702,-0.031086,0.203252,-0.004887,-0.004887,-0.000916
1765409914.827113,-9.943806,-0.015543,0.412482,-0.008094,-0.008094,0.000611
1765409914.830079,-10.095646,0.005978,0.553563,-0.009468,-0.007789,0.001985
1765409914.830579,-9.974294,-0.038259,0.349115,-0.004276,-0.004429,0.001985
1765409914.835143,-9.811692,-0.107604,0.102224,-0.004123,-0.005651,0.004429
1765409914.837078,-9.927666,-0.107604,0.292922,-0.005498,-0.015424,-0.000611
1765409914.840092,-10.148253,-0.035868,0.532640,-0.005192,-0.011759,0.000764
1765409914.842170,-10.036465,-0.002391,0.327594,-0.006414,-0.007941,-0.000458
1765409914.845208,-9.839788,0.033477,0.053204,-0.006567,-0.009316,0.000916
1765409914.845708,-9.911524,0.032281,0.217599,-0.006261,-0.009316,0.006872
1765409914.850176,-10.065758,-0.099235,0.401124,-0.006872,-0.009774,0.006109
1765409914.852187,-9.973098,-0.125538,0.289933,-0.008552,-0.005498,0.003665
1765409914.856435,-9.847560,-0.089670,0.113582,-0.004429,-0.001374,-0.000153
1765409914.857145,-9.882831,-0.007174,0.246294,-0.007636,-0.009774,0.002138
1765409914.860167,-10.069344,0.046628,0.505739,-0.004276,-0.009774,0.003207
1765409914.862190,-10.078907,0.002391,0.477044,-0.005345,-0.005192,0.003512
1765409914.863227,-9.861309,-0.059780,0.216404,-0.010232,-0.003360,0.004734
1765409914.867152,-9.861309,-0.059780,0.216404,-0.010232,-0.007636,0.004734
1765409914.870146,-10.023911,-0.113582,0.332377,-0.009163,-0.010385,0.001833
1765409914.872087,-10.107603,-0.050215,0.455524,-0.006261,-0.005498,0.000305
1765409914.875214,-9.918698,-0.017336,0.229555,-0.004887,-0.000305,0.001833
1765409914.875714,-9.882233,0.039455,0.257054,-0.008094,-0.003054,0.003971
1765409914.880124,-10.068149,-0.036466,0.493185,-0.007025,-0.012981,0.003971
1765409914.882123,-10.078907,-0.125538,0.472262,-0.006720,-0.010079,0.002291
1765409914.885101,-9.863700,-0.162602,0.111191,-0.004734,-0.006109,0.004581
1765409914.885601,-9.820659,-0.096844,0.173362,-0.003665,-0.009468,-0.000916
1765409914.888120,-10.026302,0.016738,0.437590,-0.005803,-0.009621,0.000764
1765409914.892116,-10.082495,0.023912,0.448350,-0.005192,-0.012828,0.001069
1765409914.895140,-9.995216,0.053802,0.254663,-0.004123,-0.007178,0.003207
1765409914.897087,-9.992825,0.009565,0.430416,-0.007178,-0.010232,0.004734
1765409914.900135,-10.058583,-0.105213,0.450741,-0.005192,-0.013134,0.003360
1765409914.902143,-9.930654,-0.059780,0.215208,-0.006567,-0.008094,0.002138
1765409914.903174,-9.831419,0.031086,0.160210,-0.007483,-0.008094,0.000458
1765409914.907135,-9.831419,0.031086,0.160210,-0.007483,-0.011148,0.000458
1765409914.909338,-9.952772,-0.047226,0.435796,-0.005803,-0.013897,0.004429
1765409914.910160,-9.961142,0.011358,0.426829,-0.005803,-0.004429,0.004429
1765409914.915141,-9.757292,-0.100430,0.148254,-0.007636,-0.016341,0.003360
1765409914.917140,-9.838593,-0.131516,0.227164,-0.007330,-0.016341,0.005345
1765409914.920180,-9.838593,-0.131516,0.227164,-0.007330,-0.012523,0.005345
1765409914.920680,-9.878048,-0.064562,0.272597,-0.004276,-0.008858,0.005192
1765409914.923204,-9.744739,-0.085485,0.157819,-0.003818,-0.010232,0.002902
1765409914.927150,-9.948587,-0.054400,0.369440,-0.004123,-0.014813,0.001833
1765409914.930117,-10.130320,0.074127,0.573888,-0.006109,-0.014813,0.002443
1765409914.932148,-9.960544,-0.051411,0.268412,-0.005345,-0.008247,0.005192
1765409914.935264,-9.797344,-0.111191,0.053204,-0.004581,-0.012370,0.002443
1765409914.937167,-9.972500,-0.017934,0.373625,-0.005192,-0.012370,0.003971
1765409914.938124,-9.972500,-0.017934,0.373625,-0.005192,-0.006567,0.003971
1765409914.942230,-9.879243,-0.039455,0.217001,-0.003971,-0.004887,0.003665
1765409914.945156,-9.853538,0.017934,0.225968,-0.002596,-0.005345,0.004276
1765409914.945656,-10.096842,0.022716,0.570899,-0.006872,-0.010232,0.005192
1765409914.950137,-10.144667,-0.082496,0.571497,-0.007789,-0.010232,0.006720
1765409914.952129,-9.947392,-0.113582,0.313247,-0.006109,-0.008858,0.004581
1765409914.955118,-9.909132,0.014945,0.257054,-0.005040,-0.006109,0.002443
1765409914.957147,-9.986848,-0.016738,0.432807,-0.003207,-0.012065,0.006872
1765409914.959332,-10.082495,-0.008967,0.515304,-0.004123,-0.013897,0.006261
1765409914.962154,-9.983858,0.038259,0.363462,-0.004123,-0.007178,0.005956
1765409914.965176,-9.983858,0.038259,0.363462,-0.004123,-0.008247,0.005956
1765409914.967160,-9.924676,-0.153037,0.251674,-0.007789,-0.018631,0.006720
1765409914.970201,-10.112385,-0.144668,0.512912,-0.008094,-0.018631,0.003207
1765409914.972202,-10.012553,-0.117767,0.258250,-0.005345,-0.017104,0.003512
1765409914.975208,-9.778215,-0.077714,0.088474,-0.004581,-0.017104,0.006261
1765409914.977180,-9.873264,0.013152,0.214012,-0.005956,-0.020311,0.001527
1765409914.980166,-10.129124,0.082496,0.486609,-0.006872,-0.015424,0.003054
1765409914.982266,-10.059181,-0.053802,0.255858,-0.007483,-0.012065,0.007789
1765409914.985200,-9.910329,-0.086083,0.167982,-0.005803,-0.013134,0.003818
1765409914.987152,-9.816475,-0.040650,0.161406,-0.006567,-0.009316,0.006720
1765409914.990130,-9.890003,-0.060976,0.274988,-0.003512,-0.014203,0.007025
1765409914.992192,-9.995216,-0.072932,0.412482,-0.002291,-0.015119,0.003360
1765409914.995150,-10.051410,0.047824,0.393950,0.001985,-0.012523,0.006109
1765409914.997130,-10.051410,0.047824,0.393950,0.001985,-0.012370,0.006109
1765409915.000162,-9.882831,-0.090866,0.222382,-0.001680,-0.011606,0.010079
1765409915.002213,-9.985053,-0.130320,0.322812,0.001069,-0.016646,0.008399
1765409915.003205,-10.097439,-0.053802,0.542802,-0.004429,-0.020159,0.003665
1765409915.007175,-10.068746,-0.019130,0.460306,-0.004734,-0.020311,0.002749
1765409915.009540,-9.928263,0.057389,0.301291,-0.003971,-0.019548,0.005192
1765409915.012133,-9.892993,0.126136,0.211621,-0.005192,-0.018784,0.005803
1765409915.015153,-10.014346,0.000000,0.331181,-0.007636,-0.022602,0.007178
1765409915.015653,-10.135101,-0.170971,0.447154,-0.004429,-0.021838,0.007483
1765409915.020220,-10.119559,-0.193687,0.438187,-0.005192,-0.017715,0.005803
1765409915.020720,-9.900167,-0.161406,0.214012,-0.005956,-0.015424,0.002749
1765409915.025242,-9.836202,-0.046628,0.260043,-0.005803,-0.018021,0.003512
1765409915.027271,-10.007771,0.057389,0.438785,-0.005192,-0.023518,0.005956
1765409915.030255,-10.135699,0.128527,0.540411,-0.006872,-0.018631,0.006720
1765409915.032435,-9.979075,-0.024510,0.292922,-0.003512,-0.018631,0.009468
1765409915.036556,-9.805116,-0.112386,0.101028,-0.004123,-0.023213,0.008705
1765409915.037214,-9.818267,-0.108800,0.117169,-0.003665,-0.026573,0.004276
1765409915.040190,-10.002987,0.054998,0.404711,-0.001680,-0.023671,0.006109
1765409915.042164,-9.964728,0.080105,0.432807,0.000916,-0.018937,0.008094
1765409915.045230,-9.939023,0.041846,0.297704,-0.000458,-0.018937,0.009774
1765409915.047196,-10.063366,0.021521,0.502750,-0.002291,-0.019090,0.013439
1765409915.050214,-10.093853,-0.183525,0.484218,-0.004123,-0.017104,0.015577
1765409915.052217,-10.022716,-0.245098,0.264228,-0.001222,-0.021686,0.010843
1765409915.055157,-10.056191,-0.082496,0.364658,-0.001985,-0.024435,0.005345
1765409915.057186,-9.840983,-0.017336,0.217599,-0.006567,-0.022144,0.008399
1765409915.059325,-9.745934,0.113582,0.150048,-0.005192,-0.022755,0.007636
1765409915.062225,-9.982065,0.099833,0.386777,-0.005040,-0.022755,0.008094
1765409915.065224,-10.175752,0.014347,0.561334,-0.005956,-0.022755,0.010232
1765409915.067207,-10.081897,-0.176949,0.395146,-0.006414,-0.021686,0.008705
1765409915.070226,-9.945002,-0.227164,0.188905,-0.006414,-0.024587,0.006720
1765409915.075247,-10.131515,0.060976,0.567910,-0.001527,-0.022297,0.007025
1765409915.077235,-10.092059,0.135103,0.531444,-0.001833,-0.022297,0.006720
1765409915.080191,-10.009563,0.057389,0.288737,-0.001222,-0.021686,0.013134
1765409915.081177,-9.846962,-0.121951,0.153037,-0.004123,-0.027947,0.012828
1765409915.083243,-9.937828,-0.174558,0.293520,-0.001527,-0.025045,0.011912
1765409915.087191,-9.990434,-0.118364,0.296509,-0.000305,-0.028863,0.009468
1765409915.090168,-9.913916,0.014347,0.252869,-0.001222,-0.025045,0.006109
1765409915.092162,-9.913916,0.014347,0.252869,-0.001222,-0.019090,0.006109
1765409915.095239,-9.904350,0.078312,0.416069,-0.004123,-0.023213,0.014661
1765409915.097233,-10.044236,-0.120158,0.581659,-0.007178,-0.029016,0.015882
1765409915.100210,-10.127929,-0.263032,0.448350,-0.003665,-0.028253,0.010385
1765409915.102210,-9.826636,-0.263032,0.101028,-0.000458,-0.022755,0.008399
1765409915.105188,-9.825441,0.005978,0.188905,0.001222,-0.024282,0.005651
1765409915.107194,-9.909132,0.086681,0.347920,-0.000153,-0.026573,0.008399
1765409915.108175,-10.047226,0.094452,0.503348,-0.001527,-0.026573,0.010843
1765409915.112247,-9.983260,-0.033477,0.369440,-0.001069,-0.022144,0.013439
1765409915.115235,-9.892993,-0.087279,0.313247,-0.003207,-0.024435,0.010996
1765409915.117233,-9.911524,-0.163797,0.359278,0.000000,-0.025045,0.007636
1765409915.120239,-9.936632,-0.031086,0.373027,0.002443,-0.031918,0.007025
1765409915.122179,-9.992227,0.066954,0.228360,-0.003971,-0.031918,0.006720
1765409915.125179,-9.865494,0.111191,0.300693,-0.003971,-0.028405,0.006720
1765409915.127183,-9.819464,-0.009565,0.222382,-0.001527,-0.027947,0.013592
1765409915.130258,-10.017933,-0.084888,0.473458,-0.002902,-0.029169,0.012370
1765409915.132245,-10.193686,-0.057389,0.631277,-0.003512,-0.026267,0.010385
1765409915.135257,-10.127929,-0.126734,0.404113,-0.000305,-0.029627,0.012370
1765409915.137259,-10.127929,-0.126734,0.404113,-0.000305,-0.031918,0.012370
1765409915.140245,-10.132710,0.169177,0.543998,-0.000305,-0.024893,0.011912
1765409915.144315,-9.962337,0.028097,0.285151,0.001069,-0.024893,0.015424
1765409915.145302,-9.962337,0.028097,0.285151,0.001069,-0.031612,0.015424
1765409915.147449,-10.077712,-0.007771,0.474653,-0.001527,-0.029169,0.011454
1765409915.148297,-10.052007,-0.093257,0.450741,-0.001527,-0.029780,0.011454
1765409915.152318,-9.783595,0.086681,0.191296,0.001374,-0.031154,0.012675
1765409915.155310,-9.713055,0.017934,0.148254,-0.003665,-0.031154,0.014508
1765409915.157192,-9.930654,-0.093855,0.320421,-0.004887,-0.038943,0.014203
1765409915.160316,-10.088473,0.021521,0.457915,-0.002749,-0.035430,0.011606
1765409915.162263,-9.888210,0.002989,0.371832,-0.003971,-0.026420,0.016952
1765409915.165319,-9.690338,-0.015543,0.063367,-0.006261,-0.027336,0.012065
1765409915.167252,-10.059779,-0.003587,0.596604,-0.003054,-0.029016,0.016799
1765409915.170204,-10.120157,-0.138690,0.523673,-0.000305,-0.034819,0.016799
1765409915.172200,-10.142276,-0.102224,0.471066,-0.002902,-0.038026,0.012675
1765409915.175194,-9.677784,-0.053204,0.056193,-0.002596,-0.025351,0.013286
1765409915.177295,-9.747727,0.019130,0.106408,0.000305,-0.032223,0.015272
1765409915.180207,-10.043041,0.044237,0.602582,-0.002902,-0.035277,0.014355
1765409915.182218,-10.260041,0.095050,0.769966,-0.001527,-0.025962,0.014355
1765409915.183214,-9.766856,-0.115973,0.025108,-0.000916,-0.028100,0.020464
1765409915.187359,-9.785987,-0.181133,0.205643,-0.002291,-0.038332,0.015424
1765409915.190198,-10.072333,-0.120158,0.565519,-0.001985,-0.039859,0.015424
1765409915.191301,-10.011955,-0.107006,0.359876,0.000153,-0.033598,0.013592
1765409915.193247,-9.751313,0.064562,0.032281,-0.001680,-0.028405,0.011759
1765409915.197212,-9.930654,0.140483,0.454328,-0.001680,-0.034819,0.016493
1765409915.200198,-10.217599,-0.052606,0.724534,-0.004276,-0.038485,0.018021
1765409915.202244,-10.217599,-0.052606,0.724534,-0.004276,-0.035430,0.018021
1765409915.205253,-9.917501,-0.119560,0.218795,-0.002138,-0.036194,0.014966
1765409915.207249,-9.854136,-0.029890,0.172166,0.001222,-0.038943,0.013286
1765409915.210262,-10.288138,0.015543,0.759206,-0.001527,-0.047495,0.013439
1765409915.210762,-10.088473,0.082496,0.460306,0.001527,-0.034056,0.015882
1765409915.215255,-9.817072,0.045433,0.225968,-0.000305,-0.033292,0.015730
1765409915.215755,-9.690936,-0.057389,0.161406,-0.002291,-0.030849,0.018479
1765409915.220303,-10.049617,-0.230751,0.419656,0.001985,-0.041233,0.017257
1765409915.222303,-10.133906,-0.108800,0.548780,0.004276,-0.036499,0.013439
1765409915.225210,-9.893590,0.111191,0.206839,0.000305,-0.034056,0.010537
1765409915.227260,-10.039454,0.196676,0.497370,-0.004734,-0.034514,0.013744
1765409915.230234,-9.992825,0.123745,0.472262,0.000000,-0.035583,0.019548
1765409915.232224,-10.175154,-0.023912,0.682090,0.000916,-0.038943,0.023060
1765409915.235260,-9.875656,-0.181133,0.185318,-0.001374,-0.039706,0.021838
1765409915.237236,-9.928263,-0.166188,0.205643,-0.001833,-0.043219,0.014203
1765409915.240306,-9.803921,-0.017934,0.222382,-0.000305,-0.033139,0.014050
1765409915.240806,-10.003586,0.157819,0.386179,-0.000764,-0.041539,0.013286
1765409915.245281,-10.168577,0.125538,0.734098,0.003054,-0.036805,0.020464
1765409915.247353,-10.291725,0.096844,0.826160,0.000458,-0.036957,0.020006
1765409915.249358,-10.008368,-0.191894,0.478240,-0.000916,-0.035430,0.026114
1765409915.252307,-9.797942,-0.337159,0.084888,-0.001985,-0.048411,0.020769
1765409915.255253,-10.166186,-0.103419,0.445959,0.000764,-0.048106,0.011301
1765409915.257296,-10.098038,-0.079507,0.435198,0.000916,-0.042455,0.013134
1765409915.260280,-10.100429,0.251076,0.557747,0.003360,-0.037110,0.012828
1765409915.262284,-9.849353,0.287542,0.343137,0.000458,-0.031154,0.020617
1765409915.265230,-10.089668,0.023912,0.533238,0.001069,-0.048411,0.025962
1765409915.266279,-10.113581,-0.268412,0.434003,0.001069,-0.041233,0.026725
1765409915.270292,-9.989238,-0.255858,0.258847,0.001985,-0.041233,0.016188
1765409915.272276,-9.807508,-0.072334,0.229555,0.002291,-0.038485,0.012217
1765409915.275335,-9.993423,0.062171,0.525466,-0.000458,-0.046426,0.015730
1765409915.277275,-10.288138,0.333572,0.839311,-0.000153,-0.046731,0.014813
1765409915.279396,-10.069344,0.190100,0.386777,-0.002902,-0.040012,0.026114
1765409915.282226,-9.921089,-0.021521,0.294118,0.003207,-0.042150,0.028863
1765409915.285286,-9.766259,-0.324008,0.145265,0.001985,-0.048717,0.026114
1765409915.287303,-10.049019,-0.318030,0.469871,-0.002443,-0.053603,0.017257
1765409915.288332,-9.861309,-0.074127,0.130320,-0.002443,-0.042302,0.017257
1765409915.292244,-9.812290,0.187709,0.241511,0.001069,-0.049022,0.016952
1765409915.295244,-10.093256,0.286944,0.578670,-0.000916,-0.049022,0.020464
1765409915.297339,-10.444761,0.141081,1.031803,-0.002443,-0.052534,0.025656
1765409915.300310,-10.108798,-0.225968,0.483022,0.000916,-0.047189,0.028711
1765409915.302264,-9.717837,-0.333572,0.029890,0.001069,-0.051007,0.026725
1765409915.305357,-9.885221,-0.188307,0.236729,-0.001680,-0.054672,0.016035
1765409915.307293,-10.203251,0.049020,0.562530,0.001985,-0.051465,0.014966
1765409915.310302,-9.989238,0.139287,0.365854,0.002291,-0.046578,0.019395
1765409915.312308,-9.736967,0.216404,0.086681,0.002596,-0.042455,0.021075
1765409915.315241,-9.746531,0.054998,0.191296,0.003818,-0.047037,0.031612
1765409915.316987,-9.746531,0.054998,0.191296,0.003818,-0.048411,0.031612
1765409915.320488,-10.228956,-0.235533,0.750837,0.003512,-0.048106,0.023213
1765409915.322436,-10.092059,-0.049020,0.634266,0.004887,-0.038943,0.019700
1765409915.325266,-9.852941,0.086083,0.315638,0.004276,-0.053756,0.020922
1765409915.327256,-9.952174,0.246294,0.501554,-0.001069,-0.053756,0.018021
1765409915.330262,-10.163198,0.157819,0.688666,-0.001069,-0.052382,0.026725
1765409915.332333,-10.080702,-0.144070,0.448350,0.004429,-0.052687,0.034056
1765409915.335318,-9.906742,-0.284553,0.370636,0.005345,-0.052993,0.027947
1765409915.337394,-9.950979,-0.102224,0.439981,0.008399,-0.065057,0.022144
1765409915.340374,-9.931850,0.013152,0.289335,0.008247,-0.065057,0.023518
1765409915.342349,-10.099831,0.163797,0.374821,0.006109,-0.065210,0.022602
1765409915.344592,-10.032280,0.222382,0.401722,0.002291,-0.051924,0.029169
1765409915.345350,-9.962935,0.041248,0.423242,0.002291,-0.053298,0.031460
1765409915.350317,-10.064561,-0.162602,0.443568,0.002749,-0.056810,0.029932
1765409915.352271,-10.071137,-0.139287,0.486609,0.006720,-0.058796,0.023824
1765409915.353266,-10.064561,-0.032281,0.483022,0.005040,-0.052534,0.025656
1765409915.357300,-9.889405,-0.020325,0.477044,0.005345,-0.053756,0.026420
1765409915.359327,-9.961740,0.070540,0.633668,0.007025,-0.053756,0.027031
1765409915.362332,-9.961740,0.070540,0.633668,0.007025,-0.059865,0.027031
1765409915.365291,-9.939023,-0.051411,0.249880,0.006567,-0.058490,0.031612
1765409915.367259,-9.788378,-0.239120,0.125538,0.004581,-0.055589,0.030085
1765409915.368271,-9.863700,-0.066954,0.423242,0.007483,-0.056200,0.025962
1765409915.372338,-10.066953,0.119560,0.810617,0.003512,-0.049938,0.023060
1765409915.375274,-10.066953,0.119560,0.810617,0.003512,-0.055131,0.023060
1765409915.377305,-9.823647,0.123147,0.199665,0.005651,-0.060934,0.031307
1765409915.378322,-9.948587,0.082496,0.392157,0.004734,-0.062156,0.031307
1765409915.382294,-10.044236,-0.154830,0.381994,0.004734,-0.061545,0.033750
1765409915.385266,-9.910329,-0.181731,0.127929,0.006567,-0.057116,0.026420
1765409915.387277,-9.947392,0.102224,0.307269,0.010690,-0.051618,0.026114
1765409915.390261,-10.114776,0.154232,0.764586,0.012828,-0.049938,0.031612
1765409915.392305,-10.283356,0.176949,1.160928,0.007941,-0.054062,0.032987
1765409915.395266,-10.280965,0.124342,0.913438,0.003818,-0.065821,0.033445
1765409915.397305,-9.892395,-0.105811,0.269010,0.005803,-0.065821,0.035277
1765409915.400282,-9.830821,-0.184720,0.157221,0.004734,-0.078343,0.031612
1765409915.402265,-10.104015,-0.081301,0.566714,0.000611,-0.073762,0.026114
1765409915.403278,-10.010758,0.099833,0.365256,0.002291,-0.065515,0.027794
1765409915.407291,-9.674795,0.121951,-0.063965,0.006261,-0.065057,0.028100
1765409915.410287,-9.891200,0.184122,0.430416,0.008552,-0.064294,0.030543
1765409915.412309,-10.150046,0.029890,0.830344,0.004276,-0.060934,0.038943
1765409915.415377,-10.219989,-0.095050,0.807030,0.005956,-0.064904,0.032681
1765409915.417327,-9.878048,-0.069345,0.185318,0.003207,-0.061392,0.029932
1765409915.420351,-9.878048,-0.069345,0.185318,0.003207,-0.064752,0.029932
1765409915.422344,-10.057388,0.070540,0.589431,0.006567,-0.065363,0.031001
1765409915.425339,-10.312051,0.151841,1.099952,0.005498,-0.060934,0.030085
1765409915.427389,-10.155428,0.143472,0.708991,0.008247,-0.060476,0.030391
1765409915.432618,-9.844571,0.015543,0.137494,0.006109,-0.063988,0.033445
1765409915.433118,-10.001194,-0.070540,0.353300,0.011148,-0.071471,0.035277
1765409915.435360,-10.214011,-0.109397,0.862028,0.010690,-0.072693,0.032376
1765409915.437423,-10.050214,0.020325,0.600191,0.010079,-0.062614,0.029780
1765409915.440314,-9.620397,0.047824,0.197274,0.008552,-0.065973,0.032987
1765409915.442333,-9.598277,0.205643,0.064562,0.008399,-0.073915,0.031154
1765409915.445320,-9.857722,0.144070,0.343137,0.001985,-0.080023,0.037415
1765409915.447382,-10.072333,-0.104017,0.589431,0.003360,-0.074984,0.036041
1765409915.450360,-9.930654,-0.111789,0.354495,0.011148,-0.069639,0.037568
1765409915.452347,-9.826636,-0.107604,0.296509,0.005803,-0.068875,0.030391
1765409915.455386,-10.168577,0.162602,0.710186,0.008858,-0.068875,0.029016
1765409915.457351,-10.192491,0.142276,0.797465,0.011759,-0.063377,0.036652
1765409915.460386,-10.023911,0.086083,0.609158,0.010232,-0.068417,0.036499
1765409915.462342,-10.023911,0.086083,0.609158,0.010232,-0.068570,0.036499
1765409915.465297,-9.861907,-0.118364,0.372429,0.010690,-0.078343,0.040928
1765409915.467336,-9.903752,-0.294118,0.273792,0.011912,-0.078343,0.038485
1765409915.470343,-9.894786,-0.040053,0.390961,0.011606,-0.072540,0.030238
1765409915.472317,-9.766259,0.156624,0.290531,0.008552,-0.064599,0.031460
1765409915.475296,-9.719033,0.194883,0.357484,0.005803,-0.074373,0.036346
1765409915.477320,-10.105808,0.154232,0.804639,0.003054,-0.075442,0.039401
1765409915.480326,-10.162002,-0.129125,0.699426,0.008705,-0.076358,0.043371
1765409915.482372,-9.970109,-0.166188,0.404113,0.014661,-0.073151,0.038790
1765409915.485400,-9.830821,-0.153037,0.284553,0.009316,-0.076816,0.036346
1765409915.487359,-9.905546,0.000000,0.447154,0.009774,-0.079107,0.033598
1765409915.490360,-10.056191,0.199067,0.609158,0.014508,-0.077885,0.032529
1765409915.492359,-9.848158,0.190698,0.439981,0.008858,-0.071166,0.036041
1765409915.495380,-9.730989,0.098637,0.154830,0.008399,-0.075136,0.040928
1765409915.497408,-9.909132,0.027499,0.489000,0.009621,-0.077427,0.038790
1765409915.500371,-10.105808,-0.098637,0.682688,0.008552,-0.077427,0.041081
1765409915.500871,-10.046627,-0.083692,0.494978,0.010385,-0.074984,0.040012
1765409915.505363,-9.867287,0.000000,0.388570,0.008399,-0.075900,0.039401
1765409915.505863,-9.780008,0.141081,0.406504,0.011912,-0.075747,0.040317
1765409915.509385,-9.925871,0.166188,0.480033,0.015272,-0.072388,0.041997
1765409915.512375,-10.026302,0.164993,0.648015,0.010537,-0.072388,0.045357
1765409915.515657,-10.026302,0.164993,0.648015,0.010537,-0.071166,0.045357
1765409915.517359,-9.960544,-0.163797,0.526662,0.012675,-0.072388,0.044899
1765409915.520433,-9.983260,0.040650,0.510521,0.012217,-0.081398,0.039706
1765409915.522427,-10.086082,0.179340,0.668340,0.012065,-0.083383,0.037263
1765409915.525336,-9.863700,0.218795,0.427427,0.014813,-0.083230,0.043524
1765409915.527394,-9.826636,0.236729,0.320421,0.009927,-0.082314,0.042302
1765409915.530460,-10.011955,0.155428,0.600789,0.008858,-0.078038,0.045357
1765409915.532652,-10.163198,-0.078910,0.771162,0.012828,-0.078038,0.048717
1765409915.535362,-10.013150,-0.159015,0.640244,0.012828,-0.077885,0.048717
1765409915.537390,-9.778215,0.002391,0.267814,0.010843,-0.078649,0.037568
1765409915.540413,-9.750119,0.159613,0.232544,0.014661,-0.086896,0.037110
1765409915.542323,-9.894786,0.176949,0.384385,0.015730,-0.069486,0.041081
1765409915.545354,-9.968913,0.161406,0.625299,0.015119,-0.069486,0.044593
1765409915.547349,-9.968913,0.161406,0.625299,0.015119,-0.069486,0.044593
1765409915.550415,-9.820060,0.045433,0.493783,0.012370,-0.081551,0.045662
1765409915.552358,-9.999999,0.026901,0.747250,0.011148,-0.088728,0.042761
1765409915.553407,-9.979673,0.101626,0.658178,0.013744,-0.084605,0.040470
1765409915.557333,-9.771639,0.071736,0.374223,0.009774,-0.083078,0.042150
1765409915.560351,-9.769248,0.170971,0.310856,0.008399,-0.090866,0.038485
1765409915.562325,-10.154231,0.246294,0.725131,0.009316,-0.080940,0.041692
1765409915.565390,-10.088473,0.081301,0.626494,0.015730,-0.080940,0.050855
1765409915.567407,-9.733380,-0.147059,0.193089,0.012828,-0.082009,0.049786
1765409915.570372,-9.878048,-0.071736,0.379005,0.012065,-0.087048,0.038943
1765409915.570872,-9.996411,0.131516,0.512912,0.012065,-0.088117,0.038943
1765409915.575396,-10.025704,0.190100,0.632472,0.010537,-0.085368,0.041233
1765409915.577421,-9.992825,0.310258,0.691057,0.010385,-0.074526,0.041081
1765409915.580379,-10.007771,0.113582,0.818388,0.011759,-0.077274,0.049327
1765409915.580879,-10.169774,-0.034075,0.644428,0.014508,-0.094684,0.045509
1765409915.585324,-10.227163,-0.055595,0.613941,0.013286,-0.094379,0.043371
1765409915.587389,-9.980869,0.070540,0.361669,0.014355,-0.083383,0.040012
1765409915.590366,-9.927068,0.228360,0.619321,0.015272,-0.077733,0.038790
1765409915.590866,-10.175752,0.346126,1.180057,0.015272,-0.083994,0.038790
1765409915.595354,-10.312649,0.302487,1.087996,0.010690,-0.093462,0.046884
1765409915.597366,-10.093256,0.003587,0.443568,0.010385,-0.099113,0.047953
1765409915.600347,-9.826636,-0.075323,0.010760,0.011301,-0.100182,0.047342
1765409915.602365,-9.986848,-0.004782,0.542802,0.011912,-0.095448,0.043677
1765409915.605345,-10.359276,0.202056,1.108919,0.010690,-0.089339,0.040470
1765409915.607412,-10.280965,0.260641,0.922405,0.010079,-0.090561,0.041844
1765409915.610384,-9.827832,0.189503,0.265423,0.008552,-0.094684,0.041386
1765409915.612377,-9.899570,0.178742,0.393352,0.010690,-0.094837,0.047647
1765409915.615358,-10.147655,0.041846,0.966045,0.011759,-0.094837,0.051771
1765409915.617416,-10.154231,-0.052606,0.765184,0.009774,-0.091630,0.047953
1765409915.620407,-9.928861,0.054400,0.411286,0.007941,-0.094837,0.043524
1765409915.622381,-9.844571,0.126136,0.427427,0.010079,-0.094684,0.045204
1765409915.625421,-10.120754,0.251674,0.897298,0.011759,-0.104000,0.047342
1765409915.627410,-10.289334,0.225968,0.991750,0.009774,-0.100487,0.041386
1765409915.630531,-9.986848,0.111191,0.389766,0.010079,-0.094990,0.050244
1765409915.632376,-9.771041,-0.065160,0.039455,0.017104,-0.098502,0.054214
1765409915.635226,-10.078907,0.014347,0.753228,0.012217,-0.100640,0.044288
1765409915.637401,-10.194881,0.168580,1.041965,0.014050,-0.093462,0.045509
1765409915.640452,-9.867287,0.198470,0.539813,0.012523,-0.094837,0.046578
1765409915.642471,-9.605451,0.134505,0.171569,0.010537,-0.101862,0.051007
1765409915.645421,-9.910329,0.090866,0.520684,0.012675,-0.102014,0.052687
1765409915.647432,-10.225968,-0.010760,0.919416,0.014661,-0.098502,0.049175
1765409915.650442,-10.203848,-0.082496,0.987566,0.014661,-0.100793,0.048258
1765409915.650942,-9.831419,-0.013152,0.520086,0.014203,-0.099113,0.045815
1765409915.655384,-9.769846,0.124342,0.347920,0.013592,-0.108581,0.046578
1765409915.657367,-9.960544,0.111789,0.548780,0.012523,-0.107970,0.047342
1765409915.660357,-10.107603,0.168580,0.847680,0.015577,-0.103694,0.046426
1765409915.662344,-9.943806,0.131516,0.687470,0.013439,-0.094226,0.050091
1765409915.665372,-9.796746,0.069345,0.439981,0.013897,-0.104458,0.050855
1765409915.667361,-9.866689,-0.129125,0.516499,0.014661,-0.108276,0.051771
1765409915.668382,-9.818267,0.002391,0.358082,0.015577,-0.098807,0.046273
1765409915.672376,-9.741151,0.150646,0.431612,0.013897,-0.098807,0.043677
1765409915.675375,-9.752509,0.326399,0.573290,0.013592,-0.092241,0.044746
1765409915.677456,-10.089668,0.324008,0.951100,0.008858,-0.102778,0.053298
1765409915.680411,-10.332376,0.282162,1.282879,0.008399,-0.102778,0.054520
1765409915.682431,-10.148851,0.138690,0.852463,0.013897,-0.110414,0.057269
1765409915.685375,-9.635341,-0.266619,0.098039,0.014355,-0.110414,0.057727
1765409915.687370,-9.635341,-0.266619,0.098039,0.014355,-0.116370,0.057727
1765409915.688375,-10.022716,0.163797,0.854854,0.013744,-0.104763,0.049480
1765409915.692421,-9.938425,0.298900,0.877571,0.016799,-0.098655,0.049786
1765409915.695376,-9.781204,0.426829,0.562530,0.013744,-0.102167,0.056505
1765409915.697375,-9.842180,0.181731,0.336561,0.010537,-0.110414,0.058796
1765409915.700439,-9.842180,0.181731,0.336561,0.010537,-0.111025,0.058796
1765409915.700939,-10.007172,-0.150048,0.648015,0.017410,-0.104000,0.054672
1765409915.705414,-10.123145,0.081301,1.070660,0.018937,-0.088728,0.050244
1765409915.707439,-9.917501,0.208632,0.857843,0.016952,-0.095142,0.053145
1765409915.710389,-10.094451,0.236729,0.929579,0.017562,-0.115912,0.054825
1765409915.712447,-10.058583,0.184122,0.685079,0.014355,-0.112705,0.054978
1765409915.715388,-10.002390,0.074127,0.750837,0.017562,-0.112399,0.056352
1765409915.718806,-9.932447,-0.133907,0.571497,0.015424,-0.112399,0.053756
1765409915.719306,-10.098636,0.163797,0.671927,0.017257,-0.120951,0.045204
1765409915.721391,-10.043638,0.353898,0.603778,0.013592,-0.112094,0.047495
1765409915.725413,-9.840983,0.370636,0.454926,0.022602,-0.106138,0.056810
1765409915.727390,-10.036465,0.286944,1.028216,0.020464,-0.108276,0.061087
1765409915.729481,-10.092059,0.052606,0.958871,0.017257,-0.108276,0.060934
1765409915.730444,-10.061573,-0.160210,0.503945,0.017257,-0.117897,0.060934
1765409915.735418,-9.729793,-0.050215,0.195481,0.021380,-0.111788,0.050091
1765409915.737418,-10.051410,0.359876,1.037781,0.023671,-0.108123,0.049633
1765409915.740514,-10.051410,0.359876,1.037781,0.023671,-0.106901,0.049633
1765409915.742454,-10.083092,0.390961,0.828551,0.018173,-0.120340,0.056658
1765409915.744706,-10.083092,0.390961,0.828551,0.018173,-0.122478,0.056658
1765409915.748787,-9.947392,0.054998,0.740076,0.021380,-0.121409,0.065057
1765409915.750585,-10.254662,-0.102224,1.108321,0.020159,-0.121409,0.061850
1765409915.752461,-10.010758,-0.047226,0.658776,0.017410,-0.123853,0.053298
1765409915.755445,-9.733380,0.282162,0.203850,0.018937,-0.120188,0.048106
1765409915.755945,-9.670013,0.298900,0.357484,0.018631,-0.120340,0.055131
1765409915.760381,-10.142276,0.369440,1.235055,0.017562,-0.118050,0.056658
1765409915.762425,-10.384384,0.346724,1.249402,0.014966,-0.111483,0.060476
1765409915.765410,-9.925871,-0.022119,0.634864,0.013897,-0.110872,0.067653
1765409915.767425,-9.829028,-0.054998,0.371832,0.017104,-0.126296,0.060781
1765409915.770384,-10.021520,0.024510,0.652798,0.014355,-0.131183,0.055894
1765409915.772420,-10.111190,0.300096,0.915830,0.016646,-0.117439,0.051160
1765409915.775421,-9.873863,0.508130,0.747250,0.017257,-0.109650,0.056963
1765409915.777403,-9.897178,0.435198,0.875179,0.010996,-0.119730,0.060934
1765409915.780438,-10.143471,0.294118,0.933166,0.014355,-0.128740,0.066126
1765409915.781426,-10.212815,0.017336,0.964849,0.019242,-0.126449,0.070402
1765409915.785403,-9.793160,-0.265423,0.552367,0.022602,-0.120188,0.068111
1765409915.786411,-9.822452,-0.046628,0.694644,0.019242,-0.121868,0.057879
1765409915.790418,-10.059779,0.177547,0.875179,0.022144,-0.128282,0.055436
1765409915.792412,-10.050812,0.457915,0.902080,0.021533,-0.124311,0.056505
1765409915.794469,-9.723217,0.425634,0.399330,0.018937,-0.122478,0.064294
1765409915.797434,-9.723217,0.425634,0.399330,0.018937,-0.124158,0.064294
1765409915.800450,-9.954566,-0.098039,0.795074,0.021533,-0.127365,0.067348
1765409915.801432,-9.934240,-0.255261,0.720947,0.020617,-0.130725,0.059101
1765409915.806361,-9.918698,0.064562,0.653993,0.021838,-0.112246,0.047342
1765409915.807877,-9.962935,0.393352,1.007293,0.026878,-0.112246,0.057879
1765409915.811604,-9.962935,0.393352,1.007293,0.026878,-0.125838,0.057879
1765409915.812104,-10.220587,0.518890,1.091583,0.020464,-0.132100,0.059407
1765409915.815451,-10.046029,0.239120,0.649211,0.022297,-0.135612,0.065668
1765409915.817449,-9.671208,0.011358,0.285748,0.025809,-0.132252,0.068875
1765409915.820473,-9.622189,0.015543,0.392157,0.026114,-0.129809,0.062766
1765409915.822490,-9.838593,0.212817,0.716164,0.021228,-0.126144,0.058032
1765409915.823491,-10.063366,0.388570,0.763391,0.021075,-0.134390,0.056200
1765409915.827495,-10.387374,0.492587,1.258967,0.022602,-0.124617,0.063225
1765409915.830496,-10.149448,0.329986,1.178862,0.022449,-0.115454,0.068111
1765409915.832486,-10.085484,0.099235,1.018651,0.019548,-0.130572,0.069333
1765409915.833493,-10.208033,-0.066954,0.971425,0.018326,-0.138514,0.059559
1765409915.837487,-10.280965,0.260641,1.056313,0.023518,-0.130725,0.057879
1765409915.840549,-9.795551,0.176949,0.557150,0.022602,-0.124158,0.063225
1765409915.841498,-9.739358,0.263032,0.586442,0.019548,-0.135459,0.059712
1765409915.845513,-10.163198,0.359876,1.019847,0.018937,-0.135307,0.060628
1765409915.848694,-10.269009,0.337757,1.153754,0.027794,-0.133169,0.070402
1765409915.850452,-9.879841,0.095050,0.581062,0.020922,-0.125533,0.070860
1765409915.852467,-9.791965,0.091463,0.510521,0.019242,-0.134696,0.064904
1765409915.855468,-10.253465,0.115973,1.208752,0.027184,-0.135001,0.065210
1765409915.855968,-10.405307,0.156624,1.610473,0.033139,-0.131489,0.070402
1765409915.860560,-9.855929,0.196078,0.791487,0.026878,-0.128282,0.063377
1765409915.862436,-9.620994,0.349115,0.422047,0.023366,-0.144470,0.061239
1765409915.865451,-9.809898,0.269010,0.689861,0.031001,-0.144470,0.072540
1765409915.867489,-10.089668,0.076518,1.058106,0.032223,-0.148135,0.073457
1765409915.870477,-10.007771,0.109397,0.815997,0.024587,-0.141873,0.063225
1765409915.872479,-9.716641,0.241511,0.346126,0.024282,-0.133627,0.063072
1765409915.875486,-9.811094,0.209230,0.766380,0.029169,-0.138514,0.067195
1765409915.877487,-10.396938,0.466882,1.793998,0.027489,-0.138819,0.063377
1765409915.880476,-10.248685,0.454328,1.351028,0.016341,-0.132405,0.070555
1765409915.882433,-9.823647,0.175753,0.346724,0.019700,-0.149204,0.072082
1765409915.885478,-9.718434,0.033477,0.292324,0.021075,-0.147982,0.071471
1765409915.887472,-10.079505,0.091463,1.079627,0.031154,-0.131947,0.069639
1765409915.888526,-10.125537,0.155428,1.331898,0.025504,-0.131947,0.062308
1765409915.891499,-9.998802,0.462697,0.992946,0.023824,-0.137903,0.062614
1765409915.893544,-9.906742,0.462697,0.688666,0.023824,-0.142942,0.069180
1765409915.897438,-10.077114,0.289335,1.024629,0.030696,-0.146913,0.075136
1765409915.898516,-10.289334,0.077714,1.433524,0.031612,-0.144470,0.075747
1765409915.902450,-10.003586,-0.029292,0.706600,0.023518,-0.144470,0.066432
1765409915.905465,-9.986250,0.235533,0.502152,0.029627,-0.152716,0.061697
1765409915.907455,-10.010161,0.496174,0.823768,0.031307,-0.138972,0.067959
1765409915.910440,-10.058583,0.462697,1.111310,0.031460,-0.141873,0.071166
1765409915.912439,-10.164991,0.551172,1.286466,0.023060,-0.140499,0.067501
1765409915.915464,-10.218196,0.396939,1.244620,0.027336,-0.138514,0.078191
1765409915.917479,-9.752509,-0.174558,0.893113,0.027336,-0.144470,0.078191
1765409915.920736,-9.800931,0.040650,0.650406,0.035430,-0.152258,0.070402
1765409915.922545,-10.047226,0.261836,1.005500,0.026114,-0.152258,0.064752
1765409915.925520,-10.047226,0.261836,1.005500,0.026114,-0.153633,0.064752
1765409915.927620,-9.958152,0.609756,0.736490,0.036346,-0.151800,0.070250
1765409915.930565,-9.858320,0.500956,1.048541,0.025198,-0.135307,0.074220
1765409915.932615,-10.004781,0.261239,1.192013,0.026420,-0.153938,0.082772
1765409915.935549,-9.955761,-0.118962,0.952893,0.025962,-0.153938,0.074678
1765409915.937533,-10.062170,-0.015543,0.902678,0.028863,-0.158061,0.066279
1765409915.940528,-9.918099,0.261836,0.863223,0.032681,-0.145386,0.065363
1765409915.942561,-9.977283,0.560139,1.181253,0.035125,-0.149967,0.067501
1765409915.945460,-10.153036,0.541009,1.079627,0.023518,-0.155160,0.072846
1765409915.947488,-10.083092,0.350311,0.814801,0.026420,-0.155160,0.077122
1765409915.950528,-9.862504,-0.045433,0.888331,0.033292,-0.142790,0.080329
1765409915.951540,-9.569583,-0.016738,0.645026,0.035430,-0.154396,0.073304
1765409915.955561,-9.840983,0.247489,1.038976,0.026114,-0.154396,0.065973
1765409915.957514,-9.840983,0.247489,1.038976,0.026114,-0.151495,0.065973
1765409915.960579,-9.962935,0.530249,1.006097,0.038332,-0.156534,0.072846
1765409915.962503,-9.844571,0.414275,1.001913,0.022755,-0.141873,0.073915
1765409915.965470,-9.928861,0.347920,1.089192,0.029322,-0.148898,0.081245
1765409915.967480,-9.923481,-0.129125,0.891918,0.033292,-0.162185,0.084605
1765409915.970465,-9.923481,-0.129125,0.891918,0.033292,-0.165086,0.084605
1765409915.972469,-10.074127,0.528455,1.005500,0.034361,-0.144011,0.069333
1765409915.975459,-10.049019,0.526662,1.530368,0.036499,-0.146302,0.078343
1765409915.977511,-10.211619,0.515304,1.329507,0.032223,-0.164017,0.081092
1765409915.978491,-10.163795,0.258847,1.035390,0.024893,-0.162185,0.079565
1765409915.982489,-10.163795,0.258847,1.035390,0.024893,-0.153174,0.079565
1765409915.985498,-9.843375,-0.010163,0.647417,0.038179,-0.161574,0.083536
1765409915.987469,-10.290529,0.340746,1.525586,0.028558,-0.161574,0.062919
1765409915.988512,-10.374820,0.682090,1.499282,0.026573,-0.158825,0.065821
1765409915.992517,-9.820659,0.565519,0.930177,0.032529,-0.158825,0.082009
1765409915.995487,-9.793160,0.430416,0.856050,0.025656,-0.166614,0.080787
1765409915.997520,-10.253465,0.298900,1.339670,0.024435,-0.170126,0.082467
1765409916.000476,-10.266617,-0.001196,1.291248,0.029627,-0.167224,0.082620
1765409916.002545,-9.972500,0.109995,0.893711,0.034056,-0.160047,0.072235
1765409916.005522,-9.870873,0.487207,0.756815,0.031918,-0.160047,0.070860
1765409916.007506,-9.890003,0.484816,1.019847,0.031765,-0.166919,0.080329
1765409916.010503,-10.003586,0.515304,1.093974,0.034667,-0.158825,0.082314
1765409916.012519,-10.027497,0.237924,1.333094,0.032376,-0.156840,0.088881
1765409916.015476,-10.027497,0.237924,1.333094,0.032376,-0.162337,0.088881
1765409916.017513,-9.781802,0.064562,0.687470,0.032987,-0.179442,0.076969
1765409916.020491,-9.684361,0.254663,0.413678,0.032681,-0.181580,0.068417
1765409916.022440,-9.884026,0.616332,0.844094,0.038943,-0.163254,0.070708
1765409916.023537,-9.897178,0.615136,1.267336,0.043524,-0.156687,0.088423
1765409916.027590,-9.937828,0.447752,1.299617,0.043524,-0.158214,0.088423
1765409916.030568,-10.045432,0.387374,1.140005,0.032529,-0.164475,0.083689
1765409916.032568,-10.210424,0.206839,1.537542,0.034667,-0.166155,0.088575
1765409916.035633,-10.026302,0.234935,1.229077,0.037263,-0.170737,0.088575
1765409916.037588,-9.726207,0.178144,0.658776,0.032529,-0.175013,0.083383
1765409916.040638,-9.684958,0.316834,0.710186,0.035888,-0.169210,0.077122
1765409916.042612,-9.593494,0.338953,0.791487,0.040164,-0.164934,0.084605
1765409916.045686,-10.147058,0.567312,1.461023,0.031307,-0.171042,0.078954
1765409916.047532,-10.285150,0.512912,1.686394,0.029627,-0.165544,0.080634
1765409916.050505,-9.857722,0.033477,1.013869,0.035888,-0.165544,0.096517
1765409916.052522,-9.658057,-0.032281,0.491392,0.041692,-0.182496,0.080787
1765409916.055478,-10.191893,0.224773,1.594333,0.040164,-0.178525,0.068264
1765409916.057515,-10.114776,0.546389,1.521999,0.037568,-0.159589,0.073915
1765409916.058543,-9.820659,0.933764,0.909852,0.041692,-0.173486,0.080940
1765409916.060520,-9.625775,0.607365,0.787900,0.025656,-0.173486,0.088575
1765409916.065490,-10.088473,0.233740,1.449067,0.038332,-0.173944,0.098197
1765409916.067511,-10.021520,-0.241511,1.453850,0.044135,-0.173333,0.097891
1765409916.070534,-10.021520,-0.241511,1.453850,0.044135,-0.179747,0.097891
1765409916.073546,-9.741750,0.705404,0.826160,0.037263,-0.172722,0.074067
1765409916.075551,-9.607842,0.663558,0.800454,0.045051,-0.182191,0.089034
1765409916.077571,-10.044834,0.492587,1.318149,0.040164,-0.182496,0.089950
1765409916.080533,-10.108798,0.295313,1.633190,0.036652,-0.169668,0.090255
1765409916.082514,-9.983260,0.032281,1.434720,0.035583,-0.168752,0.093921
1765409916.085540,-9.684361,0.185318,0.621114,0.039706,-0.189826,0.084452
1765409916.087494,-10.010758,0.509923,1.176470,0.033139,-0.194255,0.076969
1765409916.090507,-9.998802,0.605571,1.343855,0.044288,-0.169821,0.086896
1765409916.092543,-9.557627,0.395744,0.780727,0.044746,-0.174555,0.092241
1765409916.093553,-9.513390,0.364658,0.827355,0.029627,-0.178984,0.081245
1765409916.097505,-9.945002,0.621114,1.359995,0.039554,-0.179442,0.083536
1765409916.098515,-10.141079,0.512912,1.710306,0.045204,-0.175318,0.096975
1765409916.102537,-9.766856,0.198470,1.061693,0.037721,-0.187077,0.088575
1765409916.105495,-9.870276,0.295313,0.981588,0.033292,-0.177456,0.079871
1765409916.107501,-9.764465,0.255858,0.900885,0.042608,-0.177456,0.083689
1765409916.110626,-9.935436,0.630081,1.310378,0.046426,-0.180053,0.080634
1765409916.112523,-10.188903,0.866810,1.793400,0.037874,-0.168446,0.083536
1765409916.113530,-9.971903,0.444763,1.536346,0.037263,-0.167072,0.099266
1765409916.117508,-9.653275,0.020325,0.955284,0.048717,-0.200058,0.100945
1765409916.120530,-9.701099,0.044237,1.021042,0.042455,-0.200058,0.080940
1765409916.122638,-10.052606,0.688068,1.299617,0.041539,-0.189674,0.073762
1765409916.125883,-9.875058,0.888929,1.215925,0.043524,-0.180205,0.082772
1765409916.127555,-9.769248,0.792085,1.018651,0.039401,-0.186925,0.092546
1765409916.130583,-9.865494,0.459110,1.267934,0.034667,-0.182343,0.096059
1765409916.132529,-10.093256,0.199665,1.477762,0.039554,-0.186925,0.093615
1765409916.135678,-10.121352,0.186514,1.453850,0.041997,-0.184023,0.086437
1765409916.136539,-9.848158,0.459708,1.183046,0.043830,-0.183718,0.079718
1765409916.139631,-9.742347,0.453132,1.169297,0.039706,-0.183718,0.082620
1765409916.142653,-9.742347,0.453132,1.169297,0.039706,-0.193033,0.082620
1765409916.145736,-10.125537,0.638450,1.602104,0.038790,-0.193339,0.078954
1765409916.146236,-10.108798,0.640842,1.478957,0.038790,-0.183870,0.084147
1765409916.150626,-9.989238,0.497370,1.398852,0.043830,-0.188757,0.090561
1765409916.152566,-9.721423,0.108800,0.882353,0.040164,-0.199295,0.087201
1765409916.153574,-9.989238,0.471066,1.274510,0.041997,-0.200517,0.073457
1765409916.157578,-9.808105,0.821377,1.260162,0.044899,-0.183107,0.075900
1765409916.160604,-9.772835,0.836322,1.429938,0.044135,-0.183107,0.089797
1765409916.162522,-9.991630,0.589431,1.747369,0.037415,-0.198989,0.094226
1765409916.165615,-10.308464,0.280966,1.644548,0.039248,-0.198989,0.094531
1765409916.167521,-9.907937,0.103419,0.945720,0.044288,-0.200211,0.091019
1765409916.170555,-9.626971,0.587637,0.760999,0.043371,-0.198684,0.077885
1765409916.172532,-9.978478,0.803443,1.502869,0.037415,-0.187841,0.082925
1765409916.175547,-10.167382,0.689861,1.942850,0.035430,-0.193033,0.091935
1765409916.177603,-10.179936,0.527260,1.737207,0.038332,-0.198531,0.094837
1765409916.180615,-9.844571,0.363462,1.119082,0.036652,-0.194102,0.091019
1765409916.182589,-9.807508,0.395146,1.060497,0.040317,-0.201586,0.089950
1765409916.185596,-9.957555,0.252272,1.276901,0.035583,-0.206625,0.088423
1765409916.187590,-10.079505,0.492587,1.451458,0.041539,-0.203571,0.081551
1765409916.190597,-9.803921,0.504543,1.131038,0.040012,-0.193339,0.084452
1765409916.192615,-9.933045,0.671927,1.596724,0.042913,-0.193339,0.087201
1765409916.195555,-10.255857,0.723338,1.953610,0.039554,-0.203113,0.091935
1765409916.197566,-10.277378,0.413678,1.728838,0.039706,-0.212887,0.093921
1765409916.200591,-9.753705,0.188905,0.890722,0.039706,-0.203113,0.093921
1765409916.201597,-9.389048,0.166786,0.554758,0.048411,-0.211512,0.091477
1765409916.205601,-9.861907,0.523673,1.529172,0.042455,-0.203113,0.076969
1765409916.207592,-10.121950,0.665949,1.950024,0.037415,-0.204640,0.083383
1765409916.210620,-9.998802,0.689263,1.488522,0.039554,-0.204793,0.089492
1765409916.212631,-9.577354,0.601387,0.759206,0.038943,-0.209069,0.091324
1765409916.215543,-9.742347,0.412482,1.183644,0.038026,-0.212123,0.093310
1765409916.217584,-10.041247,0.249880,1.612267,0.039401,-0.212123,0.089644
1765409916.218538,-10.132710,0.521282,1.788618,0.040164,-0.201586,0.082620
1765409916.222529,-9.660448,0.681492,1.077236,0.044593,-0.201586,0.084605
1765409916.225539,-9.525346,0.688068,1.043161,0.041386,-0.205862,0.091019
1765409916.227554,-9.796746,0.554758,1.321736,0.042302,-0.215330,0.092393
1765409916.230681,-10.248685,0.411286,1.937470,0.039095,-0.210443,0.090561
1765409916.232663,-10.088473,0.500956,1.737207,0.047800,-0.202196,0.093615
1765409916.235632,-9.733380,0.387972,1.261358,0.046884,-0.208458,0.098197
1765409916.237598,-9.612624,0.276184,1.193807,0.041233,-0.225257,0.086743
1765409916.240617,-10.102222,0.607963,1.587757,0.044440,-0.224798,0.083994
1765409916.242570,-10.087276,0.673123,1.720468,0.044440,-0.214872,0.083994
1765409916.245691,-9.894188,0.871592,1.383309,0.041997,-0.216552,0.088117
1765409916.247683,-9.894786,0.529651,1.620038,0.035736,-0.214108,0.091630
1765409916.250693,-9.891200,0.286944,1.629603,0.039554,-0.214719,0.093310
1765409916.252605,-9.640123,0.463295,1.087996,0.045968,-0.227242,0.090103
1765409916.255557,-9.485890,0.704208,0.920612,0.033139,-0.225257,0.082009
1765409916.257599,-9.565996,0.830942,1.217121,0.041539,-0.210138,0.090561
1765409916.260586,-9.409372,0.481229,1.309182,0.046120,-0.211970,0.105374
1765409916.262578,-9.738162,0.564323,1.640363,0.037263,-0.217163,0.091019
1765409916.265571,-10.015541,0.706600,1.794596,0.043524,-0.208458,0.098349
1765409916.267572,-9.581538,0.182927,1.209947,0.045662,-0.217163,0.108429
1765409916.270590,-9.540888,0.279770,0.995935,0.044135,-0.225867,0.091935
1765409916.272650,-9.811094,0.510521,1.433524,0.042913,-0.211359,0.082467
1765409916.275575,-9.840983,0.705404,1.643950,0.049938,-0.205709,0.093615
1765409916.277568,-9.797344,0.903874,1.480153,0.051618,-0.205251,0.096364
1765409916.280583,-9.917501,0.621712,1.618842,0.040623,-0.205251,0.098807
1765409916.282571,-9.795551,0.197274,1.579388,0.044593,-0.206931,0.100640
1765409916.285602,-9.852343,0.302487,1.358202,0.046578,-0.218232,0.093004
1765409916.287633,-10.028693,0.538618,1.560258,0.042302,-0.216552,0.084299
1765409916.290571,-9.989238,0.799259,1.762912,0.044899,-0.195782,0.087812
1765409916.292553,-9.913916,0.759206,1.953610,0.046120,-0.203418,0.096669
1765409916.295576,-9.913916,0.759206,1.953610,0.046120,-0.225104,0.096669
1765409916.297569,-10.115973,0.701817,1.521999,0.040775,-0.222050,0.093310
1765409916.300602,-9.819464,0.367647,1.440698,0.051771,-0.206167,0.103236
1765409916.302571,-9.601864,0.261836,1.464012,0.046731,-0.212123,0.096517
1765409916.305651,-10.105211,0.626494,1.999043,0.040775,-0.218690,0.082772
1765409916.307635,-10.287540,0.786705,2.156862,0.046273,-0.213039,0.090408
1765409916.310626,-9.623982,0.769966,1.224294,0.056352,-0.223271,0.107818
1765409916.312642,-9.712457,0.565519,1.491511,0.043524,-0.223271,0.096059
1765409916.315628,-10.069942,0.537422,1.928503,0.041539,-0.222660,0.096822
1765409916.317620,-9.986250,0.404113,1.584768,0.053756,-0.225562,0.103694
1765409916.320637,-9.667622,0.425634,1.283477,0.050244,-0.223729,0.091935
1765409916.322579,-9.702294,0.621712,1.394070,0.043371,-0.229227,0.086285
1765409916.325618,-10.005379,0.868603,1.918938,0.045509,-0.229227,0.090255
1765409916.327659,-9.977283,0.991152,1.559062,0.043677,-0.228158,0.094073
1765409916.328660,-9.832614,0.955284,1.383309,0.037568,-0.219911,0.102473
1765409916.332681,-9.607244,0.431014,1.718077,0.037568,-0.211970,0.106138
1765409916.335663,-9.846962,0.452535,1.758130,0.042913,-0.228158,0.108276
1765409916.337718,-9.974891,0.444763,1.469392,0.043524,-0.244041,0.092699
1765409916.340670,-9.974891,0.444763,1.469392,0.043524,-0.221897,0.092699
1765409916.342682,-9.757292,0.653993,1.444285,0.051771,-0.224035,0.107360
1765409916.344849,-9.955761,0.734098,1.916547,0.046120,-0.224035,0.099571
1765409916.347696,-9.955761,0.734098,1.916547,0.046120,-0.231671,0.099571
1765409916.349658,-10.227163,0.170971,1.898613,0.049938,-0.232587,0.110719
1765409916.352591,-9.758488,0.208034,1.128049,0.049938,-0.234572,0.110719
1765409916.355599,-9.883428,0.783118,1.623625,0.049327,-0.227547,0.083994
1765409916.356606,-9.782400,0.881755,1.684003,0.048717,-0.218690,0.093462
1765409916.360600,-9.942610,0.872788,1.829866,0.050091,-0.233961,0.103694
1765409916.362630,-9.854733,0.523673,1.636777,0.040470,-0.230754,0.096669
1765409916.365661,-9.882233,0.631277,1.646939,0.042302,-0.237627,0.097280
1765409916.367614,-9.763269,0.536227,1.640961,0.050549,-0.228769,0.098807
1765409916.370683,-9.758488,0.533238,1.679220,0.050702,-0.239001,0.099418
1765409916.372628,-10.003586,0.711382,1.774271,0.046426,-0.237932,0.092241
1765409916.375623,-10.064561,0.880559,1.817312,0.051924,-0.238390,0.093921
1765409916.376607,-9.916306,0.903276,1.904591,0.047495,-0.238390,0.103084
1765409916.380656,-9.677187,0.763988,1.273314,0.047953,-0.240223,0.105832
1765409916.381606,-9.926469,0.405308,1.642754,0.050855,-0.245873,0.107665
1765409916.385605,-10.016139,0.395744,2.054639,0.063377,-0.239154,0.104305
1765409916.387719,-9.992227,0.523673,1.962577,0.059712,-0.240375,0.098502
1765409916.390696,-9.589311,0.718556,1.258967,0.049633,-0.243888,0.094073
1765409916.392675,-9.772237,0.933764,1.464610,0.050396,-0.250913,0.094073
1765409916.395664,-10.149448,1.055715,2.124581,0.054825,-0.238543,0.103847
1765409916.397624,-10.516498,0.698230,2.957914,0.048564,-0.243124,0.108429
1765409916.400620,-9.905546,0.329388,1.830464,0.042302,-0.271988,0.109192
1765409916.402595,-9.458392,0.279770,0.850072,0.052534,-0.271988,0.101862
1765409916.405645,-9.458392,0.279770,0.850072,0.052534,-0.259618,0.101862
1765409916.407612,-9.842777,1.117886,1.960784,0.052840,-0.237779,0.096669
1765409916.410599,-9.685556,0.902678,1.979914,0.047647,-0.232129,0.105069
1765409916.411605,-9.480511,0.834529,1.533955,0.049480,-0.255189,0.106901
1765409916.415658,-9.844571,0.871592,1.842420,0.051465,-0.255189,0.109650
1765409916.418617,-9.843375,0.474653,1.799378,0.051771,-0.251371,0.113316
1765409916.420607,-9.802725,0.492587,1.770684,0.055283,-0.241292,0.105069
1765409916.422718,-9.713055,0.669536,1.963175,0.055436,-0.237627,0.099266
1765409916.425683,-9.582734,0.688666,1.590746,0.047953,-0.247706,0.103847
1765409916.427669,-9.845766,0.786705,1.740794,0.051313,-0.254731,0.098502
1765409916.428691,-9.937828,0.778336,1.987087,0.049786,-0.237779,0.103389
1765409916.432673,-9.622189,0.499761,1.942850,0.052993,-0.229533,0.111941
1765409916.435677,-9.493064,0.320421,1.676829,0.047953,-0.239612,0.096822
1765409916.437679,-9.643710,0.576279,1.536346,0.055589,-0.247095,0.094531
1765409916.440738,-9.661644,0.845289,1.483740,0.060323,-0.247095,0.092546
1765409916.442675,-10.011955,1.105930,2.467718,0.054672,-0.237779,0.093921
1765409916.445697,-9.994021,1.037781,2.461740,0.054367,-0.227242,0.102778
1765409916.447669,-9.818865,0.794476,1.976327,0.060170,-0.246790,0.110414
1765409916.450670,-9.546865,0.390961,1.429938,0.054978,-0.257022,0.109803
1765409916.452619,-9.910927,0.574486,1.846006,0.058032,-0.253967,0.096517
1765409916.455627,-9.878048,0.860832,2.017575,0.062766,-0.241750,0.091630
1765409916.457624,-9.771041,1.053324,2.064801,0.058032,-0.239001,0.097891
1765409916.458626,-9.666426,1.199187,2.091105,0.056810,-0.238237,0.096822
1765409916.461647,-9.775226,0.994739,2.015782,0.046120,-0.250149,0.108734
1765409916.465629,-9.730989,0.725729,1.606886,0.046578,-0.265268,0.108887
1765409916.467622,-9.702294,0.513510,1.679220,0.053298,-0.256105,0.101098
1765409916.468661,-9.606647,0.774749,2.036705,0.055741,-0.245262,0.095448
1765409916.472650,-9.751911,0.839909,2.036107,0.050549,-0.245262,0.095448
1765409916.475618,-9.943806,0.970827,1.999043,0.049938,-0.260229,0.093768
1765409916.477650,-10.010161,1.128646,1.868125,0.054520,-0.255036,0.095600
1765409916.480654,-9.888808,0.957676,2.317073,0.050396,-0.241444,0.105832
1765409916.482649,-9.520563,0.810617,1.787422,0.050855,-0.241444,0.106291
1765409916.485643,-9.781204,0.627690,1.755739,0.051313,-0.262825,0.108581
1765409916.486648,-10.105211,0.746054,2.183166,0.053298,-0.249080,0.094073
1765409916.490624,-10.206240,1.041368,2.236968,0.056810,-0.242055,0.099724
1765409916.492701,-9.909731,0.967240,2.244739,0.049633,-0.242361,0.100945
1765409916.495673,-9.875656,0.991750,2.184361,0.045051,-0.250455,0.095600
1765409916.497646,-9.797942,0.680894,1.994261,0.046884,-0.250455,0.109956
1765409916.500632,-9.670013,0.465088,1.594930,0.049786,-0.264199,0.096517
1765409916.502630,-9.766856,0.844094,1.788618,0.052382,-0.255953,0.088728
1765409916.503637,-9.768650,1.114299,2.167623,0.056810,-0.243124,0.094379
1765409916.507639,-9.936632,1.064682,2.399569,0.055283,-0.251829,0.099113
1765409916.510652,-9.870873,0.899091,1.938068,0.054062,-0.264352,0.102931
1765409916.512670,-9.857722,0.750239,1.916547,0.052840,-0.269086,0.096517
1765409916.513665,-9.800333,0.919416,2.159254,0.055436,-0.245568,0.093768
1765409916.517628,-9.848158,0.917025,2.305117,0.061087,-0.257327,0.102320
1765409916.520628,-9.848158,0.917025,2.305117,0.061087,-0.268781,0.102320
1765409916.522664,-9.924078,0.897896,1.956599,0.053298,-0.274737,0.093768
1765409916.523661,-9.924078,0.897896,1.956599,0.053298,-0.259007,0.093768
1765409916.527657,-9.923481,1.057508,2.236968,0.054214,-0.248011,0.100029
1765409916.530666,-9.729793,0.879962,2.307508,0.047953,-0.248011,0.102473
1765409916.531166,-9.729793,0.879962,2.307508,0.047953,-0.263894,0.102473
1765409916.535684,-9.512194,0.456121,1.578192,0.052687,-0.270613,0.092088
1765409916.537681,-10.132113,0.989957,2.330224,0.059254,-0.275958,0.086590
1765409916.540776,-9.918698,1.069464,2.453371,0.053756,-0.264810,0.095142
1765409916.542693,-9.636537,0.939742,2.057628,0.059407,-0.264810,0.104458
1765409916.545761,-9.763269,0.618723,2.137733,0.052687,-0.274889,0.101709
1765409916.547719,-9.884624,0.557150,2.122788,0.058338,-0.283441,0.099724
1765409916.553039,-9.686751,0.673721,1.847202,0.061545,-0.266185,0.096211
1765409916.553539,-9.282639,0.936155,1.629005,0.059559,-0.268323,0.094837
1765409916.555704,-9.683165,0.876973,2.314084,0.052382,-0.268323,0.101862
1765409916.557732,-9.701099,0.613941,2.008608,0.057727,-0.279776,0.100640
1765409916.560657,-9.895982,0.828551,2.229794,0.056963,-0.248317,0.092241
1765409916.562699,-9.654470,0.900287,2.268053,0.057421,-0.248317,0.100945
1765409916.565731,-9.654470,0.900287,2.268053,0.057421,-0.266185,0.100945
1765409916.567722,-9.842180,0.290531,2.092300,0.057879,-0.286038,0.105069
1765409916.570699,-9.916306,0.575084,2.051650,0.063530,-0.277180,0.087201
1765409916.572727,-9.438664,0.951698,1.987087,0.073915,-0.251829,0.092852
1765409916.575706,-9.280247,1.025227,2.241750,0.064752,-0.260687,0.099418
1765409916.577833,-9.280247,1.025227,2.241750,0.064752,-0.277944,0.099418
1765409916.580987,-9.762074,0.859636,2.247728,0.065057,-0.280540,0.103236
1765409916.581487,-9.465566,0.593018,1.724653,0.071166,-0.280540,0.102625
1765409916.585684,-9.560018,0.946915,2.164036,0.065973,-0.280387,0.096975
1765409916.587686,-10.138091,1.021042,3.040411,0.062919,-0.280387,0.099876
1765409916.590776,-10.138091,1.021042,3.040411,0.062919,-0.285579,0.099876
1765409916.592672,-9.471543,0.854854,1.549498,0.060018,-0.285427,0.100029
1765409916.595710,-9.469152,1.087398,2.016977,0.062614,-0.271071,0.103542
1765409916.597683,-9.939023,0.826160,2.845528,0.063835,-0.284510,0.113163
1765409916.600682,-9.968913,0.495576,2.522716,0.062156,-0.284510,0.107818
1765409916.601722,-9.555235,0.584648,1.804758,0.064904,-0.284205,0.096822
1765409916.605738,-9.325681,0.838116,1.761717,0.069028,-0.277944,0.094226
1765409916.607728,-9.509803,1.025825,2.296748,0.066737,-0.278707,0.096822
1765409916.609751,-9.863102,1.178862,2.598039,0.067653,-0.283136,0.096822
1765409916.612726,-9.595885,0.938546,2.081540,0.060781,-0.272599,0.106138
1765409916.615755,-9.351983,0.738881,1.744380,0.065973,-0.283441,0.108734
1765409916.617741,-9.568387,0.728718,2.297346,0.064599,-0.279624,0.105527
1765409916.620774,-9.815279,0.968436,2.244141,0.068875,-0.280234,0.099113
1765409916.622734,-9.815279,0.968436,2.244141,0.068875,-0.278402,0.099113
1765409916.625741,-9.912122,1.024629,2.421090,0.065973,-0.273973,0.101098
1765409916.627767,-10.166186,1.274510,3.008130,0.072846,-0.278402,0.107818
1765409916.630888,-10.269607,0.852463,3.162362,0.062766,-0.279471,0.112246
1765409916.632743,-10.216402,0.726925,2.507771,0.066584,-0.298866,0.110414
1765409916.635700,-9.607842,0.621712,1.573410,0.068111,-0.294590,0.100335
1765409916.637707,-9.848756,1.091583,2.268053,0.070250,-0.293063,0.090408
1765409916.639783,-9.881634,1.276901,2.749880,0.072082,-0.276111,0.099266
1765409916.645074,-9.948587,1.154950,2.652439,0.064446,-0.289856,0.105222
1765409916.645775,-9.800931,1.248804,2.131157,0.060781,-0.295048,0.102931
1765409916.647785,-9.895982,1.055117,2.334409,0.062308,-0.305127,0.109039
1765409916.650755,-9.765661,0.930775,2.378048,0.067348,-0.286801,0.109803
1765409916.652786,-9.619798,0.896700,2.308704,0.062766,-0.288787,0.109650
1765409916.655716,-9.594690,0.872190,2.225012,0.061545,-0.300698,0.105222
1765409916.656693,-9.469152,0.974414,1.807747,0.070097,-0.300698,0.107054
1765409916.658716,-9.872667,1.262554,2.711023,0.076053,-0.293521,0.102320
1765409916.662700,-9.599473,1.154352,2.496413,0.071777,-0.276417,0.113010
1765409916.665693,-9.532519,0.969632,2.227403,0.070097,-0.287718,0.118813
1765409916.667677,-9.536106,0.536824,2.196317,0.066737,-0.296117,0.107360
1765409916.670682,-10.002390,0.869201,2.562768,0.070555,-0.295811,0.100945
1765409916.672726,-9.765661,1.152558,2.473696,0.070402,-0.275806,0.102167
1765409916.675713,-9.463174,1.151961,2.399569,0.064446,-0.288176,0.105374
1765409916.677687,-9.698708,1.072453,2.560378,0.060323,-0.290466,0.107054
1765409916.680790,-9.924078,0.942133,2.765423,0.070250,-0.304516,0.110261
1765409916.682806,-9.848158,0.821377,2.564562,0.070402,-0.291688,0.113316
1765409916.686733,-9.434480,0.742468,2.124581,0.071166,-0.291230,0.107054
1765409916.687709,-9.757890,0.872788,2.674557,0.072235,-0.295353,0.099113
1765409916.690749,-9.651482,1.052128,2.462338,0.075900,-0.304974,0.100029
1765409916.692716,-9.882831,1.432329,2.865853,0.074067,-0.291535,0.097586
1765409916.693798,-9.567192,1.235653,2.557389,0.070860,-0.286801,0.104458
1765409916.697723,-9.888808,1.121473,2.739120,0.070555,-0.297644,0.110261
1765409916.700754,-9.970706,0.841702,2.545432,0.065821,-0.295659,0.106443
1765409916.701776,-9.925274,1.030607,2.767814,0.067806,-0.295659,0.099113
1765409916.705709,-9.249162,1.288857,2.064204,0.070555,-0.284052,0.101404
1765409916.707730,-9.324485,1.321138,2.605213,0.063530,-0.297186,0.103084
1765409916.710703,-9.481109,1.200980,2.474294,0.062614,-0.298713,0.107512
1765409916.712703,-9.760879,1.147776,2.723577,0.064752,-0.290772,0.111177
1765409916.715780,-9.392036,0.817193,2.424079,0.068570,-0.290772,0.110414
1765409916.717740,-9.450620,0.737685,2.428264,0.065515,-0.299782,0.107818
1765409916.720777,-9.316116,0.895504,2.229794,0.069486,-0.300088,0.099113
1765409916.721277,-9.673599,1.247011,2.453371,0.068722,-0.302684,0.094990
1765409916.725706,-9.671208,1.322334,2.734338,0.065210,-0.290314,0.100182
1765409916.727803,-9.648493,1.319345,2.772597,0.064752,-0.291535,0.105985
1765409916.729177,-9.466762,1.033596,2.458751,0.059559,-0.292910,0.108276
1765409916.732799,-9.768052,1.000717,2.744500,0.058948,-0.293368,0.101098
1765409916.735801,-9.628765,1.068866,2.790531,0.060781,-0.293368,0.099724
1765409916.737744,-9.628765,1.068866,2.790531,0.060781,-0.302226,0.099724
1765409916.739854,-9.448828,1.272118,2.351745,0.063225,-0.304058,0.100793
1765409916.742843,-9.634145,1.267336,2.535270,0.066432,-0.305433,0.104763
1765409916.743781,-9.937828,1.237446,2.910090,0.072846,-0.301462,0.108887
1765409916.747806,-9.768052,0.999522,2.892157,0.067501,-0.301462,0.103236
1765409916.750837,-9.768052,0.999522,2.892157,0.067501,-0.300546,0.103236
1765409916.751815,-9.692730,1.219512,2.490435,0.071166,-0.309709,0.099571
1765409916.755791,-9.858320,1.293639,2.838354,0.064752,-0.314748,0.096975
1765409916.757731,-9.956957,1.346843,2.963892,0.069486,-0.300698,0.101098
1765409916.760739,-9.662840,1.144189,2.813247,0.067653,-0.304974,0.108581
1765409916.763731,-9.553442,1.028216,2.404352,0.052229,-0.315206,0.097128
1765409916.765739,-9.887015,1.293639,2.872429,0.065363,-0.297644,0.097891
1765409916.767784,-9.456598,0.933764,2.515543,0.068417,-0.297644,0.110108
1765409916.770773,-9.252151,1.070660,2.363701,0.062614,-0.305433,0.096975
1765409916.772811,-9.684361,1.312769,2.802486,0.060628,-0.305433,0.092546
1765409916.775750,-9.687947,1.299617,2.550215,0.067653,-0.304058,0.107970
1765409916.777749,-9.634743,1.156145,2.566953,0.068264,-0.314901,0.101862
1765409916.780721,-9.801530,1.304400,3.127690,0.061545,-0.300851,0.097128
1765409916.782762,-9.619798,1.062888,2.776781,0.057269,-0.297491,0.106901
1765409916.785737,-9.637134,1.072453,2.520325,0.060934,-0.315359,0.099876
1765409916.787726,-9.668818,1.211143,2.740913,0.054062,-0.306043,0.093004
1765409916.790743,-9.344810,1.229077,2.550215,0.060323,-0.294284,0.105222
1765409916.792748,-9.661046,1.083812,3.031444,0.062308,-0.309098,0.101404
1765409916.795821,-10.111190,1.163917,3.482185,0.051313,-0.312305,0.093921
1765409916.797782,-9.772835,1.073051,2.810856,0.056352,-0.305433,0.097128
1765409916.800755,-9.113461,1.021042,2.020564,0.061087,-0.317650,0.097433
1765409916.801770,-9.416546,1.337876,2.520325,0.062614,-0.317345,0.094990
1765409916.805758,-9.855330,1.275108,3.418221,0.065515,-0.305433,0.099113
1765409916.807780,-9.640720,1.251195,2.968675,0.065515,-0.307113,0.099113
1765409916.810801,-9.161882,1.236250,2.210665,0.057574,-0.313832,0.102931
1765409916.812789,-9.385460,1.306791,2.694284,0.051007,-0.309403,0.100182
1765409916.815860,-9.763867,1.283477,3.106169,0.057421,-0.315054,0.107818
1765409916.817762,-9.604854,0.875179,2.868244,0.051618,-0.314290,0.109039
1765409916.820736,-9.565996,0.945122,2.549019,0.058643,-0.305738,0.100182
1765409916.821792,-9.350788,0.938546,2.352941,0.058643,-0.300088,0.102473
1765409916.823783,-9.645503,1.206958,3.106169,0.061545,-0.310930,0.094837
1765409916.827766,-9.688545,1.273314,3.170731,0.060628,-0.297491,0.099724
1765409916.830868,-9.499043,1.222501,2.945959,0.062919,-0.299324,0.111177
1765409916.832739,-9.532519,1.111310,2.764825,0.065515,-0.303905,0.108123
1765409916.835832,-9.857722,0.869201,3.201817,0.060018,-0.315206,0.111483
1765409916.837845,-9.757292,0.720349,3.046987,0.060323,-0.312305,0.099571
1765409916.840803,-9.334049,1.214132,2.424677,0.063225,-0.304974,0.095295
1765409916.844101,-9.437469,1.125060,2.918460,0.055894,-0.308945,0.101098
