time,acc_x_g,acc_y_g,acc_z_g,gyro_x_rad_s,gyro_y_rad_s,gyro_z_rad_s
1765410730.043517,-7.028933,1.444285,-6.722261,-0.007789,-0.003665,-0.000764
1765410730.043767,-7.028933,1.444285,-6.722261,-0.007789,-0.006109,-0.000764
1765410730.044017,-7.040888,1.449067,-6.567431,-0.007789,-0.007025,-0.002749
1765410730.044267,-6.937469,1.477762,-6.726446,-0.008094,-0.007025,-0.002291
1765410730.044517,-6.937469,1.477762,-6.726446,-0.008094,-0.006720,-0.002291
1765410730.044767,-6.970348,1.367169,-6.630798,-0.005345,-0.006261,0.000305
1765410730.045017,-6.993662,1.413199,-6.551291,-0.007483,-0.006261,-0.003665
1765410730.045267,-7.010999,1.670253,-6.678622,-0.005345,-0.002443,-0.004887
1765410730.045548,-6.882472,1.604495,-6.634385,-0.009927,-0.002443,-0.000305
1765410730.045798,-6.831061,1.380918,-6.672644,-0.009010,-0.003360,0.002902
1765410730.046048,-6.880678,1.272716,-6.403634,-0.005956,0.001985,0.000305
1765410730.046298,-6.951218,1.337876,-6.303801,-0.001374,0.006720,-0.001069
1765410730.046479,-6.967360,1.244022,-6.141797,0.000764,0.005803,-0.001833
1765410730.046679,-7.063605,1.368962,-6.136417,0.007025,0.008094,-0.003971
1765410730.046879,-7.186752,1.759923,-6.079626,0.007636,0.008247,-0.002749
1765410730.047079,-7.180774,1.802965,-6.174078,0.007330,0.009010,0.002291
1765410730.047279,-7.187947,1.386896,-6.373146,0.011606,0.009010,0.012675
1765410730.047462,-7.496412,1.165112,-6.218316,0.011454,0.010996,0.013439
1765410730.047712,-7.816833,1.195600,-6.148373,0.022297,0.014508,0.010690
1765410730.047962,-8.003346,1.501674,-6.064084,0.022602,0.009468,0.010079
1765410730.048212,-8.045193,1.840028,-6.172883,0.023060,0.006261,0.013286
1765410730.048454,-8.096603,1.738402,-6.311573,0.017410,0.002596,0.027642
1765410730.048704,-8.096603,1.738402,-6.311573,0.017410,-0.009010,0.027642
1765410730.048954,-8.182687,1.012673,-6.358201,0.018784,-0.009468,0.037110
1765410730.049204,-8.286704,0.975012,-6.184839,0.026878,-0.014355,0.035430
1765410730.049482,-8.314202,1.085007,-6.108321,0.031765,-0.023518,0.036194
1765410730.049732,-8.340506,1.513630,-6.070660,0.027031,-0.035125,0.040164
1765410730.049982,-8.340506,1.513630,-6.070660,0.027031,-0.045204,0.040164
1765410730.050232,-8.300453,1.304400,-6.168100,0.028100,-0.055894,0.059101
1765410730.050461,-8.224533,0.948709,-6.355810,0.024282,-0.066126,0.063683
1765410730.050711,-8.182687,0.737087,-6.565040,0.028558,-0.081398,0.062766
1765410730.050961,-8.197631,0.893711,-6.525585,0.035277,-0.081398,0.065057
1765410730.051211,-8.338115,1.245815,-6.276900,0.037110,-0.085979,0.066432
1765410730.051461,-8.313007,1.334888,-6.249999,0.034361,-0.099266,0.067653
1765410730.051711,-8.279531,1.431133,-6.560855,0.028558,-0.116981,0.069791
1765410730.051961,-8.258009,1.352224,-6.707316,0.025656,-0.128129,0.077427
1765410730.052211,-8.339311,1.035390,-6.658297,0.021991,-0.131031,0.085063
1765410730.052454,-8.546149,1.120875,-6.244021,0.022755,-0.141263,0.082314
1765410730.052704,-8.610711,1.197991,-6.126254,0.022755,-0.147677,0.090866
1765410730.052954,-8.389525,0.914036,-6.606885,0.023060,-0.164017,0.095906
1765410730.053204,-8.468435,1.317551,-6.481348,0.017715,-0.186619,0.094379
1765410730.053439,-8.739837,1.556073,-6.181252,0.013744,-0.193033,0.102014
1765410730.053689,-8.667502,1.171688,-6.284672,0.015424,-0.203571,0.113163
1765410730.053939,-8.671089,1.276901,-6.468793,0.009621,-0.221897,0.108429
1765410730.054189,-8.817550,1.536944,-6.171687,0.009010,-0.229380,0.114079
1765410730.054466,-8.609516,1.376734,-6.323529,0.009010,-0.244804,0.114079
1765410730.054716,-8.555714,1.370158,-6.422763,0.000764,-0.267101,0.121715
1765410730.054966,-8.372189,1.581779,-6.968555,-0.006872,-0.277638,0.124617
1765410730.055216,-8.414035,1.371353,-6.710903,-0.013744,-0.285885,0.130267
1765410730.055449,-8.481586,1.189622,-6.543519,-0.005498,-0.297033,0.136834
1765410730.055699,-8.676469,1.398852,-6.178861,-0.015272,-0.313832,0.126602
1765410730.055949,-8.647776,1.574605,-6.364179,-0.016188,-0.318566,0.129351
1765410730.056199,-8.393112,1.838235,-6.772476,-0.011454,-0.343306,0.139430
1765410730.056464,-8.272357,1.527379,-6.849593,-0.030543,-0.359800,0.141263
1765410730.056797,-8.525227,1.734816,-6.490913,-0.032834,-0.359800,0.142026
1765410730.057131,-8.569463,1.374940,-6.355810,-0.039248,-0.373850,0.145539
1765410730.057490,-8.645982,1.517814,-6.215925,-0.040164,-0.383929,0.139735
1765410730.057740,-8.645982,1.517814,-6.215925,-0.040164,-0.396910,0.139735
1765410730.057990,-8.745814,1.617049,-5.937948,-0.054520,-0.412639,0.131794
1765410730.058240,-8.302247,1.747369,-6.486130,-0.058643,-0.412639,0.130725
1765410730.058431,-8.046389,2.031324,-6.365375,-0.073609,-0.442572,0.129198
1765410730.058681,-7.991390,1.720468,-6.510042,-0.080481,-0.454331,0.129198
1765410730.058931,-7.991390,1.720468,-6.510042,-0.080481,-0.461203,0.129198
1765410730.059181,-7.642873,1.545911,-6.630798,-0.100029,-0.483805,0.128740
1765410730.059411,-7.884983,1.600909,-6.298420,-0.111483,-0.483805,0.120799
1765410730.059661,-7.806073,1.756337,-6.345647,-0.114232,-0.493426,0.114843
1765410730.059911,-7.861070,1.959589,-6.843615,-0.107054,-0.526413,0.111025
1765410730.060161,-8.161166,2.146102,-6.390482,-0.115454,-0.525039,0.112705
1765410730.060401,-7.947154,1.587757,-6.797584,-0.123242,-0.529620,0.117286
1765410730.060734,-7.975848,1.382114,-6.147178,-0.125227,-0.541990,0.107818
1765410730.061068,-7.599234,1.385700,-6.941654,-0.124464,-0.554208,0.102014
1765410730.061510,-7.948349,1.992468,-6.960783,-0.132710,-0.570701,0.089797
1765410730.061760,-8.005737,1.993065,-6.721664,-0.149662,-0.570701,0.097891
1765410730.062010,-8.569463,1.754543,-5.801052,-0.152105,-0.587652,0.092393
1765410730.062260,-8.365614,1.527977,-5.868005,-0.155160,-0.590249,0.091019
1765410730.062412,-8.220946,1.474175,-5.891917,-0.171042,-0.618501,0.078954
1765410730.062662,-8.235293,1.523195,-5.827354,-0.164170,-0.647364,0.082161
1765410730.062912,-8.322572,1.277499,-6.148373,-0.168141,-0.647364,0.074984
1765410730.063162,-8.574246,1.495696,-5.658177,-0.168141,-0.662483,0.074984
1765410730.063426,-8.126493,1.384505,-6.148971,-0.177304,-0.676075,0.064599
1765410730.063759,-8.395504,1.831659,-6.116690,-0.171500,-0.693943,0.066737
1765410730.064093,-7.683524,1.330703,-7.067192,-0.185856,-0.703106,0.071929
1765410730.064458,-7.974652,1.557867,-6.237445,-0.200058,-0.703106,0.060323
1765410730.064708,-8.231109,1.909373,-5.883548,-0.191506,-0.702495,0.065210
1765410730.064958,-7.999162,1.357006,-6.062888,-0.210290,-0.720974,0.065515
1765410730.065208,-8.419415,1.367766,-6.053323,-0.213803,-0.740369,0.050396
1765410730.065456,-8.419415,1.367766,-5.937948,-0.213803,-0.737009,0.050396
1765410730.065706,-8.211381,1.153156,-6.334290,-0.222813,-0.741285,0.050549
1765410730.065956,-8.819942,1.779053,-6.095169,-0.224798,-0.758542,0.032529
1765410730.066206,-8.305834,1.916547,-6.260161,-0.242514,-0.775188,0.023976
1765410730.066461,-7.770204,1.682209,-6.037182,-0.239917,-0.775188,0.036194
1765410730.066794,-7.770204,1.682209,-6.037182,-0.239917,-0.790612,0.036194
1765410730.067128,-8.020683,1.863940,-6.157340,-0.244193,-0.782518,0.027947
1765410730.067426,-7.887971,1.653515,-5.848876,-0.237627,-0.798554,0.040928
1765410730.067676,-8.363222,1.071258,-5.178144,-0.251982,-0.824974,0.033445
1765410730.067926,-8.662720,1.067671,-4.757293,-0.263130,-0.839634,0.020006
1765410730.068176,-8.741630,1.582974,-5.052008,-0.244041,-0.841925,0.026267
1765410730.068460,-7.835963,1.337876,-6.482543,-0.263588,-0.850935,0.022449
1765410730.068710,-7.767814,2.152678,-5.377809,-0.259465,-0.873537,0.021838
1765410730.068960,-7.964489,1.471784,-5.304877,-0.279318,-0.873690,0.040164
1765410730.069210,-8.407459,1.094572,-5.233141,-0.274126,-0.906982,0.037415
1765410730.069468,-8.407459,1.094572,-5.233141,-0.274126,-0.900415,0.037415
1765410730.069718,-8.130080,1.005500,-5.541606,-0.276111,-0.930348,0.014966
1765410730.069968,-7.994977,0.826757,-5.790291,-0.290772,-0.950354,0.003818
1765410730.070218,-7.853897,1.030009,-5.943328,-0.281609,-0.957531,-0.001985
1765410730.070447,-7.433045,1.426351,-6.108321,-0.297950,-0.957531,-0.011912
1765410730.070780,-7.513748,1.261358,-6.548900,-0.298255,-0.948521,0.003360
1765410730.071114,-7.717001,0.383788,-6.336680,-0.311541,-0.959517,-0.006567
1765410730.071471,-8.034432,0.708991,-5.370636,-0.306196,-0.965625,-0.033292
1765410730.071721,-8.283116,1.140005,-5.280367,-0.273515,-0.952186,-0.030238
1765410730.071971,-8.434958,1.385700,-4.641319,-0.269697,-0.952644,-0.040623
1765410730.072221,-8.284312,1.645146,-4.907938,-0.270613,-0.955088,-0.035736
1765410730.072502,-8.638807,1.746772,-5.533835,-0.277333,-0.971276,-0.042608
1765410730.072835,-9.125418,1.296030,-5.460306,-0.270766,-0.989449,-0.040775
1765410730.073169,-9.125418,1.296030,-5.460306,-0.270766,-0.970665,-0.040775
1765410730.073473,-9.818267,1.903993,-3.521042,-0.266643,-0.989602,-0.069333
1765410730.073723,-9.490674,2.279412,-4.381874,-0.285885,-0.980286,-0.066126
1765410730.073973,-8.870156,2.054041,-4.660449,-0.297186,-1.026559,-0.063988
1765410730.074223,-7.949545,1.204567,-6.172883,-0.318108,-1.036027,-0.067501
1765410730.074440,-8.181491,1.309182,-5.918220,-0.310320,-1.056644,-0.080940
1765410730.074690,-7.876613,1.125657,-5.919416,-0.315206,-1.061226,-0.085979
1765410730.074940,-7.550214,1.647537,-5.613940,-0.317955,-1.061226,-0.099571
1765410730.075190,-6.977522,1.447872,-6.288259,-0.338725,-1.043969,-0.103847
1765410730.075455,-6.865135,1.510043,-6.441893,-0.320552,-1.043969,-0.099571
1765410730.075788,-7.852701,1.316953,-6.419177,-0.320552,-1.037249,-0.106138
1765410730.076122,-8.940698,1.668460,-4.829627,-0.311694,-1.028392,-0.115912
1765410730.076477,-9.221066,1.090387,-3.940100,-0.315665,-1.033126,-0.118508
1765410730.076727,-8.884504,1.474175,-4.554040,-0.295659,-1.061684,-0.129503
1765410730.076977,-8.159970,1.470588,-5.376614,-0.309556,-1.061684,-0.142942
1765410730.077227,-8.304040,2.018173,-5.001195,-0.307265,-1.069472,-0.134390
1765410730.077473,-8.871352,1.808943,-4.279052,-0.307723,-1.085660,-0.129962
1765410730.077806,-10.107603,2.104256,-2.817432,-0.329104,-1.108720,-0.137139
1765410730.078140,-10.350309,2.176590,-3.291487,-0.320704,-1.110858,-0.128587
1765410730.078474,-8.814561,1.101148,-5.429220,-0.330325,-1.140485,-0.124769
1765410730.078724,-7.406742,1.006695,-6.734217,-0.335518,-1.174236,-0.150884
1765410730.078974,-7.520324,0.850072,-6.425752,-0.356593,-1.162324,-0.165850
1765410730.079224,-7.834169,1.444285,-6.138211,-0.341321,-1.154993,-0.170431
1765410730.079528,-8.601147,0.365854,-5.860831,-0.369115,-1.118800,-0.194561
1765410730.079861,-9.508607,2.055237,-4.439861,-0.323453,-1.112233,-0.204029
1765410730.080195,-8.858798,0.714969,-5.014347,-0.310167,-1.103223,-0.197462
1765410730.080481,-8.201816,0.908656,-5.368245,-0.307876,-1.151786,-0.228769
1765410730.080731,-7.992586,1.695361,-4.812290,-0.295506,-1.136362,-0.237932
1765410730.080981,-8.431372,1.626016,-4.780009,-0.283594,-1.127504,-0.230143
1765410730.081231,-8.215566,1.391081,-4.546867,-0.290008,-1.142318,-0.232434
1765410730.081483,-8.975369,2.234576,-4.532520,-0.294132,-1.184468,-0.240986
1765410730.081816,-9.635341,0.988761,-4.169655,-0.305585,-1.192256,-0.230296
1765410730.082150,-9.212098,1.170492,-4.878048,-0.292910,-1.192256,-0.245721
1765410730.082459,-9.212098,1.170492,-4.878048,-0.292910,-1.179734,-0.245721
1765410730.082709,-8.683642,1.044954,-4.488282,-0.304669,-1.180344,-0.267864
1765410730.082959,-8.577832,1.450861,-5.202056,-0.299171,-1.205848,-0.276417
1765410730.083209,-9.399808,1.416786,-4.662840,-0.307113,-1.200808,-0.281456
1765410730.084820,-8.181491,1.456241,-5.585844,-0.297339,-1.150870,-0.277180
1765410730.085153,-8.181491,1.456241,-5.585844,-0.297339,-1.147358,-0.277180
1765410730.085487,-8.420611,1.098756,-4.612625,-0.288634,-1.173930,-0.274278
1765410730.084902,-10.082495,1.095170,-2.828790,-0.282220,-1.187369,-0.288481
1765410730.085152,-11.243423,1.893830,-2.285987,-0.268170,-1.178512,-0.288328
1765410730.085402,-10.228358,2.154471,-3.381755,-0.263283,-1.202488,-0.279471
1765410730.085652,-9.242586,2.074964,-3.794834,-0.289856,-1.229061,-0.272904
1765410730.085477,-8.352462,0.522477,-5.081300,-0.307723,-1.263116,-0.277486
1765410730.085810,-8.090626,0.392755,-5.869798,-0.288023,-1.263116,-0.297186
1765410730.086144,-8.474413,-0.094452,-5.875178,-0.280082,-1.242653,-0.312305
1765410730.086514,-8.139048,1.022238,-5.803442,-0.285274,-1.218829,-0.348957
1765410730.086764,-7.671567,2.185557,-5.059780,-0.302836,-1.199129,-0.354302
1765410730.087014,-8.151602,2.073170,-5.478837,-0.299477,-1.235780,-0.337503
1765410730.087264,-7.780965,0.937948,-5.723337,-0.330936,-1.235780,-0.351095
1765410730.087535,-9.091941,1.708512,-4.221664,-0.302531,-1.206917,-0.362701
1765410730.087785,-8.891678,1.137613,-3.686035,-0.270919,-1.165073,-0.342543
1765410730.088035,-10.179936,0.956480,-3.125298,-0.265726,-1.223563,-0.360869
1765410730.088285,-9.916904,1.304400,-3.324964,-0.276111,-1.223410,-0.388816
1765410730.088521,-7.778574,1.507054,-5.664155,-0.258549,-1.226465,-0.377362
1765410730.088854,-7.778574,1.507054,-5.664155,-0.258549,-1.250288,-0.377362
1765410730.089188,-6.297823,2.157460,-6.231468,-0.260534,-1.223258,-0.386678
1765410730.089479,-9.053083,1.306193,-4.471544,-0.273820,-1.223258,-0.368810
1765410730.089729,-9.053083,1.306193,-4.471544,-0.273820,-1.217760,-0.368810
1765410730.089979,-8.648971,1.480153,-4.409373,-0.281762,-1.193936,-0.398742
1765410730.090229,-7.314681,1.120277,-5.752032,-0.283594,-1.192104,-0.401491
1765410730.090453,-8.036823,1.801171,-4.017216,-0.287259,-1.225396,-0.415236
1765410730.090786,-9.434480,2.185557,-3.607125,-0.290314,-1.222036,-0.406378
1765410730.091120,-9.803921,1.984696,-2.556193,-0.281151,-1.226159,-0.400575
1765410730.091504,-8.712338,1.385103,-3.806193,-0.276875,-1.233642,-0.403324
1765410730.091754,-8.593973,1.478359,-5.095647,-0.266490,-1.271669,-0.410807
1765410730.092004,-8.205403,0.123147,-5.379603,-0.278707,-1.310306,-0.426689
1765410730.092254,-8.798421,0.738881,-5.349114,-0.266185,-1.298547,-0.452498
1765410730.092463,-9.585126,1.074247,-4.904351,-0.252745,-1.251663,-0.465021
1765410730.092796,-10.112983,1.330703,-3.525825,-0.267254,-1.220967,-0.475864
1765410730.093130,-10.335963,1.765303,-3.505499,-0.269850,-1.206306,-0.483805
1765410730.093466,-9.561213,1.795791,-4.126016,-0.276875,-1.231199,-0.485332
1765410730.093716,-8.695600,1.042563,-4.120038,-0.286649,-1.231199,-0.483958
1765410730.093966,-10.652797,1.616451,-2.617169,-0.284358,-1.209360,-0.483958
1765410730.094216,-11.354614,1.669058,-1.403634,-0.300240,-1.176374,-0.494801
1765410730.094465,-11.050931,1.860354,-2.752271,-0.311389,-1.202335,-0.499688
1765410730.094798,-10.793877,1.880679,-3.541367,-0.335670,-1.231810,-0.505949
1765410730.095132,-10.295910,1.836442,-3.414634,-0.293215,-1.231810,-0.496939
1765410730.095489,-10.075322,1.267336,-3.686035,-0.273057,-1.211193,-0.482736
1765410730.095739,-10.478239,0.835724,-2.790531,-0.280387,-1.209360,-0.503658
1765410730.095989,-10.164392,1.450263,-3.522835,-0.264046,-1.209360,-0.518014
1765410730.096239,-10.164392,1.450263,-3.522835,-0.264046,-1.214706,-0.518014
1765410730.096453,-9.165470,1.627212,-4.265901,-0.241750,-1.215622,-0.502284
1765410730.096786,-10.300095,1.475968,-2.728359,-0.268017,-1.172556,-0.513738
1765410730.097120,-9.479913,0.947513,-2.682329,-0.259923,-1.175457,-0.505491
1765410730.097454,-9.011238,0.697035,-3.672285,-0.265268,-1.212415,-0.514349
1765410730.097704,-9.937828,1.447872,-2.767814,-0.272751,-1.242194,-0.536340
1765410730.097954,-9.945600,1.728838,-2.381635,-0.262367,-1.253648,-0.527482
1765410730.098204,-8.495934,0.823768,-4.519966,-0.274278,-1.273043,-0.526566
1765410730.098453,-8.467239,1.024032,-5.560138,-0.286649,-1.295340,-0.545503
1765410730.098786,-7.802486,0.737685,-5.506934,-0.283441,-1.263727,-0.543059
1765410730.099120,-9.270683,0.747250,-4.561812,-0.251982,-1.257772,-0.548099
1765410730.099443,-9.956359,1.040172,-2.612984,-0.262825,-1.224327,-0.572992
1765410730.099693,-9.948587,2.465327,-2.444404,-0.263894,-1.189355,-0.560011
1765410730.099943,-8.329745,1.621831,-4.982663,-0.256411,-1.237613,-0.532827
1765410730.100193,-9.140363,1.377331,-3.687231,-0.275042,-1.237613,-0.552986
1765410730.100444,-11.951218,2.312888,0.002391,-0.269697,-1.190729,-0.545808
1765410730.100777,-11.294833,1.269727,-1.747967,-0.264046,-1.156521,-0.512516
1765410730.101111,-9.961142,0.948709,-2.937589,-0.301615,-1.209666,-0.557567
1765410730.101434,-9.911524,2.344572,-3.257412,-0.303447,-1.218982,-0.562149
1765410730.101684,-9.460185,1.129842,-3.911406,-0.288939,-1.210277,-0.516639
1765410730.101934,-10.534431,1.231468,-2.777977,-0.310472,-1.221272,-0.549168
1765410730.102184,-11.157938,1.524390,-2.756456,-0.333532,-1.153314,-0.562149
1765410730.102476,-9.342419,0.977403,-4.390244,-0.316428,-1.176068,-0.547335
1765410730.102809,-9.285029,0.837518,-3.979555,-0.312152,-1.212567,-0.576351
1765410730.103142,-9.757890,1.715686,-1.836442,-0.291994,-1.180344,-0.578948
1765410730.103468,-9.757890,1.715686,-1.836442,-0.291994,-1.171945,-0.578948
1765410730.103718,-8.702773,0.899689,-2.975848,-0.286649,-1.207528,-0.585820
1765410730.103968,-10.148851,2.471305,-2.091702,-0.267864,-1.210429,-0.582307
1765410730.104218,-10.455523,1.548900,-1.197991,-0.261756,-1.205084,-0.550695
1765410730.104529,-11.097560,1.029412,-1.353419,-0.273209,-1.236849,-0.563676
1765410730.104779,-9.335245,0.789096,-3.824725,-0.278249,-1.229061,-0.569632
1765410730.105029,-8.751793,1.010880,-4.931850,-0.280082,-1.263727,-0.582613
1765410730.105279,-8.804996,1.414993,-4.934839,-0.281151,-1.244485,-0.581086
1765410730.105460,-9.026780,2.280607,-4.377092,-0.282831,-1.187369,-0.574824
1765410730.105793,-8.407459,1.691774,-3.177905,-0.303600,-1.158659,-0.557567
1765410730.106127,-7.951936,0.777140,-4.852343,-0.314137,-1.191645,-0.560163
1765410730.106451,-8.605929,0.925992,-3.476805,-0.316581,-1.154077,-0.582765
1765410730.106701,-9.662840,2.541846,-3.030248,-0.279624,-1.154077,-0.565356
1765410730.106951,-9.705881,1.583572,-2.063606,-0.285274,-1.150259,-0.543517
1765410730.107201,-10.003586,1.197991,-1.243424,-0.314443,-1.164920,-0.559247
1765410730.107461,-9.972500,0.983979,-2.926829,-0.300698,-1.171181,-0.558942
1765410730.107794,-9.212098,0.348517,-3.403276,-0.286496,-1.191951,-0.563829
1765410730.108128,-9.811094,1.199785,-2.331420,-0.291841,-1.185537,-0.587194
1765410730.108487,-10.163198,1.828073,-1.990674,-0.296728,-1.149190,-0.587194
1765410730.108737,-9.210902,1.194404,-3.063127,-0.313527,-1.175305,-0.576962
1765410730.108987,-10.197272,1.293639,-3.867766,-0.312305,-1.175305,-0.583529
1765410730.109237,-10.197272,1.293639,-3.867766,-0.312305,-1.138806,-0.583529
1765410730.109495,-10.796268,1.175275,-1.484337,-0.318566,-1.140791,-0.570854
1765410730.109828,-10.093853,1.271520,-1.840028,-0.346819,-1.138653,-0.589027
1765410730.110162,-9.716641,2.239359,-1.618842,-0.355676,-1.152092,-0.582155
1765410730.110444,-9.826636,1.464012,-1.668460,-0.334296,-1.152092,-0.555887
1765410730.110694,-9.826636,1.464012,-1.668460,-0.334296,-1.189507,-0.555887
1765410730.110944,-10.548181,1.490913,-1.339670,-0.312610,-1.209208,-0.542601
1765410730.111194,-9.464968,0.070540,-3.388330,-0.307113,-1.226159,-0.538783
1765410730.111450,-9.833811,0.845289,-3.681252,-0.285274,-1.230893,-0.556804
1765410730.111783,-11.105929,0.704208,-2.013391,-0.279318,-1.185995,-0.557262
1765410730.112117,-10.588234,1.486131,-2.031922,-0.283900,-1.146747,-0.554513
1765410730.112453,-10.277378,2.115016,-2.673959,-0.284816,-1.162171,-0.542907
1765410730.112703,-9.817072,1.074844,-2.218436,-0.313221,-1.162171,-0.530078
1765410730.112953,-10.133906,0.740076,-2.309899,-0.308029,-1.157132,-0.530078
1765410730.113203,-10.827354,0.657580,-1.578192,-0.310778,-1.133613,-0.541532
1765410730.113479,-10.994738,1.177666,-1.614060,-0.317650,-1.100779,-0.538936
1765410730.113812,-10.862025,1.064084,-1.317551,-0.317650,-1.130712,-0.536798
1765410730.114146,-10.007172,0.704806,-1.625418,-0.341932,-1.148274,-0.543517
1765410730.114467,-10.007172,0.704806,-1.625418,-0.341932,-1.156062,-0.543517
1765410730.114717,-10.037660,0.656982,-2.413319,-0.316886,-1.132086,-0.540768
1765410730.114967,-10.107603,1.428144,-2.290770,-0.315359,-1.137431,-0.552222
1765410730.115217,-10.181131,1.738402,-2.480272,-0.313527,-1.125825,-0.551764
1765410730.115458,-8.943088,1.357604,-2.686513,-0.318261,-1.119563,-0.530842
1765410730.115791,-8.943088,1.357604,-2.686513,-0.318261,-1.108110,-0.530842
1765410730.116125,-8.064322,0.720349,-3.185079,-0.330173,-1.099099,-0.530231
1765410730.116430,-8.538976,1.449067,-2.757054,-0.335365,-1.099099,-0.536798
1765410730.116680,-9.729793,1.895624,-2.177188,-0.330936,-1.108568,-0.516639
1765410730.116930,-10.963054,1.391678,-0.847680,-0.353691,-1.108568,-0.503200
1765410730.117180,-10.716163,1.818508,-0.827355,-0.359189,-1.101543,-0.501826
1765410730.117394,-11.932089,1.626016,-0.020325,-0.367588,-1.109179,-0.485638
1765410730.117727,-9.030965,-0.119560,-3.806791,-0.386372,-1.121854,-0.471130
1765410730.118061,-9.467957,0.245696,-3.053563,-0.386372,-1.168738,-0.513279
1765410730.118428,-10.035867,1.062291,-1.835246,-0.345292,-1.103681,-0.501215
1765410730.118678,-9.716043,1.620038,-2.472501,-0.315817,-1.076955,-0.472352
1765410730.118928,-9.984456,1.566834,-2.009804,-0.334449,-1.071152,-0.478613
1765410730.119178,-9.696316,0.539216,-1.437111,-0.328798,-1.063364,-0.464868
1765410730.119434,-8.868961,-0.338355,-2.831779,-0.318566,-1.067945,-0.467770
1765410730.119684,-9.950979,0.808226,-2.385820,-0.307113,-1.082300,-0.499535
1765410730.119934,-10.974413,1.529172,-0.034075,-0.313985,-1.019840,-0.497092
1765410730.120184,-11.145981,1.151363,-0.466882,-0.319788,-1.021978,-0.476475
1765410730.120477,-10.536225,1.278096,-1.520803,-0.336129,-1.041831,-0.480293
1765410730.120810,-10.605570,1.199785,-1.835246,-0.336129,-1.052521,-0.480293
1765410730.121144,-10.854256,1.080225,-1.490315,-0.337961,-1.033737,-0.456622
1765410730.121464,-10.908655,0.854854,-0.587040,-0.350331,-1.015258,-0.468686
1765410730.121714,-10.052606,0.607365,-1.238642,-0.369421,-0.992045,-0.474184
1765410730.121964,-8.717119,1.302009,-3.617886,-0.339336,-1.015716,-0.470366
1765410730.122214,-8.437947,0.966045,-2.975251,-0.332005,-1.021061,-0.456927
1765410730.122442,-9.287420,1.550096,-1.927307,-0.319330,-0.982119,-0.456774
1765410730.122775,-9.837397,0.548780,-1.210545,-0.326966,-0.963335,-0.448986
1765410730.123109,-10.236728,0.809421,-1.524390,-0.319635,-0.979828,-0.451429
1765410730.123424,-11.007890,1.261358,-1.175275,-0.313679,-0.973261,-0.447306
1765410730.123674,-11.289453,0.936155,0.524868,-0.315817,-0.959211,-0.428675
1765410730.123924,-12.746890,1.243424,0.955284,-0.319941,-0.960433,-0.428064
1765410730.124174,-11.920730,0.374223,0.650406,-0.341474,-0.961960,-0.430507
1765410730.124451,-11.226684,0.716164,-0.346724,-0.331089,-1.003193,-0.430660
1765410730.124784,-11.133427,0.939742,-0.227164,-0.325438,-1.003193,-0.423177
1765410730.125118,-10.756814,1.006695,-1.394070,-0.346819,-0.988991,-0.419512
1765410730.125420,-11.517216,0.716164,-0.846485,-0.361327,-0.974788,-0.416457
1765410730.125670,-11.888450,0.434003,-0.918221,-0.361327,-0.957379,-0.416457
1765410730.125920,-12.020563,0.484218,0.512912,-0.339030,-0.908967,-0.408516
1765410730.126170,-11.905785,1.321736,0.092659,-0.311389,-0.908967,-0.401186
1765410730.126417,-10.700022,1.028814,-0.075323,-0.285885,-0.901484,-0.383929
1765410730.126667,-9.592299,0.265423,-1.114299,-0.281914,-0.910647,-0.373086
1765410730.126917,-8.766139,0.239120,-2.624940,-0.266032,-0.898125,-0.382554
1765410730.127167,-8.483978,0.453132,-2.470110,-0.259618,-0.898125,-0.384845
1765410730.127424,-8.645384,0.802248,-2.752869,-0.251218,-0.886365,-0.379500
1765410730.127757,-9.557029,1.304400,-0.871592,-0.243888,-0.897819,-0.373544
1765410730.128091,-9.962935,0.731707,-0.499761,-0.263436,-0.866207,-0.366825
1765410730.128427,-9.589908,0.780727,-1.009086,-0.259770,-0.881020,-0.357662
1765410730.128677,-8.763748,0.106408,-1.983500,-0.267712,-0.884991,-0.355524
1765410730.128927,-9.783595,0.691057,-1.279890,-0.271071,-0.905913,-0.373239
1765410730.129177,-9.539692,0.920612,-1.322334,-0.259312,-0.858724,-0.363923
1765410730.129426,-8.419415,0.884744,-2.686513,-0.260381,-0.852462,-0.344070
1765410730.129759,-8.851027,0.749043,-2.684720,-0.259465,-0.852462,-0.350026
1765410730.130093,-8.863581,0.588235,-1.991870,-0.256105,-0.832915,-0.338877
1765410730.130422,-9.195958,0.421449,-1.805356,-0.244499,-0.820392,-0.340252
1765410730.130672,-9.447632,0.911645,-0.854854,-0.237321,-0.798095,-0.340557
1765410730.130922,-11.205163,1.262554,0.198470,-0.226478,-0.779769,-0.333685
1765410730.131172,-11.426948,1.059302,0.626494,-0.220675,-0.779769,-0.306349
1765410730.131463,-10.648014,0.367647,-0.274988,-0.220675,-0.772745,-0.306349
1765410730.131713,-10.016139,0.281564,-0.355691,-0.204334,-0.755640,-0.306043
1765410730.131963,-9.612624,-0.422047,-0.836920,-0.211818,-0.772745,-0.304669
1765410730.132213,-9.760879,0.574486,-0.665351,-0.193797,-0.793819,-0.304669
1765410730.132457,-9.275465,0.939742,-0.386179,-0.195171,-0.758847,-0.316886
1765410730.132790,-9.094930,0.829149,-0.991152,-0.193186,-0.750906,-0.291841
1765410730.133124,-9.241390,0.873984,-0.558943,-0.198226,-0.764651,-0.286954
1765410730.133434,-9.884026,0.564323,-0.026303,-0.201738,-0.764651,-0.280387
1765410730.133684,-9.884026,0.564323,-0.026303,-0.201738,-0.753502,-0.280387
1765410730.133934,-9.086560,0.368245,-1.085007,-0.192575,-0.744950,-0.281914
1765410730.134184,-9.194164,0.786107,-1.003108,-0.180816,-0.727082,-0.280082
1765410730.134444,-9.580342,0.516499,-0.261836,-0.170126,-0.731511,-0.263588
1765410730.134777,-9.674795,0.357484,-0.284553,-0.173486,-0.733344,-0.270308
1765410730.135111,-9.674795,0.357484,-0.284553,-0.173486,-0.685544,-0.270308
1765410730.135474,-8.778095,0.968436,-1.027618,-0.153633,-0.667065,-0.241444
1765410730.135724,-8.577235,0.022716,-1.302009,-0.160658,-0.666454,-0.239612
1765410730.135974,-9.270085,0.781922,-0.206241,-0.140652,-0.656986,-0.253967
1765410730.136224,-8.348875,0.279770,-0.865614,-0.124311,-0.612392,-0.227395
1765410730.136455,-7.199306,-0.004782,-2.353539,-0.108581,-0.619265,-0.223882
1765410730.136705,-7.641080,0.208034,-1.047346,-0.113774,-0.584751,-0.241750
1765410730.136955,-8.237684,0.620516,-0.344333,-0.101556,-0.584751,-0.229685
1765410730.137205,-8.243662,0.294118,-1.092778,-0.085521,-0.583987,-0.212428
1765410730.137482,-8.036823,0.608560,-1.172286,-0.091172,-0.583987,-0.228311
1765410730.137732,-7.962697,0.630081,-1.085605,-0.085979,-0.552375,-0.210901
1765410730.137982,-7.731945,0.604974,-1.342659,-0.058185,-0.553597,-0.191354
1765410730.138232,-8.128885,0.111191,-1.009684,-0.074526,-0.553444,-0.199906
1765410730.138454,-8.635221,0.207437,-0.511717,-0.065210,-0.524581,-0.195324
1765410730.138787,-8.395504,-0.095050,-0.792085,-0.056352,-0.506865,-0.189216
1765410730.139121,-8.645384,0.296509,-0.569106,-0.046578,-0.518319,-0.196393
1765410730.139449,-8.809779,0.483022,-0.208632,-0.045357,-0.496939,-0.194255
1765410730.139699,-8.934719,0.225968,0.077714,-0.040012,-0.477086,-0.178373
1765410730.139949,-8.344690,0.008967,-1.104735,-0.040012,-0.473268,-0.178373
1765410730.140199,-8.628645,0.096844,0.197872,-0.036346,-0.475711,-0.186161
1765410730.140423,-8.142036,0.382592,-0.826757,-0.018021,-0.457385,-0.176540
1765410730.140673,-8.081060,0.538020,-1.006695,-0.014813,-0.461203,-0.166614
1765410730.140923,-7.999162,0.246294,-1.016260,-0.023976,-0.428827,-0.164934
1765410730.141173,-8.342299,0.261836,-0.639048,-0.008705,-0.420275,-0.155007
1765410730.141433,-8.121113,0.107604,-0.454328,-0.002902,-0.403324,-0.158367
1765410730.141683,-8.393112,0.718556,-0.914634,-0.003512,-0.399353,-0.154702
1765410730.141933,-9.067430,0.758010,0.014347,0.002902,-0.374155,-0.141568
1765410730.142183,-8.933523,0.416667,0.035270,0.015272,-0.350942,-0.124617
1765410730.142428,-8.953849,0.227762,0.212817,0.016341,-0.333685,-0.127671
1765410730.142678,-8.506694,0.035868,-0.451937,0.025504,-0.316886,-0.122784
1765410730.142928,-8.419415,-0.260641,-0.743065,0.028863,-0.326660,-0.118661
1765410730.143178,-9.068626,0.176949,0.138690,0.037568,-0.316886,-0.132863
1765410730.143396,-8.948468,0.453132,0.404113,0.038637,-0.277333,-0.127518
1765410730.143646,-8.287301,0.927188,-0.563128,0.048717,-0.272904,-0.111177
1765410730.143896,-8.076278,0.414873,-0.775944,0.046578,-0.284816,-0.098349
1765410730.144146,-8.491750,0.087877,-0.270803,0.046578,-0.280693,-0.098349
1765410730.144404,-8.903036,0.585844,-0.054998,0.066890,-0.248317,-0.099266
1765410730.144604,-8.690817,0.571497,0.047824,0.061545,-0.240528,-0.094226
1765410730.144804,-8.505499,0.688666,-0.412482,0.049327,-0.230754,-0.095600
1765410730.145004,-8.579626,0.552367,-0.493783,0.064599,-0.231060,-0.083230
1765410730.145204,-8.164752,0.198470,-0.589431,0.064446,-0.203571,-0.082314
1765410730.145411,-8.606526,0.818986,0.000000,0.071319,-0.200517,-0.087201
1765410730.145661,-8.750597,0.986370,0.497370,0.067195,-0.174707,-0.081703
1765410730.145911,-8.272357,0.951698,-0.906265,0.071777,-0.178067,-0.065973
1765410730.146161,-8.260401,0.929579,-0.799259,0.063225,-0.171042,-0.064294
1765410730.146442,-8.355451,0.667145,-0.175753,0.066279,-0.142790,-0.057879
1765410730.146692,-8.638210,0.872788,0.121353,0.070555,-0.134085,-0.054367
1765410730.146942,-8.483978,0.750837,-0.249283,0.057269,-0.131641,-0.056810
1765410730.147192,-8.932925,0.987566,0.160210,0.059559,-0.122937,-0.058796
1765410730.147434,-8.963414,0.947513,-0.052606,0.071777,-0.108581,-0.049175
1765410730.147684,-8.779291,1.117886,-0.023912,0.065973,-0.108581,-0.047647
1765410730.147934,-8.776899,1.047346,0.001196,0.051771,-0.083383,-0.050855
1765410730.148184,-8.741032,1.175275,-0.045433,0.058185,-0.080634,-0.043830
1765410730.148436,-8.851027,0.780727,-0.092061,0.050396,-0.082314,-0.041692
1765410730.148686,-8.931132,1.181253,0.116571,0.048869,-0.046273,-0.046731
1765410730.148936,-8.963414,1.156145,0.199067,0.045968,-0.046273,-0.037874
1765410730.149186,-8.963414,1.156145,0.199067,0.045968,-0.053756,-0.037874
1765410730.149406,-8.894068,1.055715,-0.089670,0.037110,-0.053756,-0.029474
1765410730.149656,-8.785269,0.975610,-0.244500,0.032529,-0.042913,-0.029169
1765410730.149906,-8.688426,0.920014,-0.423840,0.029932,-0.023366,-0.024740
1765410730.150156,-8.964609,1.128646,0.096844,0.030391,-0.020006,-0.024129
1765410730.150426,-8.964609,1.128646,0.096844,0.030391,-0.007941,-0.024129
1765410730.150626,-9.082973,1.046748,0.246891,0.021686,-0.010843,-0.014661
1765410730.150826,-9.092538,0.614538,-0.014347,0.015577,-0.010843,-0.014966
1765410730.151026,-9.326278,0.708991,0.178144,0.012828,-0.007025,-0.017562
1765410730.151226,-9.255737,0.729914,0.038259,0.012523,0.010843,-0.019242
1765410730.151397,-9.207913,0.853658,0.019130,0.014050,0.013439,-0.014813
1765410730.151597,-9.275465,0.785509,0.185916,0.003971,0.025962,-0.013897
1765410730.151797,-9.487684,0.871592,0.370636,0.007025,0.025962,-0.010079
1765410730.151997,-9.471543,0.558345,0.124342,-0.000916,0.026878,-0.010690
1765410730.152197,-9.524150,0.545791,0.011956,-0.001680,0.024435,-0.010690
1765410730.152401,-9.779410,0.498565,0.060976,-0.005498,0.031154,-0.011454
1765410730.152651,-10.027497,0.591822,0.088474,-0.006720,0.032223,-0.012370
1765410730.152901,-10.243901,0.448350,0.008369,-0.010996,0.032223,-0.010996
1765410730.153151,-10.430414,0.461502,0.041846,-0.014050,0.026114,-0.010996
1765410730.153443,-10.508130,0.339550,-0.102822,-0.012370,0.015730,-0.009468
1765410730.153643,-10.521877,0.379005,-0.228957,-0.013897,0.015730,-0.008247
1765410730.153843,-10.521877,0.379005,-0.228957,-0.013897,0.020769,-0.008247
1765410730.154043,-10.474054,-0.028694,-0.338355,-0.013134,0.011301,-0.002749
1765410730.154243,-10.474054,-0.028694,-0.338355,-0.013134,0.010690,-0.002749
1765410730.154429,-10.311452,-0.015543,-0.577475,-0.017104,0.010690,-0.012370
1765410730.154629,-10.131515,0.010760,-0.557150,-0.013134,0.007330,-0.009621
1765410730.154829,-10.298302,-0.115973,-0.054400,-0.014661,0.001985,-0.002596
1765410730.155029,-10.126732,-0.657580,-0.236131,-0.010232,0.002291,0.000000
1765410730.155229,-10.111788,-0.256456,-0.115973,-0.003360,0.000153,-0.014508
1765410730.155435,-10.169774,0.108800,0.206839,-0.008399,0.003512,-0.014813
1765410730.155685,-10.338352,0.358680,0.405308,-0.009316,-0.003512,-0.008247
1765410730.155935,-10.438784,0.186514,0.410091,-0.014661,-0.005651,0.001833
1765410730.156185,-10.263031,-0.324008,0.285748,-0.015424,-0.016188,0.004581
1765410730.156409,-10.194283,-0.462697,0.344333,-0.010996,-0.016188,-0.003360
1765410730.156609,-10.307866,-0.111191,0.601387,-0.012370,-0.013439,-0.008552
1765410730.156809,-10.282160,0.181731,0.606169,-0.011606,-0.009316,-0.009621
1765410730.157009,-10.269009,0.147657,0.680296,-0.016952,-0.014966,0.000611
1765410730.157209,-10.162600,-0.115973,0.572095,-0.016952,-0.020922,0.006414
1765410730.157449,-9.978478,-0.418460,0.292324,-0.014661,-0.026114,0.003207
1765410730.157649,-9.900764,-0.447154,0.314443,-0.010690,-0.023213,-0.001833
1765410730.157849,-9.884026,-0.201459,0.356289,-0.011148,-0.023213,-0.005498
1765410730.158049,-9.884026,0.115973,0.371832,-0.007483,-0.023671,-0.002596
1765410730.158249,-9.802128,0.066954,0.355093,-0.009774,-0.021991,0.004734
1765410730.158469,-9.751313,-0.325203,0.328790,-0.010690,-0.022144,0.009163
1765410730.158719,-9.751313,-0.325203,0.328790,-0.010690,-0.024435,0.009163
1765410730.158969,-9.833811,-0.349115,0.261836,-0.002596,-0.021075,0.000305
1765410730.159219,-9.788378,-0.062171,0.281564,-0.003512,-0.017562,-0.004734
1765410730.159450,-9.918698,0.120756,0.506934,-0.002902,-0.018021,-0.000305
1765410730.159650,-9.933045,0.041846,0.413678,-0.004123,-0.019090,0.007789
1765410730.159850,-9.800333,-0.198470,0.345528,-0.004123,-0.017257,0.007789
1765410730.160050,-9.812887,-0.242707,0.382592,-0.000611,-0.018937,0.000764
1765410730.160250,-9.845766,-0.031086,0.454328,0.001833,-0.017868,-0.004887
1765410730.160441,-9.824843,0.179340,0.418460,0.002596,-0.017257,-0.003818
1765410730.160641,-9.689142,0.192492,0.310856,-0.001222,-0.010843,0.002138
1765410730.160841,-9.703490,0.088474,0.384983,-0.002138,-0.015577,0.006414
1765410730.161041,-9.832614,-0.007174,0.459110,-0.005345,-0.014508,0.006261
1765410730.161241,-9.795551,-0.068747,0.358680,-0.005651,-0.008247,0.002902
1765410730.161415,-9.745336,-0.016738,0.312649,-0.004123,-0.007330,-0.000764
1765410730.161615,-9.781204,0.124342,0.524868,-0.005498,-0.013592,-0.000764
1765410730.161815,-9.803323,0.174558,0.439981,-0.003971,-0.007330,0.001833
1765410730.162015,-9.653275,0.117169,0.246891,-0.007178,-0.005498,0.002291
1765410730.162215,-9.620397,-0.027499,0.248685,-0.009316,-0.008247,0.003665
1765410730.162416,-9.753107,-0.049020,0.414275,-0.006414,-0.005192,0.000764
1765410730.162616,-9.806910,0.113582,0.395744,-0.004429,-0.005192,-0.002749
1765410730.162816,-9.733380,0.194285,0.222382,-0.010079,-0.003360,0.001680
1765410730.163016,-9.764465,0.069345,0.285748,-0.010996,-0.000611,0.004887
1765410730.163216,-9.861309,-0.017934,0.463893,-0.012065,-0.003512,0.002596
1765410730.163419,-9.886416,-0.004782,0.389766,-0.007636,-0.000458,-0.000916
1765410730.163586,-9.746531,0.020325,0.169775,-0.006872,0.002749,0.000000
1765410730.163752,-9.906742,-0.019130,0.345528,-0.010996,-0.001527,-0.001833
1765410730.163919,-10.115973,-0.017336,0.527260,-0.008247,0.000458,-0.001833
1765410730.164086,-10.094451,0.019130,0.420851,-0.005192,0.000458,-0.000916
1765410730.164252,-9.947989,0.014347,0.278575,-0.008552,0.002443,-0.002443
1765410730.164463,-9.938425,-0.096844,0.329986,-0.007330,-0.000305,-0.001374
1765410730.164663,-10.075322,-0.024510,0.431612,-0.007941,-0.001374,-0.004887
1765410730.164863,-10.019128,0.013152,0.305476,-0.010843,0.000458,-0.003207
1765410730.165063,-9.864896,0.028097,0.208632,-0.008094,-0.000611,-0.002902
1765410730.165263,-9.967718,0.045433,0.375418,-0.006872,-0.003207,-0.004276
1765410730.166416,-10.111788,0.036466,0.515304,-0.008705,-0.004581,-0.002902
1765410730.166666,-9.989238,0.011956,0.370636,-0.010232,-0.001069,-0.002291
1765410730.166916,-9.907937,0.028694,0.282759,-0.010690,-0.003665,-0.001680
1765410730.167166,-9.985652,-0.057987,0.401124,-0.009774,-0.003665,-0.001374
1765410730.166458,-10.038258,-0.056193,0.401722,-0.008705,-0.005040,-0.002749
1765410730.166658,-9.921089,-0.016738,0.223577,-0.006720,-0.001374,-0.001833
1765410730.166858,-9.748325,-0.072932,-0.004185,-0.009163,0.000153,-0.001985
1765410730.167058,-9.876852,-0.076518,0.242707,-0.009621,-0.005345,-0.000305
1765410730.167258,-10.050214,-0.127929,0.414873,-0.009927,-0.005345,-0.001222
1765410730.167409,-10.044236,-0.065758,0.424438,-0.010996,-0.004734,-0.002902
1765410730.167609,-9.875058,-0.028694,0.166188,-0.010843,0.000916,-0.001374
1765410730.167809,-9.857125,-0.102822,0.188905,-0.010232,0.000000,-0.000916
1765410730.168009,-9.857125,-0.102822,0.188905,-0.010232,-0.006872,-0.000916
1765410730.168209,-10.070539,-0.119560,0.368245,-0.009163,-0.006414,0.001680
1765410730.168414,-9.913317,-0.072932,0.133907,-0.009163,-0.001833,0.001680
1765410730.168614,-9.862504,-0.105213,0.208034,-0.007178,-0.012370,-0.001374
1765410730.168814,-10.102820,-0.109397,0.487207,-0.006567,-0.012370,-0.001222
1765410730.169014,-10.102820,-0.109397,0.487207,-0.006567,-0.007636,-0.001222
1765410730.169214,-9.956359,-0.087877,0.224773,-0.006109,-0.003665,0.000000
1765410730.169425,-9.967718,-0.096844,0.322812,-0.008399,-0.008094,-0.000764
1765410730.169625,-10.105211,-0.065758,0.492587,-0.005192,-0.011454,-0.003054
1765410730.169825,-10.082495,0.006576,0.404113,-0.005040,-0.007178,-0.001222
1765410730.170025,-9.890003,-0.010760,0.191296,-0.006720,-0.004276,0.000000
1765410730.170225,-9.837397,-0.038857,0.265423,-0.006414,-0.010996,0.002749
1765410730.170490,-10.016738,-0.022716,0.483620,-0.006414,-0.017257,0.001527
1765410730.170690,-9.986848,-0.040650,0.432209,-0.005651,-0.010843,0.000305
1765410730.170890,-9.867885,0.002391,0.206839,-0.005345,-0.010843,-0.000458
1765410730.171090,-9.820659,0.031086,0.261836,-0.006109,-0.009621,-0.000153
1765410730.171290,-9.977880,-0.023314,0.501554,-0.010537,-0.010996,0.002291
1765410730.171482,-10.013150,-0.035868,0.453132,-0.010232,-0.010996,0.002443
1765410730.171682,-10.013150,-0.035868,0.453132,-0.010232,-0.006109,0.002443
1765410730.171882,-9.747727,0.000598,0.197274,-0.009621,-0.007330,0.000000
1765410730.172082,-9.841581,-0.020325,0.339550,-0.007636,-0.009927,-0.001222
1765410730.172282,-9.935436,-0.017336,0.437590,-0.008094,-0.006414,-0.000305
1765410730.172514,-9.842180,0.026303,0.243305,-0.006109,-0.007025,0.000153
1765410730.172714,-9.842180,0.026303,0.243305,-0.006109,-0.002749,0.000153
1765410730.172914,-9.919893,0.004782,0.410689,-0.006872,-0.006109,-0.002902
1765410730.173114,-10.081299,-0.016738,0.563128,-0.008552,-0.008858,-0.000305
1765410730.173314,-9.937828,-0.021521,0.326399,-0.005651,-0.004887,-0.000916
1765410730.173471,-9.758488,-0.011956,0.160210,-0.008552,-0.005956,-0.001680
1765410730.173671,-9.758488,-0.011956,0.160210,-0.008552,-0.009316,-0.001680
1765410730.173871,-10.074127,0.023912,0.553563,-0.009163,-0.008705,-0.000916
1765410730.174071,-9.980869,-0.007174,0.350311,-0.007178,-0.006567,-0.000305
1765410730.174271,-9.802725,-0.046628,0.239120,-0.008094,-0.010079,-0.001374
1765410730.174461,-9.869678,-0.027499,0.356887,-0.009621,-0.010079,-0.004429
1765410730.174661,-9.999401,0.011956,0.389766,-0.008858,-0.011606,-0.000305
1765410730.174861,-9.842180,0.001196,0.199067,-0.008247,-0.004581,-0.000611
1765410730.175061,-9.793160,-0.095648,0.173362,-0.009468,-0.004734,-0.001527
1765410730.175261,-9.971304,-0.015543,0.464491,-0.008094,-0.002749,-0.002749
1765410730.175428,-10.071735,-0.006576,0.471066,-0.007941,-0.002749,-0.001527
1765410730.175628,-10.008368,0.004782,0.319823,-0.007636,-0.001833,0.000305
1765410730.175828,-9.931850,-0.083692,0.309660,-0.008858,-0.005651,-0.001222
1765410730.176028,-9.996411,-0.049020,0.390961,-0.010079,-0.005651,-0.001680
1765410730.176228,-9.996411,-0.049020,0.390961,-0.010079,-0.007178,-0.001680
1765410730.176454,-9.895982,-0.053802,0.274988,-0.011759,-0.003818,-0.000305
1765410730.176654,-9.962935,-0.081301,0.367049,-0.010690,-0.007789,0.000153
1765410730.176854,-10.063366,-0.054400,0.446557,-0.008247,-0.006109,-0.002596
1765410730.177054,-10.014346,-0.044237,0.304280,-0.010843,-0.005192,-0.001374
1765410730.177254,-9.886416,-0.033477,0.210426,-0.008705,-0.007178,-0.001527
1765410730.177456,-10.016738,-0.041846,0.399928,-0.009774,-0.006872,-0.001985
1765410730.177656,-10.021520,-0.022716,0.366451,-0.009774,-0.010079,0.000153
1765410730.177856,-9.969511,-0.025108,0.285748,-0.009774,-0.004887,0.000305
1765410730.178056,-9.977283,-0.074725,0.368843,-0.009316,-0.003818,-0.001985
1765410730.178256,-9.978478,-0.028694,0.399330,-0.005803,-0.005498,-0.001374
1765410730.178468,-9.916306,-0.021521,0.260043,-0.010690,-0.008858,0.001985
1765410730.178668,-9.905546,-0.056193,0.297704,-0.010385,-0.006109,-0.001527
1765410730.178868,-9.950979,-0.093855,0.387374,-0.007636,-0.008399,-0.000916
1765410730.179068,-9.977283,-0.003587,0.350311,-0.004276,-0.008399,-0.002596
1765410730.179268,-9.906742,0.010163,0.272597,-0.006109,-0.003818,0.001527
1765410730.179512,-9.919893,-0.063367,0.341942,-0.008552,-0.010690,0.000153
1765410730.179712,-10.010161,-0.054998,0.424438,-0.006872,-0.011606,0.000153
1765410730.179912,-9.945002,0.011956,0.288737,-0.007789,-0.003360,-0.001374
1765410730.180112,-9.842777,-0.028694,0.270206,-0.009621,-0.003360,-0.001527
1765410730.180312,-9.922284,-0.054998,0.415471,-0.007330,-0.007025,-0.000458
1765410730.180745,-9.994021,-0.041248,0.430416,-0.007941,-0.009468,0.000611
1765410730.180945,-9.931252,0.017934,0.351506,-0.007941,-0.006109,0.000611
1765410730.181145,-9.794355,-0.040650,0.235533,-0.008705,-0.003818,-0.001222
1765410730.181345,-9.840386,-0.038259,0.313845,-0.007178,-0.007483,0.000764
1765410730.181545,-9.948587,-0.007174,0.399928,-0.007178,-0.006567,0.000305
1765410730.181530,-9.886416,-0.025108,0.225371,-0.007330,-0.005192,-0.002902
1765410730.181730,-9.879243,-0.001196,0.313247,-0.007941,-0.005651,-0.001374
1765410730.181930,-9.992227,0.015543,0.448350,-0.010537,-0.009774,-0.002138
1765410730.182130,-9.925274,-0.007174,0.300096,-0.007789,-0.006720,-0.001527
1765410730.182330,-9.827832,-0.034672,0.236729,-0.006261,-0.005498,-0.002138
1765410730.182526,-9.898373,-0.034672,0.385581,-0.007483,-0.005803,-0.002443
1765410730.182726,-10.005379,0.005978,0.416667,-0.007025,-0.005803,-0.001527
1765410730.182926,-10.005379,0.005978,0.416667,-0.007025,-0.005803,-0.001527
1765410730.183126,-9.910329,-0.081301,0.375418,-0.007483,-0.003054,-0.000153
1765410730.183326,-9.918698,-0.058584,0.299498,-0.010232,-0.004429,-0.000458
1765410730.183554,-9.992825,0.008369,0.362267,-0.005498,-0.004429,-0.000458
1765410730.183754,-9.966521,-0.014347,0.364658,-0.010232,-0.004429,-0.000764
1765410730.183954,-10.029889,-0.023912,0.411884,-0.007941,-0.005651,0.000916
1765410730.184154,-9.942610,-0.026303,0.292922,-0.006872,-0.005498,-0.000764
1765410730.184354,-9.917501,-0.053204,0.233142,-0.007789,-0.005803,-0.002291
1765410730.184445,-9.928861,-0.041846,0.344931,-0.009468,-0.008552,-0.003207
1765410730.184645,-9.966521,-0.005978,0.333572,-0.008858,-0.007483,-0.001222
1765410730.184845,-9.915112,-0.010163,0.301291,-0.009010,-0.004887,0.001527
1765410730.185045,-9.894786,-0.086083,0.315638,-0.008247,-0.008858,-0.001069
1765410730.185245,-9.900764,-0.040650,0.318627,-0.009010,-0.008858,-0.002902
1765410730.185451,-9.934240,0.005978,0.236729,-0.009010,-0.006261,-0.002902
1765410730.185651,-9.915112,-0.043042,0.325203,-0.007483,-0.005956,-0.000764
1765410730.185851,-9.974891,-0.085485,0.422047,-0.008247,-0.008094,0.000305
1765410730.186051,-9.971903,-0.009565,0.348517,-0.005192,-0.006872,-0.000611
1765410730.186251,-9.903154,-0.049617,0.248685,-0.008552,-0.006872,0.000611
1765410730.188882,-9.903154,-0.049617,0.248685,-0.008552,-0.005040,0.000611
1765410730.189082,-9.950979,0.011358,0.320421,-0.009010,-0.007483,-0.000305
1765410730.189282,-9.901959,-0.034672,0.293520,-0.007178,-0.005803,0.001069
1765410730.189482,-9.898373,-0.089670,0.348517,-0.007025,-0.006720,-0.001374
1765410730.189682,-9.902557,-0.017934,0.326399,-0.006720,-0.006872,-0.000153
1765410730.188993,-9.902557,-0.017934,0.326399,-0.006720,-0.004123,-0.000153
1765410730.189193,-9.952174,-0.081301,0.363462,-0.008858,-0.008705,0.001527
1765410730.189393,-9.990434,-0.076518,0.454328,-0.006414,-0.008705,0.000458
1765410730.189593,-9.689740,-0.237327,0.659971,-0.002902,-0.005345,-0.002138
1765410730.189793,-8.975369,-0.141081,-0.157221,-0.007025,-0.003665,-0.007483
1765410730.189480,-9.337636,0.608560,-0.176949,-0.011301,-0.009927,-0.013744
1765410730.189730,-9.937230,0.307867,0.466284,-0.005651,-0.010843,0.010232
1765410730.189980,-9.731586,-0.136896,0.534433,-0.006261,0.012981,0.011759
1765410730.190230,-9.722619,-0.405308,0.843496,-0.013439,0.010385,0.000305
1765410730.190424,-9.430893,-0.489000,-0.005380,-0.015730,0.004887,-0.004734
1765410730.190624,-9.741750,-0.117169,-0.290531,-0.001985,-0.014813,-0.011301
1765410730.190824,-10.131515,0.513510,0.510521,0.000611,0.003360,-0.008094
1765410730.191024,-9.998802,0.487805,0.845289,-0.011148,0.018631,0.003360
1765410730.191224,-10.081299,-0.098039,0.729914,-0.016493,0.012370,0.012523
1765410730.191450,-9.974891,-0.758010,0.233740,-0.011912,-0.003512,0.007330
1765410730.191650,-9.654470,-0.502152,-0.072932,-0.001985,-0.004276,-0.013592
1765410730.191850,-9.980869,0.429220,0.457915,-0.003818,0.006414,-0.020311
1765410730.192050,-10.081299,0.673123,0.583453,-0.007941,0.014508,-0.001527
1765410730.192250,-9.964728,-0.049617,0.343735,-0.007941,0.006414,-0.001527
1765410730.192413,-9.961740,-0.435198,0.343137,-0.011301,0.004581,0.008094
1765410730.192613,-9.964130,-0.312052,0.422047,-0.006872,0.009316,-0.005040
1765410730.192813,-9.936632,0.014347,0.340148,-0.007789,0.005192,-0.008858
1765410730.193013,-9.956957,0.124342,0.315041,-0.007636,0.002596,-0.002291
1765410730.193213,-9.958152,0.194883,0.312052,-0.006567,0.006872,0.001985
1765410730.193423,-9.882831,0.069943,0.309063,-0.010690,0.005498,0.002902
1765410730.193623,-9.830223,-0.125538,0.342539,-0.011148,0.003360,0.002902
1765410730.193823,-9.888210,-0.193687,0.285748,-0.008858,0.005651,0.001222
1765410730.194023,-9.949186,-0.117169,0.264228,-0.008094,0.005651,-0.004276
1765410730.194223,-9.818267,-0.002989,0.221186,-0.007483,0.011454,-0.004581
1765410730.194474,-9.869678,0.106408,0.380201,-0.005956,0.007330,-0.004123
1765410730.194674,-9.916306,0.182927,0.227164,-0.011759,0.006414,-0.000153
1765410730.194874,-9.924078,-0.051411,0.167384,-0.009163,0.008705,0.005345
1765410730.195074,-9.897775,-0.350311,0.299498,-0.009621,0.009927,0.003818
1765410730.195274,-10.068746,-0.210426,0.456121,-0.008858,0.008705,-0.005345
1765410730.195446,-9.978478,0.065758,0.266619,-0.004276,0.007025,-0.006720
1765410730.195646,-9.856527,0.206839,0.219393,-0.004276,0.005040,-0.006720
1765410730.195846,-9.898971,0.083692,0.322812,-0.008858,0.003054,0.003360
1765410730.196046,-9.965326,-0.091463,0.281564,-0.008705,0.006109,0.004429
1765410730.196246,-10.033475,-0.232544,0.443568,-0.011301,0.005345,0.001985
1765410730.196445,-10.078310,-0.164993,0.344931,-0.007636,0.000611,-0.003360
1765410730.196645,-10.074127,0.056193,0.227762,-0.004887,0.005651,-0.005803
1765410730.196845,-10.002390,0.118364,0.304878,-0.006872,0.002138,-0.003971
1765410730.197045,-9.967718,0.040650,0.418460,-0.012370,0.004276,-0.000458
1765410730.197245,-9.979673,-0.025108,0.208034,-0.009468,-0.000458,0.001527
1765410730.197431,-9.985053,-0.061573,0.261836,-0.007025,0.008094,-0.000764
1765410730.197631,-10.093256,-0.112984,0.460306,-0.010385,0.008094,-0.001374
1765410730.197831,-10.120754,-0.019130,0.469871,-0.006872,0.005651,-0.001222
1765410730.198031,-10.022716,0.066954,0.193687,-0.007483,0.001527,-0.003360
1765410730.198231,-9.894786,0.022716,0.162602,-0.009774,0.001527,0.000000
1765410730.198450,-10.031085,-0.057987,0.373027,-0.007941,0.000458,-0.001985
1765410730.198650,-10.066953,0.011956,0.345528,-0.007330,0.000458,-0.001833
1765410730.198850,-10.033475,0.009565,0.278575,-0.010232,0.000764,-0.000916
1765410730.199050,-10.025107,-0.068149,0.350311,-0.011912,0.001833,-0.003360
1765410730.199250,-10.166186,-0.075323,0.481229,-0.007941,-0.004123,0.001985
1765410730.199417,-10.127330,-0.027499,0.369440,-0.009010,-0.000611,0.000611
1765410730.199617,-9.835006,-0.023912,0.037064,-0.007941,-0.004734,0.000916
1765410730.199817,-9.835006,-0.023912,0.037064,-0.007941,-0.008247,0.000916
1765410730.200017,-10.129124,0.041248,0.490196,-0.006261,-0.003512,-0.001680
1765410730.200217,-10.175752,-0.015543,0.486609,-0.008247,0.003054,-0.000611
1765410730.200425,-9.968315,-0.083692,0.255858,-0.008858,0.000458,-0.000611
1765410730.200675,-9.961740,-0.108800,0.263032,-0.009927,-0.005651,-0.000764
1765410730.200925,-9.992825,-0.027499,0.352702,-0.004734,-0.005498,-0.000611
1765410730.201175,-9.952772,0.071736,0.219393,-0.007636,-0.001527,-0.000916
1765410730.203432,-9.866092,0.068149,0.131516,-0.008705,-0.001527,-0.000764
1765410730.204540,-9.953967,0.001793,0.316834,-0.009316,-0.010232,0.001985
1765410730.206536,-10.060975,-0.087279,0.460306,-0.008705,-0.008094,0.000305
1765410730.210477,-9.933045,-0.137494,0.230153,-0.009774,-0.004734,-0.001222
1765410730.213504,-9.824244,-0.075921,0.154232,-0.008858,-0.009468,-0.003207
1765410730.215462,-9.936033,0.058584,0.262434,-0.008247,-0.009468,-0.003512
1765410730.218470,-10.002390,0.086083,0.324605,-0.006720,-0.008094,-0.001833
1765410730.220491,-10.016139,0.017934,0.390363,-0.004581,-0.007025,0.000458
1765410730.222430,-9.950979,-0.092061,0.381396,-0.010232,-0.004123,0.002138
1765410730.226426,-9.887612,-0.139885,0.222382,-0.008705,-0.005803,0.001527
1765410730.226926,-9.937828,-0.065758,0.291726,-0.010996,-0.008247,-0.003512
1765410730.229415,-9.962935,-0.001793,0.418460,-0.008094,-0.004581,-0.003512
1765410730.233444,-9.967119,0.047824,0.348517,-0.008705,-0.005345,-0.001680
1765410730.236451,-9.860114,0.015543,0.199665,-0.007941,-0.005345,0.001069
1765410730.238467,-9.860114,0.015543,0.199665,-0.007941,-0.005498,0.001069
1765410730.241445,-9.935436,-0.104017,0.398135,-0.011606,-0.006872,0.002749
1765410730.243413,-9.924676,-0.050215,0.307269,-0.006720,-0.004581,-0.001833
1765410730.245425,-9.950979,0.033477,0.335964,-0.008247,-0.005956,-0.002902
1765410730.248423,-9.960544,0.025108,0.421449,-0.009468,-0.005956,-0.001680
1765410730.249440,-9.936033,-0.010760,0.370636,-0.007789,-0.003360,0.001069
1765410730.253438,-9.824843,-0.026303,0.181731,-0.006567,-0.004276,-0.000458
1765410730.254446,-9.852941,-0.049020,0.294715,-0.008094,-0.007178,-0.000916
1765410730.258507,-9.982663,-0.095050,0.503348,-0.008705,-0.005498,-0.003054
1765410730.261486,-9.967119,-0.043042,0.401722,-0.004734,-0.004276,-0.001985
1765410730.263696,-9.860114,0.047824,0.288140,-0.008705,-0.004429,-0.002749
1765410730.265532,-9.837397,0.018532,0.321616,-0.013286,-0.001222,-0.003360
1765410730.268460,-9.926469,-0.039455,0.398135,-0.008094,-0.004429,-0.000611
1765410730.270490,-9.894786,-0.096844,0.261239,-0.007483,-0.000764,0.000916
1765410730.271438,-9.848756,-0.020325,0.282162,-0.005498,0.000916,-0.001680
1765410730.275474,-9.901362,-0.010760,0.356289,-0.008858,-0.002596,-0.002749
1765410730.278450,-9.896580,-0.038259,0.401722,-0.006109,-0.002291,-0.002443
1765410730.280537,-9.827832,-0.022119,0.274988,-0.008552,-0.000153,-0.001527
1765410730.283531,-9.778812,-0.026303,0.212817,-0.008858,0.002138,-0.001374
1765410730.284476,-9.857722,-0.036466,0.319225,-0.010537,-0.001222,-0.004123
1765410730.288582,-9.919893,-0.028097,0.396939,-0.007483,0.000764,-0.002291
1765410730.292851,-9.814680,-0.026901,0.237924,-0.007636,0.000305,-0.003818
1765410730.293351,-9.817072,0.007174,0.266021,-0.010843,0.000305,-0.002902
1765410730.295450,-9.817072,0.007174,0.266021,-0.010843,-0.001374,-0.002902
1765410730.298479,-10.063366,0.004185,0.450741,-0.010996,-0.003512,-0.001833
1765410730.300461,-9.974891,-0.017934,0.352702,-0.010537,-0.001680,-0.000458
1765410730.301467,-9.786584,-0.048422,0.181133,-0.010232,0.003512,-0.002291
1765410730.305488,-9.843973,-0.045433,0.304280,-0.009774,0.001833,-0.002291
1765410730.308461,-10.001194,-0.053802,0.477044,-0.011148,0.001222,-0.001985
1765410730.310504,-9.942610,-0.047226,0.392755,-0.009010,0.002596,-0.002138
1765410730.313479,-9.862504,0.002391,0.181731,-0.009468,0.003818,-0.003207
1765410730.315434,-9.916306,0.007771,0.270206,-0.010232,0.000764,-0.003512
1765410730.318469,-10.053802,-0.032281,0.490196,-0.011148,-0.004429,-0.003207
1765410730.319452,-10.086082,-0.053802,0.456121,-0.007330,0.003054,-0.004123
1765410730.321460,-9.854136,-0.043639,0.175753,-0.010843,0.005956,-0.007330
1765410730.325450,-9.797942,0.008369,0.166188,-0.010385,0.000305,-0.003665
1765410730.328439,-10.022716,-0.008967,0.448948,-0.009774,0.002443,-0.005040
1765410730.329441,-10.016738,-0.049020,0.410689,-0.009621,0.004123,-0.003818
1765410730.333483,-9.843375,-0.036466,0.111191,-0.008247,0.005345,-0.002443
1765410730.334468,-9.778812,-0.041846,0.098039,-0.010690,0.004887,-0.002902
1765410730.337723,-9.979673,-0.054998,0.316236,-0.009316,0.002443,-0.004276
1765410730.339542,-10.116570,-0.078312,0.443568,-0.005803,0.003512,-0.006720
1765410730.343417,-9.993423,-0.063367,0.269010,-0.008552,0.009927,-0.005040
1765410730.346450,-9.809300,0.017934,0.059780,-0.008094,0.009468,-0.005345
1765410730.348425,-9.931850,0.062171,0.288737,-0.009468,0.007789,-0.004581
1765410730.351437,-10.099831,0.019727,0.444763,-0.009010,0.007789,-0.005345
1765410730.353426,-10.031085,-0.021521,0.396939,-0.008705,0.010690,-0.003512
1765410730.354420,-9.832614,-0.064562,0.167384,-0.010996,0.006109,-0.005192
1765410730.358445,-9.832614,-0.064562,0.167384,-0.010996,0.005651,-0.005192
1765410730.360499,-10.172164,-0.099235,0.561334,-0.012828,0.002902,-0.003971
1765410730.363506,-10.178144,-0.055595,0.551172,-0.009774,0.003665,-0.004734
1765410730.365478,-9.972500,-0.047824,0.244500,-0.009927,0.006720,-0.004887
1765410730.368473,-9.900764,-0.026303,0.153037,-0.014813,-0.004734,-0.006872
1765410730.370497,-10.033475,-0.004782,0.343735,-0.012675,-0.007025,-0.002749
1765410730.371536,-10.127929,-0.008369,0.426829,-0.010996,0.003665,-0.004734
1765410730.375475,-9.956957,-0.016738,0.259445,-0.014050,0.003665,-0.005956
1765410730.379844,-9.965326,0.042444,0.229555,-0.015272,-0.001222,-0.005498
1765410730.381471,-10.101624,0.014347,0.443568,-0.011759,-0.007483,-0.004429
1765410730.383437,-10.081299,-0.062171,0.376016,-0.011454,-0.004581,-0.004734
1765410730.385474,-9.894786,-0.141081,0.156624,-0.010843,-0.000916,-0.004429
1765410730.388527,-9.835604,-0.158417,0.069345,-0.008858,-0.000916,-0.003207
1765410730.390571,-10.057388,-0.093257,0.294715,-0.005040,-0.006872,-0.006414
1765410730.393519,-10.066953,-0.054998,0.371832,-0.004887,0.000458,-0.006414
1765410730.395487,-9.823050,-0.004782,0.128527,-0.005651,0.005498,-0.005803
1765410730.398535,-9.702294,0.038857,0.014347,-0.009316,-0.000153,-0.005651
1765410730.402497,-9.927068,0.083692,0.341942,-0.013439,-0.000153,-0.006261
1765410730.403533,-10.115973,0.007771,0.522477,-0.010232,0.000611,-0.003818
1765410730.405474,-9.947392,-0.047226,0.271401,-0.009621,0.004123,-0.006567
1765410730.406466,-9.794355,-0.027499,0.242707,-0.012217,0.004123,-0.008399
1765410730.410554,-9.794355,-0.027499,0.242707,-0.012217,-0.001833,-0.008399
1765410730.413495,-10.150645,-0.008369,0.534433,-0.009927,-0.006567,-0.005803
1765410730.415505,-10.025704,-0.054400,0.340746,-0.013744,-0.001833,-0.007025
1765410730.418507,-9.850550,-0.083692,0.161406,-0.011912,-0.004581,-0.006109
1765410730.419556,-9.898373,-0.106408,0.243305,-0.008247,-0.004581,-0.007483
1765410730.423574,-9.898373,-0.106408,0.243305,-0.008247,-0.005345,-0.007483
1765410730.426454,-9.958751,0.047824,0.264228,-0.013134,-0.003971,-0.006720
1765410730.426954,-9.805116,0.127929,0.112386,-0.013744,-0.004429,-0.007483
1765410730.430443,-9.964130,0.053802,0.355093,-0.016952,-0.006261,-0.006414
1765410730.433500,-10.044236,-0.093257,0.443568,-0.013286,-0.005040,-0.007025
1765410730.435483,-9.961740,-0.139885,0.329986,-0.012981,-0.003360,-0.007941
1765410730.438490,-9.839190,-0.166188,0.245098,-0.011912,-0.004276,-0.009468
1765410730.440562,-9.931252,-0.117169,0.390961,-0.007483,-0.004276,-0.011148
1765410730.441498,-10.049617,-0.034672,0.491392,-0.005803,-0.001069,-0.010690
1765410730.445505,-9.898971,0.008369,0.318030,-0.008094,0.002749,-0.011454
1765410730.448498,-9.788378,0.072334,0.254663,-0.008247,0.002596,-0.007941
1765410730.451452,-9.923481,0.046031,0.364658,-0.010385,-0.002902,-0.009927
1765410730.453450,-9.999999,-0.039455,0.429818,-0.014661,-0.004887,-0.009163
1765410730.456462,-9.999999,-0.039455,0.429818,-0.014661,-0.000611,-0.009163
1765410730.458436,-9.752509,-0.019727,0.170971,-0.014508,0.004581,-0.009774
1765410730.461357,-9.768052,0.011956,0.194285,-0.012828,-0.001069,-0.009927
1765410730.463496,-9.791965,-0.029292,0.209230,-0.015577,0.002138,-0.009774
1765410730.465548,-9.820659,-0.057389,0.135103,-0.013897,0.005498,-0.009468
1765410730.468524,-9.820659,-0.057389,0.135103,-0.013897,0.005192,-0.009468
1765410730.470511,-10.009563,-0.100430,0.486609,-0.010385,0.007330,-0.007330
1765410730.473481,-10.001194,-0.022716,0.443568,-0.010232,0.008399,-0.008399
1765410730.476464,-9.789574,0.026901,0.184122,-0.013286,0.001680,-0.009621
1765410730.478451,-9.900167,0.069345,0.382592,-0.016799,0.001680,-0.010843
1765410730.481508,-9.920491,-0.046628,0.411884,-0.016799,0.003512,-0.010843
1765410730.483542,-9.848158,-0.023912,0.327594,-0.013592,0.011148,-0.008094
1765410730.486519,-9.802725,-0.101626,0.328790,-0.013744,0.004276,-0.008705
1765410730.487019,-9.916306,-0.095648,0.429220,-0.015272,0.003207,-0.010232
1765410730.489623,-9.955761,-0.126734,0.362267,-0.014508,0.003207,-0.009468
1765410730.493481,-9.880439,-0.143472,0.335366,-0.010996,0.002291,-0.008094
1765410730.494480,-9.947989,-0.132114,0.435198,-0.012675,0.000611,-0.009621
1765410730.498494,-9.971304,-0.023912,0.337159,-0.010537,-0.001833,-0.012523
1765410730.499491,-9.820659,-0.105213,0.086681,-0.015119,0.001222,-0.012675
1765410730.501456,-9.814680,-0.023912,0.150048,-0.012217,-0.000153,-0.012065
1765410730.506485,-9.931252,-0.060976,0.338953,-0.012523,0.003818,-0.012523
1765410730.508486,-9.895982,-0.019130,0.315041,-0.015730,0.005956,-0.013897
1765410730.509465,-9.883428,0.009565,0.144070,-0.014966,0.011148,-0.012828
1765410730.513487,-9.948587,-0.097441,0.416069,-0.014966,0.008247,-0.012828
1765410730.515594,-9.989238,-0.104017,0.359876,-0.007330,0.014508,-0.011301
1765410730.516486,-10.041844,-0.038259,0.436394,-0.012370,0.011759,-0.013897
1765410730.521484,-9.869678,0.004782,0.160808,-0.014050,0.010996,-0.011148
1765410730.523491,-9.959349,-0.052606,0.289933,-0.014050,0.007789,-0.009010
1765410730.526482,-10.075322,-0.105213,0.490196,-0.014050,0.006720,-0.012370
1765410730.528462,-10.068149,-0.068149,0.471066,-0.014966,0.006414,-0.012370
1765410730.530555,-9.983260,-0.064562,0.215208,-0.015424,0.007483,-0.012675
1765410730.533504,-9.869678,-0.166188,0.170373,-0.012981,0.005345,-0.012065
1765410730.535545,-9.848158,-0.081301,0.101626,-0.014966,0.005345,-0.011148
1765410730.538516,-9.780008,-0.072334,0.117169,-0.012828,0.007330,-0.015424
1765410730.540547,-9.947392,0.039455,0.321616,-0.015577,0.006109,-0.018479
1765410730.543458,-10.062768,0.120756,0.424438,-0.014203,0.010537,-0.014050
1765410730.544547,-9.759683,-0.098039,0.135103,-0.013744,0.009621,-0.012675
1765410730.548571,-9.699903,0.001196,0.047226,-0.012065,0.009621,-0.012981
1765410730.551503,-9.880439,-0.031086,0.308465,-0.014355,0.008858,-0.007789
1765410730.553461,-10.038857,0.010760,0.429818,-0.013439,0.008552,-0.012370
1765410730.556476,-9.993423,0.069943,0.297704,-0.015730,0.011606,-0.013592
1765410730.558541,-9.768052,0.014945,0.106408,-0.016341,0.010537,-0.012370
1765410730.561528,-9.914514,-0.003587,0.153037,-0.013592,0.002749,-0.010843
1765410730.562028,-10.187708,-0.065758,0.542802,-0.015424,0.001985,-0.010537
1765410730.564542,-9.905546,-0.083692,0.228360,-0.015424,0.012981,-0.014813
1765410730.568552,-9.808702,-0.003587,0.149450,-0.016341,0.013286,-0.013744
1765410730.569514,-9.727402,-0.064562,0.011956,-0.014050,0.007330,-0.013134
1765410730.573512,-10.165589,-0.117169,0.507532,-0.019395,0.002138,-0.016035
1765410730.576537,-10.038258,0.037661,0.291726,-0.012217,0.012675,-0.015424
1765410730.578493,-9.884624,-0.142276,0.191296,-0.016341,0.008705,-0.012370
1765410730.581521,-9.854136,0.043042,0.240316,-0.017715,0.008705,-0.015882
1765410730.583504,-9.854136,0.043042,0.240316,-0.017715,0.006872,-0.015882
1765410730.585513,-9.868484,-0.146461,0.124342,-0.015882,0.007636,-0.012217
1765410730.588450,-9.913916,-0.100430,0.246294,-0.018784,-0.000153,-0.021228
1765410730.590529,-9.949782,0.038259,0.346724,-0.014203,-0.000764,-0.015424
1765410730.593530,-9.922284,-0.088474,0.173960,-0.017562,-0.000764,-0.015730
1765410730.595509,-9.922284,-0.088474,0.173960,-0.017562,0.009163,-0.015730
1765410730.598504,-9.858918,-0.100430,0.105213,-0.015119,0.015424,-0.009927
1765410730.600509,-10.017933,-0.248685,0.496174,-0.016799,0.005192,-0.011912
1765410730.603490,-10.019726,-0.115973,0.333572,-0.017715,0.009163,-0.017715
1765410730.604501,-9.929459,-0.163797,0.223577,-0.016799,0.009163,-0.020311
1765410730.608507,-9.579745,-0.050215,-0.229555,-0.014050,0.007178,-0.020159
1765410730.611491,-10.088473,0.064562,0.501554,-0.016188,0.012523,-0.019090
1765410730.612483,-10.048421,0.070540,0.554758,-0.014203,0.012523,-0.015119
1765410730.615541,-9.888808,-0.047824,0.345528,-0.017562,0.009927,-0.014508
1765410730.616516,-9.745336,-0.099235,0.158417,-0.016341,0.013134,-0.017104
1765410730.621448,-9.867287,-0.087279,0.255858,-0.015882,0.003054,-0.014661
1765410730.623442,-10.115375,-0.107604,0.483022,-0.018021,0.009163,-0.019853
1765410730.625482,-9.968913,-0.004782,0.255858,-0.017257,0.009163,-0.018479
1765410730.628454,-9.850550,-0.009565,0.210426,-0.017257,0.008858,-0.018479
1765410730.630484,-9.955761,0.068149,0.251674,-0.016646,0.006261,-0.021533
1765410730.631436,-10.092059,-0.023314,0.558345,-0.017715,0.006872,-0.013592
1765410730.636499,-9.772835,-0.060976,0.043042,-0.016493,0.012217,-0.012370
1765410730.638506,-9.936632,-0.233142,0.310856,-0.021075,0.008094,-0.019090
1765410730.641563,-9.936632,-0.233142,0.310856,-0.021075,0.009010,-0.019090
1765410730.642063,-9.914514,-0.098039,0.191296,-0.017715,0.008858,-0.018479
1765410730.646462,-9.720228,0.001196,0.013152,-0.019395,0.008858,-0.020464
1765410730.648468,-9.823050,0.046628,0.095648,-0.015577,0.012370,-0.018937
1765410730.650488,-9.831419,-0.033477,0.278575,-0.015730,0.018021,-0.015272
1765410730.653455,-9.921089,-0.114778,0.418460,-0.019700,0.018326,-0.017410
1765410730.656451,-9.909132,-0.151841,0.512912,-0.021838,0.021686,-0.020006
1765410730.658473,-10.005977,-0.111191,0.576279,-0.016952,0.010843,-0.022907
1765410730.659541,-9.919893,-0.149450,0.270206,-0.022602,0.002443,-0.022297
1765410730.663511,-9.812290,0.013152,-0.041248,-0.021075,0.006872,-0.025504
1765410730.666487,-9.864299,0.022119,0.170971,-0.016035,0.014813,-0.017868
1765410730.668491,-9.958152,-0.069943,0.285151,-0.015272,0.013897,-0.016952
1765410730.670501,-10.029889,-0.115973,0.302487,-0.022907,0.016493,-0.021380
1765410730.673557,-9.772835,-0.191894,0.027499,-0.022297,0.020922,-0.024893
1765410730.676485,-9.884026,-0.041846,0.303085,-0.016035,0.019090,-0.023824
1765410730.678516,-10.010161,-0.063367,0.637255,-0.018021,0.019395,-0.020769
1765410730.681461,-10.180533,-0.020325,0.669536,-0.020922,0.014050,-0.023976
1765410730.683540,-9.970706,-0.007174,0.188307,-0.017410,0.014508,-0.022602
1765410730.685521,-9.927068,-0.078312,0.141679,-0.017410,0.010843,-0.022602
1765410730.686557,-9.905546,-0.133907,0.185318,-0.014508,0.013744,-0.022449
1765410730.689636,-9.925274,-0.132712,0.240316,-0.020159,0.012981,-0.025351
1765410730.693532,-9.801530,0.024510,0.141081,-0.017257,0.022297,-0.025656
1765410730.695481,-9.783595,0.012554,0.233740,-0.018021,0.019242,-0.021075
1765410730.698520,-10.047822,0.050813,0.462697,-0.021380,0.015272,-0.022602
1765410730.701509,-10.006575,-0.089072,0.168580,-0.020617,0.014813,-0.019700
1765410730.703479,-9.750119,-0.298302,-0.166188,-0.019700,0.014813,-0.023671
1765410730.705512,-9.931850,-0.057389,0.290531,-0.016341,0.019242,-0.027336
1765410730.708502,-10.227163,0.031086,0.817790,-0.020464,0.024282,-0.023518
1765410730.710563,-9.963533,0.049617,0.312649,-0.021533,0.020311,-0.022297
1765410730.713462,-9.952174,-0.052606,0.163797,-0.023060,0.012523,-0.021533
1765410730.716503,-10.005379,-0.120158,0.201459,-0.019548,0.013592,-0.019548
1765410730.718513,-10.153036,-0.122549,0.456719,-0.018479,0.016493,-0.023671
1765410730.721510,-9.854136,-0.154232,0.153635,-0.019395,0.025198,-0.024587
1765410730.723530,-9.692730,0.029292,0.000000,-0.020311,0.019853,-0.025962
1765410730.726571,-9.839788,-0.031683,0.202056,-0.020922,0.016341,-0.023366
1765410730.728494,-10.067551,-0.156624,0.298900,-0.020922,0.015424,-0.023366
1765410730.730485,-10.101624,-0.033477,0.411286,-0.022755,0.028253,-0.027947
1765410730.733534,-9.956957,0.005380,0.219990,-0.022144,0.027489,-0.024435
1765410730.735495,-10.059181,-0.082496,0.419656,-0.025656,0.021228,-0.024587
1765410730.738447,-10.092059,-0.081899,0.450143,-0.026267,0.022297,-0.027794
1765410730.740461,-9.867287,-0.163797,0.112984,-0.026267,0.026878,-0.027794
1765410730.743483,-9.743543,-0.001793,-0.019130,-0.024282,0.021838,-0.028863
1765410730.744531,-10.054996,0.022716,0.392755,-0.022602,0.024282,-0.028253
1765410730.748490,-10.157818,-0.074127,0.516499,-0.022449,0.025656,-0.023518
1765410730.749455,-10.053802,-0.093257,0.356289,-0.022144,0.028253,-0.028863
1765410730.753452,-9.943806,-0.099235,0.197872,-0.026114,0.022907,-0.025656
1765410730.756450,-9.997009,-0.180536,0.240316,-0.023976,0.016646,-0.029780
1765410730.758475,-10.083690,-0.020325,0.588235,-0.024740,0.023518,-0.031918
1765410730.760488,-9.887612,-0.045433,0.309660,-0.023060,0.027794,-0.026420
1765410730.763490,-9.874461,-0.096844,0.104017,-0.026878,0.012217,-0.028253
1765410730.766599,-10.081897,-0.091463,0.214012,-0.024435,0.012217,-0.030696
1765410730.768561,-10.196077,-0.173362,0.439383,-0.021686,0.023976,-0.027642
1765410730.771537,-10.005379,-0.150048,0.313845,-0.023518,0.027947,-0.029780
1765410730.773528,-10.044236,-0.043042,0.390363,-0.026267,0.020922,-0.033139
1765410730.775580,-10.149448,-0.060976,0.351506,-0.029322,0.016188,-0.033750
1765410730.778549,-9.931850,-0.133907,0.184122,-0.024740,0.019090,-0.031307
1765410730.780502,-9.802725,-0.058584,0.046628,-0.022449,0.025962,-0.032987
1765410730.784178,-9.881634,-0.033477,0.175753,-0.029627,0.023060,-0.033445
1765410730.785546,-10.115375,-0.105213,0.352702,-0.028863,0.017868,-0.029780
1765410730.788535,-10.159015,-0.130320,0.382592,-0.026420,0.026878,-0.032529
1765410730.790537,-9.890601,-0.114778,0.274988,-0.027031,0.035277,-0.032681
1765410730.791554,-9.813485,-0.083692,0.145863,-0.024282,0.031612,-0.030849
1765410730.796459,-9.934240,-0.111191,0.296509,-0.023213,0.029627,-0.029932
1765410730.798479,-9.897178,-0.119560,0.194285,-0.024587,0.029627,-0.027031
1765410730.799489,-9.733380,-0.245696,0.080105,-0.024435,0.033750,-0.030391
1765410730.803482,-9.797942,-0.245098,0.106408,-0.025962,0.027031,-0.034514
1765410730.805472,-9.899570,-0.124342,0.203850,-0.026878,0.018937,-0.038179
1765410730.808468,-9.817072,-0.029292,-0.004185,-0.029322,0.031001,-0.039095
1765410730.810553,-9.783595,0.009565,-0.062171,-0.024129,0.031001,-0.033139
1765410730.813479,-9.953967,-0.065758,0.494978,-0.024129,0.032529,-0.033139
1765410730.816481,-10.074127,-0.068149,0.570301,-0.025809,0.030238,-0.032529
1765410730.818548,-9.815877,-0.117767,0.008967,-0.026420,0.027642,-0.032529
1765410730.820524,-9.815877,-0.117767,0.008967,-0.026420,0.024893,-0.032529
1765410730.823519,-10.232543,-0.043042,0.808226,-0.026267,0.029780,-0.036194
1765410730.825540,-10.124342,-0.094452,0.773553,-0.023213,0.029932,-0.032681
1765410730.828520,-9.938425,-0.022716,0.192492,-0.028711,0.017410,-0.035125
1765410730.830522,-9.871471,-0.095648,-0.147657,-0.029780,0.017410,-0.031765
1765410730.833471,-10.012553,-0.208034,0.061573,-0.025656,0.013286,-0.033139
1765410730.835520,-10.111788,-0.189503,0.332377,-0.026114,0.022144,-0.036805
1765410730.838518,-9.888808,-0.112984,0.157221,-0.027336,0.033292,-0.040623
1765410730.840527,-9.818267,-0.066356,0.067551,-0.028558,0.032070,-0.040164
1765410730.843571,-10.027497,0.008369,0.205643,-0.023976,0.029016,-0.037263
1765410730.845568,-10.052606,-0.093257,0.393352,-0.029169,0.037263,-0.034361
1765410730.846568,-9.770443,-0.082496,0.194883,-0.029932,0.043371,-0.037415
1765410730.850559,-9.757292,-0.132712,0.068149,-0.032681,0.032681,-0.038485
1765410730.853541,-10.079505,-0.151841,0.346724,-0.031307,0.027336,-0.036957
1765410730.855504,-10.140482,-0.208034,0.404113,-0.028558,0.035583,-0.036194
1765410730.858531,-9.991630,-0.151841,0.362865,-0.031765,0.038790,-0.039095
1765410730.861490,-10.058583,0.003587,0.496174,-0.031307,0.036805,-0.043066
1765410730.863458,-10.118960,-0.084888,0.436394,-0.030238,0.030391,-0.034514
1765410730.864472,-10.062768,-0.138690,0.185916,-0.029016,0.025962,-0.036652
1765410730.868513,-9.972500,-0.114180,0.198470,-0.029932,0.031918,-0.041386
1765410730.869592,-9.821855,-0.296509,0.077116,-0.035125,0.028711,-0.038790
1765410730.873529,-9.806311,-0.122549,-0.034075,-0.027489,0.023366,-0.043219
1765410730.875602,-9.909731,0.008369,0.168580,-0.027642,0.033750,-0.044440
1765410730.878524,-9.909731,0.008369,0.168580,-0.027642,0.040012,-0.044440
1765410730.880496,-10.007172,-0.031086,0.453132,-0.033598,0.032529,-0.038790
1765410730.883520,-10.083690,-0.027499,0.630081,-0.032834,0.037110,-0.037263
1765410730.885609,-9.765661,-0.301291,-0.063367,-0.027489,0.022297,-0.033139
1765410730.888478,-9.557029,-0.325203,-0.314443,-0.032681,0.022297,-0.041081
1765410730.890587,-9.876254,-0.157819,0.039455,-0.035430,0.030696,-0.044746
1765410730.895447,-9.960544,-0.013749,0.239120,-0.030696,0.041997,-0.040623
1765410730.895510,-9.855929,-0.013749,0.260641,-0.029474,0.042150,-0.039095
1765410730.898477,-9.961740,-0.023912,0.375418,-0.035430,0.031612,-0.038026
1765410730.899528,-9.943806,-0.205643,0.225968,-0.034361,0.031612,-0.034667
1765410730.903489,-9.894188,-0.316834,-0.010760,-0.028558,0.029169,-0.038637
1765410730.906483,-9.570181,-0.226566,-0.264228,-0.027184,0.032987,-0.046273
1765410730.908465,-9.695719,-0.062769,0.017934,-0.034819,0.035888,-0.049022
1765410730.910534,-9.943208,0.060976,0.344333,-0.030696,0.038790,-0.044899
1765410730.913468,-10.035867,-0.026303,0.447154,-0.031918,0.041844,-0.039554
1765410730.915499,-9.876852,-0.203850,0.175753,-0.032987,0.039095,-0.036041
1765410730.918504,-9.919296,-0.311454,0.066954,-0.034056,0.030543,-0.040164
1765410730.920508,-9.857722,-0.386777,-0.087877,-0.034208,0.026878,-0.043524
1765410730.923502,-9.796746,-0.160808,-0.227762,-0.032376,0.036041,-0.053756
1765410730.926483,-9.925274,0.138690,0.424438,-0.029016,0.049480,-0.052076
1765410730.928502,-9.851745,0.090866,0.504543,-0.028405,0.045662,-0.041997
1765410730.930480,-10.063964,-0.044237,0.410091,-0.034056,0.031460,-0.041692
1765410730.933477,-9.922284,-0.135701,-0.168580,-0.043830,0.032681,-0.045815
1765410730.936515,-9.897775,-0.252272,-0.087877,-0.037263,0.036346,-0.040317
1765410730.938501,-9.843375,-0.303085,0.199665,-0.035736,0.042302,-0.043524
1765410730.940516,-10.148851,-0.181731,0.663558,-0.043371,0.039095,-0.049786
1765410730.943509,-9.976088,-0.083094,0.337159,-0.038943,0.045509,-0.049633
1765410730.946549,-9.910329,-0.066954,0.099833,-0.033750,0.034514,-0.044135
1765410730.948551,-10.013748,-0.129125,0.420851,-0.039554,0.033598,-0.045204
1765410730.951522,-9.978478,-0.308465,0.206839,-0.040470,0.033445,-0.046120
1765410730.952022,-9.978478,-0.308465,0.206839,-0.040470,0.033598,-0.046120
1765410730.955530,-9.875656,-0.200861,0.002989,-0.034819,0.045357,-0.055436
1765410730.958581,-9.926469,-0.133907,0.423840,-0.032987,0.045357,-0.053145
1765410730.960537,-9.840983,-0.034672,0.192492,-0.031001,0.041233,-0.049633
1765410730.963487,-9.858918,-0.087877,0.129125,-0.032987,0.038790,-0.045509
1765410730.966569,-9.858918,-0.087877,0.129125,-0.032987,0.038943,-0.045509
1765410730.968512,-9.745336,-0.277379,-0.230153,-0.032223,0.049480,-0.047800
1765410730.970600,-9.847560,-0.175753,0.267217,-0.033750,0.049480,-0.055436
1765410730.973575,-9.846365,-0.032879,0.316834,-0.038026,0.051924,-0.053145
1765410730.975602,-10.060376,0.037661,0.496174,-0.039859,0.046426,-0.052382
1765410730.978581,-9.894786,-0.132114,0.200861,-0.038485,0.044288,-0.047037
1765410730.979485,-9.945002,-0.215208,0.077714,-0.033445,0.042608,-0.048106
1765410730.983507,-9.985053,-0.214012,0.180536,-0.039248,0.042608,-0.052687
1765410730.985515,-9.887612,-0.235533,0.149450,-0.032834,0.049938,-0.046426
1765410730.988589,-9.601266,-0.303085,-0.080105,-0.033445,0.042150,-0.049480
1765410730.990889,-9.981467,-0.089670,0.369440,-0.037110,0.040012,-0.054672
1765410730.994537,-9.918698,-0.095648,0.208632,-0.035277,0.048106,-0.051313
1765410730.996521,-9.811094,-0.135103,-0.127929,-0.034361,0.039401,-0.047342
1765410730.998486,-9.887015,-0.192492,0.124342,-0.041997,0.044746,-0.049938
1765410731.001497,-9.750119,-0.373027,-0.043042,-0.037721,0.045662,-0.047342
1765410731.003550,-9.797942,-0.380201,-0.188905,-0.040470,0.045662,-0.051771
1765410731.005520,-9.964130,-0.380201,0.147059,-0.040470,0.051465,-0.051771
1765410731.008554,-10.143471,-0.118962,0.723338,-0.040012,0.059712,-0.053451
1765410731.010555,-9.836202,-0.118962,0.289335,-0.040012,0.053756,-0.053451
1765410731.013502,-9.881634,-0.252869,0.329986,-0.039095,0.043066,-0.051465
1765410731.014487,-9.812290,-0.254663,-0.003587,-0.039248,0.043066,-0.052840
1765410731.016521,-9.812290,-0.254663,-0.003587,-0.039248,0.041844,-0.052840
1765410731.020559,-10.016738,-0.225371,0.129125,-0.036194,0.047953,-0.055283
1765410731.021520,-9.885818,-0.249283,0.095050,-0.040470,0.047495,-0.056658
1765410731.024532,-9.982663,-0.197274,0.076518,-0.039095,0.054214,-0.056810
1765410731.028499,-10.046627,-0.114778,0.099833,-0.036805,0.054214,-0.052382
1765410731.030523,-9.921089,-0.182927,0.224773,-0.034972,0.061392,-0.049786
1765410731.031507,-9.973098,-0.196078,0.273792,-0.038485,0.051771,-0.053451
1765410731.035479,-10.033475,-0.237924,0.276184,-0.038943,0.051771,-0.056200
1765410731.038795,-10.033475,-0.237924,0.276184,-0.038943,0.056047,-0.056200
1765410731.040534,-9.985652,-0.108202,0.356289,-0.036041,0.057574,-0.055131
1765410731.043553,-9.711859,-0.203850,-0.035868,-0.038332,0.053756,-0.052687
1765410731.045513,-9.869678,-0.277977,0.056791,-0.042608,0.041844,-0.057574
1765410731.048521,-9.815279,-0.206839,-0.074725,-0.036346,0.054978,-0.057879
1765410731.049508,-10.108798,-0.166188,0.383788,-0.033598,0.051465,-0.053909
1765410731.052480,-9.981467,-0.093257,0.415471,-0.039248,0.058948,-0.060781
1765410731.055565,-9.765661,-0.063367,-0.147059,-0.042761,0.053145,-0.057727
1765410731.058537,-9.824244,-0.091463,-0.181731,-0.045662,0.057879,-0.060934
1765410731.059562,-10.003586,0.096844,0.331779,-0.041539,0.057879,-0.054214
1765410731.063560,-10.003586,0.096844,0.331779,-0.041539,0.060628,-0.054214
1765410731.065561,-9.998802,-0.265423,0.133907,-0.045204,0.052229,-0.057574
1765410731.068584,-9.942610,-0.329986,0.128527,-0.047953,0.052229,-0.059101
1765410731.070621,-9.670013,-0.406504,-0.182927,-0.039706,0.054978,-0.058948
1765410731.073497,-9.811692,-0.170373,0.115973,-0.044288,0.054978,-0.065057
1765410731.075532,-9.916306,-0.005978,0.397537,-0.044288,0.060781,-0.065057
1765410731.078536,-9.827234,-0.146461,-0.212219,-0.044593,0.051924,-0.054825
1765410731.080558,-9.898373,-0.163797,-0.176351,-0.041233,0.051618,-0.059407
1765410731.083553,-9.877449,-0.358680,0.124342,-0.036194,0.072082,-0.055283
1765410731.086612,-9.997607,-0.424438,0.379005,-0.034056,0.072082,-0.058643
1765410731.088899,-9.972500,-0.336561,0.365854,-0.043830,0.063377,-0.068570
1765410731.090641,-9.837996,-0.138690,-0.153037,-0.044440,0.060476,-0.069333
1765410731.093583,-9.770443,0.064562,-0.176351,-0.037568,0.061087,-0.064446
1765410731.096601,-9.995814,0.037064,0.618125,-0.037568,0.063377,-0.064446
1765410731.097101,-10.141079,-0.117169,0.673123,-0.045051,0.064752,-0.058643
1765410731.101497,-9.890601,-0.271401,-0.275586,-0.045815,0.053298,-0.062308
1765410731.103516,-9.781802,-0.437590,-0.433405,-0.043830,0.046426,-0.063683
1765410731.106493,-9.982663,-0.312649,0.136298,-0.044440,0.058032,-0.067959
1765410731.108525,-10.089668,-0.210426,0.622908,-0.044593,0.070708,-0.067806
1765410731.110545,-9.825441,-0.049020,0.046628,-0.047189,0.067806,-0.069333
1765410731.113505,-9.790769,-0.069345,-0.394548,-0.049022,0.056200,-0.064599
1765410731.114492,-9.967718,-0.157819,0.044237,-0.046273,0.061087,-0.062614
1765410731.118535,-10.096842,-0.439981,0.478240,-0.044288,0.071013,-0.058643
1765410731.120641,-9.942013,-0.523673,0.187111,-0.045357,0.074526,-0.065057
1765410731.123549,-10.065758,-0.413080,0.121951,-0.048869,0.059712,-0.072388
1765410731.125542,-10.258247,-0.098039,0.432807,-0.047953,0.059712,-0.072693
1765410731.128576,-9.975489,-0.181133,0.037661,-0.044746,0.065821,-0.066737
1765410731.129569,-9.953370,-0.200263,0.184720,-0.051007,0.061392,-0.069944
1765410731.133557,-10.095646,-0.196078,0.147059,-0.048869,0.062461,-0.065515
1765410731.136603,-9.964728,-0.509326,-0.131516,-0.046426,0.057727,-0.062766
1765410731.138524,-9.754900,-0.433405,-0.435198,-0.047953,0.058490,-0.073609
1765410731.140540,-9.695121,-0.217599,-0.276184,-0.052076,0.078343,-0.074067
1765410731.143552,-9.974891,0.026303,0.438785,-0.041997,0.078343,-0.072235
1765410731.145545,-10.133906,-0.067551,0.711980,-0.048564,0.072235,-0.064141
1765410731.148511,-9.957555,-0.393352,0.148852,-0.050244,0.063377,-0.063835
1765410731.150492,-9.705284,-0.481827,-0.575084,-0.046884,0.059865,-0.069333
1765410731.153634,-9.777617,-0.545194,-0.297704,-0.041386,0.058490,-0.068264
1765410731.155502,-9.985652,-0.284553,0.211621,-0.041997,0.067806,-0.077122
1765410731.158525,-10.013150,-0.147059,0.205643,-0.053451,0.072388,-0.081551
1765410731.161536,-9.887015,0.107006,-0.156026,-0.050549,0.070555,-0.076664
1765410731.163560,-10.052606,0.041846,0.119560,-0.050702,0.066584,-0.069333
1765410731.164491,-10.034670,-0.356289,0.339550,-0.055894,0.072998,-0.067806
1765410731.168527,-10.075920,-0.456719,0.254663,-0.050549,0.071929,-0.071929
1765410731.170629,-9.815877,-0.461502,-0.069345,-0.049327,0.067653,-0.076816
1765410731.173573,-9.846962,-0.174558,-0.102822,-0.049786,0.059559,-0.081245
1765410731.174682,-10.052007,0.114180,0.273792,-0.055436,0.072235,-0.081703
1765410731.178547,-9.939621,-0.065758,0.252272,-0.053909,0.073304,-0.069791
1765410731.179569,-9.713055,-0.400526,-0.163199,-0.051007,0.061239,-0.065973
1765410731.183623,-9.709468,-0.544596,-0.400526,-0.052382,0.062461,-0.072846
1765410731.185554,-9.868484,-0.494381,-0.063965,-0.048564,0.074220,-0.076205
1765410731.188607,-9.961740,-0.327594,0.140483,-0.049938,0.074220,-0.080634
1765410731.191671,-9.961740,-0.327594,0.140483,-0.049938,0.072388,-0.080634
1765410731.193578,-9.925871,-0.062171,0.221186,-0.055131,0.072846,-0.079107
1765410731.194594,-9.787182,-0.218795,-0.112386,-0.049022,0.069486,-0.070860
1765410731.198639,-9.782400,-0.533238,-0.117169,-0.049327,0.067348,-0.071319
1765410731.200552,-9.849353,-0.554758,-0.173362,-0.052382,0.067348,-0.081856
1765410731.203567,-9.881634,-0.411286,-0.126734,-0.046884,0.076053,-0.082009
1765410731.205556,-9.917501,-0.228360,0.190698,-0.047800,0.078191,-0.083383
1765410731.208525,-10.037063,-0.132712,0.291726,-0.053603,0.077427,-0.081551
1765410731.211516,-10.001194,-0.239120,0.035868,-0.056505,0.071777,-0.077427
1765410731.213537,-9.820659,-0.423242,0.089072,-0.050702,0.078343,-0.072846
1765410731.216526,-9.711859,-0.543998,-0.123147,-0.047342,0.078038,-0.075289
1765410731.217026,-10.039454,-0.413678,0.346724,-0.058338,0.074373,-0.087659
1765410731.221600,-9.769248,-0.147059,-0.285151,-0.056200,0.074373,-0.090713
1765410731.223490,-9.491868,-0.073529,-0.743663,-0.057116,0.069791,-0.084605
1765410731.226497,-9.672404,-0.127929,-0.206241,-0.056047,0.075289,-0.078802
1765410731.228504,-9.945600,-0.283955,0.362267,-0.057727,0.080023,-0.076053
1765410731.231510,-9.809300,-0.427427,-0.059182,-0.055741,0.082925,-0.077580
1765410731.233533,-9.685556,-0.348517,-0.337159,-0.059865,0.074678,-0.082314
1765410731.234523,-9.685556,-0.348517,-0.337159,-0.059865,0.071319,-0.082314
1765410731.238566,-10.184718,-0.420851,0.379603,-0.054367,0.079412,-0.076205
1765410731.241509,-10.004781,-0.483022,0.083692,-0.056963,0.079412,-0.079260
1765410731.243509,-9.821855,-0.408895,-0.236729,-0.057421,0.079107,-0.084299
1765410731.246532,-9.945002,-0.419656,-0.043639,-0.052534,0.073915,-0.081703
1765410731.248537,-9.945002,-0.419656,-0.043639,-0.052534,0.078343,-0.081703
1765410731.251568,-9.875656,-0.339550,-0.185318,-0.060323,0.083994,-0.084147
1765410731.253534,-9.884026,-0.502152,-0.061573,-0.058796,0.083994,-0.080023
1765410731.255563,-10.041844,-0.480631,0.332377,-0.054367,0.079260,-0.084299
1765410731.258585,-9.837397,-0.419656,0.025108,-0.057879,0.082925,-0.087354
1765410731.259554,-9.738162,-0.148254,-0.344333,-0.060628,0.079718,-0.091019
1765410731.263522,-9.733380,-0.168580,-0.313247,-0.056658,0.077122,-0.081703
1765410731.264525,-9.848756,-0.463893,-0.069345,-0.053909,0.076664,-0.076205
1765410731.268559,-10.069344,-0.656384,0.059780,-0.056047,0.080023,-0.084910
1765410731.269616,-9.988043,-0.646820,-0.050215,-0.059712,0.086437,-0.089186
1765410731.273555,-9.849353,-0.398733,-0.218197,-0.051313,0.086437,-0.091019
1765410731.276550,-9.913916,-0.129723,0.132712,-0.054825,0.088423,-0.090561
1765410731.278561,-9.959349,-0.222382,0.241511,-0.055283,0.088423,-0.083230
1765410731.280693,-9.948587,-0.484218,0.005380,-0.051924,0.082009,-0.078954
1765410731.283575,-9.942013,-0.517097,-0.178144,-0.052076,0.080940,-0.087506
1765410731.285545,-9.949782,-0.410091,-0.134505,-0.057421,0.087506,-0.086132
1765410731.288927,-9.849951,-0.257054,-0.142276,-0.053909,0.090255,-0.087812
1765410731.291510,-9.973696,-0.247489,0.094452,-0.060323,0.083536,-0.084910
1765410731.293512,-9.920491,-0.540411,-0.065758,-0.060934,0.088270,-0.079260
1765410731.296567,-10.001194,-0.443568,-0.034672,-0.053756,0.090408,-0.082161
1765410731.298579,-9.878048,-0.474653,0.025108,-0.058948,0.094379,-0.082161
1765410731.301514,-9.819464,-0.349115,-0.216404,-0.060170,0.086437,-0.086743
1765410731.303536,-9.912720,-0.301291,-0.290531,-0.059254,0.085216,-0.087048
1765410731.306574,-9.755498,-0.472262,-0.304280,-0.053603,0.099266,-0.081551
1765410731.308522,-9.818267,-0.493783,-0.052606,-0.053909,0.101098,-0.080940
1765410731.310515,-9.836202,-0.504543,-0.014347,-0.058490,0.097280,-0.089034
1765410731.313545,-9.841581,-0.293520,0.090866,-0.058490,0.097128,-0.089034
1765410731.315543,-9.646699,-0.231946,-0.223577,-0.052687,0.097128,-0.080481
1765410731.318521,-9.806311,-0.615734,-0.003587,-0.059559,0.090255,-0.078649
1765410731.320559,-9.696915,-0.775944,-0.423840,-0.055436,0.089339,-0.085827
1765410731.323562,-9.774031,-0.648015,-0.361071,-0.054672,0.094379,-0.093921
1765410731.325556,-9.728598,-0.298302,-0.186514,-0.057727,0.100335,-0.095753
1765410731.328564,-9.874461,-0.124342,0.115973,-0.062156,0.098197,-0.093310
1765410731.330544,-9.866092,-0.386179,0.141081,-0.060170,0.096669,-0.085521
1765410731.333573,-9.586321,-0.585246,-0.394548,-0.061697,0.091477,-0.084758
1765410731.335541,-9.575562,-0.681492,-0.543400,-0.061697,0.087201,-0.084758
1765410731.338608,-9.759085,-0.470469,-0.163797,-0.054825,0.087659,-0.093462
1765410731.340588,-9.844571,-0.313247,-0.144668,-0.055131,0.092393,-0.092546
1765410731.341586,-9.608439,-0.300096,-0.632472,-0.052382,0.094379,-0.087506
1765410731.346613,-9.684361,-0.491392,-0.429818,-0.053451,0.097586,-0.083841
1765410731.348568,-10.205642,-0.327594,0.537422,-0.049786,0.107665,-0.085674
1765410731.350532,-10.093853,-0.606767,0.280966,-0.051160,0.099876,-0.082009
1765410731.353523,-9.976685,-0.600789,-0.107604,-0.056658,0.087506,-0.090103
1765410731.355543,-9.702892,-0.587040,-0.729316,-0.051465,0.094837,-0.091172
1765410731.358965,-9.762074,-0.454328,-0.318030,-0.047800,0.106138,-0.095906
1765410731.361538,-9.888808,-0.123147,0.139287,-0.058643,0.106138,-0.096669
1765410731.362038,-9.912720,-0.132712,-0.074127,-0.056200,0.107818,-0.087659
1765410731.364524,-9.871471,-0.520684,-0.221186,-0.055283,0.091172,-0.083078
1765410731.368563,-10.013150,-0.504543,-0.166786,-0.052229,0.091172,-0.089339
1765410731.370823,-9.985652,-0.680894,0.108800,-0.058032,0.103542,-0.098197
1765410731.373560,-9.652678,-0.319823,-0.382592,-0.058338,0.102473,-0.096059
1765410731.375566,-9.878048,-0.161406,-0.049020,-0.059559,0.090255,-0.092393
1765410731.378575,-9.856527,-0.480631,-0.255858,-0.062461,0.096211,-0.091324
1765410731.380592,-9.872667,-0.540411,-0.308465,-0.054672,0.098044,-0.091630
1765410731.383602,-9.864896,-0.502152,-0.050813,-0.055283,0.108123,-0.097128
1765410731.385689,-9.864896,-0.557150,-0.231946,-0.056047,0.097586,-0.096822
1765410731.391046,-9.979673,-0.410689,-0.125538,-0.060476,0.092546,-0.096822
1765410731.391546,-9.843973,-0.505739,-0.281564,-0.052840,0.106596,-0.096517
1765410731.393611,-9.702892,-0.407700,-0.444165,-0.050091,0.106596,-0.093615
1765410731.395596,-9.876254,-0.346724,0.041248,-0.056963,0.098502,-0.096517
1765410731.398552,-10.099234,-0.267814,0.257054,-0.060323,0.105069,-0.093157
1765410731.401546,-9.855330,-0.511717,-0.139885,-0.056658,0.101404,-0.086590
1765410731.403587,-9.759683,-0.682090,-0.468675,-0.062156,0.092393,-0.093768
1765410731.405562,-9.937230,-0.590626,-0.441176,-0.061239,0.092393,-0.099724
1765410731.408591,-10.051410,-0.291726,-0.046628,-0.054520,0.108123,-0.099571
1765410731.410525,-9.787182,-0.357484,-0.145265,-0.055283,0.116675,-0.091172
1765410731.413559,-9.787182,-0.508130,-0.035868,-0.064599,0.099418,-0.093310
1765410731.414592,-9.787182,-0.508130,-0.035868,-0.064599,0.096669,-0.093310
1765410731.418533,-9.998802,-0.481827,-0.105213,-0.054672,0.096975,-0.094379
1765410731.421771,-9.650884,-0.675514,-0.700622,-0.060628,0.094837,-0.097891
1765410731.423563,-9.752509,-0.419656,-0.345528,-0.065210,0.104458,-0.106291
1765410731.425567,-9.983260,-0.246294,-0.114778,-0.064599,0.104458,-0.101404
1765410731.428533,-9.983260,-0.246294,-0.114778,-0.064599,0.105832,-0.101404
1765410731.429530,-9.903154,-0.366451,-0.045433,-0.067653,0.108429,-0.096364
1765410731.433576,-10.019128,-0.424438,0.019130,-0.068417,0.105069,-0.098044
1765410731.435589,-10.231946,-0.478240,0.221186,-0.073304,0.097280,-0.096517
1765410731.438593,-9.918698,-0.639646,-0.322812,-0.069639,0.097280,-0.094684
1765410731.441601,-9.707077,-0.665949,-0.695839,-0.070708,0.102014,-0.100182
1765410731.443576,-9.774031,-0.518890,-0.319823,-0.064141,0.105832,-0.099724
1765410731.445571,-9.915709,-0.419058,-0.094452,-0.069180,0.110567,-0.098807
1765410731.448540,-10.139884,-0.315638,0.135103,-0.067195,0.111636,-0.098044
1765410731.449600,-10.046627,-0.570301,0.037064,-0.063377,0.118661,-0.091935
1765410731.453578,-9.717239,-0.847083,-0.545194,-0.060781,0.106596,-0.092241
1765410731.455593,-9.801530,-0.577475,-0.344931,-0.068111,0.115301,-0.108429
1765410731.458635,-9.902557,-0.349115,-0.001793,-0.069639,0.115301,-0.105374
1765410731.459591,-9.692730,-0.406504,-0.499761,-0.066126,0.115759,-0.097586
1765410731.463585,-9.854136,-0.605571,-0.132712,-0.065057,0.105374,-0.094990
1765410731.464617,-9.732184,-0.745457,-0.411286,-0.070708,0.111941,-0.099724
1765410731.468527,-9.927068,-0.736490,-0.315638,-0.067501,0.100487,-0.105527
1765410731.471598,-9.768052,-0.597202,-0.447154,-0.065515,0.115301,-0.106138
1765410731.473612,-9.768052,-0.597202,-0.447154,-0.065515,0.114995,-0.106138
1765410731.476644,-9.866689,-0.569106,-0.164993,-0.063988,0.120035,-0.110261
1765410731.478615,-10.237326,-0.267217,0.465686,-0.066432,0.118050,-0.114690
1765410731.480668,-9.946795,-0.455524,0.007174,-0.060323,0.113621,-0.100182
1765410731.481669,-9.713055,-0.720349,-0.682688,-0.066890,0.101709,-0.105222
1765410731.485648,-9.550453,-0.587040,-1.071855,-0.067501,0.104763,-0.110108
1765410731.488580,-9.885221,-0.362865,-0.333572,-0.069639,0.117133,-0.113010
1765410731.491716,-9.942610,-0.119560,0.104017,-0.074373,0.127060,-0.112705
1765410731.493590,-10.010758,-0.191296,0.170373,-0.075595,0.117133,-0.104000
1765410731.494606,-9.788378,-0.405308,-0.308465,-0.078802,0.117133,-0.098502
1765410731.498602,-9.759085,-0.646820,-0.478240,-0.077122,0.108734,-0.094684
1765410731.501552,-9.879243,-0.832735,-0.450143,-0.077427,0.110261,-0.100182
1765410731.503538,-9.898373,-0.889526,-0.590626,-0.076511,0.105527,-0.103847
1765410731.505540,-9.807508,-0.640244,-0.555356,-0.074220,0.117133,-0.113163
1765410731.508627,-9.876254,-0.375418,-0.055595,-0.071013,0.129809,-0.112552
1765410731.511535,-9.829028,-0.379603,0.054998,-0.069333,0.124311,-0.102778
1765410731.512532,-9.904350,-0.691057,-0.422645,-0.072540,0.105069,-0.103389
1765410731.515643,-9.833811,-0.653993,-0.706600,-0.069791,0.106901,-0.111941
1765410731.518558,-9.939621,-0.547585,-0.358082,-0.071777,0.123547,-0.110872
1765410731.520552,-9.888210,-0.591822,-0.243305,-0.070097,0.120035,-0.107207
1765410731.523746,-10.234337,-0.624103,0.047824,-0.085674,0.113621,-0.119730
1765410731.525652,-10.111788,-0.352702,-0.123147,-0.078496,0.123547,-0.115759
1765410731.528600,-9.742945,-0.529651,-0.659971,-0.076969,0.120493,-0.107512
1765410731.530592,-9.897178,-0.512912,-0.428025,-0.076511,0.111025,-0.111636
1765410731.533575,-10.060975,-0.792683,-0.112386,-0.079565,0.123395,-0.112705
1765410731.534583,-10.038258,-0.575084,-0.109995,-0.067042,0.121562,-0.118966
1765410731.538576,-9.887612,-0.209828,-0.340746,-0.076358,0.125075,-0.121257
1765410731.540576,-10.004781,-0.532640,-0.340746,-0.080023,0.114537,-0.118050
1765410731.543581,-9.998206,-0.308465,-0.489000,-0.075900,0.120799,-0.117286
1765410731.546577,-10.039454,-0.251076,-0.323410,-0.077580,0.124922,-0.112094
1765410731.548595,-10.074127,-0.388570,-0.057389,-0.087659,0.134085,-0.112552
1765410731.550563,-10.245097,-0.546389,0.236729,-0.086590,0.122631,-0.110261
1765410731.553594,-9.942610,-0.779531,-0.417264,-0.086285,0.122631,-0.111177
1765410731.555580,-9.811094,-0.652798,-0.853061,-0.085063,0.112705,-0.116828
1765410731.558575,-10.038258,-0.565519,-0.446557,-0.087659,0.122020,-0.122937
1765410731.560573,-10.038258,-0.565519,-0.446557,-0.087659,0.129656,-0.122937
1765410731.563551,-9.990434,-0.814204,0.011956,-0.084147,0.134849,-0.122478
1765410731.566560,-10.111190,-0.544596,0.172166,-0.080329,0.134849,-0.127518
1765410731.568553,-10.056191,-0.520086,-0.282162,-0.078343,0.121562,-0.120951
1765410731.571570,-9.758488,-0.628886,-0.869201,-0.077733,0.115148,-0.121257
1765410731.572070,-9.607842,-0.565519,-0.942133,-0.077733,0.121562,-0.121257
1765410731.576732,-10.034670,-0.559541,0.169775,-0.084910,0.137292,-0.119882
1765410731.578590,-9.928263,-0.614538,0.003587,-0.085216,0.137292,-0.118661
1765410731.581625,-9.684958,-0.674916,-0.659971,-0.087659,0.118355,-0.119730
1765410731.583614,-9.542084,-0.613941,-0.967240,-0.090713,0.118661,-0.123547
1765410731.585624,-9.785987,-0.648613,-0.585844,-0.082772,0.121257,-0.117439
1765410731.588629,-10.052007,-0.744859,-0.083692,-0.089034,0.126907,-0.124006
1765410731.591612,-10.099831,-0.468077,-0.007174,-0.091324,0.135154,-0.128587
1765410731.595096,-9.808105,-0.509923,-0.657580,-0.091935,0.133627,-0.119271
1765410731.595636,-9.775226,-0.668340,-0.724534,-0.086590,0.123547,-0.113621
1765410731.598630,-10.101624,-0.772358,-0.196078,-0.091172,0.129198,-0.117592
1765410731.600602,-9.747727,-1.050932,-0.418460,-0.087506,0.138208,-0.116828
1765410731.603593,-9.727402,-0.856647,-0.526662,-0.091019,0.135918,-0.123853
1765410731.605593,-9.661644,-0.830942,-0.494978,-0.091019,0.127213,-0.126449
1765410731.608622,-9.691534,-0.748446,-0.655189,-0.091019,0.134085,-0.124006
1765410731.610561,-9.573768,-0.755021,-0.989957,-0.083689,0.134085,-0.120493
1765410731.611533,-9.573768,-0.755021,-0.989957,-0.083689,0.137139,-0.120493
1765410731.615558,-10.148851,-0.894907,0.046031,-0.081551,0.144317,-0.121715
1765410731.618574,-10.242108,-0.879962,0.027499,-0.082161,0.142484,-0.121715
1765410731.621540,-9.647297,-1.066475,-0.999522,-0.081398,0.132252,-0.125991
1765410731.623561,-9.950381,-0.612147,-0.523075,-0.078496,0.132252,-0.129809
1765410731.625691,-10.040051,-0.808226,-0.043042,-0.074984,0.149662,-0.117286
1765410731.628551,-9.904947,-0.875777,-0.179340,-0.076816,0.143553,-0.118813
1765410731.631553,-9.917501,-0.748446,-0.387374,-0.086590,0.141263,-0.122020
1765410731.633598,-9.917501,-0.748446,-0.387374,-0.086590,0.135765,-0.122020
1765410731.636550,-9.528933,-1.090985,-1.033596,-0.072235,0.127671,-0.118050
1765410731.638565,-9.895982,-0.798661,-0.181731,-0.080940,0.140194,-0.129656
1765410731.640711,-9.913916,-0.642635,-0.050215,-0.077885,0.135459,-0.127518
1765410731.643638,-9.681372,-0.604974,-0.659971,-0.072388,0.135459,-0.119424
1765410731.645624,-9.681372,-0.604974,-0.659971,-0.072388,0.124922,-0.119424
1765410731.648588,-9.897178,-0.868006,-0.482425,-0.071013,0.139125,-0.116675
1765410731.650616,-10.039454,-0.992946,-0.241511,-0.075442,0.145080,-0.117744
1765410731.653555,-10.016738,-0.977403,-0.480631,-0.077733,0.134849,-0.122937
1765410731.655557,-10.062170,-0.851267,-0.329986,-0.084452,0.136223,-0.133474
1765410731.658593,-9.929459,-0.510521,-0.386777,-0.073457,0.138514,-0.127213
1765410731.661548,-9.747727,-0.583453,-0.596604,-0.075289,0.142484,-0.118813
1765410731.663537,-9.927068,-0.641439,-0.325801,-0.075289,0.133627,-0.118202
1765410731.665599,-10.011356,-0.891918,-0.451937,-0.074526,0.141873,-0.113163
1765410731.666628,-9.766856,-1.095767,-0.851267,-0.065210,0.138514,-0.114537
1765410731.671618,-9.766856,-1.095767,-0.851267,-0.065210,0.148135,-0.114537
1765410731.673661,-9.999401,-0.674916,-0.069345,-0.063377,0.149662,-0.128740
1765410731.675626,-9.946198,-0.603778,-0.334768,-0.067042,0.155007,-0.122020
1765410731.678583,-9.860114,-0.639646,-0.516499,-0.069639,0.144622,-0.116675
1765410731.680582,-9.624580,-0.930177,-0.887135,-0.074831,0.144622,-0.118661
1765410731.683629,-9.704685,-0.958871,-0.714371,-0.069028,0.139125,-0.120493
1765410731.685583,-9.747727,-0.873386,-0.612745,-0.073304,0.148593,-0.129503
1765410731.688582,-9.933045,-0.663558,-0.508130,-0.072235,0.146302,-0.130420
1765410731.690594,-9.957555,-0.674318,-0.234338,-0.072998,0.152411,-0.129198
1765410731.693584,-9.732184,-0.639048,-0.729316,-0.065363,0.145691,-0.125838
1765410731.696566,-9.713055,-0.655189,-0.872788,-0.068417,0.144164,-0.124464
1765410731.698622,-9.791965,-0.729914,-0.521879,-0.066890,0.153633,-0.120035
1765410731.700611,-9.891797,-1.042563,-0.417264,-0.070097,0.155923,-0.118355
1765410731.703584,-9.891797,-1.042563,-0.417264,-0.070097,0.158825,-0.118355
1765410731.706626,-9.827234,-0.546987,-0.471066,-0.077733,0.155923,-0.128587
1765410731.708620,-9.851745,-0.667743,-0.627690,-0.078496,0.149357,-0.124617
1765410731.711558,-9.868484,-0.664754,-0.681492,-0.073609,0.145539,-0.121257
1765410731.713618,-9.833213,-0.861430,-0.416667,-0.078038,0.156992,-0.123700
1765410731.716629,-9.739956,-0.853061,-0.604974,-0.071624,0.152564,-0.125838
1765410731.718652,-9.793160,-0.735294,-0.559541,-0.077274,0.143553,-0.129045
1765410731.720642,-9.941415,-0.688666,-0.466284,-0.077733,0.145539,-0.128282
1765410731.722578,-9.927068,-0.569106,-0.731707,-0.082009,0.146913,-0.130725
1765410731.724595,-9.785389,-0.624103,-0.716164,-0.083841,0.147524,-0.128129
1765410731.728650,-9.955761,-0.610354,-0.610952,-0.089950,0.153480,-0.129351
1765410731.730558,-9.882831,-0.651602,-0.420253,-0.085674,0.150273,-0.125227
1765410731.732559,-9.756096,-0.674318,-0.717360,-0.088270,0.158520,-0.125533
1765410731.735641,-9.595288,-0.835127,-0.978599,-0.085368,0.151342,-0.119271
1765410731.738613,-9.557627,-0.973218,-0.979794,-0.083230,0.151342,-0.123089
1765410731.740631,-9.803921,-0.774749,-0.675514,-0.084605,0.158367,-0.130114
1765410731.743642,-9.560018,-0.740674,-0.784911,-0.084910,0.170890,-0.124769
1765410731.744611,-9.610233,-0.937948,-0.779531,-0.088423,0.163865,-0.126755
1765410731.748600,-9.826636,-0.926590,-0.707795,-0.090103,0.155465,-0.131336
1765410731.751620,-9.965924,-0.861430,-0.463893,-0.090866,0.163865,-0.131183
1765410731.753613,-9.516976,-0.952893,-1.197991,-0.087506,0.168446,-0.131336
1765410731.755660,-9.573768,-0.914634,-0.943328,-0.090408,0.161879,-0.136070
1765410731.758651,-9.673599,-0.931372,-0.619321,-0.085979,0.173028,-0.136528
1765410731.760640,-9.743543,-0.669536,-0.600191,-0.076511,0.174097,-0.131183
1765410731.763540,-9.708273,-0.673721,-0.683285,-0.080940,0.171348,-0.133321
1765410731.766580,-9.898373,-0.615136,-0.446557,-0.085368,0.167683,-0.130267
1765410731.768603,-9.723815,-0.706600,-0.878168,-0.084758,0.165086,-0.126755
1765410731.771550,-9.779410,-0.700024,-0.608560,-0.088728,0.160199,-0.133627
1765410731.773642,-9.954566,-0.796270,-0.222979,-0.098197,0.173638,-0.133932
1765410731.774604,-9.808105,-0.857843,-0.583453,-0.093157,0.159436,-0.129962
1765410731.778626,-9.661644,-0.917025,-1.025825,-0.093921,0.156229,-0.135307
1765410731.780580,-9.929459,-0.807030,-0.792683,-0.089034,0.167683,-0.136070
1765410731.783580,-10.034670,-1.013869,-0.438785,-0.084758,0.167683,-0.133932
1765410731.785700,-10.034670,-1.013869,-0.438785,-0.084758,0.171195,-0.133932
1765410731.788571,-9.815877,-0.916427,-0.760999,-0.092852,0.170431,-0.142332
1765410731.790595,-9.673599,-0.847083,-0.912243,-0.092852,0.171042,-0.144775
1765410731.793579,-9.931850,-0.573290,-0.597800,-0.092088,0.173486,-0.145386
1765410731.795603,-9.996411,-0.714969,-0.377810,-0.101098,0.173486,-0.142790
1765410731.798592,-9.996411,-0.714969,-0.377810,-0.101098,0.172417,-0.142790
1765410731.800724,-10.027497,-0.628288,-0.772358,-0.096517,0.166919,-0.143706
1765410731.803665,-10.215804,-0.865614,-0.361669,-0.093310,0.176998,-0.136528
1765410731.804673,-10.300095,-0.857245,-0.462697,-0.090866,0.175624,-0.140041
1765410731.808636,-10.055594,-1.063486,-0.633668,-0.094226,0.168599,-0.142637
1765410731.811637,-9.955761,-0.740076,-0.736490,-0.093157,0.187536,-0.143095
1765410731.813631,-10.117765,-0.903874,-0.411286,-0.087965,0.180358,-0.138361
1765410731.816612,-10.200860,-0.948709,-0.142276,-0.097738,0.180358,-0.145233
1765410731.818610,-9.997607,-1.070062,-0.920612,-0.094226,0.175318,-0.144622
1765410731.821560,-9.711261,-1.119679,-1.278096,-0.093004,0.164934,-0.148135
1765410731.822569,-9.979673,-0.936155,-0.698230,-0.097433,0.165239,-0.156534
1765410731.826612,-10.265422,-0.758608,-0.060976,-0.091630,0.179747,-0.152869
1765410731.828571,-9.751313,-0.885940,-0.786705,-0.090561,0.179747,-0.149967
1765410731.829563,-9.878646,-0.795074,-0.706600,-0.090561,0.161421,-0.149967
1765410731.833572,-9.898373,-1.090387,-0.700024,-0.103084,0.164934,-0.147982
1765410731.836651,-9.757292,-0.904471,-1.052128,-0.096669,0.163406,-0.146913
1765410731.837574,-9.598875,-0.946915,-1.127451,-0.105069,0.168141,-0.151189
1765410731.841568,-9.821855,-0.838116,-0.456719,-0.106138,0.169362,-0.149662
1765410731.843602,-9.821855,-0.838116,-0.456719,-0.106138,0.170890,-0.149662
1765410731.844579,-9.850550,-0.967838,-1.083214,-0.103084,0.180205,-0.142942
1765410731.848564,-9.828429,-0.989359,-0.775347,-0.101862,0.180205,-0.141415
1765410731.851649,-9.828429,-0.989359,-0.775347,-0.101862,0.178373,-0.141415
1765410731.853589,-9.919893,-1.223697,-0.697035,-0.102167,0.174402,-0.141263
1765410731.855567,-9.783595,-1.170492,-0.980392,-0.101251,0.171042,-0.141263
1765410731.858598,-9.764465,-1.205763,-0.850072,-0.100793,0.175776,-0.139277
1765410731.859580,-9.515780,-1.252989,-1.291248,-0.098349,0.169821,-0.142484
1765410731.863565,-9.915112,-0.930177,-0.598398,-0.102167,0.172875,-0.149509
1765410731.866580,-9.629362,-1.193209,-1.101148,-0.096669,0.179442,-0.138514
1765410731.868578,-9.774031,-1.297226,-0.873984,-0.091783,0.166308,-0.142332
1765410731.871571,-9.802725,-1.319942,-0.932568,-0.091477,0.176693,-0.145691
1765410731.873557,-10.090864,-1.138211,-0.528455,-0.092241,0.175929,-0.145539
1765410731.874571,-9.981467,-1.064084,-0.864419,-0.098502,0.175013,-0.147982
1765410731.878627,-10.041247,-0.946915,-0.611549,-0.098655,0.175166,-0.142484
1765410731.881572,-9.776422,-1.331898,-0.890124,-0.094073,0.178067,-0.135307
1765410731.883601,-9.777617,-1.290053,-0.961262,-0.092852,0.165392,-0.140346
1765410731.886566,-9.563604,-1.447872,-1.327714,-0.094837,0.167224,-0.145539
1765410731.888632,-9.541486,-1.159134,-1.183046,-0.094837,0.167377,-0.145539
1765410731.890634,-9.650286,-1.006695,-0.865017,-0.090713,0.183718,-0.147371
1765410731.893730,-9.741151,-0.875777,-0.774749,-0.088270,0.181274,-0.140194
1765410731.895734,-9.958152,-1.099952,-0.799856,-0.094379,0.174097,-0.140194
1765410731.898676,-9.959349,-1.168101,-1.046150,-0.095448,0.163406,-0.137750
1765410731.900639,-10.016738,-1.296628,-0.885940,-0.095295,0.173486,-0.140194
1765410731.903643,-9.735771,-1.190818,-1.163917,-0.090255,0.179136,-0.141568
1765410731.904927,-10.022716,-1.015662,-0.577475,-0.091477,0.179136,-0.148746
1765410731.908608,-10.022716,-1.015662,-0.577475,-0.091477,0.180358,-0.148746
1765410731.909606,-10.035269,-0.945720,-1.001913,-0.086743,0.187536,-0.134849
1765410731.913581,-10.065758,-1.139407,-0.879962,-0.083383,0.182649,-0.136376
1765410731.914567,-10.019128,-1.189622,-0.726327,-0.091630,0.193797,-0.138056
1765410731.918655,-10.013150,-1.098756,-0.799856,-0.092088,0.188452,-0.136376
1765410731.921614,-9.795551,-1.484337,-0.887135,-0.096822,0.187383,-0.139583
1765410731.922114,-9.574366,-1.038379,-1.386896,-0.087506,0.185856,-0.144775
1765410731.925646,-9.837996,-1.044954,-0.943328,-0.093157,0.186314,-0.146150
1765410731.928580,-9.879841,-0.859039,-0.774749,-0.085063,0.193644,-0.143095
1765410731.931604,-9.894786,-0.658178,-0.643831,-0.084605,0.196546,-0.136834
1765410731.933594,-9.561213,-1.088594,-1.005500,-0.085063,0.188910,-0.129809
1765410731.936591,-9.624580,-1.228479,-1.225490,-0.094684,0.182191,-0.131641
1765410731.938565,-9.842180,-1.349235,-0.978599,-0.092699,0.178984,-0.138361
1765410731.939578,-9.857722,-1.305595,-0.837518,-0.090866,0.185092,-0.143095
1765410731.943670,-9.888808,-0.748446,-0.754424,-0.095448,0.193033,-0.148593
1765410731.946595,-9.561213,-0.766380,-1.280488,-0.098197,0.189674,-0.141415
1765410731.948559,-9.725011,-1.080822,-1.101745,-0.092241,0.177915,-0.135154
1765410731.951608,-9.687947,-1.260760,-1.425155,-0.090408,0.188605,-0.137597
1765410731.953590,-9.605451,-1.234457,-1.096365,-0.091019,0.194561,-0.142790
1765410731.955648,-9.430893,-0.997728,-1.336681,-0.102320,0.194561,-0.153022
1765410731.958607,-9.965924,-0.605571,-0.794476,-0.099266,0.190132,-0.149204
1765410731.961590,-9.764465,-0.643233,-1.220708,-0.097280,0.194255,-0.138666
1765410731.963567,-9.806311,-0.853658,-1.141798,-0.103847,0.195935,-0.133321
1765410731.965573,-9.812290,-1.154950,-1.013271,-0.095295,0.204182,-0.130114
1765410731.968579,-10.005977,-1.264945,-0.729914,-0.093004,0.193186,-0.140041
1765410731.970668,-9.886416,-1.093376,-1.205165,-0.100640,0.195324,-0.142790
1765410731.973561,-10.137493,-0.851267,-0.893113,-0.094990,0.197004,-0.148593
1765410731.975575,-9.916306,-0.867408,-0.784314,-0.097738,0.206472,-0.141568
1765410731.976614,-9.891200,-1.259565,-0.989359,-0.102014,0.197157,-0.139583
1765410731.979613,-9.992825,-1.157939,-0.758010,-0.099113,0.194713,-0.150578
1765410731.983635,-10.019726,-1.147776,-1.232664,-0.102014,0.190285,-0.146608
1765410731.985673,-10.053802,-1.229077,-1.084409,-0.094226,0.206931,-0.149815
1765410731.988661,-9.882831,-0.934959,-0.969632,-0.095600,0.206931,-0.150884
1765410731.990755,-9.795551,-0.899091,-0.653993,-0.100945,0.204029,-0.147982
1765410731.993682,-9.478120,-0.955284,-1.416786,-0.108734,0.190285,-0.149662
1765410731.995674,-9.640123,-0.805834,-1.439502,-0.104458,0.182191,-0.147982
1765410731.998587,-9.424915,-1.197991,-1.385700,-0.104458,0.191201,-0.142179
1765410732.000666,-9.612624,-1.199187,-1.175873,-0.100945,0.191201,-0.150731
1765410732.003614,-9.707077,-1.302606,-1.506456,-0.107970,0.190590,-0.159130
1765410732.006607,-9.695121,-1.027020,-1.424557,-0.100182,0.190132,-0.163712
1765410732.007621,-9.546865,-0.713773,-1.208154,-0.096517,0.206167,-0.162796
1765410732.011610,-9.769248,-0.709589,-0.839909,-0.103236,0.204640,-0.157756
1765410732.012110,-9.929459,-0.749043,-0.774749,-0.109192,0.204640,-0.156992
1765410732.016671,-9.959349,-1.079029,-0.962458,-0.109192,0.196546,-0.156992
1765410732.018634,-9.757292,-1.101745,-1.289455,-0.105222,0.195324,-0.153480
1765410732.021594,-9.522954,-1.016260,-1.667862,-0.109803,0.195324,-0.156076
1765410732.023579,-9.522954,-1.016260,-1.667862,-0.109803,0.202960,-0.156076
1765410732.026638,-9.593494,-0.933764,-1.050932,-0.099266,0.205862,-0.153633
1765410732.028672,-9.729793,-1.266738,-1.193209,-0.107665,0.202349,-0.151800
1765410732.029610,-9.680773,-1.312171,-1.477164,-0.110719,0.208305,-0.161879
1765410732.033573,-9.986848,-0.975012,-0.882353,-0.106901,0.208305,-0.160352
1765410732.036600,-9.922284,-1.535748,-0.750837,-0.107818,0.208152,-0.155465
1765410732.037100,-9.705881,-1.354615,-1.309182,-0.108581,0.193492,-0.168904
1765410732.040584,-9.742945,-1.280488,-1.244620,-0.116981,0.193644,-0.170584
1765410732.043618,-9.681372,-1.071258,-1.380918,-0.102320,0.202349,-0.167377
1765410732.044617,-9.768052,-1.018651,-1.017456,-0.104611,0.202196,-0.159741
1765410732.048951,-10.176349,-1.144189,-0.551172,-0.116828,0.204793,-0.161268
1765410732.050632,-9.900764,-1.167503,-1.383309,-0.109956,0.191048,-0.153022
1765410732.053636,-9.340028,-1.592539,-2.099474,-0.116981,0.191048,-0.155312
1765410732.056629,-9.568387,-1.448470,-1.592539,-0.111636,0.195935,-0.165392
1765410732.058582,-9.823050,-1.284074,-0.892515,-0.110719,0.215635,-0.159436
1765410732.059585,-9.757292,-1.318747,-1.162123,-0.112094,0.213803,-0.161574
1765410732.063644,-9.542084,-1.024629,-1.585963,-0.114537,0.213650,-0.159283
1765410732.065628,-9.538497,-1.337279,-1.690578,-0.118050,0.213803,-0.154854
1765410732.068632,-9.538497,-1.337279,-1.690578,-0.118050,0.209069,-0.154854
1765410732.069709,-9.886416,-1.806552,-0.992348,-0.120188,0.216552,-0.154091
1765410732.071588,-9.539692,-1.419775,-1.612864,-0.110719,0.220828,-0.164628
1765410732.075583,-9.286225,-1.220708,-1.805356,-0.111025,0.220675,-0.158520
1765410732.078621,-9.591104,-1.376136,-1.380918,-0.111483,0.216857,-0.152258
1765410732.080624,-9.591104,-1.376136,-1.380918,-0.111483,0.230449,-0.152258
1765410732.083588,-9.573170,-1.664275,-1.016260,-0.107512,0.232587,-0.140804
1765410732.086736,-9.353777,-1.832855,-1.807149,-0.113468,0.214414,-0.147219
1765410732.089598,-9.850550,-1.720468,-1.190818,-0.113621,0.213345,-0.149509
1765410732.091637,-9.850550,-1.541128,-1.257174,-0.102931,0.213345,-0.152411
1765410732.093593,-9.869678,-1.464610,-0.936753,-0.105527,0.221286,-0.154091
1765410732.095640,-9.478717,-1.388092,-1.461023,-0.098807,0.232740,-0.150120
1765410732.098631,-9.823050,-1.500478,-1.049737,-0.096364,0.208458,-0.146150
1765410732.100627,-9.928263,-1.519608,-1.207556,-0.098960,0.223271,-0.149204
1765410732.101630,-9.753107,-1.487326,-1.623625,-0.099418,0.223271,-0.151647
1765410732.105668,-9.802725,-1.562649,-1.044954,-0.099113,0.229227,-0.148288
1765410732.108670,-9.666426,-1.325920,-1.370755,-0.089492,0.216857,-0.147371
1765410732.111014,-9.940218,-1.484337,-1.083214,-0.101251,0.216246,-0.148746
1765410732.113665,-9.476326,-1.427546,-1.723458,-0.091783,0.229838,-0.148593
1765410732.117012,-9.740554,-1.398254,-1.011478,-0.082314,0.222050,-0.145080
1765410732.117512,-9.540888,-1.565638,-1.370158,-0.088728,0.234420,-0.143553
1765410732.120707,-9.659253,-1.597322,-1.281683,-0.088881,0.218995,-0.150731
1765410732.123663,-9.597081,-1.646341,-1.294835,-0.090408,0.231518,-0.152105
1765410732.125641,-9.407578,-1.396461,-1.854376,-0.090408,0.213039,-0.152105
1765410732.128690,-9.785987,-1.121473,-1.080225,-0.093921,0.219148,-0.159283
1765410732.130617,-9.591104,-0.974414,-1.392874,-0.082772,0.228005,-0.144470
1765410732.133634,-9.803921,-1.401841,-0.926590,-0.080481,0.216246,-0.135612
1765410732.135701,-9.825441,-1.607484,-1.352821,-0.092393,0.215177,-0.145691
1765410732.137657,-9.787182,-1.367169,-1.529172,-0.096822,0.214108,-0.155465
1765410732.140607,-9.320897,-1.402439,-1.788618,-0.093921,0.222508,-0.150578
1765410732.143652,-9.432089,-0.917025,-2.014586,-0.089492,0.210749,-0.154243
1765410732.145625,-9.882831,-1.122071,-0.979196,-0.099266,0.229838,-0.149051
1765410732.148587,-9.549257,-1.252989,-1.732424,-0.094226,0.229838,-0.146913
1765410732.150636,-9.846962,-1.513630,-1.272716,-0.090866,0.224035,-0.144622
1765410732.153710,-9.720826,-1.556671,-1.530368,-0.090713,0.227089,-0.149662
1765410732.154623,-10.285150,-0.954089,-0.815399,-0.093004,0.219301,-0.157298
1765410732.158583,-10.017933,-1.029412,-0.922405,-0.099418,0.219606,-0.151647
1765410732.161695,-9.595885,-0.702415,-1.957197,-0.097891,0.219606,-0.144928
1765410732.162671,-9.782400,-1.062888,-1.664275,-0.113010,0.219148,-0.141568
1765410732.164600,-9.643710,-1.549498,-1.422764,-0.102473,0.229533,-0.141415
1765410732.168595,-9.643710,-1.549498,-1.422764,-0.102473,0.231823,-0.141415
1765410732.170624,-9.514585,-1.346246,-1.961980,-0.107818,0.218384,-0.159436
1765410732.172608,-10.074724,-0.890722,-1.163319,-0.117744,0.218384,-0.161879
1765410732.175599,-9.912720,-1.263151,-1.207556,-0.108276,0.238848,-0.146913
1765410732.178616,-9.693925,-1.372549,-1.685796,-0.109650,0.219301,-0.151953
1765410732.180651,-9.526542,-1.541128,-1.526781,-0.120951,0.231518,-0.160199
1765410732.183612,-9.525346,-1.165710,-2.033716,-0.100945,0.222966,-0.158214
1765410732.185646,-9.866092,-0.988163,-1.355811,-0.108581,0.222660,-0.159741
1765410732.188665,-9.664036,-1.097561,-1.406026,-0.118202,0.220064,-0.163559
1765410732.190676,-10.040051,-0.918819,-1.052128,-0.121715,0.230143,-0.164628
1765410732.193659,-9.453012,-1.397059,-1.686992,-0.121409,0.223119,-0.159589
1765410732.195652,-9.672404,-1.163917,-1.773673,-0.127671,0.213803,-0.171653
1765410732.199582,-9.945002,-1.108919,-1.273314,-0.123242,0.233503,-0.166614
1765410732.200625,-9.885818,-1.103539,-1.280488,-0.113621,0.233961,-0.164323
1765410732.203613,-9.493662,-1.172884,-2.026542,-0.126296,0.222966,-0.165850
1765410732.206660,-9.406384,-1.121473,-2.209469,-0.136834,0.222966,-0.177456
1765410732.208635,-10.038258,-1.241033,-0.967240,-0.127365,0.235641,-0.166919
1765410732.211671,-9.640720,-1.381516,-1.786227,-0.116064,0.233656,-0.156534
1765410732.214599,-9.699306,-1.220708,-1.630201,-0.136834,0.224493,-0.175929
1765410732.216592,-9.748923,-1.480153,-1.557269,-0.126449,0.224951,-0.167224
1765410732.218592,-9.604854,-1.438307,-1.642754,-0.106901,0.224951,-0.163865
1765410732.221635,-9.604854,-1.438307,-1.642754,-0.106901,0.233503,-0.163865
1765410732.222725,-9.609037,-1.215327,-1.931492,-0.126755,0.238085,-0.186161
1765410732.226642,-9.734576,-1.291248,-1.334290,-0.127365,0.234114,-0.170584
1765410732.228694,-9.393829,-1.297226,-2.280009,-0.127365,0.213650,-0.170584
1765410732.230640,-9.909132,-1.174079,-1.340268,-0.133169,0.233351,-0.173028
1765410732.233635,-9.224652,-1.480153,-2.006217,-0.122326,0.248011,-0.158978
1765410732.235699,-9.512194,-1.563845,-1.975131,-0.129809,0.223119,-0.163559
1765410732.238613,-9.737565,-1.666667,-1.663080,-0.140194,0.223119,-0.173638
1765410732.239727,-9.737565,-1.666667,-1.663080,-0.140194,0.250913,-0.173638
1765410732.243649,-8.958631,-1.906982,-2.552606,-0.119730,0.244499,-0.158214
1765410732.244650,-9.610233,-1.782640,-1.848398,-0.139583,0.220370,-0.178220
1765410732.248654,-10.162002,-1.342659,-0.909852,-0.120035,0.251218,-0.170279
1765410732.251688,-9.763269,-1.785031,-1.601506,-0.106443,0.244499,-0.155771
1765410732.253660,-9.763269,-1.785031,-1.601506,-0.106443,0.240223,-0.155771
1765410732.255694,-9.522954,-1.734218,-1.649928,-0.128282,0.245873,-0.172875
1765410732.258641,-9.519367,-1.768292,-1.725251,-0.108581,0.240834,-0.160810
1765410732.260640,-9.539692,-1.524390,-2.118006,-0.120646,0.226478,-0.165850
1765410732.263658,-10.080702,-1.524390,-0.895504,-0.122173,0.249386,-0.165086
1765410732.265671,-9.338832,-1.896222,-1.970349,-0.112705,0.257022,-0.148288
1765410732.267646,-9.550453,-2.106647,-1.756337,-0.111636,0.216704,-0.154854
1765410732.271655,-9.799137,-1.914156,-1.488522,-0.127671,0.236558,-0.169057
1765410732.273610,-9.595288,-1.873505,-1.653515,-0.114385,0.228616,-0.156992
1765410732.275595,-9.063844,-1.973936,-2.641081,-0.114385,0.228616,-0.162643
1765410732.278642,-9.817072,-1.664275,-1.510641,-0.120493,0.226173,-0.167835
1765410732.281013,-9.725011,-1.484337,-1.380918,-0.098502,0.249538,-0.153938
1765410732.283664,-9.513988,-1.863940,-1.956002,-0.104458,0.230296,-0.153633
1765410732.285653,-9.347799,-1.446676,-2.122190,-0.110108,0.238390,-0.159589
1765410732.288730,-9.721423,-1.670253,-1.459828,-0.100487,0.253509,-0.146760
1765410732.290644,-9.206120,-2.033118,-1.961382,-0.095906,0.243735,-0.141721
1765410732.293679,-9.497847,-1.758130,-2.219034,-0.107665,0.226326,-0.160505
1765410732.295771,-9.571974,-1.477762,-1.637972,-0.098502,0.251829,-0.155465
1765410732.298645,-9.262314,-1.905787,-2.037302,-0.098502,0.255036,-0.155465
1765410732.299611,-9.528933,-1.789813,-1.889048,-0.089797,0.239765,-0.147371
1765410732.304667,-9.842180,-1.811334,-1.422166,-0.102473,0.253204,-0.159741
1765410732.305700,-9.491271,-1.802965,-1.938068,-0.091172,0.258396,-0.150578
1765410732.308667,-9.384863,-1.782640,-2.083931,-0.092241,0.241750,-0.155312
1765410732.310633,-9.552844,-1.511238,-1.303204,-0.096669,0.252745,-0.159283
1765410732.313733,-9.754900,-1.342061,-1.489718,-0.090255,0.254273,-0.150578
1765410732.316604,-9.503824,-1.430536,-1.927905,-0.085827,0.246790,-0.142332
1765410732.318591,-9.398612,-1.695361,-2.045672,-0.106291,0.245415,-0.152105
1765410732.320645,-9.595885,-1.747967,-1.645146,-0.100487,0.252287,-0.148288
1765410732.323601,-9.123624,-1.911764,-2.604017,-0.099724,0.244957,-0.150273
1765410732.326593,-9.143352,-1.403037,-2.428264,-0.106901,0.249386,-0.161421
1765410732.328613,-9.497249,-1.134624,-1.597322,-0.095600,0.268781,-0.154854
1765410732.331627,-9.131993,-1.611071,-1.944046,-0.091783,0.256105,-0.143859
1765410732.333618,-9.041127,-1.513032,-2.693687,-0.111788,0.256105,-0.158520
1765410732.335639,-9.447632,-1.315758,-1.853180,-0.111177,0.264199,-0.156229
1765410732.337599,-9.070420,-1.297226,-2.406743,-0.100793,0.270461,-0.147982
1765410732.341594,-9.262314,-1.182449,-2.556193,-0.100793,0.258549,-0.147982
1765410732.343594,-9.868484,-1.194404,-1.153754,-0.122631,0.279929,-0.157298
1765410732.346630,-10.043041,-1.371951,-1.310378,-0.105680,0.284510,-0.139888
1765410732.348600,-9.763269,-1.582974,-1.805356,-0.109192,0.264963,-0.152716
1765410732.351637,-9.987445,-1.489718,-1.360593,-0.132252,0.273668,-0.165850
1765410732.353684,-9.448229,-1.444285,-2.093496,-0.111636,0.277791,-0.152869
1765410732.355693,-9.539692,-1.432329,-2.339789,-0.114079,0.241750,-0.160505
1765410732.358597,-10.187110,-1.180057,-1.076638,-0.120493,0.265268,-0.165239
1765410732.360609,-9.858918,-1.284074,-1.604495,-0.109803,0.284663,-0.148898
1765410732.363618,-9.268889,-1.425155,-2.748684,-0.115912,0.267406,-0.154091
1765410732.366602,-10.280965,-1.148972,-1.260760,-0.131183,0.255647,-0.174402
1765410732.368639,-10.328789,-1.093974,-1.063486,-0.116523,0.287412,-0.154396
1765410732.371630,-9.475131,-1.538737,-2.533477,-0.121257,0.260229,-0.157756
1765410732.373636,-9.461978,-1.496891,-2.071975,-0.133932,0.273515,-0.175624
1765410732.375624,-9.432089,-1.476566,-1.863343,-0.114843,0.263283,-0.159741
1765410732.378605,-9.258727,-1.580583,-2.236370,-0.109192,0.263283,-0.159741
1765410732.381680,-10.153036,-1.247609,-1.386896,-0.133779,0.262367,-0.179594
1765410732.383680,-9.960544,-1.188426,-1.488522,-0.121562,0.290161,-0.162032
1765410732.385666,-9.219870,-1.602104,-2.780966,-0.116523,0.265268,-0.154702
1765410732.388688,-9.780008,-1.881874,-1.736011,-0.132863,0.277638,-0.169210
1765410732.391647,-9.861309,-1.609875,-1.634983,-0.118966,0.277638,-0.165239
1765410732.393655,-9.861309,-1.609875,-1.634983,-0.118966,0.260839,-0.165239
1765410732.396674,-9.709468,-1.458632,-1.806552,-0.137445,0.258854,-0.184329
1765410732.398690,-9.999401,-1.410808,-1.506456,-0.130114,0.269850,-0.166308
1765410732.400612,-9.276062,-1.936872,-2.990196,-0.133779,0.253204,-0.167683
1765410732.401636,-9.778215,-1.825083,-2.050454,-0.140346,0.253967,-0.183870
1765410732.404712,-9.778215,-1.825083,-2.050454,-0.140346,0.286496,-0.183870
1765410732.408678,-9.584527,-1.849593,-2.070779,-0.119424,0.259465,-0.168904
1765410732.410668,-9.531323,-1.514825,-2.151482,-0.139277,0.259465,-0.177304
1765410732.413729,-9.450620,-1.665471,-2.138928,-0.124922,0.271988,-0.158672
1765410732.414649,-8.875537,-2.319464,-3.041606,-0.124006,0.257632,-0.155923
1765410732.418604,-9.684361,-2.211860,-2.054041,-0.132710,0.241292,-0.177304
1765410732.421622,-9.753705,-1.720468,-1.804160,-0.121715,0.262214,-0.175776
1765410732.422122,-9.039932,-1.703730,-2.698469,-0.117744,0.262214,-0.166308
1765410732.425611,-9.463174,-1.387494,-2.034911,-0.140957,0.251066,-0.170279
1765410732.427614,-9.717837,-1.714490,-1.669058,-0.137903,0.263283,-0.154702
1765410732.430629,-9.188187,-2.158058,-2.635700,-0.128282,0.247095,-0.151342
1765410732.433674,-9.216881,-2.117408,-2.751076,-0.141110,0.258549,-0.164475
1765410732.435660,-9.869678,-2.020564,-1.572812,-0.131336,0.258549,-0.157756
1765410732.438609,-9.556431,-2.263271,-2.392396,-0.131336,0.252745,-0.157756
1765410732.440632,-9.720826,-2.106647,-2.297943,-0.139430,0.268781,-0.170126
1765410732.443633,-9.649688,-2.015782,-1.897417,-0.137445,0.268781,-0.162643
1765410732.445673,-9.649688,-2.015782,-1.897417,-0.137445,0.247095,-0.162643
1765410732.448634,-9.295790,-2.042085,-2.821018,-0.133932,0.244193,-0.171806
1765410732.450697,-9.886416,-1.657102,-1.694165,-0.123395,0.268933,-0.171806
1765410732.453651,-9.398612,-2.024151,-2.483261,-0.112094,0.267864,-0.145233
1765410732.455660,-9.503824,-1.957197,-2.326638,-0.131336,0.245110,-0.161116
1765410732.458642,-9.726207,-1.753945,-2.113821,-0.124922,0.276875,-0.152564
1765410732.460639,-9.237206,-2.407938,-2.600430,-0.114995,0.266032,-0.137139
1765410732.463686,-9.524150,-1.970349,-2.337398,-0.114843,0.257632,-0.157603
1765410732.465717,-10.161406,-1.821497,-1.083812,-0.114232,0.284052,-0.157451
1765410732.468653,-9.281443,-1.926709,-2.673362,-0.102320,0.279776,-0.141415
1765410732.471670,-9.395025,-2.016379,-2.546030,-0.110872,0.251982,-0.149662
1765410732.473628,-9.576159,-1.927307,-1.901004,-0.118508,0.269850,-0.149357
1765410732.475627,-9.440458,-2.015782,-2.520325,-0.104153,0.265115,-0.140499
1765410732.478642,-9.357364,-1.861549,-2.424079,-0.110108,0.255342,-0.153785
1765410732.481659,-9.776422,-1.544715,-1.670253,-0.106291,0.282067,-0.148593
1765410732.481717,-9.135580,-1.843615,-2.925633,-0.100029,0.264963,-0.138819
1765410732.485684,-9.582734,-1.768890,-2.233979,-0.114537,0.251524,-0.154854
1765410732.488674,-9.567192,-1.715088,-1.992468,-0.109345,0.284052,-0.143706
1765410732.491685,-9.118841,-2.119201,-3.002152,-0.101862,0.262214,-0.144164
1765410732.493658,-9.643710,-1.702534,-2.244141,-0.108581,0.262214,-0.157756
1765410732.495666,-9.997607,-1.329507,-1.420971,-0.093921,0.293673,-0.147524
1765410732.498700,-9.629362,-1.669058,-2.233381,-0.096364,0.281303,-0.137445
1765410732.500650,-9.578550,-1.523792,-2.357126,-0.109803,0.271530,-0.153633
1765410732.503622,-9.578550,-1.523792,-2.357126,-0.109803,0.288176,-0.153633
1765410732.505716,-9.222260,-1.851985,-2.524509,-0.102167,0.280998,-0.143706
1765410732.509609,-9.649688,-1.521999,-1.990674,-0.113774,0.279013,-0.157603
1765410732.511670,-9.402199,-1.642754,-1.988283,-0.107054,0.288176,-0.149357
