time,acc_x_g,acc_y_g,acc_z_g,gyro_x_rad_s,gyro_y_rad_s,gyro_z_rad_s
1765409464.94267,-7.850522609709379,4.290544784978922,-4.001993639264594,-0.008386159598626538,-0.007983394232026176,0.0004706792544997616
1765409464.94292,-7.841511709036311,4.2969874884162484,-4.009826255307137,-0.0082708633679911,-0.00782173678147857,-7.777679128369415e-05
1765409464.94317,-7.831232339149787,4.303553156978362,-4.017198392884542,-0.008215881894324921,-0.007667819190639734,-0.0006309216276951649
1765409464.94342,-7.818535920229303,4.31075648524361,-4.02361025417371,-0.008239410251960823,-0.007509567814732428,-0.0011901993721301896
1765409464.944706,-7.802331894403675,4.319070619310991,-4.028606556908345,-0.008356645018950165,-0.007334080165229226,-0.001757026722680912
1765409464.944956,-7.781650274133268,4.328904732144116,-4.031796137865251,-0.008578722432479062,-0.007128001548395183,-0.002332589410260741
1765409464.945206,-7.755698230547057,4.340585305798287,-4.032868101959675,-0.008911816858748565,-0.00687795888173079,-0.002917654770940726
1765409464.945456,-7.723907933677422,4.3543422750643055,-4.03160347069992,-0.009356467219534481,-0.0065710284642123504,-0.003512416851446807
1765409464.944775,-7.685973432909136,4.370301057531369,-4.027881459252982,-0.009907194095439279,-0.006195204030485943,-0.004116391865921365
1765409464.944975,-7.641874947145525,4.388481276092465,-4.021679952650116,-0.010552460152230122,-0.005739828500678783,-0.004728382161763441
1765409464.945175,-7.591889670643278,4.40880266632103,-4.013070225246582,-0.01127501096655606,-0.00519595840038126,-0.005346525129007816
1765409464.945375,-7.536589199882126,4.431098205198633,-4.002206200108692,-0.012052612025502897,-0.004556644300788129,-0.005968438221099386
1765409464.945575,-7.476824754298404,4.45513381938065,-3.989308648981774,-0.01285917098080527,-0.0038171302447429483,-0.006591461881809785
1765409464.94567,-7.413702086309723,4.48063310566942,-3.9746449985002577,-0.013666204308996304,-0.0029749929412979477,-0.007212991740834798
1765409464.94592,-7.348548131045252,4.507304528160869,-3.9585059981546085,-0.01444457689888695,-0.0020302518489313187,-0.007830884856968964
1765409464.94617,-7.282871215583257,4.534867960896678,-3.9411812382779976,-0.015166412496652506,-0.0009854829451604093,-0.008443923525718216
1765409464.94642,-7.218316377480059,4.563077541447317,-3.922936008468401,-0.015807042702999357,0.00015403626349269836,-0.009052320999387508
1765409464.946647,-7.156617211138079,4.591738575099994,-3.9039919995360073,-0.01634683572683852,0.0013801333893231856,-0.009658252404436884
1765409464.946897,-7.099545612251017,4.620717392208213,-3.8845139126683925,-0.01677273164788286,0.0026814970005518894,-0.0102663894429845
1765409464.947147,-7.048860660294149,4.649944235644383,-3.864603410490566,-0.01707931965555481,0.004043396527342456,-0.010884409265760875
1765409464.947397,-7.006257563212473,4.6794101309564375,-3.844301245525223,-0.01726933158006794,0.005447398992856595,-0.01152343797284449
1765409464.947741,-6.973317194993928,4.709159148219171,-3.8235977734935505,-0.017353491201892404,0.006871131624073922,-0.012198381337043504
1765409464.947941,-6.9514565811979665,4.739277579166397,-3.802451152074337,-0.017349737599127342,0.0082881505719656,-0.012928093584239055
1765409464.948141,-6.941880978658181,4.76988144012451,-3.7808112689645648,-0.017281918411548285,0.009667974484699674,-0.013735341720388075
1765409464.948341,-6.9455389345801315,4.801103411405021,-3.758646151784467,-0.01717811157882194,0.010976320864747863,-0.014646539066604307
1765409464.948541,-6.963082580914289,4.833079916423639,-3.735966796029868,-0.017068770448013883,0.012175547854260945,-0.01569124673215032
1765409464.948947,-6.994835959045801,4.865938727574456,-3.7128463847673183,-0.01698489311055441,0.013225270301618266,-0.01690147082153261
1765409464.949197,-7.0407740292411125,4.899787406512763,-3.6894308409571357,-0.01695639838772618,0.014083097986844414,-0.018310807691243266
1765409464.949447,-7.100514211818717,4.934702978213261,-3.665939297972306,-0.017010856781541295,0.014705433305555227,-0.0199535025484068
1765409464.949697,-7.1733212044388175,4.970723344440136,-3.6426549112123174,-0.017172676598147966,0.015048260740021075,-0.02186348657234038
1765409464.949798,-7.25812482581442,5.007840988802505,-3.6199079635157703,-0.017462780499672988,0.01506786618264497,-0.024073447214725395
1765409464.950048,-7.353549869324405,5.045999487892325,-3.598054115333525,-0.017898731645229943,0.014721449016606658,-0.026613969480785836
1765409464.950298,-7.457956292415009,5.085093166524639,-3.5774508544221795,-0.018495199670521916,0.013967630839733593,-0.02951276757065062
1765409464.950548,-7.569487434268837,5.124969898837837,-3.5584349140012907,-0.019264615460978976,0.012766905065113673,-0.03279401159542375
1765409464.950811,-7.686123398143217,5.165436679848976,-3.5413029729966476,-0.02021786078573231,0.011082092809533322,-0.03647774793600565
1765409464.951061,-7.8057363075862725,5.206267395456486,-3.526297562946999,-0.021364871139784237,0.008878864942512306,-0.04057941540823812
1765409464.951311,-7.926143849329723,5.247212292409624,-3.513599886211962,-0.02271508243762086,0.006126363710448287,-0.04510946692763148
1765409464.951561,-8.045157585231523,5.288008756831455,-3.503331044467507,-0.02427770398348015,0.0027979251112347186,-0.05007310753374619
1765409464.95167,-8.160623544337634,5.328392800585126,-3.4955624270322962,-0.026061834139669685,-0.0011281163563926031,-0.05547014969324365
1765409464.95192,-8.270454944084907,5.36811013121118,-3.490334218438132,-0.02807644599011345,-0.005667557483049297,-0.06129497300105189
1765409464.95217,-8.372659898155515,5.40692528490269,-3.4876785450895462,-0.030330266583200923,-0.010829398650413432,-0.06753657025806344
1765409464.95242,-8.465369196200372,5.4446274818677365,-3.4876419492754,-0.0328315661141624,-0.016614873561840472,-0.07417866982181291
1765409464.952667,-8.546869456804806,5.481032644965223,-3.490301697309574,-0.03558786492126407,-0.023016480172236658,-0.08119993740064387
1765409464.952917,-8.61564496312911,5.515981992327717,-3.4957718728468916,-0.038605555388465836,-0.030017089734754778,-0.08857426911765134
1765409464.953167,-8.67042810722803,5.549338296555247,-3.5041974799901947,-0.04188942937387626,-0.0375892299179657,-0.09627119007655513
1765409464.953417,-8.710254927538434,5.5809811549223385,-3.5157370273076394,-0.04544210985455832,-0.045694641122725775,-0.10425637422665636
1765409464.95377,-8.73451998846135,5.610802589473384,-3.53053561410865,-0.04926340797343877,-0.054284196818437,-0.11249230331837623
1765409464.95402,-8.743024382748853,5.638704072795838,-3.548691101866778,-0.05334964962343946,-0.06329825767441818,-0.12093907722494687
1765409464.95427,-8.736011529787046,5.664595592650052,-3.570215930462071,-0.057693025901422765,-0.0726674983727691,-0.12955536927046102
1765409464.95452,-8.714186833532839,5.6883967201488455,-3.5949972984696372,-0.06228102121967538,-0.08231421664608361,-0.13829949655159057
1765409464.954733,-8.678718565039604,5.710039141011368,-3.6227590960273544,-0.06709597223120085,-0.09215410957486997,-0.14713055954872598
1765409464.955066,-8.631218410308554,5.729469958713169,-3.6530298401907757,-0.0721148133077012,-0.1020984722131841,-0.1560096005123518
1765409464.9554,-8.573701020094461,5.746655228637784,-3.685121402788575,-0.07730906407865423,-0.11205673326070786,-0.1649007301414219
1765409464.955667,-8.508522638850291,5.761583475902994,-3.7181232425904143,-0.08264510536864168,-0.12193920578494126,-0.17377217163412975
1765409464.955917,-8.43829958516668,5.774269257429777,-3.7509160682348357,-0.0880847733133085,-0.13165991723396503,-0.18259716952367383
1765409464.956167,-8.365808369464068,5.784757010803108,-3.782207215514725,-0.09358628689455438,-0.14113939073810328,-0.19135471047661867
1765409464.956417,-8.293870882732554,5.793125337786313,-3.810587424185597,-0.09910551681532541,-0.15030725590698774,-0.20003000796505713
1765409464.956725,-8.22523012492067,5.7994914920335034,-3.8346055912023984,-0.10459759401982702,-0.1591045588638982,-0.20861471483890157
1765409464.956975,-8.16242373358097,5.80401544972963,-3.8528553713828546,-0.11001883046872031,-0.16748563268830202,-0.21710684773599562
1765409464.957225,-8.107663737691581,5.806902901691402,-3.8640658660677154,-0.11532888250171286,-0.17541940144373555,-0.2255104306244693
1765409464.957475,-8.062731396657348,5.8084068290059605,-3.867188157138593,-0.12049304088751113,-0.182890025753753,-0.23383488267896854
1765409464.957703,-8.028895518959134,5.808827606918526,-3.861469874050317,-0.12548449364396075,-0.1898968416239418,-0.2420941834637947
1765409464.958036,-8.006861075658028,5.808511529725495,-3.846511215264779,-0.13028638287623884,-0.19645358327529655,-0.25030585104844916
1765409464.95837,-7.996752267798617,5.807847434907626,-3.822297897597209,-0.13489346934368004,-0.20258691083914257,-0.2584897729457905
1765409464.958829,-7.998130870101748,5.807260999553355,-3.7892091109798693,-0.13931323571419765,-0.2083342881036145,-0.266666934408273
1765409464.959079,-8.010047276864137,5.807206193050683,-3.7480010306293523,-0.14356630281793148,-0.21374128014596466,-0.2748580885504171
1765409464.959329,-8.031118832311762,5.808153069204536,-3.69976817196876,-0.14768609095485066,-0.21885837085362814,-0.28308241157739517
1765409464.959579,-8.059628152142363,5.810570776727223,-3.645885833602108,-0.1517177156749714,-0.22373743659030068,-0.2913561955425044
1765409464.959765,-8.093633318079398,5.814904921499541,-3.5879375062989753,-0.15571615709348852,-0.2284280504645994,-0.29969165202662934
1765409464.960098,-8.13108177093771,5.821549439824327,-3.527631831253364,-0.159743783143555,-0.2329738285028217,-0.30809591720299584
1765409464.960432,-8.169920038227765,5.830814492987447,-3.466714521681651,-0.16386734399675984,-0.23740906353271762,-0.31657034524342337
1765409464.960784,-8.208191996866965,5.842892892870586,-3.4068814381567134,-0.1681545909451506,-0.24175591860240475,-0.32511015084109934
1765409464.961034,-8.244119531869922,5.857827853169568,-3.349699399573752,-0.17267070283453234,-0.2460224517269316,-0.3337044230328154
1765409464.961284,-8.276161679912965,5.875484556964885,-3.2965407585927826,-0.17747471470209347,-0.2502016951814535,-0.3423364952214996
1765409464.961534,-8.303051594755285,5.895527602415851,-3.248535791939641,-0.18261613547864392,-0.2542719066725247,-0.35098463169737926
1765409464.962357,-8.323814033742696,5.9174062969259955,-3.20654379870822,-0.1881319278787872,-0.2581979687907905,-0.3596229824989906
1765409464.96269,-8.337768290296516,5.940350057518657,-3.1711405456989517,-0.19404401513732103,-0.2619337865851063,-0.36822275796981985
1765409464.963024,-8.344521968444377,5.963376349460534,-3.1426175869183353,-0.20035747437598703,-0.2654254647191957,-0.376753569543415
1765409464.962845,-8.343960155176134,5.985313139571121,-3.1209886373103353,-0.2070595644990419,-0.26861503845041923,-0.3851848721935814
1765409464.963095,-8.336233243288302,6.004836755400767,-3.1059994718008146,-0.2141197056680489,-0.27144455190413125,-0.39348743617327575
1765409464.963345,-8.321745165715011,6.0205247149347985,-3.0971402984180925,-0.22149047374765157,-0.2738602872177319,-0.40163477776662276
1765409464.963595,-8.301141907107185,6.0309218915484175,-3.0936625491231715,-0.2291096054641326,-0.27581693366149346,-0.4096044856292881
1765409464.963801,-8.27529810577823,6.034617481460349,-3.094604411806439,-0.23690294020518898,-0.27728144601615445,-0.4173793801155035
1765409464.964134,-8.24529821829622,6.030329501733209,-3.098829928669705,-0.24478815813210475,-0.27823629153396656,-0.4249484349282248
1765409464.964468,-8.212408761405582,6.016992579540793,-3.1050845741290978,-0.2526791150769771,-0.27868176018535956,-0.4323073860597074
1765409464.964732,-8.178039519771623,5.993843518224704,-3.1120665476729563,-0.26049052684679413,-0.27863704753422747,-0.43945896760602754
1765409464.964982,-8.14369369299279,5.960498046279232,-3.1185090175737837,-0.26814272096554487,-0.2781399175476228,-0.44641274513014617
1765409464.965232,-8.110908951187566,5.917011870184665,-3.123265557424318,-0.275566156037775,-0.27724488937418795,-0.4531845491769088
1765409464.965482,-8.081192689432697,5.8639198337312965,-3.1253896204069744,-0.2827054199851505,-0.27602003699460975,-0.45979553809102164
1765409464.965741,-8.055955269694133,5.802248399135866,-3.124199071199556,-0.28952246918511554,-0.2745426230391278,-0.46627094549693293
1765409464.966074,-8.036444881447594,5.733498462255035,-3.119318367777012,-0.2959989492176811,-0.27289389996085595,-0.4726385926033742
1765409464.966408,-8.023687073197856,5.6595974804651075,-3.1106938576997063,-0.3021375121839474,-0.2711535014982087,-0.4789272587749039
1765409464.966777,-8.018431339899475,5.582822008269721,-3.0985815704738173,-0.3079620930581122,-0.269393907956275,-0.4851650021675445
1765409464.967027,-8.021106919015056,5.50569401437271,-3.083511036478072,-0.31351713418710075,-0.2676754817157362,-0.4913775151690592
1765409464.967277,-8.031790438108999,5.430856541496549,-3.0662317245291706,-0.318865771294428,-0.266042516868,-0.497586595049691
1765409464.967527,-8.050188757997157,5.360935853397246,-3.0476496369908928,-0.3240870256987937,-0.2645206321519087,-0.5038088059209714
1765409464.967709,-8.075640260403599,5.298397926440006,-3.0287606466887103,-0.32927208568046934,-0.2631156863415798,-0.5100543995131832
1765409464.968042,-8.107136477836839,5.245407285605669,-3.0105856061580902,-0.3345198038682757,-0.2618142461275482,-0.5163265507884293
1765409464.968376,-8.14336398486106,5.2036961990808095,-2.994111064522542,-0.33993158680046054,-0.260585516333747,-0.5226209530151377
1765409464.968679,-8.182764927553116,5.174452204204968,-2.980238339178091,-0.34560590534918634,-0.2593845564790604,-0.5289258074856894
1765409464.968929,-8.223613744036511,5.158231645014155,-2.9697423120918556,-0.3516327069432768,-0.25815653924120974,-0.5352222357307437
1765409464.969179,-8.264106651363653,5.154906196968394,-2.963240379593777,-0.3580880570000876,-0.2568417379253351,-0.5414851321571925
1765409464.969429,-8.302458455541375,5.163648059792809,-2.9611724669534443,-0.36502936523956575,-0.2553808647966302,-0.547684453793159
1765409464.969747,-8.336998639098018,5.182957376233806,-2.9637943873527157,-0.372491542122664,-0.25372033751972045,-0.5537869069436187
1765409464.97008,-8.36625709676973,5.21073255002549,-2.9711872403425956,-0.3804843665054831,-0.25181703854809256,-0.5597579438735133
1765409464.970414,-8.389030595993876,5.244381050436032,-2.983283866698425,-0.38899123540848074,-0.24964215379958485,-0.5655639377079045
1765409464.970746,-8.404423985076015,5.280965523649643,-2.9999102229339636,-0.3979693399142548,-0.24718373403094696,-0.5711743695477269
1765409464.970996,-8.411864380315931,5.317377536629248,-3.0208362841096874,-0.40735119932710273,-0.244447719524878,-0.576563843030875
1765409464.971246,-8.41109110871221,5.350528746234468,-3.0458283362257346,-0.41704740592950085,-0.2414573060254592,-0.5817137437218756
1765409464.971496,-8.40212831480022,5.377546771169804,-3.07469237905223,-0.4269503860719369,-0.23825069862110737,-0.5866133907783272
1765409464.971755,-8.385249681531464,5.395961140402152,-3.107297953890604,-0.4369389635666629,-0.23487748515726486,-0.5912605877254133
1765409464.972088,-8.360944465166076,5.403864278253446,-3.1435746737838937,-0.44688350838842245,-0.23139403717160548,-0.5956615589769125
1765409464.972422,-8.329891087279224,5.400034184052598,-3.1834797589464197,-0.45665145253232187,-0.22785847786616248,-0.599830340684716
1765409464.972723,-8.292940306977956,5.3840090442803445,-3.226941578988664,-0.46611294339630327,-0.22432580975372135,-0.6037877564400557
1765409464.972973,-8.251106010323985,5.3561085439387455,-3.2737895513269,-0.47514638542734416,-0.22084375756129415,-0.6075601358243937
1765409464.973223,-8.20555873422052,5.317401233065795,-3.3236839889370704,-0.48364360446048144,-0.21744976413551018,-0.6111779262981514
1765409464.973473,-8.15761575666594,5.26962140541844,-3.3760599360327173,-0.49151436472454824,-0.2141694023422281,-0.6146743152690072
1765409464.973746,-8.108722445704895,5.215042233889681,-3.430095960187276,-0.4986899826717832,-0.21101627211208424,-0.6180839349194109
1765409464.974079,-8.060422314411497,5.156314370325393,-3.484713145676357,-0.5051258231579583,-0.20799328000735567,-0.6214416862877653
1765409464.974413,-8.014316366541554,5.096281162775205,-3.538603892786533,-0.5108025341952456,-0.2050950737118552,-0.6247817005627762
1765409464.974737,-7.972014109119424,5.037783307794453,-3.590286925477226,-0.5157259663418868,-0.2023113269419361,-0.6281364485093335
1765409464.974987,-7.935078740508389,4.9834669863286605,-3.638184017697078,-0.5199258179232247,-0.1996305269458685,-0.6315360032246551
1765409464.975237,-7.904968644826196,4.935609905919375,-3.680713469911681,-0.5234531404865512,-0.1970438873054486,-0.6350074538716166
1765409464.975487,-7.882977521977122,4.895978759988206,-3.7163940255419896,-0.526376925957971,-0.19454898233974072,-0.6385744593447322
1765409464.975794,-7.8701762251605905,4.865729110983853,-3.7439511603560596,-0.5287800660921552,-0.1921526894799107,-0.6422569209826337
1765409464.976127,-7.867359947510622,4.845354700393217,-3.762416677298365,-0.530755008678002,-0.18987306297810494,-0.6460707478456709
1765409464.976461,-7.875004326420381,4.834688477308408,-3.7712128434924512,-0.5323994255177341,-0.18773986104926044,-0.6500276974191868
1765409464.976776,-7.893233396822231,4.832953336032912,-3.770213646227619,-0.5338121631238567,-0.18579359315342028,-0.6541352992151227
1765409464.977026,-7.9218014845492775,4.838857218324876,-3.7597775371580493,-0.5350896873639158,-0.1840831166716712,-0.6583968914256021
1765409464.977276,-7.9600903987893625,4.850724535131541,-3.7407478212509964,-0.5363231750107642,-0.18266196972840765,-0.6628118005638572
1765409464.977526,-8.007122718962886,4.866653192682437,-3.7144186661625187,-0.5375963527178463,-0.1815837630479976,-0.6673756645092691
1765409464.977762,-8.061591441760346,4.884683780099278,-3.6824669788425357,-0.5389841302806759,-0.18089705873636955,-0.6720808560390611
1765409464.978095,-8.121905603647555,4.9029652999181454,-3.646853255560701,-0.5405520139759009,-0.1806402301728257,-0.6769169331760512
1765409464.978429,-8.186250564400341,4.91990117439608,-3.609697675091398,-0.5423562175207512,-0.18083681498378068,-0.6818710399257738
1765409464.978682,-8.252660421035083,4.934260940588434,-3.573140793719775,-0.5444443181082251,-0.18149183866744453,-0.6869282020204978
1765409464.978932,-8.319098949311158,4.945247060000178,-3.5392005123705834,-0.546856244785674,-0.18258950718155428,-0.6920714942852783
1765409464.979182,-8.383545026679478,4.952511644686415,-3.5096375548391774,-0.5496253504588068,-0.1840925499084742,-0.6972820888516563
1765409464.979432,-8.444078533108723,4.956123418174726,-3.485840394316742,-0.5527793147523187,-0.1859433440581806,-0.7025392221627067
1765409464.979726,-8.498962791888482,4.9564903019064435,-3.4687383998271875,-0.556340653536869,-0.18806678243734992,-0.7078201453418165
1765409464.980059,-8.546719682503621,4.954247646022521,-3.4587497478849683,-0.5603266707236337,-0.19037468439611832,-0.7131001481638838
1765409464.980393,-8.586193854221369,4.950126079573285,-3.455768237935989,-0.5647487735099087,-0.192771409186668,-0.7183527618651736
1765409464.980757,-8.616602751713364,4.944815476950832,-3.45919040658431,-0.5696111720181911,-0.19516020310342116,-0.7235502347412363
1765409464.981007,-8.637568904721016,4.938841894740208,-3.4679815782226515,-0.5749090862876822,-0.19744969265702766,-0.7286643301918752
1765409464.981257,-8.649130356298635,4.9324723666402255,-3.480776754431275,-0.5806266803873116,-0.19955986343628815,-0.7336674287781133
1765409464.981507,-8.651725609483979,4.925658598741516,-3.4960088818023354,-0.5867350283721513,-0.20142689573410755,-0.73853384841546
1765409464.981731,-8.646152254954902,4.918025753304201,-3.512052818283145,-0.5931904774320157,-0.2030063729473148,-0.7432412577886303
1765409464.982064,-8.63350263431844,4.908907566273799,-3.527369656884828,-0.59993379098302,-0.20427458547844932,-0.7477720556447354
1765409464.982398,-8.615083143807732,4.897424470606687,-3.5406351425280524,-0.6068904131973507,-0.20522787012539634,-0.7521146044870004
1765409464.982788,-8.592324967910844,4.882597068318297,-3.5508382542578407,-0.6139720946870753,-0.20588013877592629,-0.7562642152059509
1765409464.983038,-8.566694123331123,4.863482945922409,-3.557340101502241,-0.6210799673911489,-0.20625895370057462,-0.7602237676675674
1765409464.983288,-8.539608543475245,4.839320688161831,-3.5598880254608156,-0.628108974131956,-0.20640067409549775,-0.764003835351068
1765409464.983538,-8.512368759877612,4.809662076487679,-3.5585857311374793,-0.6349533721975549,-0.20634530210087404,-0.7676221934451748
1765409464.98384,-8.486105723992273,4.774473358657743,-3.553827347186864,-0.6415128733300166,-0.20613168333148388,-0.7711026555554337
1765409464.984173,-8.461745548541636,4.734189992862959,-3.546209265149726,-0.6476988816613953,-0.20579365809442193,-0.7744732967746573
1765409464.984507,-8.439988562017932,4.689715832230371,-3.5364357902316734,-0.6534402547415302,-0.20535760412804624,-0.7777642394031016
1765409464.984754,-8.421299922390165,4.642365638123658,-3.5252325639077497,-0.6586880296590408,-0.20484157311418058,-0.7810052550430661
1765409464.985004,-8.4059102076577,4.593757310100432,-3.5132770899764525,-0.6634186167220263,-0.20425596127611556,-0.7842234540433615
1765409464.985254,-8.393825658325355,4.545666215125009,-3.5011504948189955,-0.6676350777025066,-0.2036054473418672,-0.7874413081801703
1765409464.985504,-8.384848481718286,4.499858138900262,-3.4893102867400567,-0.6713662860330986,-0.20289182063864605,-0.7906752106507213
1765409464.985745,-8.378607448721768,4.457919616405766,-3.4780815448707294,-0.6746639916660196,-0.20211729238044013,-0.7939347240689951
1765409464.986078,-8.374597629239204,4.421104711687809,-3.467664059634827,-0.6775980363801756,-0.20128788791583055,-0.7972225961549438
1765409464.986412,-8.372226099257041,4.390215706156644,-3.458153937653805,-0.6802501511753143,-0.20041652234963583,-0.8005355376096414
1765409464.986739,-8.370859249519011,4.36553161676718,-3.449577679166982,-0.6827069076026513,-0.199525369294193,-0.8038656682042882
1765409464.986989,-8.369867785046745,4.346793062758903,-3.4419341178086125,-0.6850524895860559,-0.19864717325564424,-0.8072024533898603
1765409464.987239,-8.368666928253857,4.33324510989421,-3.4352367224466605,-0.6873619925300053,-0.19782525751738744,-0.8105348798524423
1765409464.987489,-8.366750428875841,4.323732222176918,-3.429547842311724,-0.6896959234350019,-0.1971121391875965,-0.8138535615527053
1765409464.987753,-8.363717220375202,4.3168325282009805,-3.4249982576713234,-0.6920964543653888,-0.19656684463760918,-0.8171524428157162
1765409464.988086,-8.359289270533152,4.311013417549112,-3.4217891477485813,-0.6945857759601034,-0.19625117254456825,-0.8204297961402568
1765409464.98842,-8.35331895298605,4.304788031599377,-3.420177951966826,-0.697166634320643,-0.19622525318796927,-0.8236883170459017
1765409464.988736,-8.34578479852599,4.296853189738024,-3.420452961336789,-0.699824857125733,-0.19654280993418435,-0.8269342839451796
1765409464.988986,-8.336776190493215,4.286193625999095,-3.4229024777177233,-0.7025334341885591,-0.19724655189075702,-0.8301759347538598
1765409464.989236,-8.326469955349568,4.2721440808600555,-3.4277829790357295,-0.7052575588194088,-0.19836410606691643,-0.8334213643073707
1765409464.989486,-8.315103605991435,4.254408151442935,-3.4352884312273497,-0.7079599841185155,-0.1999048254485786,-0.8366763327838471
1765409464.989697,-8.30295026428154,4.233039174905782,-3.445521485981455,-0.7106060984080083,-0.2018577052931911,-0.8399423808711712
1765409464.989947,-8.290299157213536,4.208392651135511,-3.458467351391707,-0.7131682457951738,-0.20419054005521345,-0.8432155785633771
1765409464.990197,-8.277444046060257,4.181061412333469,-3.473971597575301,-0.7156289709209298,-0.20685037952124047,-0.8464861151187645
1765409464.990447,-8.264680842473897,4.151804180710007,-3.491722862450505,-0.7179830197453078,-0.20976528550130727,-0.8497387971635981
1765409464.990713,-8.252314768505732,4.121475979112833,-3.5112406905187834,-0.7202380647884836,-0.21284732814518725,-0.8529543810489824
1765409464.991046,-8.240675862396172,4.090965870188401,-3.5318690321638284,-0.7224142369121094,-0.2159966898898846,-0.8561115367621525
1765409464.991379,-8.230139316881324,4.0611443693761755,-3.5527777112346643,-0.7245426296068089,-0.21910668015467885,-0.85918913748644
1765409464.991707,-8.221145182626394,4.0328199922415395,-3.572976099615795,-0.726662986471169,-0.22206941401477914,-0.8621685111741973
1765409464.991957,-8.214211462101705,4.00670213413072,-3.5913437215686272,-0.728820784999958,-0.22478186167828298,-0.865035301203163
1765409464.992207,-8.209935492090544,3.9833666619837675,-3.6066811621796284,-0.7310639038447115,-0.22715191388726144,-0.8677806745072165
1765409464.992457,-8.208980093688234,3.96322209123892,-3.6177819244718874,-0.733439035465269,-0.2291040302831339,-0.8704017689101468
1765409464.992701,-8.212042915309883,3.9464777750082245,-3.623522185887367,-0.7359880095401311,-0.23058397098015418,-0.8729014350481366
1765409464.993034,-8.219809577919355,3.933119481173722,-3.622961285420966,-0.7387442341804272,-0.23156210086013726,-0.8752874459375867
1765409464.993368,-8.232893458729025,3.9229000149107867,-3.615442118050869,-0.7417295276223106,-0.23203484149357184,-0.8775713911618123
1765409464.993721,-8.25176727116618,3.9153518182694422,-3.6006782319774913,-0.744951671584798,-0.23202404072071742,-0.8797674517596066
1765409464.993971,-8.276694169485959,3.9098246985363745,-3.5788138921800052,-0.7484030329032589,-0.23157430421037764,-0.8818911988021493
1765409464.994221,-8.307668310977986,3.905546394296424,-3.5504452934853425,-0.7520605447601455,-0.23074861529826535,-0.8839585086339262
1765409464.994471,-8.344375102806147,3.901698744925369,-3.5165959042333053,-0.7558872053660516,-0.22962278443841777,-0.8859846554091988
1765409464.994795,-8.386178626270176,3.897499286868467,-3.4786461191419864,-0.7598350567581073,-0.22827938214594543,-0.8879836125093707
1765409464.995128,-8.432138801603854,3.8922771595374006,-3.4382251501529058,-0.7638493848662219,-0.22680182492151924,-0.889967549034171
1765409464.995462,-8.481056106526337,3.885532534590874,-3.3970788756198833,-0.7678736789153163,-0.22526921654012838,-0.8919464552749208
1765409464.99568,-8.5315387713769,3.876970242731042,-3.3569296544000204,-0.7718547473876554,-0.22375240235860258,-0.8939278119299555
1765409464.99593,-8.582086026577803,3.8665014157783557,-3.3193431756105696,-0.775747343829536,-0.22231148797893485,-0.8959162616023071
1765409464.99618,-8.631180054413703,3.854212024876323,-3.2856147027515012,-0.7795177233004168,-0.22099485527162918,-0.8979133301508108
1765409464.99643,-8.677378560256797,3.840303431096392,-3.256683955856872,-0.7831457114008623,-0.21983953751877894,-0.8999173258613506
1765409464.996705,-8.719399914343777,3.825015923878973,-3.233084834963164,-0.7866250788463386,-0.21887270648890111,-0.901923567916078
1765409464.997038,-8.756193922890207,3.8085499282489432,-3.214932912323885,-0.7899622320904331,-0.21811394408561155,-0.9039250460699243
1765409464.997372,-8.78699319240941,3.7909998680909482,-3.20194985880258,-0.7931734278119993,-0.2175778981512871,-0.905913508094647
1765409464.997646,-8.811342522196934,3.77231256638627,-3.193519981630612,-0.7962808802059,-0.21727688515736396,-0.907880850973086
1765409464.997896,-8.82910676028971,3.7522767546843663,-3.188770365709445,-0.7993082417227726,-0.21722304154327196,-0.9098205997491714
1765409464.998146,-8.840460565922019,3.730544308362053,-3.1866634883298244,-0.8022759914201057,-0.21742973475503594,-0.9117292174029925
1765409464.998396,-8.845865305943912,3.706678315122293,-3.18609064673701,-0.8051972575901537,-0.21791208104805082,-0.913606998482858
1765409464.998735,-8.846037990103579,3.680218783015487,-3.185956609540914,-0.8080745351332781,-0.21868654452183434,-0.915458352719828
1765409464.999068,-8.841915211066363,3.6507545374934267,-3.185249692462046,-0.810897644351953,-0.21976969931860874,-0.9172913833596228
1765409464.999402,-8.834612813086743,3.6179902297224062,-3.1830953109448945,-0.8136431375993193,-0.22117632048028718,-0.9191167985049119
1765409464.999677,-8.825380407738365,3.5818000878707084,-3.178793906181225,-0.8162752173692894,-0.22291702475804365,-0.9209463283303622
1765409464.999927,-8.815549343809305,3.542263962018514,-3.171845562399742,-0.8187481008623814,-0.2249957141461186,-0.9227909148827289
1765409465.000177,-8.806473620086491,3.499684999258698,-3.1619633816131114,-0.821009655819739,-0.22740709195370515,-0.9246589685664012
1765409465.000427,-8.79946513629621,3.454590872318682,-3.1490763548627747,-0.823006035071133,-0.23013453033416478,-0.9265549440382529
1765409465.000675,-8.795726343036767,3.4077212821104954,-3.133321833881169,-0.8246869505680161,-0.23314856815277618,-0.9284783956428909
1765409465.001008,-8.79628383624351,3.3600035196200255,-3.11502886379851,-0.826011158773271,-0.23640630291447545,-0.9304235589528431
1765409465.001342,-8.801926268223944,3.312515966291931,-3.094695409678368,-0.8269516864952721,-0.23985190107952115,-0.9323794033679681
1765409465.001724,-8.81315038966825,3.266437676995789,-3.072962780662024,-0.8275003123478571,-0.24341837362551136,-0.9343300388673698
1765409465.001974,-8.830120461283663,3.22298169723183,-3.0505888203989024,-0.8276708359357785,-0.24703063440806078,-0.9362553547313591
1765409465.002224,-8.85264750421544,3.1833113025563025,-3.028419288209568,-0.82750072200368,-0.2506096834495464,-0.9381318156347984
1765409465.002474,-8.880194254422033,3.1484422193880275,-3.007356087715915,-0.8270508116946859,-0.2540775761427833,-0.9399334120245185
1765409465.002714,-8.911908829046277,3.119139422183018,-2.988321668496124,-0.8264029548404668,-0.2573627049314819,-0.9416328159739973
1765409465.003047,-8.946686073489452,3.0958223934320923,-2.9722197132986534,-0.8256556277304293,-0.26040485449087664,-0.9432027991581694
1765409465.003381,-8.983251444059567,3.0784953684848855,-2.95989246611298,-0.8249178347010121,-0.26315948550608675,-0.944617917498369
1765409465.003693,-9.020258362446084,3.0667174546457963,-2.9520756025791055,-0.8243018131979045,-0.26560075285597085,-0.9458563719177344
1765409465.003943,-9.056386677688291,3.0596216161269187,-2.949353279386426,-0.8239152279491312,-0.2677228876688722,-0.9469018474493528
1765409465.004193,-9.09042875718606,3.0559829254828643,-2.952118104480209,-0.8238536092281347,-0.269539774287764,-0.9477450524967549
1765409465.004443,-9.121352398555684,3.0543275141212383,-2.9605411852470085,-0.8241937452187412,-0.2710827951798933,-0.9483846607771182
1765409465.004664,-9.148335625170596,3.053066313304968,-2.9745554094608844,-0.8249885969395527,-0.2723972316872158,-0.9488274159885169
1765409465.004997,-9.170774642801199,3.050633392017748,-2.9938525240755736,-0.8262641022158358,-0.273537649021705,-0.9490872876324344
1765409465.005331,-9.188270385217603,3.045608698342664,-3.0178932468324806,-0.8280180092921415,-0.27456276307257504,-0.949183745281574
1765409465.005664,-9.200601156494043,3.0368099359014122,-3.0459289371779903,-0.8302206701863145,-0.2755303091932949,-0.9491394107867709
1765409465.005914,-9.207689881808706,3.0233470368352267,-3.0770320404551055,-0.8328175691054499,-0.27649241124526824,-0.9489774950869843
1765409465.006164,-9.20957428347209,3.0046421047507317,-3.1101314724718363,-0.8357332798543669,-0.27749186605122717,-0.9487194682595695
1765409465.006414,-9.206386189601826,2.9804241794587787,-3.1440496592085747,-0.8388765201641987,-0.2785596216727095,-0.9483833261848438
1765409465.006654,-9.198342708202356,2.950709744010036,-3.177539161487939,-0.8421459666177025,-0.2797135786796885,-0.9479826427359435
1765409465.006987,-9.185748899462054,2.915777106106585,-3.2093169694219874,-0.8454364878236292,-0.2809587164945378,-0.9475264058150774
1765409465.007321,-9.169009896550877,2.8761377807312796,-3.2380942148478087,-0.8486454393347608,-0.2822884516436495,-0.9470194879394377
1765409465.007663,-9.14864957916012,2.8325031158935676,-3.2626004240515947,-0.8516786454691483,-0.2836870726672448,-0.9464635208761707
1765409465.007913,-9.125331809290865,2.785741520630457,-3.2816049460928083,-0.8544556757511211,-0.285133053907503,-0.9458579295935488
1765409465.008163,-9.099878758644973,2.7368219069173585,-3.2939414804640164,-0.8569140158475771,-0.2866029868387977,-0.9452009249205711
1765409465.008413,-9.073279844724746,2.686742414186302,-3.298542024811542,-0.8590117576770573,-0.2880757578527478,-0.9444903404591553
1765409465.008644,-9.0466850342351,2.6364490536684912,-3.2944836098500607,-0.8607285211700109,-0.28953648499903456,-0.9437243006100411
1765409465.008977,-9.021377812322568,2.586754611360101,-3.281046647561893,-0.8620644849522812,-0.2909796816174299,-0.9429017859620048
1765409465.009311,-8.998725605808112,2.5382718354092475,-3.2577797881246915,-0.8630376285659348,-0.29241119057757803,-0.9420231850049325
1765409465.009675,-8.980108687613534,2.4913750823399754,-3.224563882200247,-0.8636795303151021,-0.2938486161521693,-0.9410908755000308
1765409465.009925,-8.966832314318165,2.4462006199157704,-3.1816667215669363,-0.8640302646718873,-0.2953202131117628,-0.9401097841931895
1765409465.010175,-8.96003023263448,2.4026881352901004,-3.129780278525204,-0.8641330535735937,-0.29686240538381586,-0.9390877704994423
1765409465.010425,-8.960569679391417,2.360656386703608,-3.070033402072229,-0.8640293259217485,-0.29851625773662566,-0.9380356171167483
1765409465.010722,-8.968968152540507,2.319897152313132,-3.0039756805526174,-0.8637547351941874,-0.3003233117612676,-0.9369664308971645
1765409465.010972,-8.985330872441532,2.2802666567343013,-2.93353195745256,-0.8633365028294716,-0.3023212342199732,-0.9358943763190694
1765409465.011222,-9.009315634075438,2.241754482210647,-2.860930437179382,-0.8627922373565995,-0.3045397142896992,-0.9348328534721104
1765409465.011472,-9.040129330082642,2.2045165309274597,-2.78860918844516,-0.8621301753312247,-0.30699698815531273,-0.933792424878493
1765409465.011683,-9.07655823413722,2.168868499040124,-2.7191059672844404,-0.8613506384701688,-0.30969727854634027,-0.9327789105827726
1765409465.012016,-9.117032198811923,2.135245846808098,-2.6549354239348024,-0.8604484142463111,-0.3126293338344001,-0.9317920562696514
1765409465.01235,-9.159720900384183,2.104142300046562,-2.598456928541936,-0.8594157321099293,-0.3157661542042167,-0.9308250415725706
1765409465.012738,-9.20265755664972,2.076040425290875,-2.5517365649898056,-0.858245504368403,-0.3190659117361155,-0.9298648967399371
1765409465.012988,-9.243881577705256,2.051345654344701,-2.5164095077642616,-0.8569345159117656,-0.3224740089377745,-0.9288937083054791
1765409465.013238,-9.281586658015733,2.0303309728172425,-2.493554104259149,-0.855486271402258,-0.32592617226612075,-0.9278903610088188
1765409465.013488,-9.314256753422068,2.0130949778084974,-2.4835941982641327,-0.8539132317078368,-0.32935243287047683,-0.9268324946186761
1765409465.01372,-9.340771925213467,1.9995325859624782,-2.486247722023161,-0.8522381885533263,-0.3326817837740714,-0.9256983535337746
1765409465.014053,-9.360470541932068,1.9893163971333219,-2.5005350592882114,-0.8504945533608107,-0.3358471980189768,-0.9244682784114693
1765409465.014387,-9.373162450888154,1.9818878411761045,-2.5248512836188532,-0.8487254030112364,-0.33879055687315335,-0.9231257215060354
1765409465.014726,-9.37909632635866,1.9764599131287737,-2.5570955257997485,-0.8469812468182923,-0.3414669327582395,-0.9216578187625107
1765409465.014976,-9.3788906286103,1.972035954760827,-2.5948417168202185,-0.845316639079711,-0.3438476721572759,-0.9200556615292248
1765409465.015226,-9.373440394549533,1.967450056200545,-2.635529533758604,-0.8437859260377998,-0.3459218558779594,-0.9183144358820315
1765409465.015476,-9.363812280263996,1.9614332722562347,-2.6766527063632175,-0.8424385547454332,-0.34769594429771716,-0.9164335363662943
1765409465.015677,-9.351139457566392,1.9527055984416855,-2.715923530681098,-0.8413144643509005,-0.3491916879141403,-0.9144166484508304
1765409465.01601,-9.33652683539829,1.9400870676581266,-2.7513973738139734,-0.8404401077377968,-0.35044264602888986,-0.9122716848563508
1765409465.016344,-9.32097515504917,1.9226143542094016,-2.7815487087466066,-0.8398255901178134,-0.3514898554799281,-0.9100104101695032
1765409465.016716,-9.30532931639584,1.8996447608948956,-2.8052990485346063,-0.8394632583590796,-0.352377282125202,-0.9076476256086359
1765409465.016966,-9.29025233760774,1.8709295994545252,-2.8220045067250266,-0.839327868144666,-0.3531476582523882,-0.9051998989694257
1765409465.017216,-9.276222606794445,1.8366439189025954,-2.8314148696511907,-0.8393782526308301,-0.35383918254381713,-0.9026839666488563
1765409465.017466,-9.263549196375017,1.797367528363119,-2.8336167521832616,-0.8395602582981678,-0.35448337494139454,-0.9001150511009177
1765409465.017719,-9.25239864060293,1.754020951089364,-2.8289709904121545,-0.8398106193965462,-0.3551041778414808,-0.8975053917441379
1765409465.018052,-9.242827376298731,1.7077674171446369,-2.818049866807986,-0.8400614106767742,-0.355718216467154,-0.8948632656616575
1765409465.018386,-9.234816281638741,1.6598967375949927,-2.8015756037448463,-0.8402447302969929,-0.35633600871371734,-0.8921926787726352
1765409465.018683,-9.228305175618269,1.611707853156974,-2.7803607456101256,-0.8402972930870172,-0.3569638640419269,-0.8894937624165545
1765409465.018933,-9.22322441428346,1.5644041072035364,-2.755253669462712,-0.8401646373647186,-0.35760621468461684,-0.8867637585092121
1765409465.019183,-9.219519108925772,1.5190102435002015,-2.7270952173182494,-0.8398046614453046,-0.3582681415567011,-0.8839983622712844
1765409465.019433,-9.217161405567719,1.4763146409798313,-2.6966921335315615,-0.8391902202191177,-0.3589578656224674,-0.8811931396591989
1765409465.019677,-9.216148556788783,1.4368358509271182,-2.664809491198931,-0.8383105461291728,-0.35968897302262853,-0.8783447512644981
1765409465.02001,-9.216487847887677,1.4008099048537932,-2.6321798506262604,-0.8371713272460601,-0.36048214017608804,-0.8754517865640163
1765409465.020344,-9.218171992221066,1.3681943854285599,-2.5995236552251755,-0.8357933820595287,-0.3613661330272364,-0.872515123914692
1765409465.020719,-9.221149768805166,1.3386866929133214,-2.567573937964531,-0.8342100084311351,-0.36237788099885043,-0.869537853761849
1765409465.020969,-9.225297080065205,1.311756367989587,-2.537098034489293,-0.8324632365483559,-0.3635614807013301,-0.8665248963138894
1765409465.021219,-9.230394111230732,1.2866930849699187,-2.508908721772915,-0.8305993581337718,-0.3649660745449489,-0.8634824758242231
1765409465.021469,-9.23611489102302,1.2626714556650904,-2.4838571164088425,-0.8286642032556366,-0.3666426715587175,-0.8604175748462938
1765409465.021744,-9.242035180602283,1.2388307784006665,-2.4628010675494734,-0.8266986629635971,-0.3686401125767686,-0.8573374140411372
1765409465.022077,-9.247661894440155,1.2143634865415798,-2.4465468414780775,-0.8247349055083736,-0.3710005036786426,-0.8542489329308333
1765409465.022411,-9.252482115350702,1.1886020888329203,-2.4357682606619275,-0.8227936241043629,-0.37375453533011865,-0.8511582142683589
1765409465.022687,-9.256024215584716,1.1610923337032617,-2.4309140558283495,-0.8208825108080144,-0.3769171668253136,-0.8480698037798681
1765409465.022937,-9.257920421073424,1.131640898067734,-2.432118410576353,-0.8189960010420134,-0.3804841747624714,-0.8449859198156909
1765409465.023187,-9.257960378026562,1.1003290433074548,-2.4391302443390472,-0.8171162028882663,-0.38443001558852535,-0.8419056110044695
1765409465.023437,-9.256127503745605,1.0674888040751591,-2.4512743944876902,-0.815214831354046,-0.38870732638744626,-0.8388239864580712
1765409465.023746,-9.252612563700621,1.0336445489052302,-2.467453656777087,-0.8132559132927549,-0.3932482113312743,-0.835731692240442
1765409465.024079,-9.247801948585023,0.9994291160026147,-2.48619500673762,-0.8111990085969459,-0.3979672748934775,-0.8326148186245806
1765409465.024413,-9.242241639735255,0.9654887034773053,-2.5057371188200763,-0.8090026991288873,-0.40276619316644846,-0.8294553763478189
1765409465.024727,-9.236580783219148,0.9323926456596682,-2.524151595232144,-0.8066281159136643,-0.40753946958279325,-0.8262323758132892
1765409465.024977,-9.231500183520717,0.9005623072822808,-2.539488231837859,-0.8040422928263723,-0.4121809066044751,-0.8229234107093816
1765409465.025227,-9.227631607909027,0.8702283132082579,-2.549933676945965,-0.8012211426528368,-0.4165902496230042,-0.8195065341008869
1765409465.025477,-9.225475132114264,0.8414191010928715,-2.553970814379463,-0.7981518547563877,-0.42067943063382135,-0.8159621568017905
1765409465.025677,-9.225324239167168,0.8139782390920866,-2.5505232402737947,-0.7948345297942129,-0.4243778616883589,-0.8122747018048723
1765409465.025927,-9.227210632539247,0.7876041392630702,-2.5390674924207093,-0.7912829085423394,-0.42763630724651924,-0.808433798202266
1765409465.026177,-9.230880835017322,0.7619037574601126,-2.5196969029092537,-0.7875241168198854,-0.43042900081399194,-0.8044348736013854
1765409465.026427,-9.235813461951055,0.7364511344420183,-2.493125220728383,-0.7835974249767256,-0.4327538493884314,-0.8002790953635583
1765409465.026692,-9.241279622871277,0.7108420385087341,-2.4606251514701323,-0.7795520968141942,-0.4346307656373,-0.7959727132033577
1765409465.027025,-9.24644072427176,0.6847378985512109,-2.423905902843801,-0.7754444723255075,-0.43609836497953725,-0.7915259577623418
1765409465.027359,-9.25047074428412,0.6578957726479754,-2.3849426351194563,-0.7713344885512381,-0.4372094428824856,-0.7869517272508052
1765409465.027634,-9.252686008356429,0.630185174222875,-2.3457772340462255,-0.7672818934976907,-0.43802577153103484,-0.7822643164764841
1765409465.027884,-9.252664677725239,0.6015952603939945,-2.3083136467488514,-0.7633424490887526,-0.43861279404490716,-0.7774783956256208
1765409465.028134,-9.250339561029856,0.5722360052518566,-2.2741323967909532,-0.7595644413139013,-0.4390347505143349,-0.7726083474886004
1765409465.028384,-9.246051413781437,0.5423350688188806,-2.244346580296295,-0.7559858013915749,-0.4393506710903968,-0.7676679594136923
1765409465.028681,-9.240556069811456,0.512229744780236,-2.2195141867524386,-0.7526320795722862,-0.43961154338082137,-0.7626703766378761
1765409465.029014,-9.23498632342726,0.48235184457857755,-2.199610730112863,-0.7495154116959938,-0.4398588215006851,-0.7576281762356925
1765409465.029348,-9.230775378996533,0.4532027938158512,-2.1840568744943347,-0.7466345017426474,-0.44012431058859225,-0.752553417191896
1765409465.029719,-9.22955084263701,0.4253164748517441,-2.1717917539207905,-0.7439755337063474,-0.44043134270295065,-0.7474575576970532
1765409465.029969,-9.233007680334806,0.39920895600577655,-2.1613831521123794,-0.7415138354405741,-0.4407970408432503,-0.7423512006343108
1765409465.030219,-9.242768107533127,0.3753176983550161,-2.151166604675306,-0.7392160560976527,-0.44123533211289384,-0.7372437145267589
1765409465.030469,-9.260237811638865,0.3539373821062451,-2.139403633611246,-0.7370426011546761,-0.44176024601578084,-0.7321428442986677
1765409465.030617,-9.286470709990976,0.33516311417806693,-2.1244450056043953,-0.7349500981748349,-0.442388970820262,-0.727054441921143
1765409465.03095,-9.322056374932002,0.3188525093803444,-2.1048815172934945,-0.7328937239195475,-0.4431441656386147,-0.721982410104284
1765409465.031284,-9.367043204018936,0.30461555817467745,-2.0796657317412492,-0.7308292824870003,-0.4440551298261895,-0.716928893090323
1765409465.031623,-9.42090610633474,0.29183663612664357,-2.0481934461034266,-0.7287149709441436,-0.4451575919891386,-0.711894701162719
1765409465.031873,-9.482561527536538,0.2797283373065759,-2.010340634496557,-0.7265128047162708,-0.4464920680685478,-0.7068799279226841
1765409465.032123,-9.550426816693186,0.267412842341088,-1.9664576305255412,-0.7241897050848923,-0.4481009180321841,-0.7018846913987881
1765409465.032373,-9.622515872790746,0.2540227354214306,-1.9173268283288702,-0.7217182768748387,-0.4500243866976717,-0.6969098808792247
1765409465.032692,-9.696559061414073,0.23880915633920843,-1.8640932105849164,-0.7190773213765116,-0.45229604751732955,-0.6919577335696957
1765409465.033025,-9.770133864948967,0.22124196996876894,-1.808177857985486,-0.7162521289026985,-0.4549381683608283,-0.6870320428241099
1765409465.033359,-9.840794680614234,0.20108606601084777,-1.7511829514852784,-0.7132345709253223,-0.4579575540964918,-0.6821378462246115
1765409465.033688,-9.906194489571615,0.1784407714581519,-1.6947939506507397,-0.7100229710874912,-0.46134237314958165,-0.67728055046565
1765409465.033938,-9.964195177371023,0.1537349906400286,-1.6406824117715917,-0.70662169912524,-0.4650603584132993,-0.6724645880326126
1765409465.034188,-10.012965355712478,0.1276777496822243,-1.5904119121099216,-0.703040422697527,-0.46905861439148344,-0.6676918306975796
1765409465.034438,-10.051064548426167,0.10117091619347415,-1.5453495151316403,-0.6992929781827286,-0.47326508611639345,-0.6629600687641334
1765409465.034688,-10.07751136323563,0.07519666429548798,-1.5065861238949614,-0.6953958797981045,-0.4775915806891505,-0.6582618752709196
1765409465.034938,-10.091831974904519,0.05069575787112498,-1.4748707563966073,-0.691366563845226,-0.4819381116971251,-0.6535841140720415
1765409465.035188,-10.094085117689282,0.02845350705098555,-1.450565066241975,-0.687221539915891,-0.4861982655724227,-0.6489082481070092
1765409465.035438,-10.084861003905182,0.009008496949658502,-1.433624032493764,-0.6829746730693824,-0.49026523494187735,-0.6442114847460128
1765409465.035639,-10.065253057414429,-0.0074044696611392374,-1.4236066791587754,-0.6786358416103861,-0.4940380966040019,-0.639468667336828
1765409465.035972,-10.036802391575648,-0.020870613434066244,-1.4197178203092617,-0.6742102031355035,-0.4974278459395056,-0.6346546888302147
1765409465.036306,-10.001416364638605,-0.03176962829005071,-1.4208785289232368,-0.6696982505067645,-0.5003626840596438,-0.6297470806368267
1765409465.036656,-9.96126501547569,-0.04071355851255894,-1.4258194467249872,-0.6650967396369253,-0.5027921153812007,-0.6247283541039002
1765409465.036906,-9.918661843234498,-0.048459206144781206,-1.4331878984951685,-0.6604004294792039,-0.5046895307986814,-0.6195876865300495
1765409465.037156,-9.875937086640985,-0.055809987722780216,-1.4416575472838955,-0.6556044253058577,-0.5060530925395904,-0.6143216658291185
1765409465.037406,-9.835312450601448,-0.06352257340086187,-1.450027984134505,-0.6507068028820767,-0.5069048924995884,-0.6089340036530926
1765409465.037663,-9.798786334841875,-0.07223099903829083,-1.4573021668011035,-0.645711140497801,-0.5072885266828361,-0.6034343284453075
1765409465.037996,-9.768037298150414,-0.08239669097116967,-1.4627337107739136,-0.6406285984245466,-0.5072653924983103,-0.5978363230412983
1765409465.03833,-9.744350606258832,-0.09428817925219524,-1.4658427607654658,-0.6354792433709421,-0.5069101365483111,-0.5921555557757097
1765409465.038672,-9.728570058029094,-0.1079897027615247,-1.4664044725626095,-0.6302923998172509,-0.5063057347949911,-0.5864073733248923
1765409465.038922,-9.7210764458532,-0.12343363663273121,-1.4644155635979859,-0.6251059143951327,-0.5055386647383313,-0.5806051929836907
1765409465.039172,-9.721793802679962,-0.14044806856129383,-1.4600440545925193,-0.6199643438197692,-0.5046945304110099,-0.5747594644681346
1765409465.039422,-9.73022274634912,-0.15880862625264794,-1.4535681576830302,-0.6149162093928183,-0.5038543618049441,-0.5688774646749273
1765409465.039636,-9.74549698168215,-0.17828362393156896,-1.445311595467603,-0.61001057806943,-0.5030917007019767,-0.5629639397055568
1765409465.039969,-9.766456785512679,-0.1986640998371858,-1.4355821341570374,-0.6052933114033255,-0.5024705409310829,-0.5570224369005875
1765409465.040303,-9.791733162778268,-0.21977487166295218,-1.4246182343831966,-0.6008033589733829,-0.5020441770785559,-0.5510570179285258
1765409465.040671,-9.819837073399889,-0.24146815955743153,-1.412547839970504,-0.5965694585295639,-0.5018549748708573,-0.5450739543340579
1765409465.040921,-9.849248419219395,-0.26360611718937055,-1.399363733944726,-0.5926075439679345,-0.5019349897116637,-0.5390830058127399
1765409465.041171,-9.878499355730598,-0.28604133599519743,-1.3849197738151802,-0.5889190670117718,-0.502307246069482,-0.5330979731191557
1765409465.041421,-9.906246414028267,-0.30860415177526757,-1.3689507091901336,-0.5854903309519602,-0.502987385672585,-0.5271363785499166
1765409465.041667,-9.931326323124258,-0.33110258625376615,-1.3511155339418914,-0.5822928368610003,-0.5039853402971278,-0.5212183092799298
1765409465.042,-9.952791909095732,-0.3533364263618563,-1.3310606745528144,-0.5792845659957689,-0.5053067142868737,-0.515364611586066
1765409465.042334,-9.96992711610184,-0.3751230482032016,-1.3084953060137394,-0.5764120671146732,-0.5069536562926475,-0.5095947202390287
1765409465.042673,-9.982242993183986,-0.396329983920639,-1.283268408540694,-0.5736131800071115,-0.5089251086985201,-0.5039244470132311
1765409465.042923,-9.989458260148783,-0.41690777833367937,-1.255437024123266,-0.5708202027955881,-0.5112164163427694,-0.4983640421766908
1765409465.043173,-9.991468939203077,-0.43691629897193746,-1.2253165609156536,-0.5679632966646005,-0.5138183617502844,-0.49291678526796606
1765409465.043423,-9.98831229117991,-0.4565386940169377,-1.193505492844681,-0.5649739133120157,-0.5167157798829629,-0.48757826458668235
1765409465.043672,-9.980130815407907,-0.47607969341058765,-1.1608787750142113,-0.5617880282839587,-0.5198859755354844,-0.4823363934837596
1765409465.044005,-9.967141680423484,-0.49594812744373323,-1.1285477264192674,-0.5583489769166848,-0.5232972082367506,-0.47717211713317226
1765409465.044339,-9.949615642012978,-0.5166262045658142,-1.0977885093034339,-0.5546097260839299,-0.5269075285012118,-0.4720607022741393
1765409465.044631,-9.927867728823294,-0.5386295034673508,-1.06994530293952,-0.5505344663558854,-0.5306642455111082,-0.4669734691766402
1765409465.044881,-9.90225989167904,-0.562461885816751,-1.0463172030715158,-0.5460994616505223,-0.534504263195004,-0.46187980624607794
1765409465.045131,-9.873213665795355,-0.588569302144189,-1.028039672993459,-0.5412931441880979,-0.5383554324145107,-0.45674929505229117
1765409465.045381,-9.84122937605822,-0.6172964283505121,-1.0159717743889702,-0.5361154945263771,-0.5421389521306813,-0.4515537678763604
1765409465.04566,-9.806907869118536,-0.6488504347254244,-1.0105995390552966,-0.5305767917123508,-0.5457727381378455,-0.4462691271142375
1765409465.04591,-9.770970679265728,-0.683276533579185,-1.0119646011037569,-0.5246958411302105,-0.5491755728205175,-0.44087678137255043
1765409465.04616,-9.734274429036425,-0.7204494984849636,-1.0196260529635037,-0.5184977857576214,-0.5522717538828272,-0.4353645995809794
1765409465.04641,-9.697815381266235,-0.7600834866512945,-1.0326614339023754,-0.5120116026737775,-0.5549958787553881,-0.4297273503772047
1765409465.046632,-9.662720749567953,-0.8017593127300718,-1.0497088562215462,-0.5052674064978478,-0.5572973385181983,-0.4239666640632397
1765409465.046965,-9.630224366055414,-0.844964777364915,-1.0690474702030726,-0.49829372844521913,-0.5591440625176571,-0.4180906004308929
1765409465.047299,-9.601625361733937,-0.8891410659631035,-1.0887095328330199,-0.4911149946197796,-0.5605250816836783,-0.4121129125319948
1765409465.04773,-9.578230075362436,-0.9337274243150102,-1.1066146951789841,-0.48374946293038334,-0.5614515814935036,-0.40605207874660443
1765409465.048063,-9.561279598474101,-0.9781972971326819,-1.120715275156815,-0.4762078718518253,-0.561956269631442,-0.39993015921981956
1765409465.048397,-9.5518672861617,-1.022081410238736,-1.1291404561750482,-0.4684929981624008,-0.562091051802546,-0.39377153047016655
1765409465.048665,-9.550851648402329,-1.0649762608012943,-1.1303279983943717,-0.4606002248158313,-0.5619231817233463,-0.3876015600326252
1765409465.048915,-9.558771063608477,-1.1065394739316963,-1.123133687135191,-0.4525191002713154,-0.5615302266104867,-0.38144529012679934
1765409465.049165,-9.57576839620932,-1.146475829693469,-1.1069105804216217,-0.44423574038509756,-0.560994337920904,-0.3753261969003239
1765409465.049415,-9.601534945852059,-1.184518969183969,-1.0815521612474126,-0.435735803205992,-0.5603963912078616,-0.36926508166716193
1765409465.049623,-9.63528265421115,-1.2204136946256117,-1.047496292376475,-0.427007685955916,-0.5598105381947286,-0.36327914126432886
1765409465.049956,-9.675750769432833,-1.2539026515723648,-1.0056905280170907,-0.4180455750765973,-0.5592996219785612,-0.3573812599085717
1765409465.05029,-9.721249316259534,-1.2847195921293315,-0.9575230927006589,-0.408852021279356,-0.5589117802244474,-0.3515795605952292
1765409465.050725,-9.769738116325264,-1.3125899301639246,-0.9047263955025446,-0.3994397877579646,-0.5586784211614817,-0.345877243735577
1765409465.050975,-9.8189373287877,-1.337238235561643,-0.849260529856533,-0.38983280827183064,-0.5586136121497686,-0.3402727198353485
1765409465.051225,-9.866463305356096,-1.3584017692793282,-0.7931835172523362,-0.38006618292951994,-0.5587147910784095,-0.33476001222939744
1765409465.051475,-9.909981494414035,-1.3758490663055922,-0.738514860016596,-0.37018522848933827,-0.5589646209530307,-0.32932937443357735
1765409465.051724,-9.947365846569152,-1.38940271663341,-0.6871004599614,-0.3602436783686298,-0.5593337577954507,-0.32396804774740523
1765409465.052057,-9.976851756436648,-1.3989655086869592,-0.6404894499651468,-0.3503011858739741,-0.5597842677537155,-0.318661085722828
1765409465.052391,-9.997167892516785,-1.4045485257608121,-0.5998347750509233,-0.34042031959756597,-0.5602733929823632,-0.31339219035199967
1765409465.052683,-10.007632604517868,-1.4062984847172337,-0.5658277052857883,-0.3306632579789628,-0.5607573328622198,-0.30814452846330126
1765409465.052933,-10.00820342096292,-1.4045201802643696,-0.538672405436792,-0.3210883973037564,-0.5611946997281979,-0.302901510641705
1765409465.053183,-9.999472706565198,-1.3996893487596176,-0.5181023223641722,-0.3117470862046451,-0.5615493475923753,-0.2976475136170487
1765409465.053433,-9.982607920579664,-1.3924521652772146,-0.5034365777464133,-0.3026806936099792,-0.5617923580381123,-0.29236852118143675
1765409465.053707,-9.959240715939018,-1.3836096381846332,-0.4936711712810496,-0.29391821253682293,-0.5619030707594797,-0.28705266161283793
1765409465.05404,-9.931315016518935,-1.3740874351982015,-0.4875960711745508,-0.28547459570082373,-0.5618691345599409,-0.2816906305674895
1765409465.054374,-9.900909532116497,-1.3648933635329663,-0.4839256903627562,-0.2773499927329383,-0.5616856227686544,-0.2762759959367749
1765409465.054702,-9.87005400771784,-1.3570657953152963,-0.4814276255308662,-0.2695299982845156,-0.5613533210067077,-0.27080537987441067
1765409465.054952,-9.840559704856993,-1.3516172246530187,-0.47903374052459546,-0.2619869289021577,-0.5608763617217105,-0.26527851098245897
1765409465.055202,-9.813882047620138,-1.3494779678605948,-0.47591985699922956,-0.25468204069167805,-0.5602594396888311,-0.2596981477476065
1765409465.055452,-9.791027174190171,-1.3514452540375808,-0.4715458236355973,-0.24756849851600882,-0.5595048886431779,-0.2540698932728229
1765409465.05574,-9.77250666465239,-1.3581419732538924,-0.4656548388336237,-0.24059482658188158,-0.5586099298341493,-0.24840193887942094
1765409465.056073,-9.758339075835579,-1.3699870914356687,-0.4582367708299526,-0.23370852154938823,-0.5575644078846727,-0.2427047781935501
1765409465.056407,-9.748094113450424,-1.3871770177034226,-0.4494633665643878,-0.22685950421891024,-0.5563492884802528,-0.23699092321426102
1765409465.0567,-9.740973554144885,-1.4096753466622913,-0.439604432120955,-0.2200031312995158,-0.5549361021366337,-0.23127463523695485
1765409465.05695,-9.735920410539828,-1.4372082678735283,-0.42893487762097254,-0.2131025739633576,-0.5532874054828685,-0.2255716593185809
1765409465.0572,-9.731744440327786,-1.4692643165431885,-0.41764358806164986,-0.2061304675604195,-0.5513582338212555,-0.21989892533140762
1765409465.05745,-9.727249608572787,-1.5050990700007212,-0.4057558785150212,-0.1990698213451984,-0.5490984481667616,-0.214274163531499
1765409465.057747,-9.721348806064979,-1.543746913829438,-0.3930809105938305,-0.1919142357124546,-0.5464558145340032,-0.20871539015074045
1765409465.05808,-9.7131532392034,-1.5840425247185685,-0.3791931923194336,-0.18466750642431973,-0.5433795699971078,-0.20324024842460608
1765409465.058414,-9.702028169690202,-1.6246540980763176,-0.36345289226538313,-0.17734270878028852,-0.539824140403062,-0.19786522976043788
1765409465.058722,-9.687612443969542,-1.6641289142951534,-0.34506366748580564,-0.16996086190220647,-0.5357526184737796,-0.19260483314815272
1765409465.058972,-9.669805031374134,-1.7009502301874102,-0.3231605447549364,-0.16254928252437242,-0.5311396176152469,-0.1874707401860526
1765409465.059222,-9.648725748932348,-1.7336031787756372,-0.29691603013585366,-0.15513975084415882,-0.5259731800524773,-0.18247108983323265
1765409465.059472,-9.624658810866256,-1.7606463594871384,-0.26565099420524013,-0.14776662570272078,-0.5202555141275272,-0.17760993587996188
1765409465.059683,-9.597987812154456,-1.7807849169812549,-0.22893721593428865,-0.14046505352960903,-0.5140024548920891,-0.17288696057175587
1765409465.060016,-9.569130496475287,-1.792940222391904,-0.18667947595288753,-0.1332694024471659,-0.5072416875766061,-0.16829749646809716
1765409465.06035,-9.538481138444867,-1.796311039897325,-0.139166834625065,-0.12621201696282133,-0.5000099307006591,-0.16383287728307291
1765409465.060656,-9.50636672889003,-1.7904213631956676,-0.087086251731356,-0.11932234043587459,-0.4923494067069682,-0.15948110274347196
1765409465.060906,-9.473020353251032,-1.7751509503782537,-0.03149674245541331,-0.11262640412185165,-0.48430400412972413,-0.15522776546847278
1765409465.061156,-9.438572317877432,-1.7507460777014392,0.026232938136157652,-0.10614663994441367,-0.4759155516068801,-0.15105715391433294
1765409465.061406,-9.403057636148798,-1.7178100209100315,0.08451647759693445,-0.09990194391499593,-0.4672205806292143,-0.14695342492610114
1765409465.061721,-9.366437336533982,-1.6772746968622703,0.1416625470822596,-0.09390790124264589,-0.4582478560652352,-0.1429017395240538
1765409465.061971,-9.32863032994943,-1.6303562397960625,0.1959960930805569,-0.08817708190694966,-0.4490168308338824,-0.13888927361435016
1765409465.062221,-9.289552327420061,-1.5784978358621335,0.24597669334050387,-0.08271932533692568,-0.439537066555718,-0.13490604504564235
1765409465.062471,-9.249158377189858,-1.5233029946435122,0.29030436481054445,-0.07754195574498289,-0.4298085600415976,-0.13094553036769258
1765409465.062636,-9.207485231834182,-1.4664620723015227,0.3280056354363158,-0.07264990492272702,-0.4198228278167851,-0.12700506563304506
1765409465.062886,-9.164688666969163,-1.4096748609960716,0.3584941513388394,-0.06804575928911895,-0.40956455612112236,-0.12308603097618405
1765409465.063136,-9.121069975085405,-1.3545725746528472,0.3816013283730916,-0.06372977997776774,-0.3990136410002626,-0.11919381741076773
1765409465.063386,-9.077086304539241,-1.302643217463516,0.3975746320827955,-0.05969995804488704,-0.3881474945266771,-0.11533757630175784
1765409465.063692,-9.033341647672296,-1.2551646229371907,0.4070438704233058,-0.0559521581006687,-0.3769435323801301,-0.1115297588347837
1765409465.063942,-8.99055876268447,-1.2131492200063816,0.4109589522110322,-0.05248037666746367,-0.36538176192005306,-0.10778545886091301
1765409465.064192,-8.949536335064614,-1.1773040621486308,0.4105056650891209,-0.0492771050092115,-0.3534473629435035,-0.10412157320592472
1765409465.064442,-8.911098915284157,-1.1480091047390475,0.4070085263693736,-0.04633375239698977,-0.3411331123274668,-0.10055579647976967
1765409465.064723,-8.876048356010891,-1.1253159131994062,0.4018307985272225,-0.04364106552755123,-0.32844146853444917,-0.09710548705553833
1765409465.065056,-8.845124356850063,-1.108967431422656,0.39628119599315825,-0.04118947491122348,-0.315386120511896,-0.09378647581907666
1765409465.06539,-8.818979001909984,-1.0984371439409264,0.3915351360712331,-0.03896930575720327,-0.3019928298897093,-0.09061191804821365
1765409465.065709,-8.798166710928415,-1.0929836779284434,0.38857596496241104,-0.036970808095688014,-0.28829945911793436,-0.08759129431102215
1765409465.065959,-8.7831475777236,-1.0917154129200173,0.3881587000883491,-0.03518398841152763,-0.27435517366328516,-0.08472965112609632
1765409465.066209,-8.774299498616609,-1.093659179376698,0.3907960829855127,-0.03359825939395019,-0.26021891229989574,-0.08202714682363872
1765409465.066459,-8.77193350529601,-1.0978273313466367,0.3967646950982548,-0.032201961183489745,-0.24595730549880107,-0.07947893817819081
1765409465.0668,-8.776307314259775,-1.1032781128591311,0.406127528835904,-0.0309818419449038,-0.23164226535335236,-0.07707541109132511
1765409465.06705,-8.787633660950036,-1.1091652547451836,0.4187684340011363,-0.029922607136484244,-0.21734847112556194,-0.07480272730119611
1765409465.0673,-8.806081813068456,-1.114774099899597,0.4344332796412365,-0.029006641377691496,-0.20315094565200167,-0.07264363279223504
1765409465.06755,-8.83177228215995,-1.1195430889609357,0.45277270546827203,-0.02821397129582975,-0.18912286927492525,-0.07057845457134264
1765409465.06774,-8.864765929995054,-1.1230709212786356,0.4733820504532976,-0.027522489477602118,-0.17533371933028385,-0.06858620184689973
1765409465.06799,-8.905049406752417,-1.125110979584564,0.4958352591367994,-0.026908423011530944,-0.16184777220246147,-0.06664568628819798
1765409465.06824,-8.952519260355407,-1.1255555807172122,0.5197109311434545,-0.026347011961142856,-0.1487229742278141,-0.06473658336114177
1765409465.06849,-9.006967071271774,-1.1244132000464282,0.5446098234802972,-0.025813349856552963,-0.13601017315436384,-0.06284037040129588
1765409465.068664,-9.068067591277359,-1.1217819065441539,0.5701639281794927,-0.025283319780269795,-0.12375269455842731,-0.06094109534926885
1765409465.068914,-9.135371428288654,-1.1178218226493726,0.5960379990503524,-0.02473454369391811,-0.11198624379815748,-0.05902595060732261
1765409465.069164,-9.208303600452437,-1.112728706804113,0.6219252597088191,-0.024147260642838668,-0.10073910821212846,-0.057085642980574426
1765409465.069414,-9.286168989867626,-1.1067100798304381,0.6475395694716438,-0.02350506067215465,-0.09003262192997272,-0.05511455815855807
1765409465.069774,-9.368164944440796,-1.099964776267138,0.6726060870980831,-0.022795418581471025,-0.07988184329272419,-0.053110722310440686
1765409465.070024,-9.453400211379387,-1.092666209829528,0.6968517950548223,-0.022009991339490883,-0.07029638925527443,-0.051075574841160154
1765409465.070274,-9.540918587280139,-1.084948919739336,0.7199968643099104,-0.021144663712438727,-0.061281366162535704,-0.04901358443518605
1765409465.070524,-9.629725294905013,-1.076897412783626,0.7417478240057696,-0.02019934746803939,-0.05283832493743463,-0.04693175150074505
1765409465.072395,-9.71881394558568,-1.0685363616281487,0.7617932971226079,-0.01917756123352657,-0.04496615933766522,-0.044839035777973595
1765409465.072645,-9.807191974124803,-1.0598219265643865,0.7798024779716828,-0.018085839530354687,-0.03766187201478054,-0.042745737039687905
1765409465.072895,-9.8939028293531,-1.0506348664518692,0.7954261291073713,-0.016933033972900906,-0.03092115167275992,-0.04066285357014966
1765409465.073145,-9.978044026915395,-1.0407765970927985,0.8083002410417519,-0.015729572871288258,-0.02473872181018201,-0.038601449241750595
1765409465.072443,-10.058781127578724,-1.029969281040437,0.8180533349476489,-0.014486743077232023,-0.019108438347304028,-0.03657206524462881
1765409465.072693,-10.135358325949179,-1.0178607168729805,0.824318697053285,-0.013216056056409246,-0.014023144484501315,-0.03458420854713842
1765409465.072943,-10.207106349840153,-1.0040345565715816,0.8267519637240879,-0.011928754578094386,-0.0094743352102776,-0.03264593798123625
1765409465.073193,-10.273447984376105,-0.9880261502045145,0.8250529421246025,-0.010635498762280409,-0.005451716994918755,-0.030763558354171196
1765409465.072717,-10.333901273218808,-0.9693438172426027,0.818989543662609,-0.009346241560549192,-0.0019427515120797908,-0.028941427400359147
1765409465.072967,-10.388080503260198,-0.9474945518766856,0.8084215551483819,-0.008070274961838986,0.0010677459842410163,-0.027181876000279305
1765409465.073217,-10.43569502502835,-0.9220124696970582,0.7933216925330266,-0.006816408701535219,0.0035978986481690297,-0.025485233464875728
1765409465.073467,-10.476545533586672,-0.8924880723449614,0.7737904485348968,-0.0055932326863497375,0.00566889947972477,-0.023849938659747463
1765409465.073754,-10.510517207242092,-0.8585966117403507,0.7500609390736473,-0.004409406680982257,0.007304942943094445,-0.022272712513520417
1765409465.073954,-10.537569801531488,-0.8201241624313701,0.7224917872859561,-0.0032739148008576954,0.008532956638481054,-0.02074877318451151
1765409465.074154,-10.557726212864125,-0.7769902172869638,0.6915494996083803,-0.0021962247912193904,0.009382184173559332,-0.01927208852623536
1765409465.074354,-10.571062142877608,-0.7292656500954162,0.6577845462730701,-0.0011863087215601214,0.009883693719695991,-0.017835672605314046
1765409465.074554,-10.577699570318181,-0.6771848211961514,0.6218059484922381,-0.000254507487144422,0.01006986702897898,-0.01643193671481941
1765409465.074768,-10.577805849395542,-0.6211506102729689,0.5842579777990743,0.0005887560082898364,0.00997389001111011,-0.015053101157784712
1765409465.075018,-10.571598896262385,-0.561731372423265,0.5458008143049111,0.0013333969234561177,0.009629251992835382,-0.013691669100513325
1765409465.075268,-10.559357549129592,-0.4996491841044742,0.5070954952456921,0.0019701948312429267,0.009069265278490413,-0.012340962267743436
1765409465.075518,-10.541435113477545,-0.4357591325137829,0.46879245929159474,0.00249138761416963,0.008326618160192877,-0.010995714438813024
1765409465.075704,-10.518273451446502,-0.3710197984719398,0.4315224458323416,0.0028912773756380886,0.007432966772486003,-0.009652702776855622
1765409465.075904,-10.490414661642681,-0.30645567401029933,0.3958883582728577,0.0031667745134715897,0.006418563803790382,-0.008311368669487092
1765409465.076104,-10.45850741427854,-0.24311316370131242,0.36245693734262013,0.0033177956643935073,0.005311919254882949,-0.0069743524076307595
1765409465.076304,-10.42330546677921,-0.18201286069378458,0.3317496296701381,0.0033474397090056183,0.004139486124124772,-0.005647856100307475
1765409465.076504,-10.385656670911713,-0.12410158478000233,0.30423245969909224,0.0032618959587324904,0.0029253627749252415,-0.0043417627043846945
1765409465.076735,-10.346481596071545,-0.0702079552783921,0.28030469290857724,0.0030700810552919764,0.0016910099108712368,-0.003069468564284123
1765409465.076935,-10.306741753022814,-0.021005040682596794,0.2602859866283739,0.0027830438588081967,0.0004549938812445997,-0.0018474197901397474
1765409465.077135,-10.267398633209739,0.023016978098576127,0.24440217109653872,0.002413212066971546,-0.0007672181435005643,-0.0006943716221440223
1765409465.077335,-10.229366400763771,0.06156604689610238,0.23277071430019403,0.001973573882506678,-0.0019633781810873678,0.0003695847429524305
1765409465.077535,-10.193462604522585,0.09455031012810804,0.22538770543450118,0.001476887804389109,-0.0031244587923312424,0.0013241593049553376
1765409465.077731,-10.160362223021249,0.12206703936515502,0.2221186084232479,0.0009349956860965036,-0.004244505557582967,0.0021500757892359665
1765409465.077931,-10.130560548434863,0.14437957326285447,0.2226952774940536,0.0003582888811306265,-0.0053203191647247785,0.002830260692612689
1765409465.078131,-10.104349767710398,0.16188454603078167,0.226721681278976,-0.0002446452802661209,-0.0063509610708966865,0.003350913154825865
1765409465.078331,-10.081812452179767,0.17507258666300726,0.23368993437743263,-0.000867186932022949,-0.007337099151398012,0.003702376497524545
1765409465.078531,-10.062832691187193,0.18448607961650698,0.243006474959988,-0.0015046624600381269,-0.008280238480171254,0.003879757365838544
1765409465.07878,-10.047123032555781,0.19067749005787912,0.25402626227057357,-0.0021541575923700127,-0.00918191251470732,0.0038832634656213822
1765409465.07898,-10.034263481323473,0.19417146757549603,0.2660915460241329,-0.002814193881670376,-0.010042928694116326,0.0037182502667880424
1765409465.07918,-10.023747767055474,0.19543363194588972,0.2785713149328723,-0.003484305040190004,-0.010862758972005344,0.0033949825195775532
1765409465.07938,-10.01503174856616,0.19484846035745026,0.2908976927502205,-0.004164556541904872,-0.011639144136697924,0.002928132457642404
1765409465.07958,-10.00757907316486,0.19270780226063947,0.3025960478634981,-0.004855057554305801,-0.012367952937884853,0.002336054273926226
1765409465.079708,-10.000900006461427,0.18921026941439553,0.31330632191983043,-0.005555514752124026,-0.013043307608000938,0.0016398917173753478
1765409465.079908,-9.99458053676784,0.18447040012861596,0.322794017362821,-0.006264871185657033,-0.013657955277702184,0.0008625888849122742
1765409465.080108,-9.988300208607674,0.1785354478021811,0.33095033179480093,-0.006981061931814238,-0.014203834706824188,2.787970640105655e-05
1765409465.080308,-9.981838512231585,0.17140707671873157,0.33778199606793025,-0.0077009034369623815,-0.014672767981123092,-0.0008406716700776866
1765409465.080508,-9.97507094603085,0.16306509006896203,0.3433923860888863,-0.008420115528645782,-0.01505719872111901,-0.0017205166329311286
1765409465.080721,-9.967956904409322,0.15349038218809316,0.3479563606465622,-0.009133456619663347,-0.01535089738451174,-0.002590804178869272
1765409465.080921,-9.960522150823286,0.14268452296595707,0.3516918919409372,-0.009834940111097066,-0.015549559570729454,-0.003432867518736787
1765409465.081121,-9.952838757216071,0.13068383640533401,0.3548316950033209,-0.010518097928361655,-0.01565123807111802,-0.0042305069353504475
1765409465.081321,-9.945005103141742,0.11756662079415746,0.3575976462050149,-0.0111762622416455,-0.01565657290989917,-0.004970086445826522
1765409465.081521,-9.937128004332353,0.10345320861928474,0.3601800347235214,-0.011802841325090236,-0.01556880862375974,-0.005640484342270631
1765409465.081699,-9.929308482149255,0.08849966169585857,0.36272294206489786,-0.012391567404792981,-0.015393607597615133,-0.0062329513320561495
1765409465.081899,-9.921632183164888,0.07288678773802293,0.36531638145716905,-0.012936696770078252,-0.015138681969677492,-0.006740931121032449
1765409465.082099,-9.914164946308892,0.056806668459864804,0.3679951586850276,-0.01343314887896603,-0.014813279463206564,-0.007159886769888594
1765409465.082299,-9.906953421070206,0.040448961510079436,0.37074375388373604,-0.013876580842040057,-0.014427573662065348,-0.007487156126421772
1765409465.082499,-9.900030012170573,0.023988963701484643,0.3735059679124792,-0.014263403294692986,-0.013992022305611411,-0.007721837987621935
1765409465.082687,-9.893420880286177,0.00757893491077227,0.37619764112485143,-0.014590750610807758,-0.013516760139201018,-0.007864694289167301
1765409465.082887,-9.887155383713383,-0.008656410372890567,0.37872048425906235,-0.014856421108982507,-0.01301108380190584,-0.007918046857395847
1765409465.083087,-9.881275307625044,-0.02461995489811179,0.3809751393445438,-0.015058801014791281,-0.012483071199146448,-0.007885650298302054
1765409465.083287,-9.875842483544737,-0.04023807091612345,0.38287205191337054,-0.015196781291595246,-0.01193936295024444,-0.00777253177033264
1765409465.083487,-9.87094375617181,-0.05545318814110339,0.3843393240348524,-0.01526967273213952,-0.011385119175564293,-0.007584797743164928
1765409465.083785,-9.866692531758831,-0.07021436480771755,0.38532719306686036,-0.015277124860634336,-0.010824148111934091,-0.007329412452182422
1765409465.084035,-9.86322640442803,-0.08446754830768423,0.3858091823200254,-0.015219057744878195,-0.010259183237366052,-0.00701395283114759
1765409465.084285,-9.860700757720954,-0.09814724319171256,0.38578037655324743,-0.015095619194573561,-0.009692266164037634,-0.006646345569889968
1765409465.084535,-9.859278756973456,-0.11117089683773404,0.38525359041194235,-0.014907179707649288,-0.0091251782833222,-0.006234597707327393
1765409465.084716,-9.859118642109886,-0.12343661560068742,0.3842543397747204,-0.014654373460417277,-0.008559858967726564,-0.005786540433021632
1765409465.084916,-9.860359616078641,-0.13482412984219833,0.3828155565601083,-0.014338187569795215,-0.00799875371485989,-0.005309610520361409
1765409465.085116,-9.863107823203844,-0.1451984246024294,0.3809729051583542,-0.013960096222053298,-0.007445050139323951,-0.004810691842230839
1765409465.085316,-9.867423808654204,-0.15441518020568568,0.3787612632305639,-0.01352223211311928,-0.006902779692780573,-0.00429603149024917
1765409465.085516,-9.873312489448235,-0.16232711375272652,0.37621250388123306,-0.013027583552247424,-0.006376785026806365,-0.003771232927229853
1765409465.085676,-9.880716306973788,-0.168790461438769,0.373354431761408,-0.012480199457022105,-0.005872572021861769,-0.003241314736391321
1765409465.085876,-9.889512038985902,-0.17367114904867814,0.37021069353362157,-0.011885377364184452,-0.005396076145822849,-0.0027108123632413692
1765409465.086076,-9.899511630413889,-0.17685058394477077,0.36680156106371636,-0.011249805593264344,-0.004953374678569201,-0.002183896567047781
1765409465.086276,-9.910467217388016,-0.17823131953872948,0.3631455260301425,-0.010581632000111002,-0.004550375234241394,-0.0016644868469126682
1765409465.086476,-9.922080253836583,-0.17774289996366952,0.3592615990065706,-0.009890436240593567,-0.00419251100147505,-0.0011563467686173123
1765409465.086714,-9.934014328030642,-0.17534790689929472,0.3551720672113426,-0.009187087982628071,-0.003884471206183841,-0.0006631560286659551
1765409465.086914,-9.945910913486234,-0.17104774942369724,0.350905319542134,-0.008483482046992927,-0.00362998717248995,-0.00018855863587247294
1765409465.087114,-9.957407048038679,-0.1648873438904034,0.3464983557584133,-0.007792156371479124,-0.0034316823633869994,0.0002638127381976662
1765409465.087314,-9.968153852170222,-0.15695774792285505,0.3419987591516759,-0.0071258184354388,-0.0032909852846294938,0.0006903374544061177
1765409465.087514,-9.977834799420854,-0.1473960716713532,0.3374660345522813,-0.006496822649757697,-0.0032080994373069925,0.0010874334782381052
1765409465.087648,-9.986182646921375,-0.13638241288264366,0.33297220179589965,-0.0059166472158686525,-0.003182022629204769,0.0014516073231270194
1765409465.087848,-9.992993955907666,-0.12413391626005005,0.3286014864279045,-0.005395412941176453,-0.0032106075829952297,0.001779520872953875
1765409465.088048,-9.998140195056774,-0.11089627999864883,0.3244489168354617,-0.004941474811156098,-0.0032906563589939477,0.0020680665088646916
1765409465.088248,-10.001574470059863,-0.09693324917839531,0.3206176019322101,-0.004561106715592183,-0.0034180413665838294,0.002314442285669561
1765409465.088448,-10.00333304945282,-0.08251491854765552,0.3172145534675951,-0.0042582924587695956,-0.0035878460081911314,0.002516220658676102
1765409465.088742,-10.00353127239878,-0.06790589359030136,0.3143452856841637,-0.004034630757574187,-0.003794519768866155,0.0026714062052165997
1765409465.088942,-10.002354110815553,-0.053354380082749835,0.31210789059254196,-0.0038893579199801485,-0.004032043709702204,0.0027784798456931548
1765409465.089142,-10.000042294303713,-0.03908311019601406,0.3105874467512463,-0.0038194889940345433,-0.004294099474240188,0.0028364305961743473
1765409465.089342,-9.996875258055487,-0.02528279837177109,0.3098513702532998,-0.0038200740792079494,-0.004574231307711329,0.002844781149554559
1765409465.089542,-9.993152305753206,-0.012108611386743164,0.30994594445582624,-0.003884558672556113,-0.004865993064114198,0.0028036179192337386
1765409465.089765,-9.989173395599805,0.00032010999215207215,0.3108939983210212,-0.004005225961784838,-0.005163080290630813,0.0027136359952049495
1765409465.089965,-9.985220826822934,0.011916955636575787,0.3126935260376823,-0.004173688319017717,-0.005459453790658367,0.002576203417185965
1765409465.090165,-9.981542856905392,0.022622791840937472,0.3153169651122624,-0.004381387866277281,-0.005749461248680476,0.0023934387923057977
1765409465.090365,-9.978340092002762,0.032398068342065614,0.318710978520144,-0.0046200628555054905,-0.0060279590945923,0.0021682851490803104
1765409465.090565,-9.975755420124043,0.0412140692603809,0.3227968373258431,-0.0048821382932576615,-0.006290430186945955,0.0019045561242922982
1765409465.090667,-9.973868126619776,0.049044274593860404,0.32747163102297694,-0.005161006952083855,-0.0065330863686378126,0.0016069321804358752
1765409465.090867,-9.972692525985332,0.05585702086461601,0.3326104752705049,-0.005451181039783074,-0.0067529421959649375,0.0012808936773779905
1765409465.091067,-9.972181059594064,0.061610486738762,0.3380697679692705,-0.005748312940397397,-0.006947848802279954,0.0009325893909915872
1765409465.091267,-9.972231453765295,0.0662507489736307,0.34369143078618486,-0.006049100859571938,-0.007116482143402045,0.0005686495117678189
1765409465.091467,-9.97269720843922,0.06971329503419522,0.349307962870868,-0.006351107755318522,-0.007258285719202035,0.00019595992200500313
1765409465.091721,-9.97340043802814,0.07192791841133635,0.35474809774532196,-0.00665252808699685,-0.007373375740461514,-0.00017858071951379223
1765409465.091921,-9.97414601648,0.07282639303008694,0.35984293364527403,-0.006951937174316689,-0.007462425833278986,-0.0005482979942751558
1765409465.092121,-9.974736067798096,0.07235186135022087,0.36443247701208015,-0.007248053511153685,-0.007526552601146614,-0.0009069513027446719
1765409465.092321,-9.97498395597113,0.07046861623793897,0.36837246577527694,-0.0075395367108493615,-0.007567217896627669,-0.0012488990645581103
1765409465.092521,-9.97472702253173,0.067170956388195,0.3715411744739861,-0.007824834954793773,-0.007586151341577988,-0.0015692094730135314
1765409465.09265,-9.97383745081529,0.062490010046280964,0.3738457711981969,-0.00810208828348133,-0.0075852847463788115,-0.0018637140081677107
1765409465.09285,-9.972230761518917,0.05649775687519461,0.375227698227523,-0.008369089419780758,-0.007566684049724428,-0.002129007298660357
1765409465.09305,-9.969871457853376,0.04930781462158355,0.3756664427589021,-0.008623301875199869,-0.0075324667500271765,-0.0023624029140514842
1765409465.09325,-9.966775313842836,0.04107283604268778,0.3751810507290979,-0.008861933740917696,-0.007484703330866854,-0.002561860384068056
1765409465.09345,-9.963007955206455,0.03197863369929283,0.3738289443241479,-0.009082062083739151,-0.0074253145544302054,-0.0027259022816900243
1765409465.093705,-9.95867976340679,0.022235495769787183,0.3717019592332897,-0.009280796413636114,-0.007355983767033454,-0.0028535400443479926
1765409465.093905,-9.95393755103642,0.012067551719036534,0.36891984843099596,-0.00945546232085948,-0.007278100533268641,-0.0029442240828042743
1765409465.094105,-9.948953765741303,0.0017013554504851335,0.3656217864396866,-0.00960378142502322,-0.007192744171409914,-0.0029978286068409253
1765409465.094305,-9.943914195150235,-0.008645055430657703,0.3619567125993136,-0.009724023496296199,-0.007100709643966039,-0.003014673929521674
1765409465.094505,-9.939005273401087,-0.01877152031226134,0.3580735845722859,-0.009815111206400308,-0.007002573886659651,-0.002995578842909813
1765409465.094669,-9.934402070160917,-0.02850276726684983,0.3541126170328498,-0.009876666316031346,-0.006898795724775051,-0.0029419262117773098
1765409465.094869,-9.930257894069403,-0.037692711703873026,0.3501983723233077,-0.009908996489252019,-0.006789838438972484,-0.0028557205848140687
1765409465.095069,-9.926696266632462,-0.04622603957998661,0.346435281652138,-0.009913031639830561,-0.006676303290569293,-0.002739618143527059
1765409465.095269,-9.923805827633728,-0.0540173356603688,0.342905827849157,-0.009890224787622217,-0.006559064052226627,-0.0025969137599869533
1765409465.095469,-9.92163843065631,-0.06100820758016375,0.3396711780308956,-0.009842434380999836,-0.006439393859798637,-0.002431475663652095
1765409465.09569,-9.920210277503921,-0.06716300190259289,0.336773622281152,-0.009771805221973866,-0.0063190741598637586,-0.002247626478231559
1765409465.09589,-9.919505539470261,-0.07246377224863525,0.33423992759150634,-0.00968066462650327,-0.006200471274203061,-0.002049979837414391
1765409465.09609,-9.919481626407645,-0.07690511085503267,0.33208470950219565,-0.009571447491092351,-0.006086563132012536,-0.0018432498993272168
1765409465.09629,-9.920075163503466,-0.08048934533719167,0.33031312223067083,-0.009446657153106098,-0.005980901969104583,-0.001632052796601212
1765409465.09649,-9.921207876798677,-0.08322250090417589,0.3289225266023171,-0.009308859669981373,-0.005887508046520468,-0.0014207162517016403
1765409465.096689,-9.922791901007944,-0.08511133677833085,0.3279031812227462,-0.009160700151053637,-0.005810699580534892,-0.0012131118742181601
1765409465.096939,-9.924734293606639,-0.08616166099797168,0.327238222447342,-0.009004924092895274,-0.00575487189969694,-0.00101252602979057
1765409465.097189,-9.926940655341207,-0.08637801939579626,0.3269032301464215,-0.008844386813323744,-0.005724244989406619,-0.0008215853465751647
1765409465.097439,-9.929317837403106,-0.08576474750857248,0.3268656912029231,-0.008682039751853422,-0.005722602138431027,-0.0006422468957786741
1765409465.097675,-9.931775864753035,-0.08432824527918022,0.32708473994660486,-0.008520890212162199,-0.005753039643938048,-0.0004758517583412924
1765409465.097875,-9.934229324693568,-0.08208018670824002,0.3275115407539915,-0.008363937823065224,-0.005817738808074677,-0.00032323023379975937
1765409465.098075,-9.93659845921117,-0.07904125406470955,0.32809052953204426,-0.008214095362309307,-0.005917764603944389,-0.0001848417030809381
1765409465.098275,-9.938810152815371,-0.0752449078593201,0.32876158775562553,-0.008074103572648277,-0.006052897780373532,-6.093078471518525e-05
1765409465.098475,-9.940799022856403,-0.07074065213894398,0.3294631417068338,-0.007946450088937062,-0.006221515983193163,4.8319316680265984e-05
1765409465.098703,-9.94250879366277,-0.065596247034484,0.3301360191651582,-0.007833302937903214,-0.006420544267282549,0.00014265606864042032
1765409465.098903,-9.943893947813308,-0.05989841566959718,0.3307276042092595,-0.007736468402240364,-0.006645490439900016,0.0002216680478070074
1765409465.099103,-9.944921397747024,-0.0537518096764478,0.33119560922229097,-0.007657377870169391,-0.006890570259499789,0.00028475002972025697
1765409465.099303,-9.94557181263584,-0.04727628538418653,0.33151083752502614,-0.007597097997537241,-0.007148918573010426,0.00033112717320919494
1765409465.099503,-9.945840323623296,-0.04060282270396212,0.3316586012870821,-0.007556349020306576,-0.007412876767260743,0.00035993228946466375
1765409465.099693,-9.945736496795849,-0.033868610656991274,0.33163877710524564,-0.00753551415565895,-0.007674341379425119,0.0003703217399802132
1765409465.099893,-9.945283563924573,-0.027211865493762154,0.33146465853180634,-0.007534629236765241,-0.007925151003124135,0.0003616109643140606
1765409465.100093,-9.944516894018328,-0.02076685383640548,0.3311607924301819,-0.007553351635448217,-0.008157480736850773,0.0003334101776028341
1765409465.100293,-9.943481673847371,-0.01465945856666727,0.3307599872696379,-0.007590916695913443,-0.008364209670233172,0.0002857439337357596
1765409465.100493,-9.942229874716832,-0.009003520097815526,0.3302997566279168,-0.007646095085725352,-0.008539229091923171,0.00021914368401037895
1765409465.100683,-9.940816784142038,-0.0038980935311855617,0.32981854709727093,-0.007717164146090759,-0.008677665956963973,0.00013470769302578167
1765409465.100883,-9.939297495906922,0.0005743530039331873,0.32935207440832087,-0.007801902548804721,-0.00877600736224372,3.412586079427985e-05
1765409465.101083,-9.937723719864014,0.0043488928032345605,0.32893001023326257,-0.007897614267929672,-0.008832127946004563,-8.03314520109259e-05
1765409465.101283,-9.936141224649372,0.007378414201056912,0.3285732915011737,-0.008001185884302745,-0.00884523922381064,-0.0002058601302560461
1765409465.101483,-9.934588209508986,0.009633382835939206,0.3282924126909019,-0.008109177856735386,-0.008815789317533839,-0.0003392023327708814
1765409465.10175,-9.93309476104712,0.011101224075288043,0.32808695250116543,-0.008217944498965587,-0.008745339209340936,-0.0004767559149696768
1765409465.10195,-9.931683233268728,0.011785427125136947,0.32794625101650937,-0.008323771886854263,-0.00863643313184228,-0.0006147079986397233
1765409465.10215,-9.93036913222196,0.011704466520137976,0.32785090373258713,-0.00842302076962687,-0.008492474287772422,-0.0007491864445282615
1765409465.10235,-9.929162095803344,0.010890627020199254,0.3277747502424442,-0.008512262364667997,-0.008317614420140416,-0.0008764219714065465
1765409465.10255,-9.928066698988234,0.009388782252254958,0.32768708102932964,-0.008588396994132587,-0.008116662693126022,-0.0009929124114423469
1765409465.102678,-9.92708287092526,0.007255124511869709,0.3275546757401284,-0.008648748712031501,-0.007895013658134586,-0.0010955791159444014
1765409465.102878,-9.926205775325219,0.004555787636546941,0.327343258546097,-0.008691133438514189,-0.007658587582204957,-0.0011819041396112606
1765409465.103078,-9.92542527799255,0.001365269195540194,0.3270182875404941,-0.008713902131752244,-0.007413770633415189,-0.0012500365445557307
1765409465.103278,-9.924725460593473,-0.002235419563128683,0.326545461002001,-0.008715962322990291,-0.007167337391907854,-0.0012988586190502594
1765409465.103478,-9.924084677194397,-0.006160868030852062,0.325891455147816,-0.008696781051028538,-0.006926336145611892,-0.0013280084638157543
1765409465.103716,-9.923476358012058,-0.010323563400627065,0.32502515846641034,-0.008656372145439276,-0.0066979226323139514,-0.0013378618595858269
1765409465.103916,-9.922870492837424,-0.014636265056795059,0.32391941084880255,-0.008595272548277591,-0.006489140400085866,-0.0013294801636823956
1765409465.104116,-9.922235682030534,-0.01901434218383696,0.32255318486916557,-0.00851451417394106,-0.006306659623821416,-0.0013045313226603752
1765409465.104316,-9.92154167193798,-0.023377924991885724,0.3209141007341024,-0.008415596413246617,-0.006156494517003816,-0.0012651899216680992
1765409465.104516,-9.920762248696924,-0.027653673567405144,0.319001060616119,-0.008300459808508328,-0.006043721503280045,-0.0012140215785137307
1765409465.104639,-9.919878326388918,-0.031775959230061455,0.316826753743523,-0.0081714574069476,-0.005972219312722927,-0.0011538572428062192
1765409465.104839,-9.918881065117,-0.03568730810908438,0.31441981545057235,-0.008031319410087034,-0.005944450107608933,-0.0010876630231953699
1765409465.105039,-9.917774763415338,-0.0393380742985035,0.3118263472039002,-0.007883107847282921,-0.005961297310127184,-0.001018410092126064
1765409465.105239,-9.916579083806255,-0.0426854687395513,0.3091103648246817,-0.0077301592237653816,-0.0060219713780098084,-0.0009489474596535819
1765409465.105439,-9.915330097948006,-0.045692217537209236,0.306352785198079,-0.00757601415968634,-0.006123990328914848,-0.0008818796657921779
1765409465.105658,-9.914079775401323,-0.04832519366885137,0.30364880012963746,-0.007424334075937375,-0.006263237272278595,-0.0008194529297497655
1765409465.105858,-9.912893751283633,-0.050554339203799044,0.3011036875106539,-0.007278805730034853,-0.006434093614664819,-0.0007634559572143331
1765409465.106058,-9.911847419794785,-0.052352111487454694,0.29882722670711326,-0.007143034988647701,-0.006629646833734858,-0.0007151426081415948
1765409465.106258,-9.911020707524585,-0.053693583127948856,0.29692708790792927,-0.007020432005548467,-0.006841974358525185,-0.0006751815656356653
1765409465.106458,-9.910492229436798,-0.05455721278050955,0.2955018250682232,-0.006914091416238574,-0.00706250210446576,-0.0006436352877570151
1765409465.106634,-9.910333631498121,-0.05492621092704373,0.2946341424228359,-0.006826674038281656,-0.007282423063218729,-0.0006199704048383462
1765409465.106834,-9.91060466292433,-0.05479037800959996,0.29438486799649694,-0.006760300207875314,-0.00749314518790868,-0.0006031045862260679
1765409465.107034,-9.911349179693174,-0.05414824125422566,0.29478787265193673,-0.0067164664391519075,-0.007686729110414025,-0.0005914969234221547
1765409465.107234,-9.912592154083509,-0.05300919151026229,0.29584625396031267,-0.006695995050508394,-0.007856277576901567,-0.0005832862042178249
1765409465.107434,-9.914337788911453,-0.05139517835466892,0.29753028814894156,-0.0066990226229996595,-0.007996246975004392,-0.0005764736876868636
1765409465.1077,-9.916568778583029,-0.049341520621359124,0.2997776625011854,-0.0067250294914734604,-0.008102664556527217,-0.0005691367894961277
1765409465.1079,-9.919246582496505,-0.046896592277236054,0.30249629984857046,-0.006772907978553025,-0.008173249390180954,-0.0005596513056184429
1765409465.1081,-9.9223123924331,-0.044120426643296844,0.30556975188466384,-0.006841060347789612,-0.008207445035230096,-0.0005468961959614828
1765409465.1083,-9.925688319890032,-0.04108248022017511,0.308864666739464,-0.006927510112722175,-0.008206374815708255,-0.000530418055788541
1765409465.1085,-9.929278224822289,-0.037858845945191226,0.3122393437667463,-0.007030007004677163,-0.008172729400151827,-0.0005105395757307896
1765409465.108716,-9.932967711050674,-0.034529133080512565,0.3155522031253175,-0.007146110283946022,-0.008110595505177511,-0.0004884027479825114
1765409465.108916,-9.936623212921916,-0.031173120839767907,0.31866926432750936,-0.007273245905594606,-0.008025235274802993,-0.00046594118052484165
1765409465.109116,-9.94009060121191,-0.027867259938066373,0.32147019083997774,-0.0074087443212209865,-0.00792282658078049,-0.0004457784928380479
1765409465.109316,-9.943194104971752,-0.024681194424811294,0.32385285210380793,-0.007549871537124749,-0.007810173061614708,-0.0004310543515437044
1765409465.109516,-9.945736535089019,-0.021674621899294356,0.32573664768681704,-0.007693864827324469,-0.007694388422343157,-0.0004251876158765225
1765409465.109633,-9.947501805023144,-0.018894867079668927,0.327064977084919,-0.00783797884420624,-0.007582553279812665,-0.00043159585003406853
1765409465.109833,-9.948260516343902,-0.016375469211383675,0.32780712394707084,-0.007979542350927068,-0.007481338167716097,-0.0004533980890530755
1765409465.110033,-9.94777897436442,-0.01413594536351142,0.3279595974034963,-0.00811602335382097,-0.007396588730316819,-0.0004931293874484692
1765409465.110233,-9.945831603693232,-0.012182768862618137,0.32754688272090643,-0.0082450994210096,-0.0073328806938902195,-0.0005524912372889174
1765409465.110433,-9.942216376572537,-0.010511515443585858,0.32662155151629674,-0.008364727107115697,-0.007293067865708238,-0.0006321552271635136
1765409465.110712,-9.936772443763305,-0.009110052779199497,0.32526357803491185,-0.008473200539448862,-0.0072778594477498565,-0.0007316320973377554
1765409465.110912,-9.929398754945622,-0.007962565040878986,0.32357863454450264,-0.008569188672659577,-0.007285471132766014,-0.0008492146013267294
1765409465.111112,-9.920072337235155,-0.007054129848280375,0.3216953939958375,-0.008651745002079403,-0.00731139739557999,-0.0009819978692834402
1765409465.111312,-9.908865053703032,-0.0063755178089127396,0.3197623016918664,-0.00872028959259255,-0.007348347351915284,-0.0011259748574208811
1765409465.111512,-9.895957687316121,-0.0059278574739649904,0.317944334178245,-0.008774567544272352,-0.007386372340791236,-0.0012761990899374765
1765409465.111663,-9.881649849241748,-0.005726785817235564,0.316419765447018,-0.00881458977690593,-0.0074131956760243685,-0.0014270035533136263
1765409465.111863,-9.866363797376092,-0.005805679628258563,0.31537639056613453,-0.008840562879682953,-0.007414741082169009,-0.001572262686060198
1765409465.112063,-9.85064020440776,-0.00621753932459776,0.315006465301627,-0.008852816113463875,-0.0073758453411636735,-0.001705683394991253
1765409465.112263,-9.835124261923179,-0.007035092371153768,0.31549969690332597,-0.008851735450523868,-0.00728112606088996,-0.0018211107717097071
1765409465.112463,-9.820541047068952,-0.008348731088126324,0.3170337243407718,-0.008837715704412807,-0.007115956316909952,-0.001912833643474985
1765409465.112735,-9.807659860157496,-0.010262015582802873,0.3197618059180489,-0.008811140592837354,-0.0068674804558235235,-0.0019758737572473564
1765409465.112935,-9.797248468046886,-0.0128846331553174,0.3237981237220709,-0.00877239570644744,-0.006525593883176467,-0.0020062424559353976
1765409465.113135,-9.790019736765757,-0.016322875668798458,0.3292019881269934,-0.00872191185651037,-0.006083803809523722,-0.0020011523208156978
1765409465.113335,-9.786574580512054,-0.020667887019761542,0.3359627803468286,-0.00866022958042465,-0.005539888921782678,-0.0019591760239612097
1765409465.113535,-9.787346289137846,-0.02598220503360278,0.34398757909018923,-0.008588072751807268,-0.0048962878753669664,-0.0018803455221208503
1765409465.113648,-9.79255222864052,-0.03228554722963192,0.3530933770295981,-0.008506420137944923,-0.00416016892699057,-0.0017661804273229362
1765409465.113848,-9.80215942704569,-0.03954142388880079,0.36300573348494164,-0.008416565959737587,-0.0033431586388646697,-0.0016196296792340146
1765409465.114048,-9.815869892095982,-0.0476468911741512,0.3733653429373246,-0.00832016271601834,-0.002460733231205798,-0.0014449142284672048
1765409465.114248,-9.833129206090645,-0.05642804384833357,0.3837430942816837,-0.008219242000811242,-0.0015313112326870663,-0.0012472776837862637
1765409465.114448,-9.853158651411078,-0.06564302406933921,0.39366298401173155,-0.008116210588177731,-0.0005751361214124015,-0.0010326812404559398
1765409465.114696,-9.87500791913896,-0.07499250999054217,0.4026311434770087,-0.008013816969180862,0.00038691964425747674,-0.0008074953240351727
1765409465.114896,-9.897622849779589,-0.08413594751875679,0.4101684499424109,-0.007915079804389545,0.0013344968757021943,-0.0005782237134686842
1765409465.115096,-9.919920861503394,-0.092711218746718,0.415843796916493,-0.007823173466223788,0.00224874592168534,-0.0003512574784453484
1765409465.115296,-9.940866244276178,-0.10035606501281238,0.41930513503226885,-0.007741280598137729,0.0031131244580144828,-0.00013262830857740278
1765409465.115496,-9.959538526549586,-0.10673065361818897,0.4203056194502728,-0.007672434155962372,0.003913957067587093,7.226479921891444e-05
1765409465.115692,-9.975188879745145,-0.11154108261472123,0.41872236650938954,-0.007619366241605081,0.00464072570538484,0.0002589483877227428
1765409465.115942,-9.98728107023838,-0.11456255545356427,0.41456574349524533,-0.007584364269033516,0.00528609828211825,0.00042414037839143677
1765409465.116192,-9.995514733425955,-0.11565898789259597,0.40797825834222323,-0.00756912766016599,0.005845757519452211,0.0005659261478187209
1765409465.116442,-9.999830214397788,-0.11479489654291185,0.3992236824666318,-0.007574627511145793,0.006318118229025462,0.0006838028214628753
1765409465.116706,-10.000395939737057,-0.1120369878599868,0.3886681690179038,-0.007600984142341395,0.006704001507895865,0.0007785880908863796
1765409465.116906,-9.997580777852201,-0.10754593282507569,0.3767554612428858,-0.007647380861237991,0.00700629863812774,0.0008522127678127455
1765409465.117106,-9.991914795947062,-0.10156091207332558,0.36397822301026284,-0.007712028980227947,0.00722963559750254,0.0009074158592114061
1765409465.117306,-9.98404234362227,-0.09437954718407444,0.3508475256519852,-0.007792196347636265,0.007380040127773444,0.0009473605138411549
1765409465.117506,-9.974671669720738,-0.08633501335625611,0.3378626620518451,-0.007884309761764095,0.00746460777515535,0.0009752080601633569
1765409465.117652,-9.964525272470325,-0.0777719939601183,0.3254835577813263,-0.00798413657157506,0.007491165152715466,0.0009937131273552453
1765409465.117852,-9.9542947597131,-0.0690237218199314,0.31410788818157137,-0.008087041223691261,0.0074679401369259005,0.001004907792015604
1765409465.118052,-9.944603184559623,-0.060392667072560316,0.30405444653261543,-0.008188300553819985,0.00740325715517386,0.0010099173442309566
1765409465.118252,-9.935976809672017,-0.05213680805217759,0.2955534404668283,-0.008283449508795384,0.0073052715618317065,0.0010089107648253138
1765409465.118452,-9.928827176585552,-0.04446202319893236,0.2887435235217851,-0.008368619782675278,0.007181747500051316,0.0010011594144536352
1765409465.118677,-9.923443272684993,-0.03751971760975287,0.2836747355472125,-0.008440832645299882,0.007039876973265449,0.0009851715412329952
1765409465.118877,-9.91999265736148,-0.03140813587055147,0.2803161769858505,-0.008498215928110632,0.006886131084547887,0.0009588833890956855
1765409465.119077,-9.91852985611109,-0.02617613765848038,0.27856713067710154,-0.008540127791174346,0.006726125642673431,0.0009199015528479897
1765409465.119277,-9.91901015464724,-0.021828973427037563,0.2782703915612991,-0.008567179425632522,0.0065644816540282175,0.0008657895600861539
1765409465.119477,-9.921306883405324,-0.018335950214302534,0.27922666584930733,-0.008581155363893136,0.006404673359035166,0.0007943744946353158
1765409465.119652,-9.925230279618006,-0.015639492835695927,0.2812090245307747,-0.008584837529980294,0.0062488747934424,0.0007040327853763676
1765409465.119852,-9.930546225983806,-0.013664496008780981,0.28397660767213184,-0.008581748166773732,0.006097828968434,0.0005939156159756778
1765409465.120052,-9.936993680969811,-0.012326808469163264,0.2872870837872433,-0.008575835273015437,0.005950769670490486,0.00046409575373272384
1765409465.120252,-9.944300209938744,-0.011540346636110409,0.29090764044952466,-0.008571130608292912,0.005805426301031864,0.0003156417179244836
1765409465.120452,-9.952195394544475,-0.011223050623273292,0.29462437752611437,-0.008571412690448456,0.005658133789942874,0.0001506322873323352
1765409465.120682,-9.960421946177897,-0.011301951192172647,0.29824989214668784,-0.008579903377931693,0.005504050907445151,-2.7886893777162426e-05
1765409465.120882,-9.968744216572079,-0.011717038396403591,0.301628738002862,-0.008599018321731286,0.0053374695076651105,-0.00021601433938128408
1765409465.121082,-9.976953740116517,-0.01242313957159419,0.3046405047659407,-0.008630184494447817,0.005152184034184043,-0.00040917677857339204
1765409465.121282,-9.98487167655026,-0.013389235287275529,0.30720055266656265,-0.008673735290881482,0.004941885737872045,-0.0006023744805595705
1765409465.121482,-9.992348533399376,-0.014595429429375742,0.3092587860907947,-0.008728892101888349,0.004700546616332165,-0.000790461428836275
1765409465.12166,-9.999262025879883,-0.01602850347480302,0.3107970205012608,-0.008793836070112863,0.004422765257316146,-0.0009684315212591366
1765409465.12186,-10.00551404212871,-0.017677169701921222,0.31182541088346755,-0.008865864655560137,0.004104059898641702,-0.0011316888192372352
1765409465.12206,-10.011027391637105,-0.01952783305894753,0.31237816252980394,-0.008941618120913835,0.0037411051532801275,-0.0012762872186268186
1765409465.12226,-10.015742601801708,-0.021561206204055255,0.3125084922075721,-0.009017354253656594,0.0033319116146898887,-0.0013991270699139804
1765409465.12246,-10.019614813605946,-0.023749813705802696,0.3122827677654941,-0.009089246370292589,0.0028759460433159063,-0.0014980937678361853
1765409465.122728,-10.022610942014632,-0.0260564066183948,0.3117740978865028,-0.009153678734834829,0.0023741927070087846,-0.0015721214814911587
1765409465.122928,-10.0247075519777,-0.028433485434632297,0.31105616601633557,-0.009207513912394227,0.0018291646723693307,-0.0016211697033479437
1765409465.123128,-10.02589001720377,-0.03082423031797785,0.3101982795818808,-0.009248308781798173,0.00124487832105614,-0.0016461127544383765
1765409465.123328,-10.026153262644748,-0.033164951732746674,0.30926220935195314,-0.009274460663694065,0.0006267970846842403,-0.0016485594626937283
1765409465.123528,-10.02550386194149,-0.03538874352827225,0.308300759378829,-0.00928527174419056,-1.826444927560353e-05,-0.001630635365259027
1765409465.123763,-10.023962758119021,-0.03742961336971007,0.30735754323632614,-0.009280928155860449,-0.0006822945015018118,-0.0015947654406199723
1765409465.123963,-10.021567607020545,-0.03922625934014876,0.30646725178388856,-0.009262399905220242,-0.00135631127876616,-0.0015434877332992148
1765409465.124163,-10.018373818945115,-0.04072492599107966,0.30565580722021274,-0.009231278175550955,-0.0020306659488238737,-0.001479311936789761
1765409465.124363,-10.014453824095687,-0.041881234058053635,0.3049402506655754,-0.009189574160194575,-0.002695409629560058,-0.0014046225945414357
1765409465.124563,-10.009894703404116,-0.042661269199519285,0.30432873941520155,-0.009139505889808077,-0.0033407004735286393,-0.0013216211672415737
1765409465.124727,-10.004794709847049,-0.04304235745281107,0.3038211457207937,-0.009083296950076243,-0.003957219839336618,-0.0012323028007978725
1765409465.124927,-9.99925919923701,-0.043013826389136256,0.303410398595919,-0.009023006078743285,-0.00453656728748283,-0.0011384653308241025
1765409465.125127,-9.993396351617829,-0.04257776242063675,0.3030843861353519,-0.008960401263657207,-0.005071610107233139,-0.0010417458769285592
1765409465.125327,-9.987313031422188,-0.0417495138116447,0.3028282264535913,-0.008896886216423731,-0.00555676721133626,-0.0009436753497745553
1765409465.125527,-9.981111109958988,-0.040557622747289114,0.30262675984220094,-0.008833480571825168,-0.005988207794212938,-0.0008457365429694188
1765409465.125644,-9.974884449021172,-0.03904303099251285,0.3024670080695443,-0.008770848405574239,-0.006363947830747962,-0.0007494107084633886
1765409465.125844,-9.968716664735682,-0.03725765184656763,0.30234030768430986,-0.008709363932205503,-0.00668383552389735,-0.000656202953114468
1765409465.126044,-9.9626798341248,-0.03526251941380774,0.30224397093723926,-0.008649199514899925,-0.006949425833331257,-0.0005676463037018474
1765409465.126244,-9.956834243406995,-0.0331256132009047,0.30218236752491756,-0.008590419791784973,-0.007163750636442323,-0.0004852908440069714
1765409465.126444,-9.951228963965388,-0.030919258912728998,0.3021671298462695,-0.008533067242968585,-0.007330998992190048,-0.0004106824868784686
1765409465.126665,-9.945902763648618,-0.02871699646773023,0.3022161446843733,-0.00847722920627228,-0.007456135511848577,-0.0003453285883300153
1765409465.126865,-9.940884942370278,-0.02659005729136311,0.30235134208635284,-0.008423082719069887,-0.007544498183258383,-0.0002906438832140063
1765409465.127065,-9.93619600286665,-0.024603868309384012,0.30259568342675297,-0.008370918266017787,-0.007601419747242875,-0.000247875849734051
1765409465.127265,-9.931848299642768,-0.022815028395688504,0.30296986560079325,-0.00832114464168329,-0.007631906690147533,-0.00021801972429087374
1765409465.127465,-9.927846892198762,-0.02126897022871474,0.3034892892345774,-0.00827427646378841,-0.007640394117783682,-0.0002017409301913693
1765409465.127668,-9.92419086234674,-0.01999824821320449,0.30416195329916956,-0.008230906354329081,-0.00763057997003279,-0.0001993208587976676
1765409465.130687,-9.920875244170686,-0.01902131794953644,0.30498782441061484,-0.008191666214925142,-0.0076053307559631085,-0.0002106319542692514
1765409465.132667,-9.917893364889864,-0.01834184807977579,0.3059596861349688,-0.008157184823412803,-0.007566645203354267,-0.00023513723432550261
1765409465.135664,-9.91523906971599,-0.017948835126290724,0.30706495000079614,-0.008128050038491067,-0.007515663556955737,-0.00027190641517901723
1765409465.137598,-9.912908324904064,-0.017817780326034847,0.3082878686845578,-0.008104782029312028,-0.007452716071494571,-0.0003196474259689631
1765409465.138673,-9.910899932066224,-0.017912845831580485,0.30961177312686716,-0.00808781997384605,-0.00737740892396839,-0.00037676003256104047
1765409465.142665,-9.909215197827693,-0.018189503182060043,0.3110208841490637,-0.008077520942531587,-0.007288747238503034,-0.0004414175842905951
1765409465.145629,-9.907856424712294,-0.018597099143971257,0.31250110447006485,-0.008074167965806608,-0.007185295491907743,-0.0005116723806152353
1765409465.14871,-9.906824347604038,-0.01908107807802862,0.314039493092708,-0.008077984355654589,-0.0070653753856664125,-0.0005855686201571773
1765409465.14921,-9.906115116455448,-0.01958500409531577,0.3156227737390353,-0.008089151373057175,-0.006927296341967178,-0.0006612444744415245
1765409465.152765,-9.905717695818089,-0.020052648010583315,0.3172356177962216,-0.008107824603724442,-0.006769603442166537,-0.0007370129859511467
1765409465.153708,-9.905612389502704,-0.020430200860031413,0.318859336667334,-0.008134142028768276,-0.006591318450576117,-0.0008114218868019187
1765409465.157636,-9.905770835491175,-0.020668425787164428,0.32047137777807355,-0.008168217741730283,-0.006392147627760701,-0.0008832963325398816
1765409465.158701,-9.906157517782374,-0.020724518455952537,0.3220458873787217,-0.008210121446624044,-0.00617263367954454,-0.0009517654938254101
1765409465.162699,-9.906732582353202,-0.020563615272206702,0.3235553714173484,-0.008259851352112662,-0.005934233673503567,-0.0010162700493114973
1765409465.164732,-9.90745545267248,-0.020160083862461212,0.32497303547708123,-0.00831731117548938,-0.005679310048882199,-0.0010765479882823828
1765409465.16763,-9.90828857963208,-0.019498756345649633,0.32627507866992705,-0.008382299405192402,-0.005411031242693311,-0.001132600759610938
1765409465.170636,-9.909200803863047,-0.018576065386427282,0.3274423791389559,-0.00845451381610661,-0.005133191977272649,-0.0011846466348075298
1765409465.172682,-9.910170090914207,-0.017400770164244846,0.3284613879492115,-0.00853356975973132,-0.004849976240313558,-0.0012330688507302106
1765409465.175608,-9.911185494505622,-0.015993886518395253,0.32932421972282694,-0.00861902839849489,-0.0045656939479708,-0.001278362050142583
1765409465.1777,-9.912248089292817,-0.014387694566193196,0.3300279452991793,-0.008710430718339148,-0.004284525075286039,-0.0013210760202669947
1765409465.178732,-9.913370589924297,-0.012624096135431591,0.33057325593026526,-0.00880733329542571,-0.004010304609104863,-0.0013617565597093138
1765409465.181762,-9.914575584346917,-0.010752761330826236,0.3309629027652642,-0.008909340228168403,-0.003746376700742694,-0.0014008904985091206
1765409465.185763,-9.915892558295955,-0.008829278584566193,0.33120028954521047,-0.009016122340396521,-0.0034955335847656273,-0.001438868364311136
1765409465.18773,-9.917353990351508,-0.006913165392681417,0.3312883446340926,-0.009127413480186175,-0.003260036381818574,-0.0014759752080512837
1765409465.19067,-9.918990851929577,-0.005065503587600508,0.3312286848709531,-0.009242978558378736,-0.003041698636533833,-0.0015124081036634361
1765409465.192837,-9.920827983005227,-0.003346212512231767,0.331021182407486,-0.00936255771002076,-0.002842003974194328,-0.0015483076869449216
1765409465.196778,-9.922879918399715,-0.0018112919879164557,0.33066405425798717,-0.00948579942235233,-0.0026622259383117315,-0.0015837889631405606
1765409465.197639,-9.925147662127573,-0.0005104841875411531,0.33015440945119173,-0.009612197734517925,-0.002503521426067143,-0.0016189626626296788
1765409465.200621,-9.92761673419402,0.0005143328446243814,0.32948907120811116,-0.00974104498453736,-0.002366980117918146,-0.0016539465973305356
1765409465.202684,-9.93025669094086,0.0012299970462103132,0.32866555545024007,-0.00987140576418455,-0.0022536263127347707,-0.0016888716832571058
1765409465.206314,-9.933022211390037,0.001612402100763612,0.3276831202666508,-0.010002113815769726,-0.0021643805546018077,-0.0017238873337619795
1765409465.207671,-9.935855679127545,0.001646622621828493,0.32654371789164405,-0.010131793999853159,-0.0020999958403938052,-0.0017591668506114152
1765409465.21067,-9.938691033204115,0.001326938512383562,0.32525267503068483,-0.0102589148680646,-0.002060987773264956,-0.0017949098260284582
1765409465.212741,-9.941458545004247,0.0006566415167779844,0.32381906941854194,-0.010381878817037513,-0.0020475767712989745,-0.001831339996620876
1765409465.215672,-9.944090034471321,-0.00035254590385330964,0.3222558818097838,-0.0104991520748842,-0.0020596529080311025,-0.0018687024852062015
1765409465.217643,-9.94652392423927,-0.0016814240267831178,0.3205800100368267,-0.01060942719913795,-0.0020967663425620784,-0.0019072676658153996
1765409465.21868,-9.948709623965962,-0.003304328307570017,0.31881226196996026,-0.010711802563456427,-0.002158142916905201,-0.001947345296103205
1765409465.222679,-9.950611000334748,-0.0051897062754160785,0.31697748862531977,-0.010805961309059852,-0.002242722373439769,-0.0019893038343147132
1765409465.225723,-9.952208834317755,-0.007299894082751554,0.3151048820134048,-0.010892334595168696,-0.002349212996079462,-0.0020335823433233566
1765409465.227739,-9.953502106398641,-0.009590159815552054,0.31322817905574823,-0.010972234953069086,-0.0024761539879999857,-0.0020806818669738157
1765409465.22875,-9.954507936875377,-0.012007570376094408,0.3113854329938789,-0.011047943037539393,-0.0026219775245066557,-0.0021311305150108974
1765409465.232675,-9.955260203537431,-0.01449047983206825,0.30961826882237714,-0.01112272896720546,-0.002785063417699825,-0.002185426911294999
1765409465.235681,-9.955807065430559,-0.016969286736300573,0.30797079319157117,-0.01120079268338838,-0.0029637794346308493,-0.00224397389893402
1765409465.236687,-9.9562076197639,-0.019368666489313884,0.3064882789656338,-0.011287116933910052,-0.0031565032057413165,-0.0023070156722009567
1765409465.240662,-9.956527787850714,-0.021610990400916182,0.30521551682571907,-0.011387237355875733,-0.0033616290475081073,-0.0023745874373530765
1765409465.242728,-9.9568354606885,-0.02362032689339118,0.30419460482081706,-0.011506941872726061,-0.0035775698069713518,-0.0024464788929199565
1765409465.244725,-9.957194997269806,-0.02532642589400661,0.3034620470938019,-0.011651915400160499,-0.003802764328524454,-0.00252220474702978
1765409465.247634,-9.957661351782958,-0.02666838457202209,0.30304534247686477,-0.01182734834870095,-0.00403569551528966,-0.002600973561523733
1765409465.25068,-9.95827440111379,-0.027598026259630953,0.30295965646916245,-0.012037530696815915,-0.004274915863903469,-0.002681654704243529
1765409465.252698,-9.959054318611836,-0.028083096920689856,0.303205428944569,-0.012285457298990313,-0.004519070389934097,-0.002762757685285814
1765409465.255682,-9.959998858023253,-0.02811015987555178,0.3037676347627583,-0.012572473383761001,-0.0047669050205276535,-0.002842447542103122
1765409465.257652,-9.961083089193588,-0.027686804389075958,0.30461692320506856,-0.012897990350320316,-0.005017253831743238,-0.0029186161661869984
1765409465.260667,-9.962261628220103,-0.026842727147987484,0.30571229630222385,-0.013259299509289382,-0.005269006405177681,-0.002989014079291467
1765409465.262737,-9.96347294827791,-0.02562942116583711,0.30700462668263534,-0.013651505089488368,-0.005521059693884465,-0.0030514288497336057
1765409465.265714,-9.964645059592971,-0.024118457748239123,0.3084402938007516,-0.01406758923493239,-0.005772256767824544,-0.0031038840466317344
1765409465.266762,-9.965701741525857,-0.022398488553749398,0.30996447349333683,-0.014498613561334233,-0.006021315002576146,-0.0031448305034718215
1765409465.270685,-9.966568573127214,-0.020571042571339408,0.31152390832665994,-0.014934055944254248,-0.006266753097230439,-0.0031733072660785865
1765409465.272631,-9.967178153127698,-0.018745048142637957,0.31306907374548465,-0.015362276319258726,-0.006506834740449393,-0.003189056063969632
1765409465.276286,-9.967474052568038,-0.017030017128368092,0.3145555666082658,-0.015771098307989773,-0.006739548406043037,-0.003192575459177662
1765409465.277666,-9.967413214055298,-0.015528176323632572,0.31594452952847185,-0.016148483632529968,-0.006962635112409024,-0.0031851011700274666
1765409465.28073,-9.966966712102286,-0.014326432579249709,0.31720209181949705,-0.01648326579498794,-0.007173663740407285,-0.003168504417998573
1765409465.282654,-9.966118967404926,-0.013489512189382546,0.3182980091322503,-0.01676590008650409,-0.007370143402523431,-0.0031451141946577843
1765409465.28576,-9.964865658805342,-0.013055488016715931,0.31920382410624104,-0.016989178306930638,-0.007549658136867795,-0.0031174875294252774
1765409465.287661,-9.963210775585608,-0.013034160212601611,0.3198910261155719,-0.017148849068384108,-0.007710010113060466,-0.003088164308920901
1765409465.290652,-9.961163477107032,-0.013407873374406081,0.32032983962725825,-0.01724408080812484,-0.007849360097203863,-0.0030594428051501136
1765409465.291702,-9.958735499543339,-0.014133949416543072,0.3204892148451269,-0.017277706992926075,-0.00796635514267662,-0.003033200315642475
1765409465.295708,-9.95593967712728,-0.015148184013132544,0.32033825990773823,-0.017256202657609646,-0.008060233229610279,-0.003010769205290616
1765409465.297634,-9.952789852782287,-0.016369410820288706,0.3198489514343446,-0.017189360313839042,-0.00813089522000379,-0.002992871366776732
1765409465.300629,-9.949302160845816,-0.01770537298561579,0.31899967895371667,-0.01708966357905387,-0.008178937176738302,-0.00297961532140107
1765409465.302635,-9.945497325741934,-0.01905974635949024,0.31777896751591245,-0.016971397157478047,-0.00820563878338617,-0.002970562488979999
1765409465.304632,-9.941403255039146,-0.020339411251354505,0.31618854483543685,-0.01684957447165989,-0.008212905543459771,-0.002964863086197348
1765409465.30766,-9.937057083888925,-0.02146062733305708,0.31424498075075974,-0.01673879766668086,-0.00820316663097927,-0.002961445315963129
1765409465.310668,-9.932506141811574,-0.022353074011299937,0.311979570668696,-0.016652178392889454,-0.008179237021572468,-0.002959222161999534
1765409465.312655,-9.927807812299905,-0.022961595321656,0.3094366884885024,-0.01660043707655674,-0.008144156986296211,-0.002957271317212481
1765409465.315663,-9.923028518706385,-0.023246329246782313,0.30667109528394293,-0.016591266708742114,-0.008101022502133112,-0.0029549530659805437
1765409465.318626,-9.91824204163957,-0.02318220738960438,0.303744647925944,-0.01662900496878866,-0.008052820424861912,-0.002951953801028815
1765409465.320609,-9.913527334231933,-0.022758508285539665,0.3007227911758346,-0.01671461792082784,-0.008002282637415944,-0.002948265958110803
1765409465.321628,-9.90896606092772,-0.021978563970190365,0.29767119799348674,-0.01684596645239832,-0.007951769705904272,-0.0029441262738983723
1765409465.325638,-9.904640077112022,-0.02085932125373722,0.29465278211800555,-0.017018303520789826,-0.007903188094337061,-0.0029399314673252937
1765409465.327703,-9.900628964792762,-0.019430485590393374,0.2917251231647533,-0.017224935043895027,-0.007857942113801988,-0.0029361426055444137
1765409465.330664,-9.897007753113211,-0.017733262331799806,0.2889384058991467,-0.017457969806001405,-0.007816923488624538,-0.002933186829998564
1765409465.332608,-9.893845120498616,-0.01581889315588496,0.2863342372544516,-0.01770908408496897,-0.007780542127440625,-0.002931369662762502
1765409465.333655,-9.891202441658516,-0.01374705740203122,0.2839457575780238,-0.017970235217327744,-0.0077487983330881294,-0.002930816079714035
1765409465.337618,-9.88913384189057,-0.011583887638560672,0.2817991239814962,-0.018234274733815666,-0.007721391300225246,-0.002931456300275945
1765409465.340693,-9.887687087532202,-0.009399159123496656,0.2799159760730445,-0.01849543185891594,-0.007697852822299292,-0.002933060897860724
1765409465.342674,-9.886904862409638,-0.007262397774047971,0.27831618123824486,-0.01874965470849854,-0.007677688431271402,-0.002935314077051294
1765409465.343662,-9.88682581256689,-0.0052381683124940615,0.27702004512149053,-0.0189948048548644,-0.007660503236988744,-0.0029379016796489328
1765409465.347622,-9.887484737049027,-0.0033813644566745528,0.2760492758565524,-0.019230702665234214,-0.007646091866783924,-0.0029405878775002683
1765409465.350599,-9.888911529360838,-0.0017335917622936644,0.27542634400626226,-0.019459020787381577,-0.007634483363410498,-0.002943262420846278
1765409465.352606,-9.891128821830456,-0.000321508529918778,0.2751723297183287,-0.019683025830072063,-0.007625947807653593,-0.002945953986823155
1765409465.35566,-9.894148521129933,0.0008426746334536162,0.2753036373855987,-0.019907177110268418,-0.007620983057843683,-0.0029488168715021174
1765409465.357744,-9.897967536530464,0.0017590947052991803,0.27582808998687336,-0.02013660713627623,-0.007620301642627837,-0.002952101075349784
1765409465.359715,-9.902563219736306,0.002437499563501128,0.27674111251033334,-0.02037652704677797,-0.0076248296477076085,-0.0029561088822030374
1765409465.362724,-9.907889400631653,0.002894681169102926,0.27802297150907984,-0.020631614422477,-0.007635715361545572,-0.002961132278359566
1765409465.365681,-9.913874101849466,0.0031523505760958494,0.2796380369787971,-0.020905446101271097,-0.007654332172584591,-0.002967365614433648
1765409465.367661,-9.920419753878226,0.0032352305620107578,0.28153658307024465,-0.021200034637900524,-0.00768225604862008,-0.002974799515483666
1765409465.370674,-9.92740611307047,0.0031690134224185537,0.28365895266711116,-0.0215155157848946,-0.007721206590952484,-0.0029831174917981026
1765409465.372751,-9.934695445931036,0.0029781057842067885,0.2859413034982331,-0.021850017739565412,-0.007772956041750265,-0.0029916249240952222
1765409465.375663,-9.942139084409996,0.0026834967325251534,0.28832175479905553,-0.02219972269570865,-0.007839222676327758,-0.0029992348897962305
1765409465.377619,-9.949584223442017,0.0023012754805807286,0.29074560060002824,-0.02255910975811921,-0.007921569741798133,-0.0030045191413001888
1765409465.380288,-9.956879925566637,0.0018421128943601226,0.29316850257854726,-0.022921348290284256,-0.008021329991344557,-0.003005814482150391
1765409465.383137,-9.963881774515066,0.0013115785903040677,0.29555726892022677,-0.023278795260012856,-0.008139568568218809,-0.0030013636927204916
1765409465.385636,-9.970455216413256,0.0007108679932152814,0.29788859719930205,-0.02362354208313805,-0.008277082467544796,-0.0029894691207792774
1765409465.387674,-9.9764779338577,3.759207903067764e-05,0.3001465176320789,-0.023947957603294188,-0.008434418785239319,-0.002968642835605656
1765409465.390655,-9.981841549367223,-0.0007133971926278697,0.3023191864185041,-0.02424518308079348,-0.00861188730891634,-0.0029377433223306427
1765409465.392672,-9.98645286476443,-0.0015489600660413773,0.30439553493252763,-0.024509548227882,-0.008809549667895721,-0.002896089968031979
1765409465.395675,-9.990234897913846,-0.002476318155202479,0.3063622865007235,-0.024736889515717016,-0.009027179181171558,-0.0028435440182806573
1765409465.397667,-9.993127985148442,-0.003501602669702791,0.3082018365087599,-0.024924760964512484,-0.009264193193899706,-0.0027805449490378867
1765409465.398655,-9.995090991478635,-0.004628634413702019,0.30989132445485223,-0.025072535055062215,-0.009519562924337125,-0.002708099510475528
1765409465.40169,-9.996102377130615,-0.00585805159166341,0.31140302199249176,-0.025181399976222287,-0.009791709690565259,-0.0026277336316173103
1765409465.404701,-9.996160754306468,-0.007186537528347593,0.3127059529658381,-0.025254268756900115,-0.010078401133268192,-0.0025414245729773136
1765409465.407676,-9.995284611406605,-0.008605793676997814,0.31376834188448804,-0.025295621383857828,-0.010376662787030108,-0.0024515251588063717
1765409465.410679,-9.993510983414609,-0.010101207247347995,0.3145602122493316,-0.025311298146924687,-0.010682718174258029,-0.0023606780595337635
1765409465.412665,-9.990893083021039,-0.011650605104556344,0.3150556078169655,-0.025308252513730454,-0.010991967127854003,-0.002271708143356729
1765409465.415648,-9.987497285814094,-0.013223681384767082,0.31523444553540125,-0.025294262694097777,-0.011299008534588824,-0.002187483094911922
1765409465.417611,-9.983400091746201,-0.014782514470918176,0.3150843390671769,-0.02527759956344229,-0.01159770994489782,-0.002110744150308221
1765409465.418621,-9.978685529405181,-0.01628321531658703,0.3146025117194984,-0.025266654400304525,-0.011881324821923188,-0.0020439206445667657
1765409465.422772,-9.97344314121839,-0.017678405436479205,0.3137975299443443,-0.02526953864967085,-0.01214266153532687,-0.0019889473803251637
