time,acc_x_g,acc_y_g,acc_z_g,gyro_x_rad_s,gyro_y_rad_s,gyro_z_rad_s
1765410380.689206,-2.4720589545497407,3.4387800513868463,9.10449975222676,-0.005984568122978144,-0.008745297710007639,-0.0026397792304414937
1765410380.689406,-2.4518493905641807,3.451319788995635,9.071810459275277,-0.006665828588155624,-0.009001007455957787,-0.0024761627633966077
1765410380.689606,-2.4299513652007163,3.4634504991934025,9.038120975899748,-0.007373683352247313,-0.009198296656306918,-0.0022217730815172454
1765410380.689806,-2.4052736727819317,3.475334125296864,9.003398696222618,-0.008089261499630972,-0.009242515003646628,-0.0018471809337788636
1765410380.690099,-2.376838841378918,3.4870647147904252,8.967728576094498,-0.008790807589304752,-0.009036221879952136,-0.0013257788500133125
1765410380.690299,-2.34383725446794,3.4986574795703937,8.931330566291003,-0.009453949977183775,-0.008482267339395623,-0.000635216778584974
1765410380.690499,-2.3056711515576658,3.510043463936035,8.89456923889649,-0.010052091069725128,-0.007486906502415129,0.00024123573483530745
1765410380.690699,-2.2619858073816257,3.521070397862163,8.857954206421534,-0.010556923666201218,-0.005962845588250215,0.0013134695444348722
1765410380.690899,-2.212686090094751,3.5315099759589867,8.822130624945904,-0.010939070146678017,-0.0038321162385522686,0.0025835300798757762
1765410380.69106,-2.1579376217945625,3.5410714163466728,8.787859856921184,-0.011168833541340024,-0.0010286704003682299,0.004044896763155114
1765410380.69131,-2.098152698814877,3.5494207285955124,8.755990990899958,-0.011217043030170506,0.0024994159303216405,0.0056821132041798405
1765410380.69156,-2.0339619387989405,3.556204660097273,8.72742438867777,-0.011055971341089762,0.006788237566510104,0.00747082349127288
1765410380.69181,-1.9661734186470903,3.561077810292691,8.703068914135663,-0.010660296502672997,0.011856943043533403,0.009378254017646952
1765410380.692022,-1.8957218468994212,3.5637309457400064,8.683794959645901,-0.010008073906642722,0.017707265491695615,0.011364157546644322
1765410380.692222,-1.8236109083984293,3.5639181878813653,8.67038565377262,-0.00908167610311961,0.02432372750442235,0.013382206677934596
1765410380.692422,-1.750852241141895,3.5614805698075584,8.663488719884171,-0.007868648028320225,0.031674513236400616,0.015381789080969837
1765410380.692622,-1.6784046483684618,3.556363572599172,8.663571551947216,-0.0063624166847660625,0.03971297054462578,0.017310119482988485
1765410380.692822,-1.6071171862959914,3.548626742095743,8.670882225009542,-0.00456279006628926,0.04837967809077225,0.01911454782173406
1765410380.693005,-1.53767961989718,3.5384443435988633,8.685419164321186,-0.0024761840909756964,0.057604988258808054,0.020744915668993464
1765410380.693255,-1.4705833267551993,3.526097079993256,8.706911917930999,-0.00011553095050295453,0.06731193807801997,0.022155801227964192
1765410380.693505,-1.4060951156646024,3.5119559305869976,8.734815015479601,0.0025001530995880715,0.07741940725939142,0.023308502075839805
1765410380.693755,-1.3442456997098893,3.4964599347853573,8.768316363994733,0.00534653212266793,0.08784539396464319,0.024172633962384667
1765410380.694074,-1.28483370515107,3.480090124156552,8.806360941815345,0.008395008317460586,0.09851027386138503,0.024727265525481525
1765410380.694274,-1.2274451003842868,3.463341832596616,8.847689589554802,0.01161400916927529,0.10933990515165648,0.024961550626334737
1765410380.694474,-1.1714869452955945,3.4466974531857244,8.890891564539332,0.014970422235167324,0.12026844182050131,0.024874853296865302
1765410380.694674,-1.1162335759949908,3.4306015125951093,8.934468464880135,0.01843108618303881,0.13124072369325565,0.024476384918098313
1765410380.694874,-1.0608827129813834,3.4154396936254705,8.976906240554257,0.02196424405338032,0.14221413024130686,0.023784395576049992
1765410380.695085,-1.0046182636316503,3.4015230452014045,9.016751181531488,0.025540868850586863,0.1531598135325932,0.022824985726596345
1765410380.695335,-0.9466756532671378,3.3890780501646875,9.052684940072451,0.029135782945555553,0.16406325686853176,0.021630625903561535
1765410380.695585,-0.8864045650374694,3.3782426179810843,9.083592964841815,0.03272851152825787,0.1749241364275891,0.020238482803457664
1765410380.695835,-0.8233234591873508,3.369067635493144,9.108620579121336,0.03630383402934365,0.18575549471498312,0.018688648095207906
1765410380.696119,-0.7571607299651396,3.361523500760845,9.12721185066282,0.03985202024475416,0.1965822659298803,0.01702235843533366
1765410380.696369,-0.6878791233898204,3.3555109451065115,9.139128568009777,0.043368755845912224,0.20743922624130606,0.015280286801625098
1765410380.696619,-0.6156825803599307,3.3508752836129405,9.14444930325807,0.04685477647261121,0.21836848336817388,0.013500975643466424
1765410380.696869,-0.5410068658469925,3.3474230505788847,9.143550487218796,0.05031524275568315,0.2294166685256137,0.011719469642450046
1765410380.697123,-0.46449648085662487,3.3449398734000892,9.137072254390747,0.05375889932562971,0.2406320318109703,0.009966190682985883
1765410380.697323,-0.3869706973857373,3.3432084599192584,9.125872136374216,0.05719706816117678,0.25206165039441775,0.008266081102492155
1765410380.697523,-0.3093816854146923,3.342025703800545,9.110969996650574,0.06064253155722153,0.2637489365379613,0.006638024436526213
1765410380.697723,-0.23276771055872977,3.341218126645181,9.093487757940677,0.06410836292175126,0.27573159218370036,0.005094538103643623
1765410380.697923,-0.15820410769068158,3.3406551603792956,9.074587293012067,0.06760676251636355,0.28804010665971413,0.0036417227177868196
1765410380.69809,-0.08675433138209614,3.3402600736540884,9.055409601954647,0.07114794777030857,0.30069683644097767,0.0022794482278976143
1765410380.69829,-0.019423139076469316,3.34001853646714,9.037018334350005,0.07473913540848952,0.3137156504979821,0.001001755055162197
1765410380.69849,0.04288622035731387,3.339984799347975,9.020350542535818,0.07838364097404754,0.3271020843062336,-0.00020255355204756536
1765410380.69869,0.09940936459290796,3.3402852823835,9.006176869486113,0.0820801141486503,0.3408539206575502,-0.0013491544150524275
1765410380.69889,0.1495518108337364,3.3411191921836685,8.995072323239595,0.08582192446700578,0.3549620977385252,-0.0024573142693256373
1765410380.699083,0.1929131379246964,3.3427557789787734,8.987397853738049,0.08959671055521674,0.36941183382118836,-0.003548906664490545
1765410380.699333,0.229303699391172,3.345528057208429,8.983292396782273,0.09338610797476429,0.38418386176493535,-0.004647381312625078
1765410380.699583,0.25875321831069537,3.3498230968680267,8.982674845639977,0.09716567437558149,0.3992556872547551,-0.005776723795402152
1765410380.699833,0.28151066984563966,3.3560690954676704,8.985255347445767,0.10090503137263765,0.4146028085779293,-0.0069604226854497854
1765410380.700197,0.29803502854386266,3.364719237274006,8.990555122318966,0.10456823997274188,0.430199847771569,-0.00822043970826619
1765410380.700397,0.3089766888546678,3.3762320220547344,8.997933521521247,0.10811442431982868,0.4460215471143958,-0.009576173292121177
1765410380.700597,0.3151498057952265,3.391047686633433,9.00662047771303,0.11149865622765681,0.4620435975656676,-0.011043424736863114
1765410380.700797,0.31749638902543115,3.4095608142908937,9.015752350524444,0.11467310324644879,0.4782432894650019,-0.012633412957895428
1765410380.700997,0.31704330647767914,3.432090141193116,9.024409781889611,0.11758842139752503,0.4945999945378645,-0.014351920788137474
1765410380.704987,0.31485322847886144,3.4588475447714315,9.031657230401478,0.12019534460910203,0.5110954911689288,-0.01619867372603055
1765410380.705237,0.3119704382687685,3.4899088309956126,9.03658444919889,0.12244639612883074,0.5277141411991627,-0.01816704157592301
1765410380.705487,0.3093629606455951,3.5251890529723564,9.038349679424632,0.124297631490551,0.5444429299999337,-0.020244122145679583
1765410380.705737,0.3078635882654772,3.5644248085708297,9.036223128082788,0.1257103215999701,0.5612713911969867,-0.022411229334010206
1765410380.705087,0.30811349001014504,3.607165490326755,9.029628348279182,0.12665249565402392,0.5781914416252314,-0.024644772290975135
1765410380.705337,0.3105126759755281,3.6527748525242942,9.018178893760844,0.12710027911276459,0.5951971462494822,-0.026917474814854677
1765410380.705587,0.31518162420407125,3.700443414712616,9.00170777743895,0.12703897288280372,0.6122844232630391,-0.029199845985051685
1765410380.705837,0.32193785633227406,3.7492111412329368,8.980287590121529,0.12646382338698392,0.629450693656149,-0.03146178600767817
1765410380.706074,0.33029003019056663,3.7979988203356294,8.954239838904982,0.12538043459683867,0.6466944787712737,-0.033674208028247984
1765410380.706274,0.33945028854123993,3.8456460043385063,8.924133151070565,0.12380477883111728,0.664014952560134,-0.03581057862196524
1765410380.706474,0.3483638341019681,3.8909533602446342,8.890770864747711,0.12176277486864974,0.6814114612826411,-0.03784831433389592
1765410380.706674,0.35575380695680336,3.932727557559476,8.855168582011483,0.11928941972129369,0.6988830282300881,-0.03977000090522726
1765410380.706874,0.36017967933838313,3.9698270827785045,8.818521562100711,0.1164274864830376,0.7164278582345058,-0.04156441349186421
1765410380.707137,0.36010788423070805,4.001207503682613,8.782161083963855,0.11322583591862877,0.734042845975827,-0.0432273091760721
1765410380.707387,0.3539934245692013,4.025964739528716,8.747498867449304,0.10973742907127725,0.751723083889866,-0.04476194554258755
1765410380.707637,0.3403703807370746,4.0433749096842035,8.715959646578062,0.10601716429504912,0.769461371589086,-0.04617926491229677
1765410380.707887,0.3179475809378133,4.052929433608851,8.688903877124934,0.10211968740371481,0.7872477499149397,-0.047497685821449996
1765410380.70816,0.2857035032337999,4.054364249933182,8.667544917100633,0.09809732978096607,0.8050691082432542,-0.04874246275489555
1765410380.70841,0.242972364929069,4.047682179620971,8.65286733136127,0.09399830997887101,0.8229089299867353,-0.04994460119830345
1765410380.70866,0.18951229453634535,4.033167456365093,8.645554517482012,0.08986529436785769,0.8407472396968636,-0.05113934004806264
1765410380.70891,0.12554728716979344,4.011391326381442,8.645933780866725,0.08573436704840862,0.8585607946052963,-0.05236424191059281
1765410380.709199,0.051777348250402845,3.983207529989675,8.653945004025351,0.08163442126862401,0.8763235301894962,-0.053656969462526995
1765410380.709399,-0.030644996707635347,3.9497365747947,8.669135899689891,0.07758695694169622,0.894007233874616,-0.05505286733568295
1765410380.709599,-0.12016998477825666,3.9123381084963635,8.690683777788228,0.07360624823802887,0.9115823937093045,-0.0565825029280649
1765410380.709799,-0.21493311524506628,3.872571404372143,8.717441556548845,0.06969982765769017,0.9290191577499647,-0.058269339066985455
1765410380.709999,-0.31285845146288255,3.832144838198682,8.748004157577006,0.06586921759088282,0.9462883461401095,-0.060127712173726054
1765410380.710047,-0.4117747047054103,3.7928560318442575,8.780789699062417,0.0621108312720715,0.9633624717748764,-0.06216126825345449
1765410380.710297,-0.5095344307138918,3.7565248815660444,8.81412796082579,0.05841696820504531,0.9802167320332565,-0.06436196885364917
1765410380.710547,-0.604125725048206,3.7249219384820345,8.84634746091812,0.054776844869077204,0.9968299260578317,-0.06670973101289959
1765410380.710797,-0.6937666085626538,3.6996946885592186,8.875853196085108,0.051177620310006965,1.0131852362785938,-0.06917272132101521
1765410380.711076,-0.7769749942709079,3.6822943879164423,8.901189470171404,0.04760538593699209,1.0292708038097942,-0.07170829210269038
1765410380.711326,-0.8526108712584135,3.673906390266035,8.921085150268226,0.04404608779819084,1.0450800358164474,-0.07426452791259545
1765410380.711576,-0.9198911775248116,3.675387357912461,8.934481344192097,0.04048634779049583,1.0606116101290999,-0.07678235448916199
1765410380.711826,-0.978381199644065,3.6872131568718047,8.940543737543456,0.03691415587782565,1.0758691802611824,-0.07919813511315206
1765410380.712093,-1.0279687637703303,3.7094411954151063,8.938663494295593,0.03331941709073717,1.090860818927293,-0.08144663391346102
1765410380.712343,-1.0688284418709741,3.7416901998632626,8.928451255256352,0.02969435004720184,1.1055982584029362,-0.0834641792664092
1765410380.712593,-1.1013823404828456,3.7831391424367955,8.909728247639514,0.026033745001207104,1.120095990973542,-0.08519184645345355
1765410380.712843,-1.1262622435086094,3.8325458618139314,8.882517376506302,0.02233509649644819,1.1343702924410268,-0.0865785129801461
1765410380.713012,-1.144275642139484,3.888285366990195,8.847035947872648,0.018598626011685434,1.1484382328304727,-0.08758369953381949
1765410380.713262,-1.1563760649373844,3.948407834073067,8.803690449203096,0.014827202711769178,1.1623167347996957,-0.08818015041159263
1765410380.713512,-1.163636625200514,4.010716258939847,8.75307258657909,0.011026158751018198,1.1760217238364683,-0.08835609915337524
1765410380.713762,-1.1672252065976443,4.072862905539205,8.695954875052934,0.0072029873471100864,1.1895673901377364,-0.08811711175538733
1765410380.714044,-1.168380076711046,4.132461866500721,8.63328380477648,0.003366913759421441,1.202965562666493,-0.08748733511458641
1765410380.714294,-1.1683852980337088,4.187212611477135,8.56616874216381,-0.0004716607924771511,1.2162251849864922,-0.086509945359906
1765410380.714544,-1.1685454961387751,4.23502701849399,8.495864738457431,-0.004301832294693884,1.2293518743545568,-0.08524661583940929
1765410380.714794,-1.1701592939757792,4.274150730115101,8.423747169770182,-0.008112966511006603,1.2423475412679645,-0.08377590375951993
1765410380.715142,-1.1744904694796081,4.30326924748281,8.35127616142245,-0.011895542313008522,1.255210058665123,-0.08219055948398145
1765410380.715392,-1.1827361774049374,4.321590096690229,8.279949753862374,-0.01564202022924073,1.2679330033361575,-0.08059385798570504
1765410380.715642,-1.1959926267220935,4.328894273335872,8.21124683136877,-0.019347674236313565,1.280505529932421,-0.0790951154842556
1765410380.715892,-1.2152200683734682,4.325552368619469,8.146563175547856,-0.023011317144065763,1.2929124554423308,-0.07780459124332802
1765410380.716207,-1.2412100166653544,4.312503031731148,8.087145561709134,-0.026635851731012624,1.305134621339374,-0.07682801255085185
1765410380.716457,-1.2745577263929482,4.291193957457765,8.03402912652698,-0.030228584228989483,1.3171495733170089,-0.07626101987446032
1765410380.716707,-1.315642307195675,4.26348864134861,7.987982725793992,-0.033801239433616806,1.3289325660722908,-0.07618389410789166
1765410380.716957,-1.3646161473436669,4.231545400054491,7.949466385360804,-0.037369623070016275,1.3404578650694678,-0.07665695819829961
1765410380.717178,-1.4214047661440958,4.197677790890263,7.9186043689132015,-0.040952896230024606,1.3517002796580215,-0.07771701125789361
1765410380.717428,-1.485717471527591,4.164206872712619,7.895176405973353,-0.04457246110416292,1.3626368265655713,-0.07937505924628005
1765410380.717678,-1.5570681504923132,4.133315632063364,7.878628160311292,-0.048250500894386227,1.3732483936054307,-0.08161548721860502
1765410380.717928,-1.6348046439112873,4.106914841214404,7.868100679538945,-0.05200826014267007,1.3835212555735532,-0.08439671447903879
1765410380.718108,-1.71814484241931,4.086528264428057,7.862477726517963,-0.05586418766725272,1.3934482946830002,-0.08765330389594654
1765410380.718358,-1.8062176404834502,4.073203826386675,7.860449117866896,-0.059832091506972905,1.4030297980444597,-0.09129944589506794
1765410380.718608,-1.8981067548943134,4.067456038880009,7.860586987073268,-0.06391947226179452,1.4122737389363256,-0.0952336799085772
1765410380.718858,-1.9928950817362963,4.069243464993181,7.861430504991623,-0.06812620128820739,1.4211954941145266,-0.09934464076067175
1765410380.719094,-2.089706928752542,4.077983188909828,7.8615736764358894,-0.07244368898448585,1.4298170090896882,-0.10351753412989381
1765410380.719344,-2.187745216888495,4.092602101581824,7.859750503504694,-0.07685465031460155,1.4381654883817394,-0.10764096704365704
1765410380.719594,-2.286320663345141,4.111622271219845,7.854911644859328,-0.08133352653785741,1.4462717306693442,-0.11161369327504363
1765410380.719844,-2.384870299808349,4.133274816790213,7.846286666693643,-0.08584756620334966,1.4541682331463839,-0.11535078731986365
1765410380.720033,-2.48296362174864,4.155633810855901,7.833426563708383,-0.09035850564605395,1.4618871754376725,-0.11878875119128682
1765410380.720283,-2.580295904312912,4.176759266741545,7.8162225682066175,-0.09482472540333194,1.4694583912128725,-0.12188910596171451
1765410380.720533,-2.676669330716992,4.19483678991599,7.794899023488966,-0.0992037069027758,1.4769074469391603,-0.12464013524358138
1765410380.720783,-2.7719636567819363,4.208301521677928,7.769980184948066,-0.10345458565829754,1.4842539534253685,-0.12705662211736943
1765410380.721078,-2.8660995523630746,4.215935782224448,7.742233335611188,-0.10754059574280977,1.491510229477033,-0.1291776255992675
1765410380.721328,-2.9589993090869147,4.2169329842177286,7.712593180126862,-0.11143121891262793,1.4986804267445635,-0.1310625359820835
1765410380.721578,-3.050550390032567,4.210924159057243,7.682074373321525,-0.11510388092234063,1.5057602159650365,-0.13278579366670404
1765410380.721828,-3.1405766500838252,4.197967077504371,7.651679898338165,-0.1185450697405378,1.5127371168339627,-0.13443074069049654
1765410380.722134,-3.2288202950878127,4.178501095521125,7.622313042524621,-0.1217507839121359,1.5195915103209798,-0.1360831116013321
1765410380.722384,-3.314935744938093,4.153273481566606,7.594700208783144,-0.12472625851869276,1.5262983022180334,-0.1378246805274506
1765410380.722634,-3.398495164981855,4.123245160466521,7.5693307925898266,-0.127484964237293,1.532829131276998,-0.13972756658577604
1765410380.722884,-3.4790044592277485,4.089485520673755,7.546418810938832,-0.13004692941898346,1.539154959138361,-0.14184964368273595
1765410380.723133,-3.555927711402275,4.053066885436082,7.525888980230236,-0.13243649176104325,1.5452488471997194,-0.14423139000282997
1765410380.723383,-3.6287175313205338,4.014968990356218,7.507387824290694,-0.13467964241839125,1.5510887044485713,-0.14689435615098878
1765410380.723633,-3.6968488929832644,3.976002169806554,7.490318676757956,-0.13680117820777216,1.556659773483507,-0.14984126168719533
1765410380.723883,-3.759854883498399,3.9367553725689564,7.473898418556958,-0.13882192085060785,1.561956623238724,-0.15305758870082067
1765410380.724157,-3.817363720336737,3.8975724006398687,7.457232958488452,-0.14075628572934426,1.5669844540781679,-0.15651444926137142
1765410380.724407,-3.869136565773668,3.858557372190045,7.439406871430294,-0.14261047387158296,1.5717595915879712,-0.1601724418263376
1765410380.724657,-3.9151045949523793,3.819608123049719,7.419579981427654,-0.14438151196719012,1.5763091263775184,-0.16398614042163387
1765410380.724907,-3.9554017706755764,3.7804735461629737,7.397080899698664,-0.14605727976489896,1.580669724839765,-0.16790877077629907
1765410380.72523,-3.990387899656786,3.7408276910760643,7.371486005052626,-0.14761755605733237,1.5848856835245007,-0.17189656464510186
1765410380.725563,-4.020656110795307,3.700350658081349,7.3426731180642975,-0.14903599935468548,1.5890063390600013,-0.1759123072111013
1765410380.725897,-4.047020636973409,3.6588051777600863,7.310842336662972,-0.15028287021827236,1.5930829922869254,-0.17992771776391395
1765410380.726189,-4.070484185414204,3.6160989199327322,7.276501396361391,-0.15132821382928,1.5971655628902077,-0.183924487787887
1765410380.726439,-4.092187753880448,3.5723255022848814,7.240418032824212,-0.1521451711387682,1.601299245405933,-0.18789398220884096
1765410380.726689,-4.113348049426778,3.527780646518859,7.203545676227206,-0.15271308333329656,1.605521467400633,-0.19183575157972463
1765410380.726939,-4.135188197209988,3.4829530693511406,7.166930817760724,-0.15302008955658394,1.6098594404883324,-0.19575510128392964
1765410380.727234,-4.158866744038574,3.438492362605474,7.131611162706824,-0.15306497900322658,1.614328543007429,-0.19966003340960445
1765410380.727484,-4.185409084408482,3.3951584417223573,7.098514077876323,-0.15285813965889197,1.6189316875516366,-0.2035579301577341
1765410380.727734,-4.215645106179054,3.3537589897264404,7.068364944086148,-0.15242154262840113,1.6236597170811389,-0.20745237733273522
1765410380.727984,-4.250157103686602,3.3150823760669295,7.041614322697463,-0.15178780111747073,1.6284927551981303,-0.21134051160994075
1765410380.72822,-4.289242278569325,3.2798336179415877,7.018391058063343,-0.15099843120773287,1.6334023350992588,-0.2152112063200668
1765410380.728553,-4.332893850591621,3.2485801281294924,6.9984859079465735,-0.15010150830556018,1.6383540714844675,-0.21904430275376477
1765410380.728887,-4.380803752462487,3.221712443576787,6.98136760215752,-0.1491489570444159,1.6433106225681826,-0.22281097303296218
1765410380.729307,-4.432388157715474,3.199423138220785,6.966230437834824,-0.1481937331122271,1.6482346971112107,-0.22647518161191713
1765410380.729557,-4.486834723124249,3.181704983713929,6.952069147827058,-0.1472871481224166,1.6530918761338027,-0.2299960980632172
1765410380.729807,-4.543167620276594,3.1683672521911492,6.937772946320141,-0.14647654805824697,1.6578530386296106,-0.23333120671664057
1765410380.730057,-4.600323822440069,3.159066839633642,6.92222768728537,-0.1458034866998934,1.6624962146784972,-0.23643977245336736
1765410380.730169,-4.657232482390338,3.1533488311783056,6.904414285666888,-0.14530245398106684,1.6670077432361032,-0.23928628008934746
1765410380.730419,-4.712889048646038,3.1506898792412756,6.883492948604968,-0.14500014334507666,1.6713826793774746,-0.24184348785459278
1765410380.730669,-4.766417047440899,3.1505380394044633,6.858865420182631,-0.14491518362767378,1.6756244659035913,-0.24409482128848534
1765410380.730919,-4.817112859403491,3.1523445937857537,6.830210637097044,-0.14505822540941798,1.6797439488773938,-0.2460359488226929
1765410380.731104,-4.864471746670816,3.1555860862460747,6.797492645552569,-0.14543226139086435,1.6837578696324256,-0.247675478105969
1765410380.731354,-4.908196205888846,3.159777127108337,6.760943011657317,-0.14603307453460782,1.6876870011619256,-0.24903476987418743
1765410380.731604,-4.948189898334469,3.164475791821799,6.72102265326378,-0.1468497411939592,1.6915541142024335,-0.2501469025772262
1765410380.731854,-4.984541477213278,3.1692837936099982,6.678369454770965,-0.1478651594404163,1.695381965065411,-0.2510548722031676
1765410380.732124,-5.017502312474197,3.1738436577500986,6.633738098500523,-0.149056614964995,1.69919149706371,-0.2518091886799279
1765410380.732457,-5.047460637084085,3.177835223178223,6.5879376797283875,-0.15039642965012842,1.7030004299352144,-0.2524651062846851
1765410380.732791,-5.07491287931914,3.180973881183379,6.541771471881581,-0.1518527544980333,1.7068223626709516,-0.253079764704074
1765410380.733099,-5.100431929071683,3.1830128058312135,6.495982129825949,-0.15339056666425613,1.710666437365288,-0.2537095041861974
1765410380.733349,-5.124632231587878,3.1837508274222954,6.451204866371081,-0.15497291239782826,1.7145375288798463,-0.2544075606082389
1765410380.733599,-5.14813251977417,3.1830464724463843,6.407930682106666,-0.15656240669310478,1.718436862376101,-0.2552222633208453
1765410380.733849,-5.171518010624481,3.180837254822768,6.3664813823655395,-0.1581229587308366,1.7223629251780823,-0.25619577021963535
1765410380.734108,-5.195304624425262,3.1771619406967573,6.326997670365257,-0.1596216460051442,1.7263125221657536,-0.2573632957502961
1765410380.734358,-5.2199082511319945,3.1721824040975903,6.289440963318412,-0.16103061929411436,1.730281817777962,-0.2587527265965966
1765410380.734608,-5.245622356939325,3.166200720039829,6.2536087580280135,-0.16232889259364103,1.734267217321884,-0.26038448148198445
1765410380.734858,-5.27260710125407,3.159666268632107,6.219162477004044,-0.16350385908485218,1.7382659746942442,-0.2622714637811937
1765410380.7351,-5.300892258246774,3.1531673263703732,6.18566588871424,-0.1645523757037958,1.7422764718817936,-0.2644189896960919
1765410380.735433,-5.330394501849334,3.1474027668376956,6.1526314205453385,-0.16548127399304025,1.7462981803588782,-0.2668246543758557
1765410380.735767,-5.360947425066946,3.1431325916631643,6.119570805714256,-0.16630718416206527,1.7503313602329156,-0.2694782032399988
1765410380.736074,-5.392340741674986,3.141110519043927,6.086045590248255,-0.1670556043459435,1.7543765648952903,-0.2723615579057724
1765410380.736324,-5.424363991561701,3.1420062523908756,6.051712611310898,-0.16775920781578466,1.758434005623915,-0.27544915734372905
1765410380.736574,-5.456849742027209,3.1463276542512064,6.016359993585263,-0.16845545405570977,1.7625028151041373,-0.27870870918928903
1765410380.736824,-5.4897114069869275,3.154353040948421,5.979930040327219,-0.16918364778674463,1.7665802478674324,-0.282102351427464
1765410380.737027,-5.522971215258955,3.166081814673665,5.942526083728437,-0.1699816608083942,1.770660871637052,-0.28558816173770574
1765410380.737277,-5.556774695164632,3.181209153219481,5.904401295978392,-0.1708825830429142,1.7747358316797266,-0.2891219390145931
1765410380.737527,-5.591389473850924,3.1991283896343634,5.865929465268654,-0.1719115974495527,1.7787923011190174,-0.2926591864193213
1765410380.737777,-5.62718816317061,3.2189626476227975,5.827560751164231,-0.17308337922051262,1.7828132465535864,-0.2961572095301349
1765410380.738057,-5.664617376550093,3.239624499630676,5.789768345730943,-0.17440029948569413,1.786777622723082,-0.2995772061226659
1765410380.738307,-5.704157063086896,3.2598990399882,5.752993659968235,-0.1758516615444017,1.7906610616683925,-0.3028861975735462
1765410380.738557,-5.746275742999099,3.2785428521749926,5.717597771843685,-0.177414113431472,1.7944370588606944,-0.3060586591361966
1765410380.738807,-5.791387405628812,3.294389716481848,5.683825626321661,-0.17905327289320472,1.7980785965278065,-0.309077735375005
1765410380.739092,-5.8398148940704075,3.3064534730022133,5.6517871706209855,-0.18072648114430356,1.8015600806663659,-0.31193594663471713
1765410380.739425,-5.8917631908827435,3.314018612859834,5.621456630107383,-0.1823864813580172,1.8048593998867266,-0.3146352907089636
1765410380.739759,-5.947304661401998,3.316709550280488,5.592688131169792,-0.1839857105891091,1.8079598604739957,-0.3171866458784187
1765410380.740101,-6.006376969167599,3.3145303770254912,5.565243533170373,-0.18548081732627003,1.8108517432578843,-0.3196084261604361
1765410380.740351,-6.068792867777845,3.3078688247150407,5.538827022644165,-0.1868369836510227,1.813533272860087,-0.3219245407764673
1765410380.740601,-6.134259666666046,3.297461580684128,5.513120821314057,-0.18803164110353288,1.816010868455451,-0.3241618412524125
1765410380.740851,-6.202405373086302,3.2843228175929355,5.4878171194716,-0.18905721826414545,1.8182986332324844,-0.32634735336909976
1765410380.741121,-6.272808359559979,3.269642869584557,5.4626427436253016,-0.18992264527323482,1.8204171269140756,-0.3285056457372108
1765410380.741371,-6.345027418499177,3.254668096252533,5.437374702202516,-0.1906534617690356,1.8223915455491593,-0.33065666565151464
1765410380.741621,-6.418628964247186,3.240575107297492,5.411846289928896,-0.19129051294948032,1.8242494931287183,-0.33281429231091625
1765410380.741871,-6.493208147032873,3.2283525493621172,5.385944612348654,-0.19188735093537684,1.826018562731076,-0.33498575495925587
1765410380.742096,-6.568401056563741,3.2187022884431316,5.359601024824908,-0.19250656944289207,1.8277239541258161,-0.337171968298677
1765410380.742429,-6.643886150210542,3.211969859592222,5.332776152914831,-0.19321538327479032,1.8293863441656995,-0.33936875074895223
1765410380.742763,-6.719374656459391,3.2081116855437872,5.305441356478172,-0.19408082040497163,1.8310201976883236,-0.3415687962923669
1765410380.743028,-6.794591901207275,3.2067033982327406,5.277559092329546,-0.19516492403726393,1.8326326662085446,-0.34376416071959814
1765410380.743278,-6.869253593903779,3.2069893223378045,5.24906527543037,-0.19652036283132024,1.8342231732012062,-0.3459489191325171
1765410380.743528,-6.9430420848640075,3.2079681519171555,5.21985666196424,-0.19818681409253236,1.8357837208362349,-0.3481215976998322
1765410380.743778,-7.015587110965735,3.208505145320372,5.189785237436248,-0.20018841286784078,1.837299871540685,-0.3502870137055674
1765410380.744055,-7.086454252739309,3.2074580332182383,5.1586602192767765,-0.2025324545035072,1.8387522808102366,-0.3524572642812133
1765410380.744388,-7.155143096338495,3.20380288972397,5.12625727808446,-0.20520941524456524,1.8401186142994337,-0.35465173348804374
1765410380.744722,-7.221096039737986,3.1967469885029027,5.092333878891732,-0.208194233572702,1.8413756759059932,-0.35689608798845657
1765410380.745043,-7.283717330347782,3.1858171412958223,5.056648728552985,-0.21144868719985818,1.8425015814152292,-0.3592202994401349
1765410380.745293,-7.342400230986016,3.1709138259912186,5.018982232636353,-0.21492461406114188,1.843477814452923,-0.36165581170580413
1765410380.745543,-7.3965590142336985,3.1523242758889998,4.979154444748745,-0.21856766513369444,1.844291002642132,-0.3642321002484562
1765410380.745793,-7.445662652861289,3.1306923943098277,4.937037894549883,-0.2223212462698713,1.8449342708721785,-0.366973022486792
1765410380.746053,-7.489268419551058,3.1069493987212313,4.89256453848424,-0.22613030844178056,1.8454080705976164,-0.3698934505895896
1765410380.746303,-7.527054948714699,3.0822147102122743,4.845727837009732,-0.2299446820923794,1.8457204303353925,-0.3729966486225055
1765410380.746553,-7.5588546215495835,3.0576799536498114,4.7965818261853075,-0.2337217161697496,1.845886603740649,-0.37627271553597275
1765410380.746803,-7.584684352558348,3.0344894698936526,4.745238903892522,-0.2374280622055782,1.8459281153922185,-0.37969823920111156
1765410380.747064,-7.604772556532708,3.013629423219917,4.69186735108545,-0.24104052600300535,1.845871246809679,-0.3832371664185986
1765410380.747397,-7.619578807705995,2.9958358037645976,4.636688966984213,-0.2445459909425995,1.8457450726279365,-0.38684280531765847
1765410380.747731,-7.629801925177143,2.981529928172626,4.579976810601759,-0.24794049937293386,1.8455792200931187,-0.39046080993702204
1765410380.748088,-7.636372477087228,2.9707879464725035,4.522052717495365,-0.25122765876429054,1.8454015526362701,-0.394032924201136
1765410380.748338,-7.6404272985196275,2.963347741734097,4.463284016058315,-0.25441660483164213,1.845235971838212,-0.3975011853720072
1765410380.748588,-7.643266161682202,2.958652542485089,4.404078978140624,-0.25751979032278743,1.8451005141219,-0.4008122252073697
1765410380.748838,-7.646293318447463,2.9559262528957375,4.344880939592919,-0.26055086969606595,1.8450058977791763,-0.40392127540383577
1765410380.749068,-7.650948544574116,2.9542716264819724,4.2861611709631635,-0.26352291734126027,1.8449546406746664,-0.40679548511008684
1765410380.749318,-7.658633365708851,2.9527794027655143,4.2284101110893335,-0.26644715159157256,1.844940809286068,-0.40941619562716597
1765410380.749568,-7.670638433278321,2.9506348250635206,4.1721258472419,-0.269332245258937,1.8449503864717485,-0.41177990424263816
1765410380.749818,-7.688077580643477,2.9472080862603613,4.117798415426351,-0.27218420306510277,1.8449621825090448,-0.41389779462167425
1765410380.75004,-7.711832915609678,2.9421175016589918,4.065888967826645,-0.2750066966181995,1.84494917579892,-0.4157938987057453
1765410380.750373,-7.742513659653295,2.9352583056928574,4.016804040409331,-0.2778016824521231,1.8448801535660395,-0.4175021433308939
1765410380.750707,-7.780430000491338,2.9267951154787295,3.970866738246388,-0.28057009839122066,1.8447215222185893,-0.41906267786899126
1765410380.751086,-7.82558261426664,2.917121251121599,3.9282881767652604,-0.28331244478838136,1.8444391686006367,-0.4205179442224046
1765410380.751336,-7.87766864955336,2.9067921773193026,3.889143452327178,-0.28602910759530153,1.8440002729718417,-0.421908929924062
1765410380.751586,-7.9361049987534615,2.89644259383085,3.8533563752795383,-0.28872035539517066,1.8433749952868783,-0.42327196424102603
1765410380.751836,-8.000068789654163,2.8866972000989146,3.820696097376771,-0.2913860208138622,1.8425379723222886,-0.42463632025020626
1765410380.75206,-8.06855313207992,2.878084656121714,3.7907868735207355,-0.29402494128553347,1.841469571153226,-0.42602280115000624
1765410380.752393,-8.140433836861833,2.870963517043499,3.7631300735409337,-0.29663428150150556,1.8401568441261849,-0.4274434107305073
1765410380.752727,-8.214540841425917,2.8654680858594292,3.7371358479702037,-0.2992088919896884,1.8385941258370397,-0.4289021147381625
1765410380.753159,-8.289727048758836,2.861480780823498,3.712160959542173,-0.3017408705083955,1.836783212018551,-0.43039658378491563
1765410380.753409,-8.36492753741927,2.8586351854629015,3.687549124123884,-0.3042194777915179,1.8347330728189115,-0.4319206842565145
1765410380.753659,-8.439203535267545,2.856350316186384,3.6626702851898725,-0.3066315168476485,1.8324590827973748,-0.43346738087450803
1765410380.753909,-8.511767836738398,2.8538924802349017,3.6369553394875784,-0.30896222318172933,1.829981793869518,-0.4350316606776083
1765410380.754112,-8.581991226902442,2.8504575132038226,3.6099233835653752,-0.31119664085728327,1.82732533005472,-0.43661309166247325
1765410380.754362,-8.649392634125478,2.84526387277478,3.5812000630525938,-0.3133213851775095,1.82451553844962,-0.43821767656176686
1765410380.754612,-8.713618404913358,2.8376459213384173,3.550527578343352,-0.3153266285479458,1.8215780755600428,-0.43985873621156774
1765410380.754862,-8.774417339468233,2.827136377391759,3.5177680488770684,-0.3172081045829094,1.8185366209643326,-0.44155665756781326
1765410380.755078,-8.831617596586678,2.813527451011941,3.4829016760272484,-0.3189689133424698,1.815411382033039,-0.4433374795576462
1765410380.755411,-8.885109736702066,2.7969022321631782,3.446020236644202,-0.32062092382706703,1.8122179991626,-0.44523046179634174
1765410380.755745,-8.934837770490223,2.7776318849450066,3.4073159337417156,-0.3221856001777648,1.80896690480472,-0.4472649540471015
1765410380.75613,-8.980797714694294,2.7563395378565554,3.3670656744475735,-0.32369412106044837,1.805663141365109,-0.4494670055331295
1765410380.75638,-9.02304130436057,2.7338369134540867,3.3256109168674524,-0.3251867160259554,1.802306598657902,-0.451856176796877
1765410380.75663,-9.06168154262368,2.711043104845139,3.2833331708233184,-0.3267112048042319,1.798892592222201,-0.4544429378960948
1765410380.75688,-9.096896752292523,2.688895825775513,3.240625549195554,-0.32832079145938164,1.7954126833615351,-0.4572269040104528
1765410380.757073,-9.128930504663845,2.6682645308491026,3.1978618393785125,-0.3300712327230931,1.7918556505795378,-0.4601960375383871
1765410380.757323,-9.158086001002058,2.6498732165175025,3.155365994569732,-0.3320175645190463,1.7882085496058295,-0.46332686178841737
1765410380.757573,-9.184714979962106,2.6342393090199345,3.1133858128043186,-0.3342106249036591,1.784457821576564,-0.4665856686247642
1765410380.757823,-9.209202693259938,2.621633841522925,3.072074360182853,-0.33669364802275376,1.780590413203899,-0.4699306353150269
1765410380.758128,-9.231951465844443,2.612066544334367,3.031481736202792,-0.3394992172206107,1.7765948648547012,-0.47331468618652406
1765410380.758461,-9.2533655078402,2.6052970219876253,2.9915586743505997,-0.3426468498572736,1.7724623106781954,-0.4766888523234449
1765410380.758795,-9.273839017125631,2.600870058995386,2.9521723021319453,-0.34614143535185565,1.7681873190216388,-0.48000581560944044
1765410380.759094,-9.293748546800012,2.598170098906414,2.913132817852312,-0.34997266429302337,1.7637684837375358,-0.48322328866840913
1765410380.759344,-9.313449480006488,2.5964878660179185,2.874227889849829,-0.3541154855750993,1.7592086727520158,-0.48630688914731185
1765410380.759594,-9.333275492442803,2.5950912036309326,2.8352599528842704,-0.35853153072032484,1.7545148674339814,-0.4892322175912217
1765410380.759844,-9.35353923624953,2.5932922706735018,2.7960810681322994,-0.36317136661255,1.7496975879075178,-0.4919859393688299
1765410380.760139,-9.374532229434543,2.5905039481720027,2.7566206347846944,-0.36797738739852676,1.74476997537633,-0.4945657926017977
1765410380.760472,-9.396522081873067,2.5862795890500907,2.716902314845008,-0.3728871274655486,1.7397466608805345,-0.49697957895729994
1765410380.760806,-9.4197457014777,2.580332332102202,2.677047782892298,-0.37783675768549985,1.7346425730891006,-0.49924332176557784
1765410380.761074,-9.444397921556547,2.5725331793446338,2.637266679817192,-0.38276451436667724,1.7294718331146848,-0.5013788738920459
1765410380.761324,-9.470615839597782,2.562890324792107,2.597834243558612,-0.3876138167297897,1.724246862452293,-0.5034113045484564
1765410380.761574,-9.498459842876406,2.551514754265553,2.559059463569866,-0.39233586392123015,1.718977786160438,-0.5053663803741384
1765410380.761824,-9.527892940625703,2.538578190802872,2.521246783258099,-0.3968915606260066,1.7136721465023974,-0.5072683977993443
1765410380.762069,-9.558760938379773,2.5242692359393635,2.484654342759784,-0.4012526870549465,1.708334880120903,-0.5091385541383706
1765410380.762319,-9.590777153822739,2.5087528617547608,2.449452696052572,-0.40540229545680645,1.7029684903789064,-0.5109939849993947
1765410380.762569,-9.623516305491712,2.4921378534881726,2.41568958465994,-0.409334378526902,1.6975733669319832,-0.5128475371508995
1765410380.762819,-9.656422345606652,2.4744562869886293,2.383267246822211,-0.41305291145498657,1.6921482315701937,-0.5147082670675791
1765410380.763137,-9.688833963786148,2.455658046387881,2.3519378388177947,-0.416570411636781,1.6866906946473863,-0.5165825508576412
1765410380.76347,-9.720029051900124,2.4356213200217383,2.321319983790531,-0.419906181107957,1.6811978953699271,-0.5184755853597258
1765410380.763804,-9.749285797144427,2.4141771961259497,2.2909359948051002,-0.4230843943380633,1.6756671884169319,-0.5203929904238711
1765410380.764061,-9.775954200863143,2.3911437671980376,2.2602656768849396,-0.4261321715229083,1.670096828115583,-0.5223422141013614
1765410380.764311,-9.799529075894014,2.366363568475942,2.2288095190572608,-0.4290777410296587,1.6644865804854239,-0.5243334946767995
1765410380.764561,-9.819714829393531,2.3397382836914478,2.1961522886351257,-0.43194875304637376,1.6588381691177632,-0.5263802208509913
1765410380.764811,-9.836473449337863,2.311256082429462,2.162017962679767,-0.4347707722212333,1.6531554535555575,-0.528498622315881
1765410380.765096,-9.85004933375253,2.2810086979665214,2.126308393288057,-0.43756596065860887,1.647444263638483,-0.5307068034704185
1765410380.765346,-9.86096724169795,2.249196707661038,2.089120516064109,-0.44035196539510235,1.641711868967521,-0.5330232109344623
1765410380.765596,-9.870002356194885,2.2161226174102984,2.0507397290458558,-0.44314103846169833,1.6359661326919421,-0.5354647080798547
1765410380.765846,-9.878124181287838,2.182172826301862,2.011609981537458,-0.44593943218476456,1.6302144590318592,-0.5380445028235176
1765410380.766089,-9.886418752695782,2.147791308312092,1.972283921357552,-0.4487471200991673,1.6244626783042078,-0.5407702093200555
1765410380.766422,-9.895996211506397,2.113449093725385,1.9333589261779058,-0.45155789096438986,1.6187140243042684,-0.5436423026415322
1765410380.766756,-9.907892756744669,2.0796136934854723,1.8954067266481534,-0.45435984842003757,1.6129683562144415,-0.5466531602937861
1765410380.7671,-9.922976953562866,2.046721682653929,1.858905343011516,-0.4571363246866297,1.607221758782626,-0.549786806256248
1765410380.76735,-9.941870026994788,2.015156529952968,1.8241818651426844,-0.4598671897552578,1.601466608737844,-0.5530194030993063
1765410380.7676,-9.964888017505608,1.9852330514022731,1.7913729548386619,-0.4625305100979655,1.5956921201162775,-0.5563204729173857
1765410380.76785,-9.992010903409085,1.9571896416643164,1.7604071712042175,-0.4651044794184322,1.5898852946173572,-0.5596547549273684
1765410380.768059,-10.022880801557834,1.9311892256716876,1.731010286424594,-0.4675695077203256,1.5840321329691456,-0.56298452355275
1765410380.768392,-10.056828656403821,1.907329011151449,1.702732344788285,-0.46991032286219914,1.5781189261801485,-0.5662721123965757
1765410380.768726,-10.092926285703378,1.8856573885044297,1.674993037982991,-0.47211792204075215,1.572133441456653,-0.5694823466111949
1765410380.769061,-10.130058096153617,1.8661942846239485,1.6471396203408237,-0.47419121183938484,1.5660658405418113,-0.5725846021798409
1765410380.769311,-10.167004721485473,1.8489498501678086,1.6185096805534762,-0.4761381883641377,1.5599092126990348,-0.5755542843595585
1765410380.769561,-10.202530159790474,1.8339361704819304,1.5884908506043178,-0.4779765282658663,1.553659661934726,-0.5783736245057898
1765410380.769811,-10.23546497217725,1.8211678636859194,1.5565713347897352,-0.4797334886950124,1.5473159476332476,-0.5810318039924602
1765410380.770076,-10.264779974286414,1.810649653591347,1.5223778175431188,-0.4814450539481331,1.5408787331899927,-0.5835245040418482
1765410380.770326,-10.28964647225811,1.8023516864798774,1.4856992193336822,-0.48315431960869454,1.5343495472495932,-0.5858530420510588
1765410380.770576,-10.309480071455523,1.796175951017593,1.4464955473392231,-0.4849091673694825,1.527729605239449,-0.58802328815974
1765410380.770826,-10.323965996715698,1.7919193698640696,1.404891899199063,-0.48675934923948205,1.5210186697720776,-0.5900445608026896
1765410380.77109,-10.333065337540004,1.7892407041084148,1.3611594402840175,-0.4887531622100916,1.5142141386780308,-0.5919286732092297
1765410380.77134,-10.337003474975946,1.7876388138380608,1.3156871287987895,-0.490933947810633,1.5073105293515494,-0.5936892419075294
1765410380.77159,-10.336243427340717,1.7864484691671545,1.2689486938330208,-0.493336688456632,1.5002994730963857,-0.5953412851430767
1765410380.77184,-10.331447646682975,1.784856877346507,1.2214687453477275,-0.49598498603700786,1.4931702526944108,-0.5969010635341344
1765410380.77214,-10.323432182575818,1.781940410291219,1.173791061198856,-0.49888869291640237,1.485910833712384,-0.5983860776568952
1765410380.772473,-10.313117259524168,1.7767180499127635,1.1264516785387184,-0.5020424237231049,1.4785092741880332,-0.5998151434483674
1765410380.772807,-10.301477931139535,1.7682165548787365,1.079958712641089,-0.5054251147953842,1.4709553485834954,-0.6012084912503853
1765410380.773135,-10.2894975886491,1.7555420031074023,1.0347792201627763,-0.5090007220110352,1.4632421855126985,-0.6025878434756292
1765410380.773385,-10.278126372553489,1.7379522769817024,0.9913317610457725,-0.5127200579405434,1.4553677066969437,-0.6039764050718975
1765410380.773635,-10.268246451471768,1.7149245027576372,0.9499829427814814,-0.5165236686233291,1.4473356853337525,-0.6053986670392723
1765410380.773885,-10.260646226432613,1.686210473375059,0.9110470748876963,-0.520345549582721,1.439156310130666,-0.6068799094457157
1765410380.774138,-10.256005007085674,1.6518725253142443,0.8747887057334218,-0.5241174144087822,1.4308462154898758,-0.6084453204317646
1765410380.774388,-10.254888548541018,1.6122932361674536,0.8414274786983164,-0.5277731663838803,1.4224279944410994,-0.6101187174650253
1765410380.774638,-10.257754581581585,1.5681549815875448,0.8111441574073197,-0.5312531895271249,1.4139292516161566,-0.6119209393413113
1765410380.774888,-10.264966367718182,1.5203891383817152,0.7840867572259853,-0.5345080784958242,1.4053812892053723,-0.6138680462563034
1765410380.775067,-10.276811235926475,1.4700984511571054,0.7603762797333116,-0.5375014739546673,1.3968175417701398,-0.6159695135986538
1765410380.775317,-10.293520141046056,1.4184591793866073,0.7401117316827527,-0.5402117570110917,1.388271869883049,-0.6182266384203345
1765410380.775567,-10.315284059380403,1.36661218664202,0.723373741855658,-0.5426324687966348,1.379776794272505,-0.6206313963013242
1765410380.775817,-10.342263801967823,1.315554297314257,0.7102258120151839,-0.5447714440691152,1.3713617336818822,-0.6231659755947888
1765410380.776141,-10.374591176277338,1.2660425791171797,0.7007124744341862,-0.5466487693629852,1.363051322765343,-0.6258031532040954
1765410380.776391,-10.412360688004373,1.2185236999416815,0.6948540353541647,-0.54829378690066,1.3548639130900935,-0.6285075558560648
1765410380.776641,-10.455611944275851,1.173097518806947,0.6926377117078895,-0.5497414536662876,1.3468103632886543,-0.6312377038408279
1765410380.776891,-10.504303919204215,1.1295191192260505,0.6940049658708829,-0.5510284176824418,1.3388931931363035,-0.6339486121122666
1765410380.777118,-10.558283509885834,1.0872380038807703,0.6988351972357563,-0.5521891808719869,1.331106138257215,-0.636594662311246
1765410380.777451,-10.617252127928579,1.0454685865066604,0.7069267981893685,-0.5532526793803911,1.3234341248981385,-0.6391324575812748
1765410380.777785,-10.680735027125325,1.003283199312927,0.7179775965926494,-0.5542395388906007,1.315853682953353,-0.6415234041420745
1765410380.77817,-10.74805845194225,0.9597174634656158,0.7315675051921008,-0.555160173137162,1.3083338055999418,-0.6437358048075399
1765410380.77842,-10.818339463678512,0.9138773797119281,0.7471465565128397,-0.5560138055469579,1.3008372337231002,-0.6457462918501533
1765410380.77867,-10.890492342889301,0.8650373812011407,0.7640312783820239,-0.5567884141112915,1.293322104128426,-0.6475404776495727
1765410380.77892,-10.963253748169782,0.8127190510288365,0.781411611329021,-0.5574615292094712,1.2857438703194544,-0.6491127736596964
1765410380.779192,-11.0352267821976,0.7567419070458896,0.7983696464440591,-0.5580017555986027,1.2780573885234747,-0.6504654216902667
1765410380.779442,-11.10494242513239,0.6972408631792603,0.8139106650538962,-0.5583708473029528,1.2702190507610713,-0.6516068769776018
1765410380.779692,-11.17093549185288,0.6346490551896247,0.8270060712157846,-0.5585261389627956,1.2621888347183852,-0.6525497538735743
1765410380.779942,-11.231830762513274,0.5696486053307207,0.8366464090643587,-0.5584231277244828,1.253932134864209,-0.653308580721999
1765410380.780226,-11.28643297165879,0.5030949920188919,0.841900887157459,-0.5580180049073661,1.2454212518555643,-0.6538976182761719
1765410380.780476,-11.333812615606265,0.4359231117066326,0.8419784276800797,-0.557269956685915,1.2366364451776726,-0.6543289860861047
1765410380.780726,-11.373379059713644,0.3690451271230353,0.8362847889688255,-0.5561430864525014,1.2275664843351448,-0.6546113110796732
1765410380.780976,-11.40493352614175,0.30325153772890273,0.8244707283112618,-0.5546078535306295,1.2182086623621466,-0.6547490517838186
1765410380.781222,-11.428696711108346,0.23912692511423278,0.8064671618712007,-0.5526419687608053,1.208568270465273,-0.654742560249404
1765410380.781555,-11.445308253563445,0.17699010390549497,0.7825045666261354,-0.550230736965666,1.198657578781482,-0.654588839690156
1765410380.781889,-11.455797565790636,0.11686524930506524,0.7531150993791847,-0.5473668905257875,1.1884944135002131,-0.6542828652864879
1765410380.782183,-11.46152757624075,0.05848686455023282,0.719116775517529,-0.5440500124027378,1.1781004488247502,-0.653819277691397
1765410380.782433,-11.46411489493212,0.0013380451254737249,0.6815797691957602,-0.5402856900263799,1.1674993438418335,-0.6531942346476713
1765410380.782683,-11.465331799255907,-0.05528140176779409,0.6417760202682196,-0.5360845628881359,1.1567148626708372,-0.6524071991223428
1765410380.782933,-11.466996910639137,-0.11216317780696979,0.6011148966803683,-0.5314614203047293,1.145769122864221,-0.6514624361648081
1765410380.783149,-11.470862142637774,-0.1700840772319204,0.5610689780768777,-0.5264344723001615,1.1346811057726163,-0.6503699912815121
1765410380.783399,-11.478503519219077,-0.22969643600692527,0.5230945705247436,-0.5210248641667482,1.1234655255743875,-0.64914595550482
1765410380.783649,-11.49122311054647,-0.2914282298191754,0.4885516115369797,-0.5152564446107517,1.1121321096004395,-0.6478119031408605
1765410380.783899,-11.50996870154709,-0.3554049284966251,0.4586277726537499,-0.5091557372703072,1.1006853168297115,-0.646393508012958
1765410380.784175,-11.535276740313092,-0.421402331715294,0.43427193899885286,-0.502752017288529,1.0891245151238258,-0.6449184737220095
1765410380.784425,-11.567242586428101,-0.48883505680604483,0.41614237829789774,-0.49607737187303697,1.0774446267367974,-0.6434140166596899
1765410380.784675,-11.605520216703866,-0.5567804401329594,0.40457415247002215,-0.489166629942346,1.0656372135867056,-0.6419041865777273
1765410380.784925,-11.649351335315762,-0.6240338437611116,0.39956837014919516,-0.4820570719392149,1.053691912330597,-0.6404072941508459
1765410380.785158,-11.697621285166868,-0.6891893937060881,0.4008032097875493,-0.4747878649225708,1.0415980717324276,-0.6389336686487199
1765410380.785408,-11.748936697182797,-0.750739406354037,0.4076642989895907,-0.46739920232355914,1.0293464165974942,-0.6374839284906734
1765410380.785658,-11.80171810818067,-0.8071850731557949,0.4192906943930104,-0.45993115901021325,1.0169305666293476,-0.6360479201165334
1765410380.785908,-11.854300111491511,-0.8571499457921901,0.43463216021354845,-0.452422301628765,1.0043482631556622,-0.634604445461876
1765410380.786215,-11.905031741550895,-0.8994869680833579,0.45251313176382685,-0.44490812360721604,0.9916021943400702,-0.633121837279175
1765410380.786548,-11.952370399588682,-0.9333700917118817,0.47169853470282846,-0.43741940195028434,0.9787003567714092,-0.6315593569359992
1765410380.786882,-11.994963555460755,-0.9583631824627682,0.4909568097039363,-0.4299805932256252,0.9656559388404597,-0.6298693007542568
1765410380.78714,-12.031713629615952,-0.974461446995628,0.5091162063797511,-0.42260839344516443,0.9524867511471823,-0.6279996329871038
1765410380.78739,-12.06182275450634,-0.9821030999023794,0.5251113934926164,-0.4153105810464994,0.9392142647889778,-0.6258969284627348
1765410380.78764,-12.084815545972106,-0.9821509536995595,0.5380184720238594,-0.40808525049428657,0.9258623537493885,-0.6235093980443303
1765410380.78789,-12.10053978561588,-0.9758452394612972,0.5470777617373273,-0.40092053144266687,0.9124558655794757,-0.620789772305436
1765410380.788179,-12.109147095276663,-0.9647307073343813,0.5517053924641899,-0.39379487095450527,0.8990191567486815,-0.6176978315007916
1765410380.788429,-12.111057790987307,-0.9505631165158833,0.5514962686471583,-0.3866779248499945,0.8855747267460231,-0.6142023989431028
1765410380.788679,-12.106915280582797,-0.9352023464560166,0.5462215780562002,-0.37953205547061364,0.8721420715399235,-0.6102826630551977
1765410380.788929,-12.097535227812045,-0.920500878449883,0.5358234812120432,-0.3723143732343116,0.8587368502148038,-0.6059287582452308
1765410380.789158,-12.083853760863606,-0.9081966203027084,0.5204086177362098,-0.3649792004854357,0.8453704194745024,-0.6011416076836675
1765410380.789491,-12.06687800485136,-0.8998178616685988,0.5002413273395109,-0.35748079130583355,0.8320497495118102,-0.595932096508969
1765410380.789825,-12.047641292506196,-0.8966061817946254,0.47573697694090217,-0.3497761193828946,0.8187777002440412,-0.59031968943164
1765410380.790144,-12.027164189087172,-0.8994611785993754,0.44745498351725177,-0.3418275491178816,0.8055536063647365,-0.5843306338656215
1765410380.790394,-12.006420937600673,-0.9089091621613816,0.4160899149838306,-0.3336052250983398,0.7923740880652816,-0.5779959093244179
1765410380.790644,-11.986309737825392,-0.9250960766145566,0.38245808115026525,-0.3250890405311521,0.7792339783578097,-0.5713490979877748
1765410380.790894,-11.967625128043132,-0.9478027284989863,0.3474770627643095,-0.3162700711593289,0.7661272508529401,-0.5644243464713963
1765410380.791148,-11.95103172704088,-0.9764785395379872,0.31213679375775577,-0.3071513903997369,0.7530478468329207,-0.5572545521997758
1765410380.791398,-11.937040160068797,-1.0102893273709148,0.2774625164096882,-0.2977482169535719,0.7399903294918659,-0.5498698500928474
1765410380.791648,-11.925987385501895,-1.0481750634973122,0.24447145338644907,-0.2880873869397013,0.7269503297748181,-0.5422964275437834
1765410380.791898,-11.918024307290823,-1.0889143353100696,0.21412611080999927,-0.27820618673583647,0.7139247902531659,-0.5345556799555734
1765410380.792144,-11.913113298427888,-1.1311925287961966,0.18728785967781494,-0.2681506291493637,0.7009120533196,-0.5266637290724956
1765410380.792477,-11.911037168942766,-1.1736703951119216,0.16467483155639054,-0.2579733019533695,0.6879118624046067,-0.5186313378233929
1765410380.792811,-11.911419489236316,-1.2150491369981904,0.14682789323579107,-0.2477309581108995,0.674925339086073,-0.5104642475862042
1765410380.793124,-11.913754494686366,-1.2541280599628566,0.13408738243792126,-0.23748204074383739,0.6619549693330652,-0.5021639301262588
1765410380.793374,-11.917443603378178,-1.2898514574160866,0.1265818317584226,-0.22728433283801677,0.649004596266764,-0.49372869540646136
1765410380.793624,-11.921835258439385,-1.3213425871668427,0.12422881450170309,-0.2171928902875124,0.6360793930928624,-0.4851550459793974
1765410380.793874,-11.926265276598038,-1.3479240092687614,0.1267476080880584,-0.2072583670664912,0.6231857853368792,-0.47643913554034617
1765410380.794303,-11.93009558857484,-1.369124898768734,0.13368313240504717,-0.19752578735191373,0.6103312995455746,-0.4675781804235718
1765410380.794553,-11.9327496216491,-1.3846769930388372,0.14443992361251834,-0.18803377121932854,0.5975243250671564,-0.4585716869670656
1765410380.794803,-11.933742528076786,-1.3945013863464324,0.1583236840077335,-0.17881418151518133,0.5847737840496577,-0.4494223908648007
1765410380.795053,-11.932704391997515,-1.398688427429064,0.17458682345808063,-0.16989213111111093,0.5720887206966019,-0.4401368494365881
1765410380.795162,-11.929394791535792,-1.3974727771439444,0.19247398727399787,-0.16128627406493934,0.5594778477625457,-0.43072567100857584
1765410380.795412,-11.923707655529244,-1.3912055368092793,0.21126383676518604,-0.15300930078626068,0.5469491131326791,-0.42120339696921477
1765410380.795662,-11.91566610528231,-1.3803252773737922,0.23030391023895133,-0.14506856242243532,0.5345093542925425,-0.41158807298493355
1765410380.795912,-11.9054078979247,-1.3653296235116565,0.24903616129004513,-0.13746676100622673,0.5221640919107225,-0.40190056348545594
1765410380.796154,-11.893163139594751,-1.3467487469384367,0.26701198085722355,-0.13020265937784808,0.509917488256292,-0.39216367958545795
1765410380.796487,-11.879226746236759,-1.325121865198467,0.2838969396317119,-0.12327178629593068,0.4977724702868004,-0.38240120159519303
1765410380.796821,-11.863928252217091,-1.3009777277615995,0.29946637960025313,-0.11666713129995766,0.48573099166588146,-0.37263688158960884
1765410380.797184,-11.84760111855201,-1.2748198922012515,0.3135931103233241,-0.11037983365631579,0.47379438646995437,-0.36289351022224636
1765410380.797434,-11.83055340618242,-1.247117036049276,0.32622867602242384,-0.10439986622478659,0.46196375930046324,-0.35319212256202037
1765410380.797684,-11.813041990694044,-1.2182977177194894,0.33738067693757456,-0.09871670100203378,0.45024036731290223,-0.34355139389746464
1765410380.797934,-11.795252824486244,-1.1887484411139,0.3470897258935979,-0.09331992768971888,0.4386259721545313,-0.3339872399901902
1765410380.798163,-11.777289208271572,-1.1588139377247382,0.3554094260904331,-0.08819978937197086,0.42712315707787135,-0.32451260290411044
1765410380.798413,-11.75916868556783,-1.1287989887040328,0.36239123479339314,-0.08334760167064297,0.41573560523712993,-0.31513738785583834
1765410380.798663,-11.74082799227099,-1.0989713747604257,0.36807465908003006,-0.07875602768326158,0.4044683268418567,-0.30586851601956244
1765410380.798913,-11.722135021211011,-1.0695655354635338,0.37248283052713826,-0.07441918776724245,0.3933278213298454,-0.29671006078957907
1765410380.799154,-11.702906568734624,-1.0407865068058126,0.3756235251520232,-0.07033259506917452,0.38232216516820794,-0.28766343669498917
1765410380.799404,-11.682930208905939,-1.0128138828515947,0.3774952549918071,-0.06649292696346593,0.3714610095105938,-0.2787276165410368
1765410380.799654,-11.661988103774673,-0.9858057840915949,0.378097190124322,-0.06289766355066553,0.36075545371792284,-0.2698993653107959
1765410380.799904,-11.639880255936713,-0.9599029141048533,0.37744095096566277,-0.05954463930619115,0.35021775506079944,-0.2611734919270499
1765410380.800176,-11.616444783634897,-0.9352327540277398,0.37556213786400794,-0.0564315596102908,0.3398608579447042,-0.252543126479369
1765410380.800426,-11.591573295352456,-0.9119138620279901,0.372529902192705,-0.053555530198619576,0.32969776220453423,-0.24400003357917788
1765410380.800676,-11.5652203624956,-0.8900600645221187,0.36845364696472693,-0.05091263498457106,0.3197407747307607,-0.2355349749888889
1765410380.800926,-11.537407152021665,-0.8697839904136507,0.36348659530950456,-0.04849757931824123,0.31000069801777014,-0.22713813246794518
1765410380.801215,-11.508220018436933,-0.8511990837883775,0.35782624831647764,-0.04630339993385506,0.30048601433113836,-0.2187995898504537
1765410380.801548,-11.477805118159985,-0.8344192848175767,0.35171192529424694,-0.04432123811986009,0.2912021270804417,-0.21050985464150795
1765410380.801882,-11.446360155199049,-0.8195561360548818,0.34541988530451095,-0.04254017842808868,0.2821507124726172,-0.2022603854478602
1765410380.805093,-11.41412436114008,-0.806713797561123,0.3392567301504983,-0.040947161579018496,0.27332921426099765,-0.1940440933768836
1765410380.805343,-11.381367619642855,-0.7959827557682678,0.33355157291630516,-0.03952697913672391,0.26473049642359603,-0.18585580036587948
1765410380.805593,-11.348379229289188,-0.7874327149297725,0.32864707697030154,-0.03826235163324324,0.256342662096228,-0.17769264822902572
1765410380.805843,-11.315456436893404,-0.7811046956560603,0.32488944272368575,-0.03713408899117701,0.24814904553320716,-0.16955444646861878
1765410380.805204,-11.282892764140827,-0.7770022429270392,0.32261766350329996,-0.036121334260970674,0.24012837890215152,-0.16144393076401303
1765410380.805454,-11.250966143048046,-0.7750819664702313,0.32215232458495996,-0.0352018928958503,0.23225512938803033,-0.15336689393788092
1765410380.805704,-11.219926851378805,-0.7752441592169322,0.32378387268711517,-0.03435264397473934,0.224500000348146,-0.14533215716241135
1765410380.805954,-11.189985396744843,-0.7773246819117756,0.327760342780464,-0.03355001789053146,0.21683059385609055,-0.13735136977967324
1765410380.806319,-11.161300937842158,-0.7810894640336556,0.3342752455796641,-0.0327705149550244,0.2092122363664583,-0.1294386536220809
1765410380.806569,-11.133971203841496,-0.7862327489571844,0.3434569087074983,-0.03199123870632773,0.20160896775782372,-0.12161013307347512
1765410380.806819,-11.10802480451057,-0.7923796552516208,0.3553602716670086,-0.031190425437563153,0.19398468240124092,-0.11388340681051691
1765410380.807069,-11.083416414732598,-0.79909296456898,0.3699612821313629,-0.030347959169822008,0.1863043936063288,-0.10627701656648843
1765410380.80724,-11.060024915067695,-0.80588353990879,0.3871534954439918,-0.029445863432854987,0.17853558127017674,-0.09880995576702604
1765410380.80749,-11.037654293882797,-0.8122235226105743,0.40674651082648133,-0.02846876063532093,0.1706495815538628,-0.09150124521736384
1765410380.80774,-11.016036919304078,-0.8175613671939361,0.42846610386550954,-0.027404291219623383,0.1626229770429816,-0.08436958965337801
1765410380.80799,-10.994838784637796,-0.8213377390714502,0.4519560897658396,-0.026243487239435894,0.15443893518660454,-0.07743311689687556
1765410380.808245,-10.973666663585117,-0.8230013303505158,0.4767822011993017,-0.0249810940187788,0.14608842751976603,-0.07070918785616966
1765410380.808495,-10.952077578518486,-0.8220238662463366,0.502438598170513,-0.023615827826765842,0.13757125751657878,-0.06421425177650686
1765410380.808745,-10.929591167173662,-0.8179140302143956,0.5283577585014001,-0.022150550132723504,0.1288968340922967,-0.05796371297347459
1765410380.808995,-10.905705307005434,-0.8102305382741237,0.5539242363261287,-0.020592334078882488,0.12008464000987526,-0.051971779116451365
1765410380.809223,-10.879914978044903,-0.79859482151482,0.5784922660481492,-0.018952398508955637,0.11116435301567007,-0.04625127665852616
1765410380.809473,-10.851734040962441,-0.7827035914888244,0.6014066934121505,-0.01724588878981481,0.10217558652278107,-0.04081343814511261
1765410380.809723,-10.820719359438211,-0.7623411292189423,0.6220263870368493,-0.01549149012301208,0.09316723007552459,-0.035667680331189555
1765410380.809973,-10.78649642448395,-0.7373907234040739,0.6397491513159792,-0.01371086745936618,0.0841963860040966,-0.030821398862158247
1765410380.81016,-10.7487853253613,-0.7078444324953402,0.6540371230306491,-0.011927937229558679,0.07532691663918287,-0.026279806442993894
1765410380.81036,-10.707425520630027,-0.6738102687596722,0.6644414643077657,-0.010167990577279276,0.06662763771492279,-0.02204583819948849
1765410380.81056,-10.662397387910756,-0.6355159651603026,0.6706247526698359,-0.008456705029984501,0.05817021625150111,-0.01812014168796647
1765410380.81076,-10.613838185141539,-0.5933086198368446,0.6723790742864855,-0.0068190984108867005,0.05002685024615901,-0.01450116221162823
1765410380.81096,-10.562050170612356,-0.5476496296882137,0.6696378891288979,-0.005278489985864482,0.042267822276905516,-0.0111853269781904
1765410380.81115,-10.507499281797122,-0.4991044066179151,0.6624803863042046,-0.0038555360235377934,0.03495903368279509,-0.008167321245045486
1765410380.8114,-10.450803699669384,-0.44832652132174833,0.6511279634411423,-0.0025674025584232893,0.028159639532619702,-0.005440434756001425
1765410380.81165,-10.392712549143376,-0.396036290682299,0.6359332398464754,-0.0014271324540667473,0.021919908148708495,-0.0029969412071925946
1765410380.8119,-10.334075855511031,-0.34299447390469157,0.6173625207595896,-0.0004432573550379594,0.01627941630875159,-0.0008284633422538394
1765410380.81216,-10.2758077058626,-0.28997254734679434,0.5959729888022667,0.0003803080999179599,0.01126566886896177,0.0010737240321137332
1765410380.81236,-10.218845227132565,-0.23772173861442164,0.5723862174132692,0.001044076683304521,0.0068932105032727675,0.002718490855568065
1765410380.81256,-10.164106333246865,-0.18694338104874061,0.5472598555072269,0.0015525219359926767,0.0031632774025675383,0.004114768346287567
1765410380.81276,-10.1124492244153,-0.138263079980428,0.521259434932064,0.0019133827040232673,6.400816088316722e-05,0.005271582505982744
1765410380.81296,-10.064636403741064,-0.0922106794138933,0.49503210291755834,0.0021368088252032257,-0.0024288067825873317,0.006198179317506377
1765410380.813155,-10.0213054416031,-0.04920721588346797,0.4691836271427136,0.002234429290038118,-0.004350497786931442,0.006904201876003507
1765410380.813355,-9.982947860179758,-0.009559163502264729,0.4442594159793195,0.0022184252842065376,-0.005745900057288833,0.007399879321863237
1765410380.813555,-9.949896605477042,0.02654043695341706,0.4207298576471621,0.0021006828978491006,-0.0066674545017376755,0.007696199337176157
1765410380.813755,-9.922321924248273,0.0590047432114115,0.3989801189669692,0.001892087250075019,-0.00717313815341533,0.007805051554851284
1765410380.813955,-9.900235052048087,0.08784063111430183,0.3793044430137098,0.0016020045509498107,-0.007324336160438383,0.00773933935854221
1765410380.814143,-9.883498763201793,0.1131318715594879,0.3619047753756913,0.001237981962932239,-0.007183757329150607,0.007513057555567984
1765410380.81431,-9.871843532177177,0.13501910257198885,0.3468933358622579,0.0008056762773268402,-0.006813478497366277,0.00714132548540414
1765410380.814476,-9.864887944067585,0.15367815953700914,0.33429866353408805,0.0003090023416456773,-0.006273184817995112,0.006640357370073111
1765410380.814643,-9.862162038168648,0.16929870362614827,0.32407460273606925,-0.00024952605465374764,-0.0056186562950432005,0.006027352402822974
1765410380.81481,-9.863132276281403,0.1820651506626752,0.31611152815890237,-0.0008683043277122557,-0.004900535998981322,0.005320297406336092
1765410380.814976,-9.867226749554185,0.192141578733757,0.3102489115530737,-0.0015460460563756634,-0.004163402342561358,0.004537688212244208
1765410380.815127,-9.87385925866695,0.19966173162313397,0.3062883017236347,-0.002281151034556033,-0.003445155419676908,0.0036981854877005654
1765410380.815327,-9.882451148573548,0.20472463594674187,0.30400593395789927,-0.0030710923687553198,-0.002776712640179925,0.002820226030772693
1765410380.815527,-9.892450150997629,0.20739580791534118,0.3031643666820509,-0.003911879107997433,-0.0021819912346086943,0.0019216144923781316
1765410380.815727,-9.903345837620023,0.20771352986860486,0.30352271197329617,-0.00479764372897675,-0.0016781397596571251,0.001019123988547874
1765410380.815927,-9.914681574429796,0.2056992006345056,0.3048452222765717,-0.005720393961086895,-0.0012759731675458573,0.0001281356035175691
1765410380.816171,-9.92606306895063,0.20137033410052568,0.3069081687444902,-0.006669955292050952,-0.0009805661367378433,-0.0007376551428527687
1765410380.816371,-9.937163648202196,0.19475447989122943,0.3095050004866158,-0.007634113365195675,-0.0007919625811955341,-0.0015664425754787735
1765410380.816571,-9.94772632192261,0.18590226635767187,0.31244977062179385,-0.008598945613086502,-0.00070596248440863,-0.0023484129596433134
1765410380.816771,-9.957562646435036,0.1748979745093044,0.31557892001938576,-0.009549312246304753,-0.0007149507356942182,-0.0030757433025402556
1765410380.816971,-9.966548532704897,0.16186650503058778,0.3187517146659451,-0.010469462076916597,-0.0008087369473378587,-0.003742507594190841
1765410380.817152,-9.974617369939555,0.14697617423991244,0.32184974447624054,-0.011343700898624198,-0.0009753792481565456,-0.004344510191276923
1765410380.817352,-9.981751044545003,0.13043733131572943,0.3247758365582141,-0.012157068933991422,-0.0012019681719495402,-0.004879070774783631
1765410380.817552,-9.987969595516095,0.11249724922042836,0.32745265271861174,-0.012895977353899758,-0.0014753494758373306,-0.005344786346900736
1765410380.817752,-9.993320340372795,0.09343208312670442,0.32982120439119594,-0.01354876045032725,-0.0017827669081340704,-0.00574129397223239
1765410380.817952,-9.997867250417585,0.07353690860341469,0.33183942527916077,-0.014106108972054339,-0.0021124073193614615,-0.006069053720701075
1765410380.81822,-10.001681151931113,0.05311494562618912,0.33348077280661786,-0.014561361179009987,-0.002453832642064926,-0.006329165146448534
1765410380.81847,-10.00483113579524,0.032467047828199334,0.3347327538920575,-0.01491064072123335,-0.0027982882236720604,-0.00652322410886528
1765410380.81872,-10.00737749094015,0.011882395605139203,0.3355953668283964,-0.01515284303876351,-0.0031388840366828466,-0.006653220883018079
1765410380.81897,-10.009366472274092,-0.008368916909141228,0.33607957032176816,-0.015289483005478994,-0.0034706515376092223,-0.006721475137973271
1765410380.81919,-10.010827161449084,-0.02804104003614576,0.3362059183241789,-0.015324425459372052,-0.0037904834632899297,-0.006730598466016996
1765410380.81939,-10.01177058164968,-0.04691525262187983,0.33600350060793477,-0.01526352750364333,-0.004096968083946726,-0.006683472073149826
1765410380.81959,-10.012191107509327,-0.0648008322329714,0.33550932549027473,-0.015114226851121553,-0.0043901334934262105,-0.006583227176226394
1765410380.81979,-10.012069997551665,-0.08153436810285884,0.3347681447300792,-0.014885112398585431,-0.004671120076715847,-0.006433218058641451
1765410380.81999,-10.011380544460279,-0.0969781056435516,0.33383244090882364,-0.014585510113907171,-0.004941801657828143,-0.006236981711346227
1765410380.820187,-10.010094051903977,-0.11101795694337771,0.33276211338202466,-0.014225109739994721,-0.0052043810560864065,-0.005998183577120873
1765410380.820387,-10.008185796177498,-0.1235617065287857,0.3316234901879862,-0.013813648123899236,-0.005460992432173525,-0.005720555412752006
1765410380.820587,-10.005640302550113,-0.13453769297468096,0.33048753998717006,-0.013360655480943933,-0.005713344870989189,-0.0054078358172119515
1765410380.820787,-10.002455505744292,-0.14389397859613173,0.32942735455359523,-0.012875262956396655,-0.005962436350485614,-0.005063723955784947
1765410380.820987,-9.998645584184894,-0.15159785491505454,0.3285150861959422,-0.012366064163140813,-0.006208358135393062,-0.004691853278724092
1765410380.821138,-9.994242448864426,-0.15763547889182547,0.3278186047674945,-0.011841020461422132,-0.006450200701592871,-0.004295787899919022
1765410380.821338,-9.989296000172908,-0.16201142573469618,0.32739816417773226,-0.011307399990848187,-0.006686063967741782,-0.0038790416788668583
1765410380.821538,-9.983873324971833,-0.16474794348935876,0.32730332714404436,-0.010771743482258395,-0.006913166544044436,-0.003445117892247881
1765410380.821738,-9.978057044514633,-0.1658837349747421,0.3275703575140961,-0.010239853675383185,-0.007128041519218675,-0.002997564135060192
1765410380.821938,-9.971943071516684,-0.16547222029533226,0.3282202802517142,-0.009716806974309088,-0.007326799573838315,-0.0025400333822433677
1765410380.82212,-9.965638038621915,-0.16357943443605422,0.32925776484868197,-0.009206984771033077,-0.007505433229084594,-0.0020763401746244376
1765410380.82237,-9.959256589257913,-0.1602818864431856,0.3306708813378662,-0.00871411958511341,-0.007660130918978843,-0.001610501891285308
1765410380.82262,-9.952918633706732,-0.15566472649119958,0.33243168366994624,-0.008241350497235265,-0.0077875697118235864,-0.001146758213191602
1765410380.82287,-9.946746623190542,-0.1498204175250854,0.33449755431862027,-0.007791283787793676,-0.007885161393945045,-0.0006895654563626229
1765410380.823149,-9.940862867620021,-0.14284790576519368,0.33681326190714933,-0.007366056668172938,-0.007951235884742572,-0.00024356536975952308
1765410380.823349,-9.935386894367324,-0.13485215639529086,0.3393136703999578,-0.006967403377426264,-0.007985155859915265,0.00018646977598837607
1765410380.823549,-9.930432823604791,-0.12594389010790719,0.3419269676132095,-0.006596723799192965,-0.007987364379743577,0.0005957119743719303
1765410380.823749,-9.926106720407057,-0.11623936927011658,0.3445781794861483,-0.006255155174645593,-0.007959371196880794,0.0009793664290328504
1765410380.823949,-9.922503865476273,-0.10586009857872868,0.3471926586604384,-0.005943646953928241,-0.00790368392110028,0.001332768093540592
1765410380.82416,-9.919705889532256,-0.09493232189122282,0.34969922708433915,-0.005663037155635458,-0.007823690284288776,0.0016514806375782702
1765410380.82436,-9.91777778727354,-0.08358622654479059,0.35203272708160266,-0.005414126298973536,-0.007723499039553544,0.0019313959048350034
1765410380.82456,-9.916764973407343,-0.07195482140576992,0.3541358830079002,-0.00519774261350448,-0.007607748812604606,0.0021688346293917368
1765410380.82476,-9.916690705453085,-0.060172538309434476,0.3559605541086845,-0.005014790211925109,-0.007481395818870759,0.0023606494753839976
1765410380.82496,-9.917554271922254,-0.04837369590801363,0.35746857968167217,-0.0048662712046403205,-0.0073494930537248895,0.002504329491751836
1765410380.825154,-9.91933026192465,-0.03669101658427843,0.35863240920149,-0.004753274802711894,-0.007216974624276723,0.0025981020247044964
1765410380.825354,-9.921969040690817,-0.02525436859123645,0.3594356114259758,-0.004676931375604233,-0.007088457286156516,0.0026410254745191826
1765410380.825554,-9.925398377979546,-0.014189822402952332,0.3598732627531608,-0.004638335054019207,-0.006968066644482038,0.0026330654723756525
1765410380.825754,-9.92952607367366,-0.003619003224203996,0.35995214871511344,-0.004638442508655379,-0.006859290800936676,0.0025751482260909036
1765410380.825954,-9.934243358508098,0.006341362886211463,0.359690649780059,-0.004677957683134006,-0.006764862870808586,0.002469186156407089
1765410380.826205,-9.939428789427652,0.015579857634701958,0.3591181620405439,-0.004757213316401857,-0.006686675956027611,0.0023180709140044166
1765410380.826405,-9.944952341962464,0.023990905229931407,0.35827397192075855,-0.0048760599253927575,-0.006625736645096574,0.002125628350167942
1765410380.826605,-9.950679432974031,0.0314756142293712,0.3572055989273861,-0.005033770751418116,-0.006582162624697853,0.0018965315063898592
1765410380.826805,-9.956474630685346,0.0379430866012339,0.3559666440655895,-0.0052289675569534445,-0.006555226410161641,0.0016361721805106294
1765410380.827005,-9.962204813035886,0.04331228870245613,0.3546141621796905,-0.00545956911971356,-0.0065434431413410946,0.0013504975330654613
1765410380.827165,-9.967741594440566,0.047514481463145734,0.3532056216135976,-0.005722763199146031,-0.006544697764221379,0.0010458232261338655
1765410380.827332,-9.972962991035685,0.050496096556250626,0.3517956256913014,-0.006015003131836321,-0.006556405163740037,0.0007286373954087467
1765410380.827498,-9.977754458116928,0.05222182974749891,0.3504326462361462,-0.006332030796061605,-0.006575694438240352,0.00040540975798518283
1765410380.827665,-9.982009533271764,0.05267761578623994,0.34915604239377823,-0.006668928081762655,-0.006599605144363479,8.241726471210869e-05
1765410380.827832,-9.985630370579173,0.0518730838623703,0.3479936927240287,-0.007020199273218524,-0.006625279964769601,-0.00023440711896854122
1765410380.827998,-9.988528477516766,0.049843102529601425,0.34696063766348195,-0.007379886192100521,-0.00665013623362236,-0.0005396005407762443
1765410380.828137,-9.990625919900275,0.046648114422623205,0.3460590607193663,-0.007741715718822594,-0.0066719995751260185,-0.0008282716611494682
1765410380.828337,-9.991857121916672,0.042373106477948085,0.34527968820435073,-0.0080992758507809,-0.00668918807393824,-0.0010961775236220223
1765410380.828537,-9.992171243884721,0.037125222963028476,0.3446044283274731,-0.008446212969636305,-0.006700544612455241,-0.0013397753736314624
1765410380.828737,-9.991535043422974,0.031030180930169435,0.34400994133060986,-0.008776439989306545,-0.0067054244787960165,-0.001556249310983822
1765410380.828937,-9.989936060003162,0.024227768149912676,0.3434717653845317,-0.009084342476529334,-0.006703650367510565,-0.001743512705994491
1765410380.829134,-9.987385826615434,0.016866764872634873,0.3429685146858486,-0.009364967990404902,-0.0066954466980086854,-0.001900187722818641
1765410380.829384,-9.983922661998335,0.009099633392149947,0.34248558588257677,-0.009614183395618143,-0.006681363026391975,-0.0020255633941964313
1765410380.829634,-9.97961356837256,0.001077308774677893,0.34201789098576457,-0.00982878619657418,-0.006662194653155378,-0.0021195348453898113
1765410380.829884,-9.974554870239896,-0.00705556516884978,0.3415713506251472,-0.010006559465751004,-0.006638906791014942,-0.0021825284800467393
1765410380.830206,-9.968871365037963,-0.015164605410148742,0.34116307350401587,-0.010146266075159267,-0.006612566248198409,-0.0022154195636342115
1765410380.830406,-9.962713850793367,-0.023128563263168332,0.3408202524904362,-0.010247585780077879,-0.006584282226399923,-0.0022194484204953887
1765410380.830606,-9.95625499317912,-0.030840911536141997,0.3405778882831532,-0.010311005681752632,-0.0065551555421860495,-0.0021961398334104853
1765410380.830806,-9.949683625933181,-0.03821011114775879,0.3404755425031552,-0.01033767864836154,-0.006526232974067537,-0.002147228689763566
1765410380.831006,-9.943197723454727,-0.04515869853150554,0.3405534068753398,-0.010329266008852749,-0.006498462245053227,-0.002074594762078984
1765410380.831192,-9.93699644225207,-0.051621485110029786,0.3408480734099038,-0.010287782053111054,-0.006472645399154506,-0.001980210787802025
1765410380.831392,-9.931271793574764,-0.05754323551855942,0.34138849727034226,-0.010215458261701862,-0.006449392352381923,-0.0018661091256950337
1765410380.831592,-9.92620059671153,-0.06287618310197601,0.34219265342621885,-0.01011464245116266,-0.006429078924967974,-0.001734371202649402
1765410380.831792,-9.921937285701658,-0.06757768755673753,0.34326523684391563,-0.009987741484050346,-0.006411814799271914,-0.0015871404165206109
1765410380.831992,-9.918607957617255,-0.07160828350815776,0.3445965533329385,-0.00983720818479055,-0.006397428281718476,-0.001426654886972089
1765410380.832192,-9.916305896368128,-0.0749303257544691,0.3461626200654238,-0.009665566113290646,-0.006385474823192097,-0.001255293086375125
1765410380.832392,-9.915088718658385,-0.07750739960766916,0.3479264015294613,-0.009475460352003605,-0.006375272154176564,-0.001075622825286811
1765410380.832592,-9.91497719351276,-0.07930462056386199,0.34983996092248465,-0.009269718383927586,-0.006365958435394065,-0.0008904418633278369
1765410380.832792,-9.915955659015774,-0.08028988557165453,0.3518471700728353,-0.009051403525164101,-0.006356566290115029,-0.0007027976719747412
1765410380.832992,-9.917973865241233,-0.08043605016929073,0.3538866197557308,-0.008823845250508616,-0.006346106851246281,-0.0005159761808784764
1765410380.833222,-9.920950032208768,-0.07972389000305988,0.3558944817955256,-0.008590635549681766,-0.006333660379229044,-0.0003334544031739763
1765410380.833422,-9.924774858768526,-0.07814557393980417,0.35780714595085467,-0.008355586724661782,-0.006318469764576632,-0.00015881766472978883
1765410380.833622,-9.929316132011712,-0.07570825963134961,0.35956344720594874,-0.00812265262345976,-0.0063000307944135435,4.3527183916948094e-06
1765410380.833822,-9.934423561166188,-0.07243736059235632,0.3611063289309354,-0.007895821030028253,-0.006278171240413238,0.00015261135256598604
1765410380.834022,-9.939933568964786,-0.06837905126092438,0.3623839241000142,-0.00767898856633245,-0.00625311113940905,0.0002827876438487203
1765410380.834171,-9.94567395182413,-0.06360166499698318,0.36335019377799893,-0.007475830672042269,-0.006225498920898174,0.0003921187762321184
1765410380.834371,-9.951468450378878,-0.05819576629175824,0.3639653400570719,-0.0072896783917095745,-0.006196421322010942,0.0004783660689310947
1765410380.834571,-9.957141324801874,-0.0522728062440133,0.36419622168891624,-0.007123411074449564,-0.006167387614467547,0.0005399068655319035
1765410380.834771,-9.962522031846706,-0.045962379092997684,0.364016973231959,-0.006979370486285952,-0.006140288698769559,0.0005757964352479938
1765410380.834971,-9.96745002899278,-0.039408194279456896,0.3634099141749253,-0.006859299171629899,-0.006117329151349459,0.0005857967468549995
1765410380.835128,-9.971779567204395,-0.032762989219755484,0.3623666365394274,-0.0067643053424220195,-0.00610092841079597,0.0005703723036438816
1765410380.835328,-9.975384183159427,-0.02618274042591755,0.3608890376251652,-0.006694856868262774,-0.006093589220667338,0.0005306566811470338
1765410380.835528,-9.978160597432225,-0.01982064281027421,0.35899013675914493,-0.006650805931070571,-0.006097736408609573,0.0004683952636643184
1765410380.835728,-9.98003182979349,-0.01382135269312335,0.3566946475972402,-0.006631442992778208,-0.0061155333050640585,0.00038586929804844335
1765410380.835928,-9.980949401489674,-0.008315906582901609,0.35403926336362845,-0.006635575143812969,-0.006148685736208748,0.00028580463481548725
1765410380.836126,-9.980894477328109,-0.0034175838079834493,0.35107248592807,-0.006661621396412833,-0.006198247580835056,0.00017126686911075656
1765410380.836326,-9.979877832127388,0.0007811555015481943,0.3478538039459693,-0.006707716926370793,-0.0062644478082721855,4.554424877236489e-05
1765410380.836526,-9.977938653266339,0.0042106237935142735,0.34445215137552265,-0.006771818931922746,-0.006346561851866826,-8.79788314913855e-05
1765410380.836726,-9.975142294711667,0.006824777897930364,0.3409436885291022,-0.006851807226158965,-0.006442846349371467,-0.0002259522038116563
1765410380.836926,-9.971577101916578,0.008601068225300173,0.33740896161451905,-0.006945572509925852,-0.006550548229002819,-0.0003651860041353198
1765410380.837143,-9.967350429527341,0.009539350040685405,0.33392954417602316,-0.007051085432459848,-0.00666599179656522,-0.0005027632409120689
1765410380.837343,-9.96258407148232,0.009659990379482978,0.33058442825698886,-0.007166441021047215,-0.006784741999673671,-0.0006361307223540181
1765410380.837543,-9.95740944354009,0.009001379008057449,0.32744657337608907,-0.007289875938323723,-0.006901835819468598,-0.000763162749370518
1765410380.837743,-9.95196287768857,0.007617110077619538,0.3245799842234845,-0.007419759641291975,-0.0070120657119374045,-0.0008821947905730596
1765410380.837943,-9.946381310488825,0.005573087060744487,0.32203753613387837,-0.007554563982994937,-0.007110292015000645,-0.000992026685529809
1765410380.838259,-9.940798561573004,0.0029447128142571634,0.319859655418,-0.007692818306160935,-0.007191758210192386,-0.001091896737479487
1765410380.838459,-9.93534231441421,-0.0001857700173619487,0.318073893122385,-0.007833058062162291,-0.0072523835476577606,-0.0011814296339098776
1765410380.838659,-9.930131760667306,-0.003731747715897293,0.31669529656934553,-0.007973774536943645,-0.0072890104985600945,-0.001260562809994987
1765410380.838859,-9.925275675957005,-0.0076044305442283435,0.3157273012712933,-0.00811337209321686,-0.007299590254655336,-0.0013294578369034533
1765410380.839059,-9.920870623483173,-0.0117146621566585,0.31516280987634093,-0.008250137948631511,-0.00728329775553104,-0.0013884051198770225
1765410380.83912,-9.916999129132288,-0.015974273162845276,0.3149852680061481,-0.008382227871879717,-0.007240574838515195,-0.001437730413263088
1765410380.83932,-9.913727906062018,-0.02029699981187181,0.31516973529237946,-0.008507669333876375,-0.007173102767097087,-0.0014777100541769406
1765410380.83952,-9.911106324679395,-0.02459907062464545,0.31568401785224365,-0.00862438213887719,-0.007083705521666309,-0.0015084998363353275
1765410380.83972,-9.909165297524561,-0.02879960440926858,0.3164899065170817,-0.0087302162178757,-0.006976187729765307,-0.001530081716724143
1765410380.83992,-9.907916696270458,-0.03282096213819706,0.3175445581379982,-0.00882300723944552,-0.006855117130526554,-0.0015422327419778168
1765410380.840222,-9.907353388488106,-0.036589162854522295,0.3188020339597494,-0.008900651403812892,-0.00672556711843417,-0.0015445199070108434
1765410380.840422,-9.907449916914375,-0.04003443351182433,0.3202148875276411,-0.008961199165149824,-0.006592837161318443,-0.0015363221365183174
1765410380.840622,-9.908163746646348,-0.04309194282094366,0.32173556746100224,-0.009002963676001974,-0.00646216924174321,-0.001516877232919146
1765410380.840822,-9.909436976915142,-0.04570276474744641,0.32331745514134336,-0.009024635330395284,-0.006338478699239239,-0.0014853495367911725
1765410380.841022,-9.911198477920031,-0.04781509061088485,0.3249155785854179,-0.009025390397987795,-0.006226115938912533,-0.0014409140045193373
1765410380.841237,-9.91336645654014,-0.0493856503140139,0.3264872096046549,-0.00900498020791785,-0.006128669739179047,-0.0013828527773765572
1765410380.841437,-9.915851407634355,-0.0503812530796212,0.3279925413175664,-0.008963788333554023,-0.006048816633880941,-0.0013106590925020937
1765410380.841637,-9.918559346709934,-0.050780342360812816,0.3293955497575567,-0.00890284658605879,-0.005988218141609523,-0.001224140960290929
1765410380.841837,-9.9213952202874,-0.05057445104195267,0.3306650633004993,-0.008823805428651334,-0.005947467536532406,-0.001123515498863263
1765410380.842037,-9.924266407202383,-0.049769413466928404,0.3317759791925237,-0.00872886017329513,-0.005926087261560692,-0.0010094852450676618
1765410380.842223,-9.927086202569669,-0.048386159731865795,0.33271047635729406,-0.008620640632684083,-0.005922577023120623,-0.0008832895619734101
1765410380.842423,-9.929777156973637,-0.04646092041807119,0.33345905401918374,-0.008502077329076268,-0.005934512556246252,-0.0007467265978475203
1765410380.842623,-9.932274161251309,-0.04404471469892065,0.3340212844313133,-0.008376259874100934,-0.005958694563119998,-0.0006021437367526605
1765410380.842823,-9.934527156915586,-0.041202071349877877,0.3344061986748643,-0.008246301935041944,-0.0059913436840854355,-0.0004523967557733782
1765410380.843023,-9.93650326724881,-0.038009027830035416,0.33463218811524353,-0.008115223639287183,-0.006028331080154316,-0.0003007795774738993
1765410380.843188,-9.93818806479268,-0.034550541478963644,0.3347262986011129,-0.007985858560872154,-0.006065428715869236,-0.00015092758324721368
1765410380.843388,-9.93958569979452,-0.030917496327901594,0.3347228604654119,-0.007860789437733664,-0.006098560993010725,-6.698252205530703e-06
1765410380.843588,-9.940717670563627,-0.02720349307031278,0.33466143605657417,-0.007742313583724274,-0.006124039795937453,0.00012796634880517268
1765410380.843788,-9.941620078725487,-0.023501594815358063,0.3345840494688599,-0.007632435132007476,-0.006138767774328274,0.00024918978844128435
1765410380.843988,-9.942339358670672,-0.01990119267831204,0.3345317277257138,-0.007532878060381161,-0.00614039985326631,0.00035331755212503104
1765410380.84422,-9.94292675320149,-0.016485154828525406,0.3345405942335925,-0.00744511254483642,-0.006127459284204395,0.00043707139620132894
1765410380.84442,-9.94343209148642,-0.013327415577290396,0.3346379566179412,-0.007370387207317356,-0.00609940917203897,0.000497692936720512
1765410380.84462,-9.943897532897065,-0.010491131111336845,0.33483886564637144,-0.007309760862140563,-0.00605668153172188,0.0005330678465317995
1765410380.84482,-9.944351881922715,-0.008027469996534399,0.3351435479646446,-0.007264129325493848,-0.0060006644275038155,0.0005418235983144286
1765410380.84502,-9.94480599971643,-0.005975030976735443,0.3355360549632576,-0.0072342443858818195,-0.00593364569444304,0.0005233962428144488
1765410380.845208,-9.945249787706286,-0.004359812618350824,0.33598439287335125,-0.007220721536075106,-0.005858710731092724,0.00047806411355912504
1765410380.845408,-9.945651129901234,-0.0031956253852295897,0.336442223338809,-0.007224031521877402,-0.005779593048314465,0.00040694762066195386
1765410380.845608,-9.945957026667354,-0.002484845007523007,0.3368520127790297,-0.007244471198403496,-0.005700480419922033,0.0003119747516310832
1765410380.845808,-9.946096978372982,-0.002219433006447457,0.33714937950852636,-0.00728211308386152,-0.005625785908991289,0.00019581279537443384
1765410380.846008,-9.94598847956796,-0.002382160928906978,0.33726831007397085,-0.007336738679026555,-0.005559899308545866,6.176887125383402e-05
1765410380.846209,-9.945544217228212,-0.0029479642674114254,0.33714679244479717,-0.007407765278327315,-0.005506938355863555,-8.633553158387817e-05
1765410380.846409,-9.944680277596575,-0.0038853482549433926,0.3367322824427726,-0.0074941782331955495,-0.005470519644575189,-0.0002443088925726903
1765410380.846609,-9.943324501057552,-0.005157782480175815,0.3359864103859017,-0.007594480362535448,-0.005453565952574654,-0.000407745145087525
1765410380.846809,-9.941424158905914,-0.006725028461465417,0.3348884655352295,-0.007706667585457233,-0.005458159701449763,-0.0005721825801046403
1765410380.847009,-9.938952283214125,-0.008544332752284091,0.3334373705002251,-0.007828235804919884,-0.005485444819044506,-0.0007332582273593778
1765410380.847326,-9.935912156935336,-0.010571426464664557,0.3316520324972675,-0.007956220617794352,-0.005535576948466188,-0.0008868497419556602
1765410380.847526,-9.932339653275323,-0.012761330165402285,0.32957016630640423,-0.008087269522290394,-0.005607725190528869,-0.0010291982925273826
1765410380.847726,-9.928303311406495,-0.01506903394051038,0.3272458881163965,-0.008217744615025297,-0.005700130175836667,-0.0011570093111149538
1765410380.847926,-9.923902195354882,-0.01745014498827072,0.3247464584770152,-0.008343851086550672,-0.005810217310807004,-0.0012675317484852839
1765410380.848126,-9.919261680429202,-0.01986155856577596,0.3221484945115514,-0.008461783954977264,-0.005934754002561664,-0.0013586185920800738
1765410380.848235,-9.914527434689127,-0.022262150570446653,0.31953392414807963,-0.008567883790981562,-0.006070033256057552,-0.001428771052323276
1765410380.848435,-9.90985805849622,-0.024613445917988308,0.3169859838896423,-0.008658791733081773,-0.006212065791916658,-0.001477166930955026
1765410380.848635,-9.905416989839722,-0.026880197224608677,0.31458553902112035,-0.00873159411835498,-0.0063567661609243075,-0.001503671708466665
1765410380.848835,-9.901364254719633,-0.029030815656470196,0.31240785565627477,-0.008783947297416234,-0.006500122887093003,-0.0015088297179126056
1765410380.849035,-9.89784851538404,-0.031037622416210917,0.31051980958528214,-0.008814174036298346,-0.006638347092386163,-0.0014938329182105135
1765410380.849187,-9.894999792495929,-0.03287691180653486,0.308977500493029,-0.008821324979847335,-0.0067679963927969,-0.0014604665836199845
1765410380.849387,-9.89292321191606,-0.03452882752002896,0.30782428695809405,-0.008805202513973284,-0.006886070843724487,-0.0014110338389495577
1765410380.849587,-9.891694067686965,-0.03597708049160797,0.3070892762947194,-0.008766349408893618,-0.006990078696805168,-0.0013482622647339791
1765410380.849787,-9.891354415393595,-0.03720859429244625,0.30678633684533385,-0.008706008667882417,-0.007078074260314213,-0.0012751948952878008
1765410380.849987,-9.891911386551484,-0.03821321320664669,0.30691379338533453,-0.008626062183026553,-0.007148675238597243,-0.0011950667393407458
1765410380.850268,-9.893337400277531,-0.03898359964338326,0.30745501789833857,-0.008528954381633593,-0.007201067544409774,-0.0011111688054415679
1765410380.850468,-9.89557232219163,-0.03951538139600722,0.308380020408925,-0.008417604669994227,-0.007235001822135658,-0.0010267045758641125
1765410380.850668,-9.89852738369617,-0.03980752164121053,0.30964792598106433,-0.00829531046400639,-0.007250782632926357,-0.00094464720645734
1765410380.850868,-9.902090464238313,-0.039862808125805796,0.3112100425145008,-0.008165641386028794,-0.007249250716854845,-0.0008676078201560168
1765410380.851068,-9.906132243726033,-0.03968831457466428,0.31301314765988986,-0.008032324776532101,-0.00723175813966317,-0.0007977253422751781
1765410380.851268,-9.910512724189072,-0.03929568944144384,0.31500262477980273,-0.00789912309777022,-0.007200133308096136,-0.0007365862509814518
1765410380.851468,-9.915087660012475,-0.03870116746359805,0.31712513225039823,-0.00776970535088007,-0.007156630027040302,-0.0006851789397702996
1765410380.851668,-9.919714521868045,-0.03792525494745356,0.3193305895139529,-0.007647517184588267,-0.0071038547891279485,-0.000643883497890046
1765410380.851868,-9.924257731253403,-0.03699209258258371,0.3215733830126811,-0.00753565718138853,-0.00704466921082567,-0.0006124949983979765
1765410380.852068,-9.928593004183643,-0.03592854456628758,0.323812815075969,-0.007436768658619862,-0.006982068444033377,-0.0005902769919726001
1765410380.852211,-9.932610726757575,-0.0347630977345613,0.3260129351890784,-0.007352955968022967,-0.0069190405891369116,-0.0005760407885499624
1765410380.852411,-9.936218360588414,-0.03352468139416474,0.32814198381190884,-0.00728573125943603,-0.006858415978098487,-0.0005682445188190324
1765410380.852611,-9.939341933863219,-0.03224154493189896,0.33017170250602584,-0.007235993197187137,-0.006802718037236031,-0.0005651045778511063
1765410380.852811,-9.941926700612065,-0.03094034450012348,0.3320767073115619,-0.007204035418307372,-0.0067540290068573375,-0.0005647121537876283
1765410380.853011,-9.94393704777007,-0.029645556061258935,0.3338340187226731,-0.007189580869693718,-0.006713883778090439,-0.0005651492979485691
1765410380.853235,-9.945355714259247,-0.028379242120831934,0.3354227477181802,-0.0071918379573348915,-0.00668320293186732,-0.0005646011425855564
1765410380.853435,-9.946182397730993,-0.027161108072256804,0.3368239075072045,-0.007209574379679227,-0.006662272022144174,-0.0005614620822790615
1765410380.853635,-9.94643190149864,-0.026008749252454888,0.3380203724820449,-0.0072412039535622395,-0.006650769509233627,-0.0005544334938114971
1765410380.853835,-9.946132090129149,-0.024938006702993502,0.3389970833945786,-0.007284880859051343,-0.00664784097867218,-0.0005426090218614997
1765410380.854035,-9.945321980800909,-0.023963374037500523,0.3397416131511238,-0.007338595021663995,-0.006652211858686657,-0.0005255413060579893
1765410380.854256,-9.944050236586127,-0.02309840481229124,0.34024514177996956,-0.007400262135454467,-0.006662325389074269,-0.0005032825449519231
1765410380.854456,-9.942374183135447,-0.022356062896382107,0.340503794581308,-0.007467802148773764,-0.006676489082610287,-0.0004763916261254202
1765410380.854656,-9.940359299480178,-0.0217489497102872,0.34052019419458596,-0.007539200993299216,-0.006693012558310904,-0.00044590290362915466
1765410380.854856,-9.938078950875406,-0.021289344768075726,0.34030494229516844,-0.00761255236965789,-0.006710322076672621,-0.0004132556687965825
1765410380.855056,-9.935613973681004,-0.020989016109890592,0.3398776283374033,-0.007686079755008766,-0.00672704174773813,-0.0003801885752802882
1765410380.855218,-9.933051688204245,-0.020858787865108946,0.3392669809015593,-0.007758142634566205,-0.006742037729625875,-0.0003486087782586765
1765410380.855418,-9.930484048350179,-0.020907885114134554,0.3385099548577574,-0.007827233639422353,-0.006754428681503652,-0.0003204491605032208
1765410380.855618,-9.9280048419739,-0.021143114413576625,0.3376497612388199,-0.007891974000621553,-0.0067635718044458636,-0.00029752715173241175
1765410380.855818,-9.925706027373264,-0.021567983010740373,0.33673300115798566,-0.007951114239797807,-0.00676903803241922,-0.0002814162967929281
1765410380.856018,-9.923673441765528,-0.022181892795088802,0.33580619505707093,-0.008003546111678205,-0.006770591222452078,-0.00027333915733015346
1765410380.856204,-9.921982278907311,-0.022979536534924672,0.33491212635192236,-0.008048329980950638,-0.006768182734207973,-0.00027408812782464434
1765410380.856404,-9.920692824152662,-0.02395056295183505,0.33408644865550013,-0.008084738080819658,-0.006761964313910906,-0.0002839785108723498
1765410380.856604,-9.91984686292446,-0.025079496863564556,0.3333548789634126,-0.008112309005730994,-0.006752312233309606,-0.00030283525097691416
1765410380.856804,-9.919465007798973,-0.026345859519263225,0.332731133540281,-0.0081309045416981,-0.006739849424855525,-0.0003300115990286581
1765410380.857004,-9.919545074425749,-0.02772445757479247,0.3322157022195976,-0.008140758208267826,-0.006725452154824593,-0.0003644354020305094
1765410380.857203,-9.920061615566665,-0.029185860250863286,0.3317955728039539,-0.008142505531965794,-0.0067102314177327005,-0.0004046771607936271
1765410380.857403,-9.92096670761798,-0.03069710596738191,0.3314449978157667,-0.008137188303965615,-0.006695483678745982,-0.0004490337089289734
1765410380.857603,-9.922192028746323,-0.0322226491276266,0.33112732916320353,-0.008126228466679295,-0.006682610154348553,-0.0004956220188727623
1765410380.857803,-9.92365220787959,-0.03372549523183928,0.3307978806997929,-0.008111371264503588,-0.006673008748714453,-0.0005424782490393066
1765410380.858003,-9.925249354792777,-0.035168421253160574,0.33040768386118513,-0.008094600877434625,-0.006667947003392872,-0.0005876568959691796
1765410380.858209,-9.92687854861058,-0.03651517535333268,0.32990783276410773,-0.008078034031487746,-0.006668427145599044,-0.0006293242404176736
1765410380.858409,-9.928433901656367,-0.037731592957165494,0.32925396383129374,-0.0080637978790707,-0.006675056494729416,-0.0006658406009811375
1765410380.858609,-9.929814760064692,-0.03878660985175993,0.3284104249298415,-0.008053898469832937,-0.006687938603259438,-0.0006958277651794385
1765410380.858809,-9.930931689151043,-0.039653162259762086,0.3273538411460349,-0.008050086445031857,-0.006706600905924633,-0.0007182200449213434
1765410380.859009,-9.9317119920574,-0.04030895329614081,0.32607591729565955,-0.008053727794232263,-0.006729971902301489,-0.0007322983711389012
1765410380.859231,-9.932104502531812,-0.040737064793673596,0.32458534341492845,-0.008065689302418922,-0.006756415826813901,-0.0007377071735535414
1765410380.859431,-9.932083297581016,-0.040926403023504226,0.3229086356966231,-0.008086249671510394,-0.006783826717949776,-0.0007344547149819747
1765410380.859631,-9.931649896668205,-0.040871971099513106,0.3210897158457997,-0.008115047283053114,-0.006809777029773348,-0.0007228991025518858
1765410380.859831,-9.930833541055629,-0.040574963058448585,0.3191880508445224,-0.008151073774555496,-0.0068317089880601195,-0.0007037233613430852
1765410380.860031,-9.929689327973595,-0.040042688943642504,0.3172753079933001,-0.008192718756202276,-0.006847151625335522,-0.0006779031990394483
1765410380.86021,-9.928294281040573,-0.03928836538524055,0.3154307448867068,-0.008237864925399066,-0.00685394393936856,-0.0006466707358335991
1765410380.86041,-9.926741744331192,-0.03833082405882624,0.3137358306839031,-0.00828402560132823,-0.006850443926486867,-0.0006114765901170576
1765410380.86061,-9.92513466401953,-0.0371941861492718,0.31226872395330846,-0.008328510859184872,-0.006835703310624916,-0.0005739507497309143
1765410380.86081,-9.923578363143724,-0.035907522689800866,0.3110991824820965,-0.00836860601220844,-0.006809589271380778,-0.000535859665421164
1765410380.86101,-9.92217340497793,-0.03450447334494765,0.31028433073667167,-0.008401746650220922,-0.006772838236639754,-0.0004990544360916957
1765410380.86125,-9.921009111200274,-0.03302274364334155,0.309865523142326,-0.008425675680486744,-0.0067270326191199966,-0.00046540475027621403
1765410380.86145,-9.920158217036695,-0.03150337437934564,0.30986635868647,-0.008438569129122818,-0.006674499136083156,-0.00043671630279857264
1765410380.86165,-9.91967300341991,-0.029989708282250793,0.3102917966382278,-0.008439120631772292,-0.006618137190236466,-0.00041463488124959076
1765410380.86185,-9.919583089384123,-0.028526062279870926,0.3111283190637778,-0.00842658099423317,-0.006561195765379095,-0.00040054586700249045
1765410380.86205,-9.919894917072634,-0.027156203781653544,0.312345100347714,-0.008400757129888551,-0.006507023542971843,-0.00039548094521612296
1765410380.863178,-9.920592819519033,-0.025921780047492526,0.313896104410731,-0.008361980360273536,-0.006458817484642705,-0.00040004348134658
1765410380.863378,-9.921641459743162,-0.024860841062934364,0.3157229676997266,-0.008311055227685705,-0.006419391586464701,-0.0004143615699541047
1765410380.863578,-9.9229893903288,-0.024006542216907862,0.31775848564831616,-0.008249197272721208,-0.006390982735246501,-0.00043807488044025395
1765410380.863778,-9.924573464726967,-0.02338605685510964,0.3199304940492717,-0.008177964476138869,-0.006375106310630564,-0.00047035854805712094
1765410380.863978,-9.926323791051722,-0.023019707887815228,0.32216592623226187,-0.008099184940427311,-0.006372470917094958,-0.0005099838888363125
1765410380.863267,-9.928168873641518,-0.02292033434653222,0.3243948524995942,-0.008014883235137498,-0.006382958721252988,-0.0005554112989285549
1765410380.863467,-9.930040564419098,-0.023092912295329927,0.32655433255080896,-0.00792720813029941,-0.006405673373773977,-0.0006049059688485235
1765410380.863667,-9.931878431366806,-0.02353444302187707,0.32859186506351407,-0.007838364286786127,-0.006439050322220066,-0.0006566633179341522
1765410380.863867,-9.933633144854225,-0.024234113967850832,0.33046811835955964,-0.0077505501394745996,-0.006481016509877947,-0.0007089296078089465
1765410380.864067,-9.935268535354712,-0.025173724268799397,0.33215858344510096,-0.007665903710818084,-0.0065291815474036825,-0.0007601046827794576
1765410380.864212,-9.936762125622225,-0.02632834103670397,0.3336538822943486,-0.00758645694922214,-0.006581041699028464,-0.0008088176962947161
1765410380.864412,-9.938104153350423,-0.027667126120073694,0.33495865096789607,-0.007514097510875245,-0.006634179636526662,-0.0008539713377170705
1765410380.864612,-9.939295310520029,-0.029154258198965072,0.3360891031855793,-0.007450535644040492,-0.006686444637118942,-0.0008947539216042869
1765410380.864812,-9.940343590466677,-0.030749874757835135,0.33706951738704566,-0.007397274032909935,-0.006736099415429443,-0.0009306215518249728
1765410380.865012,-9.941260738447895,-0.03241097755053118,0.3379280071440661,-0.0073555803046325445,-0.006781922500280375,-0.0009612551157278501
1765410380.865252,-9.942058837276601,-0.03409228315517963,0.33869206155123766,-0.007326464199158377,-0.006823259922032916,-0.000986499487736161
1765410380.865452,-9.942747509563054,-0.035747040991861975,0.3393844353807317,-0.0073106623087910595,-0.006860025742999837,-0.0010062947616825868
1765410380.865652,-9.943332070170486,-0.03732787207661848,0.34001994687679715,-0.007308631975165975,-0.006892655635977346,-0.0010206108552521214
1765410380.865852,-9.943812748779639,-0.0387877042889932,0.34060358439158206,-0.00732055334840792,-0.006922020966545578,-0.0010293965530970026
1765410380.866052,-9.944184905638584,-0.040080885581325866,0.34113009138678085,-0.007346336638045585,-0.006949313487730132,-0.0010325515113304934
1765410380.866243,-9.944440055180076,-0.04116452287278537,0.341584969752785,-0.007385631299626201,-0.006975912557306149,-0.0010299253075342612
1765410380.866443,-9.944567498271825,-0.04200002262015107,0.3419466713760739,-0.007437834915984434,-0.007003246623917915,-0.0010213423999952977
1765410380.866643,-9.944556397302543,-0.04255473536464355,0.34218966282180674,-0.0075021008611456455,-0.007032658467027323,-0.0010066472477335282
1765410380.866843,-9.944398145286941,-0.042803562559504925,0.34228801777170303,-0.007577344890821552,-0.00706528061285594,-0.000985760875952834
1765410380.867043,-9.944088833389047,-0.042730374574567236,0.3422191584100263,-0.007662251634495641,-0.00710192537935108,-0.0009587392051001203
1765410380.867177,-9.943631525510792,-0.04232910626849203,0.3419673274151853,-0.007755282861901882,-0.0071429945748895645,-0.0009258243614100855
1765410380.867377,-9.943037986469792,-0.04160442686906084,0.34152638240114847,-0.007854690072376148,-0.007188416759253635,-0.0008874824594588307
1765410380.867577,-9.942329548888857,-0.040571909023678195,0.34090158831131584,-0.007958533552906159,-0.007237622615768818,-0.000844424173821401
1765410380.867777,-9.941536927222229,-0.03925765231548197,0.34011021071327585,-0.008064708640140555,-0.007289567922136958,-0.0007976070753539848
1765410380.867977,-9.940698944796813,-0.037697364716134045,0.3391808676639985,-0.008170978915784105,-0.007342807468296616,-0.0007482208217695639
1765410380.868217,-9.939860306944137,-0.035934960750142596,0.3381517761773861,-0.00827501620602931,-0.0073956139308242585,-0.0006976574896956272
1765410380.868467,-9.939068701122576,-0.03402076890243727,0.33706818017965046,-0.008374447559731471,-0.007446126488010852,-0.0006474692890546198
1765410380.868717,-9.93837158179947,-0.032009451706571476,0.33597930634287027,-0.008466908891552776,-0.007492507970916056,-0.0005993149055161541
1765410380.868967,-9.937812994406857,-0.029957753591940396,0.3349351769294328,-0.008550104042634276,-0.007533088921872434,-0.0005548946680476877
1765410380.86922,-9.937430750367493,-0.027922209344493652,0.33398357301226494,-0.008621867238050281,-0.0075664820056232695,-0.0005158746100740369
1765410380.86942,-9.93725419046053,-0.025956953670505226,0.3331673819423628,-0.008680226358113437,-0.007591657897677469,-0.0004838010318532768
1765410380.86962,-9.937302636295362,-0.024111759969816623,0.33252244073126636,-0.00872346424971001,-0.007607981204286342,-0.00046001022499744814
1765410380.86982,-9.93758446086082,-0.022430402835890074,0.33207583794597345,-0.008750175945217946,-0.007615211168963185,-0.0004455408563912446
1765410380.87002,-9.938096603761293,-0.020949388978956127,0.33184454865899093,-0.008759321022875945,-0.007613476125278189,-0.00044105720261026745
1765410380.870216,-9.938824370355256,-0.019697061853242187,0.33183429432982026,-0.00875027146803193,-0.0076032314693096825,-0.0004467902289273485
1765410380.870416,-9.93974146573387,-0.018693084857650963,0.3320386337414591,-0.00872285517945332,-0.007585208320343226,-0.0004625022215067126
1765410380.870616,-9.94081035919318,-0.017948329981888188,0.3324384542222002,-0.008677393508342757,-0.007560356420837273,-0.0004874797220489968
1765410380.870816,-9.941983166847661,-0.017465198891892988,0.33300214577043225,-0.008614729384451743,-0.007529782955245871,-0.0005205575012315377
1765410380.871016,-9.94320322343014,-0.017238371752065364,0.3336867210527347,-0.00853624276861094,-0.0074946893108648474,-0.000560172603269078
1765410380.871249,-9.944407418705687,-0.01725593890899624,0.33444000893140585,-0.008443852218290786,-0.007456308503059154,-0.0006044435704686506
1765410380.871449,-9.945529263433576,-0.01750083310487436,0.33520386936024305,-0.008340002296067822,-0.007415845260113252,-0.0006512678372459561
1765410380.871649,-9.946502528044677,-0.01795244243215531,0.33591818609875024,-0.008227634449260923,-0.007374418899945602,-0.0006984302909504292
1765410380.871849,-9.947265142665392,-0.01858825339124624,0.33652521371486416,-0.008110135858518119,-0.0073330080893497535,-0.0007437165465472849
1765410380.872049,-9.947762920574412,-0.019385360898717938,0.33697376641136917,-0.00799126007472646,-0.007292397930118212,-0.0007850239848385313
1765410380.872215,-9.94795267296064,-0.020321693581426683,0.33722280534419086,-0.007875015989179281,-0.007253133211220171,-0.0008204622018783194
1765410380.872415,-9.947804419944127,-0.02137684026055508,0.337244140819589,-0.00776552611899638,-0.007215485149144278,-0.0008484340030563132
1765410380.872615,-9.947302565889196,-0.022532424034463653,0.3370240832178063,-0.007666859610523342,-0.007179440716068314,-0.0008676901855803822
1765410380.872815,-9.946446048269234,-0.023772041880598525,0.3365639541339007,-0.007582849295037657,-0.0071447233072081135,-0.0008773559335264756
1765410380.873015,-9.94524763606085,-0.02508085401690393,0.3358795280233119,-0.007516905389088517,-0.007110850988390566,-0.000876931705802276
1765410380.873233,-9.943732733805025,-0.026444949923955685,0.33499970745274116,-0.007471840108118122,-0.007077232822469083,-0.0008662751311680702
1765410380.873433,-9.941938108745212,-0.027850623326192633,0.333964849926782,-0.007449716741577852,-0.007043294423192108,-0.0008455719627845801
1765410380.873633,-9.9399108146416,-0.029283666359377635,0.3328250432313868,-0.007451734227640189,-0.007008614215211076,-0.0008153034246711786
1765410380.873833,-9.937707335349101,-0.030728770514972904,0.3316383941574032,-0.007478155369311376,-0.006973047134540171,-0.00077621438111316
1765410380.874033,-9.935392786897562,-0.03216910738725685,0.330469242581663,-0.007528283944545011,-0.006936814611840053,-0.0007292829040267285
1765410380.874203,-9.933039949682074,-0.03358613967328146,0.3293861631740811,-0.0076004923550551055,-0.006900545939622158,-0.0006756891455122314
1765410380.874403,-9.930727885267935,-0.03495967615593802,0.328459589584537,-0.007692297076750387,-0.006865263349439314,-0.0006167810937151136
1765410380.874603,-9.928539908481836,-0.03626815441043261,0.32775891209877045,-0.007800475419235218,-0.006832310609540987,-0.0005540359781179201
1765410380.874803,-9.926560804605694,-0.03748913069588282,0.3273490523921752,-0.007921215154394078,-0.006803232556136236,-0.0004890173873024924
1765410380.875003,-9.924873400843412,-0.03859996320681876,0.3272867571311242,-0.008050287848483101,-0.006779618972719864,-0.00042332918092745765
1765410380.875234,-9.923554783483961,-0.039578661179468975,0.3276169924408776,-0.008183235995901901,-0.0067629293121192055,-0.0003585681573584891
1765410380.875434,-9.922672495701093,-0.0404048360834521,0.32836979939112776,-0.008315563432246055,-0.00675431625137217,-0.00029627772863910143
1765410380.875634,-9.922281011323255,-0.04106066096760996,0.3295578967143256,-0.008442919149568214,-0.006754467559365627,-0.00023790417930421074
1765410380.875834,-9.922418736737164,-0.0415317367584121,0.33117525288568433,-0.00856126658872057,-0.006763485894811623,-0.0001847561642445108
1765410380.876034,-9.923105713741426,-0.04180777366852135,0.33319672872582595,-0.008667032308978058,-0.006780822603543712,-0.0001379679012516191
1765410380.876241,-9.924342053150838,-0.04188301735673669,0.33557871537952966,-0.008757228923565124,-0.006805274483746347,-9.84669970940223e-05
1765410380.876441,-9.926107037340476,-0.04175638078134315,0.3382606062985718,-0.008829548401318573,-0.006835043661038405,-6.6948380743571e-05
1765410380.876641,-9.92835890151166,-0.04143127068211592,0.3411670065458935,-0.008882423989976683,-0.006867851668010664,-4.385615240920341e-05
1765410380.876841,-9.931035443324973,-0.040915115414672056,0.3442106468761424,-0.008915060839376432,-0.006901091679009391,-2.9375242172216866e-05
1765410380.877041,-9.934055632699991,-0.04021862508050792,0.3472959066393312,-0.008927435564309789,-0.006932000703259437,-2.343429953441865e-05
1765410380.877293,-9.937322279239087,-0.03935486323856646,0.35032275744562563,-0.008920264490941947,-0.006957836939031661,-2.5720232392672242e-05
1765410380.877493,-9.940725685354272,-0.03833827033793487,0.35319094865552975,-0.00889494129576504,-0.006976052232933706,-3.570417150560516e-05
1765410380.877693,-9.944148109200567,-0.037183816629667424,0.3558042877450612,-0.008853447582723085,-0.006984450963561632,-5.2679091898082556e-05
1765410380.877893,-9.947468734835095,-0.035906445934393225,0.35807478454708536,-0.00879824296107347,-0.006981325167604179,-7.581010248260473e-05
1765410380.878093,-9.95056873993395,-0.0345208984949769,0.35992630283400123,-0.008732142627495347,-0.006965555964482286,-0.00010419765373774805
1765410380.878447,-9.953336095703696,-0.033041903287359536,0.36129740752656164,-0.00865819027607926,-0.006936675686290588,-0.0001369507403314456
1765410380.878647,-9.955669938052917,-0.031484656383925745,0.36214334218179617,-0.008579533520847681,-0.006894890831510898,-0.00017326309137801399
1765410380.878847,-9.95748452415944,-0.029865477706672448,0.36243729510972206,-0.0084993083243018,-0.006841069019987705,-0.00021248290113360104
1765410380.879047,-9.958712763399497,-0.028202545315051102,0.3621711149415217,-0.008420537454195078,-0.0067766930734522715,-0.00025416697621658544
1765410380.879247,-9.959309148752332,-0.026516608610445372,0.36135548197072864,-0.008346045465119916,-0.006703785162268657,-0.0002981124408524015
1765410380.879233,-9.959251819720727,-0.024831566793769085,0.36001944018043514,-0.008278389934402997,-0.006624806129173208,-0.0003443619345306796
1765410380.879433,-9.958543552929443,-0.023174786293862375,0.3582092336731098,-0.008219806571200382,-0.006542538786945764,-0.0003931805779795971
1765410380.879633,-9.957211612583238,-0.02157704788954032,0.3559864770143753,-0.00817216480197225,-0.006459965971349541,-0.0004450048201283108
1765410380.879833,-9.955306491656737,-0.020072064473123048,0.3534257219203896,-0.008136930798958747,-0.0063801522187765325,-0.0005003655699071339
1765410380.880033,-9.952899636021261,-0.018695571931708996,0.35061149379674694,-0.008115136694570925,-0.006306133238143447,-0.0005597915141846298
1765410380.880202,-9.950080320487851,-0.017484046720916115,0.3476349529089409,-0.008107357134814617,-0.006240813009597728,-0.000623702259473665
1765410380.880402,-9.946951936331695,-0.016473135997615074,0.34459047519963915,-0.008113695873928345,-0.006186866569129056,-0.0006923029998676038
1765410380.880602,-9.943627989669235,-0.015695898023546866,0.34157250994005955,-0.008133784837562618,-0.006146647304946155,-0.0007654921799940807
1765410380.880802,-9.940228047380582,-0.015180948040746876,0.33867295175880496,-0.008166796608674094,-0.006122099471088122,-0.0008427919163062849
1765410380.881002,-9.936873727633365,-0.014950605383418754,0.3359790215184558,-0.008211470069963756,-0.0061146781531334835,-0.0009233083773361896
1765410380.881231,-9.933684708009816,-0.01501915638837764,0.333571446035865,-0.008266148612059382,-0.006125279677780718,-0.0010057260180303933
1765410380.881431,-9.93077469383174,-0.015391378327422078,0.33152266940136815,-0.008328830405359271,-0.006154185947016551,-0.001088336181974037
1765410380.881631,-9.928247339742887,-0.0160614828500494,0.32989489658653803,-0.008397230041298902,-0.006201026659237108,-0.001169098096443409
1765410380.881831,-9.926192173164717,-0.017012607541629598,0.3287378805423266,-0.008468850105246806,-0.006264763693582082,-0.0012457285585936511
1765410380.882031,-9.924680608244122,-0.018216921068497677,0.32808649423003367,-0.008541060139606812,-0.0063437022440943494,-0.0013158145846213455
1765410380.882207,-9.923762236184086,-0.019636347839239704,0.32795831591414615,-0.00861117950369745,-0.0064355334093875475,-0.0013769407640476959
1765410380.882407,-9.923461763301573,-0.021223880312008253,0.32835166180023484,-0.008676560414421195,-0.006537411296099162,-0.0014268212364907848
1765410380.882607,-9.923777114399151,-0.022925415699953836,0.3292445669728708,-0.008734668253491023,-0.00664606309759153,-0.0014634262891672217
1765410380.882807,-9.92467916183986,-0.024682015202526695,0.33059504479870616,-0.008783157760898712,-0.0067579250845507385,-0.0014850954408226179
1765410380.883007,-9.926113293393602,-0.026432449355700455,0.33234267319065386,-0.008819945045113612,-0.006869294958686357,-0.0014906312884053077
1765410380.883277,-9.928002769154732,-0.028115879678370325,0.33441138419008964,-0.008843275382339214,-0.006976492738149503,-0.0014793701449801644
1765410380.883477,-9.930253644050936,-0.029674533711127035,0.33671330603034627,-0.008851785604364339,-0.007076025001553106,-0.0014512262095297006
1765410380.883677,-9.932760881683011,-0.031056240546263287,0.33915345200500685,-0.008844558835822773,-0.007164747071791315,-0.001406706114555676
1765410380.883877,-9.935415088077109,-0.032216691131491955,0.3416348681862044,-0.00882116939097962,-0.0072400142323280105,-0.0013468912619064596
1765410380.884077,-9.938109131560775,-0.0331212779257732,0.34406367642568075,-0.008781716201569624,-0.00729980953170734,-0.001273387493242623
1765410380.884207,-9.940743922741614,-0.03374638194625942,0.34635345807472667,-0.008726843087737798,-0.0073428356264194404,-0.0011882453745575847
1765410380.884407,-9.943232814963162,-0.03408003219715464,0.34842860262761327,-0.008657742914516677,-0.00736856181668824,-0.001093858530085156
1765410380.884607,-9.945504337599541,-0.03412193989501639,0.35022644182612517,-0.008576140626979247,-0.007377222222579562,-0.000992850884431111
1765410380.884807,-9.947503211284282,-0.03388296585908399,0.35169813582329484,-0.00848424920821046,-0.007369764713767712,-0.0008879655499099973
1765410380.885007,-9.949189825672082,-0.03338410572415735,0.35280843925106375,-0.008384694942620785,-0.007347753421149494,-0.0007819671644058487
1765410380.8853,-9.950538583997261,-0.032655097558053514,0.3535346760541431,-0.008280413809584782,-0.0073132319595836355,-0.0006775646567012459
1765410380.8855,-9.951535642520687,-0.031732777971253116,0.35386536725183376,-0.00817452641494209,-0.007268559361364482,-0.0005773539403146612
1765410380.8857,-9.952176513628237,-0.030659317159026464,0.35379886528365057,-0.008070201942137428,-0.007216234346691102,-0.0004837738115018819
1765410380.8859,-9.952463823944715,-0.02948043635600668,0.3533421369337874,-0.007970522150879846,-0.007158725271982315,-0.00039906672128985283
1765410380.8861,-9.952405385036094,-0.028243662253325252,0.35250970597569686,-0.007878355631887265,-0.00709832282195367,-0.00032523875295220833
1765410380.886246,-9.952012702733366,-0.026996626039936918,0.3513227683292185,-0.007796250574704028,-0.007037029028225527,-0.000264017031284144
1765410380.886446,-9.951300023444402,-0.025785393055261778,0.34980848852957575,-0.007726351089085715,-0.006976488984809853,-0.00021680582299271516
1765410380.886646,-9.950283916361174,-0.02465282371031629,0.3479993983672729,-0.007670338539449908,-0.006917963790131753,-0.00018464466569074374
1765410380.886846,-9.948983298478142,-0.02363701141954344,0.3459327698580474,-0.0076293967435527394,-0.006862339267207158,-0.00016817305715466607
1765410380.887046,-9.947419829372404,-0.022769895973700074,0.34364994688255307,-0.007604198481640825,-0.006810165105020205,-0.00016760605140133406
1765410380.887188,-9.945618678756171,-0.02207617830534708,0.3411957822167426,-0.0075949099279903785,-0.006761718646911412,-0.00018272373614073507
1765410380.887388,-9.94360964802402,-0.021572643610438074,0.3386183259163579,-0.00760120961056108,-0.006717083717371082,-0.00021287623934379324
1765410380.887588,-9.94142848089139,-0.021267944375898195,0.3359687394610314,-0.0076223204159310345,-0.006676230706670294,-0.00025700542435668416
1765410380.887788,-9.939118071444614,-0.021162833067629713,0.33330126715514663,-0.007657056472423501,-0.006639084521558789,-0.0003136841012405244
1765410380.887988,-9.93672928132729,-0.021250787617680296,0.33067308781202975,-0.007703888567871203,-0.006605572051620685,-0.00038117227803373383
1765410380.888226,-9.934321154638607,-0.021518946684358633,0.32814389460685467,-0.007761029359166396,-0.006575646031008248,-0.0004574878498346187
1765410380.888426,-9.931960373724538,-0.021949263919910214,0.32577503032952637,-0.007826533114586172,-0.006549284900167931,-0.000540487403813171
1765410380.888626,-9.929719857745615,-0.022519795485432783,0.323628034950165,-0.00789839741017569,-0.006526470437786761,-0.000627951874530073
1765410380.888826,-9.92767653816014,-0.023206045372122248,0.3217626296612838,-0.007974650715239237,-0.006507148726407786,-0.0007176708862266252
1765410380.889026,-9.925908491778342,-0.023982303307802683,0.32023435049247156,-0.008053412790763327,-0.006491183869897962,-0.0008075189361162453
1765410380.889261,-9.92449163979709,-0.02482291304324856,0.31909207219282953,-0.008132922747450757,-0.006478315082844456,-0.0008955175000459134
1765410380.889461,-9.92349613574807,-0.025703398662176555,0.31837554480868785,-0.00821153834288444,-0.0064681264402357014,-0.0009798801772102237
1765410380.889661,-9.922982521913022,-0.026601367254116482,0.3181129955738744,-0.008287716652831647,-0.006460036505830648,-0.0010590418912455526
1765410380.889861,-9.922997816433341,-0.027497126611954394,0.318318923989339,-0.008359990116883481,-0.006453312546695556,-0.0011316762390302757
1765410380.890061,-9.923571809709042,-0.028374010131036766,0.3189923225353053,-0.00842695313240185,-0.006447110224149569,-0.0011967061861644867
1765410380.890228,-9.924713880572254,-0.02921845511980601,0.3201155502194432,-0.008487271851798952,-0.006440534831404268,-0.0012533120496754163
1765410380.890428,-9.926410594800046,-0.030019906357051495,0.32165398680516066,-0.008539722980223444,-0.006432716207395445,-0.0013009376666297866
1765410380.890628,-9.928624304298308,-0.030770616365295617,0.32355651619655285,-0.008583257890198098,-0.006422888131165203,-0.0013392924196396947
1765410380.890828,-9.93129296788056,-0.03146540233428568,0.3257568913299922,-0.008617079991944936,-0.0064104640366981986,-0.0013683451902472608
1765410380.891028,-9.93433142354879,-0.03210139951816338,0.32817607209121874,-0.008640719319149311,-0.006395102275644992,-0.001388307096461314
1765410380.891261,-9.937634271524493,-0.03267781759606893,0.3307255920887903,-0.008654089586635546,-0.006376754636583822,-0.0013996022387617066
1765410380.891461,-9.941080327652221,-0.03319566695996812,0.3333118411292358,-0.008657517923611732,-0.0063556923399746765,-0.0014028280854262317
1765410380.891661,-9.944538341560827,-0.033657398630150534,0.33584092767413976,-0.008651743338282518,-0.006332505656732498,-0.001398708513792424
1765410380.891861,-9.947873491088632,-0.034066415096776846,0.33822366960911476,-0.008637884705322582,-0.006308076317576646,-0.0013880429561827431
1765410380.892061,-9.950954149226991,-0.034426457731493824,0.34038031857938045,-0.008617382365658456,-0.006283524458853116,-0.0013716553950483483
1765410380.892171,-9.953658497212874,-0.03474093192901772,0.3422447389811108,-0.008591919693328698,-0.006260133363483566,-0.0013503474380761366
1765410380.892371,-9.95588059556358,-0.03501226077544068,0.34376778569897065,-0.008563331905509189,-0.006239256610762233,-0.0013248596101053782
1765410380.892571,-9.957535515177302,-0.0352413500806646,0.34491957803948947,-0.008533508451240327,-0.006222214477860101,-0.0012958436727579538
1765410380.892771,-9.958563187996743,-0.03542722056641641,0.34569042574510467,-0.008504293211826714,-0.006210189423827642,-0.001263846976376621
1765410380.892971,-9.958930814605301,-0.035566843377695875,0.34609039259869867,-0.008477385211905589,-0.006204132969650468,-0.0012293088121688124
1765410380.893303,-9.958633852921444,-0.0356552071186249,0.3461477171825185,-0.008454242879240114,-0.006204696555854852,-0.0011925684836147545
