time,acc_x_g,acc_y_g,acc_z_g,gyro_x_rad_s,gyro_y_rad_s,gyro_z_rad_s
1765410586.416959,-0.010163,-9.437469,1.443089,0.652404,0.004581,-0.005803
1765410586.417209,-9.630558,1.535150,2.730751,-0.004276,-0.004123,-0.001680
1765410586.417459,-9.538497,1.493304,2.584887,-0.008094,-0.006261,-0.002749
1765410586.417709,-9.410568,1.520803,2.502391,-0.008858,-0.006261,-0.001833
1765410586.417901,-9.410568,1.518412,2.503587,-0.010843,-0.006872,-0.002443
1765410586.418101,-9.464370,1.474175,2.595050,-0.009468,-0.007789,-0.002596
1765410586.418301,-9.526542,1.527977,2.699665,-0.008247,-0.005803,-0.000611
1765410586.418501,-9.400406,1.551889,2.527498,-0.006567,-0.004276,-0.000611
1765410586.418701,-9.378884,1.561454,2.424677,-0.008552,-0.006261,0.001222
1765410586.418993,-9.471543,1.571616,2.547824,-0.008858,-0.006720,0.000000
1765410586.419193,-9.592896,1.602104,2.648852,-0.005956,-0.003818,0.005345
1765410586.419393,-9.570181,1.475371,2.503587,-0.007789,-0.001833,0.008705
1765410586.419593,-9.420133,1.255380,2.346963,-0.007789,0.001222,0.008705
1765410586.419793,-9.353777,1.266140,2.309899,-0.003360,0.004429,0.010232
1765410586.420024,-9.593494,1.368962,2.553802,-0.003512,0.006414,0.010537
1765410586.420274,-9.739358,1.391678,2.543041,0.001222,0.009621,0.015577
1765410586.420524,-9.621591,1.291248,2.112625,0.000916,0.018173,0.020006
1765410586.420774,-9.409372,1.074844,1.850191,0.003665,0.024129,0.019700
1765410586.421023,-9.827832,0.968436,2.561573,0.005956,0.032223,0.020159
1765410586.421223,-9.912720,0.822573,2.800095,0.013744,0.045662,0.021380
1765410586.421423,-9.649688,0.777140,2.263271,0.017562,0.052687,0.023976
1765410586.421623,-9.872069,0.900885,2.521520,0.020922,0.052687,0.020311
1765410586.421823,-10.083092,0.839311,2.886178,0.025962,0.059407,0.029016
1765410586.421960,-10.349711,0.451937,3.238881,0.026114,0.058338,0.027184
1765410586.422210,-10.273791,0.510521,2.748087,0.026114,0.062003,0.027184
1765410586.422460,-10.108798,0.508130,2.554400,0.034819,0.064904,0.016188
1765410586.422710,-10.066953,0.708393,2.845528,0.034361,0.064904,0.012675
1765410586.422970,-10.222381,0.852463,2.920253,0.039248,0.066432,0.018631
1765410586.423170,-10.356287,0.419656,3.287900,0.041997,0.058490,0.023060
1765410586.423370,-10.356287,0.419656,3.287900,0.041997,0.063225,0.023060
1765410586.423570,-10.561932,0.448350,2.874222,0.047953,0.061545,0.012065
1765410586.423770,-10.180533,0.538618,2.535868,0.053603,0.061545,0.008399
1765410586.423912,-10.341940,0.725729,3.131874,0.063072,0.057727,0.013134
1765410586.424162,-10.565517,0.706600,3.620277,0.063683,0.062461,0.012370
1765410586.424412,-10.885939,0.749641,3.616092,0.066584,0.072998,0.017562
1765410586.424662,-10.156623,0.476447,2.434242,0.070250,0.051618,0.023366
1765410586.425022,-9.995814,0.638450,2.440817,0.080329,0.039248,0.017562
1765410586.425222,-10.379004,0.668340,3.468436,0.086132,0.049480,0.022602
1765410586.425422,-10.847679,0.755619,3.857006,0.090103,0.048258,0.021533
1765410586.425622,-10.376613,0.261239,2.961501,0.087965,0.042302,0.022755
1765410586.425822,-9.948587,0.291726,2.283596,0.095906,0.026420,0.006872
1765410586.425917,-10.207435,0.575084,2.840746,0.096059,0.031154,-0.001680
1765410586.426167,-10.521877,0.731707,3.696198,0.097280,0.031001,-0.007330
1765410586.426417,-10.761597,1.049139,3.842659,0.105222,0.030238,-0.015272
1765410586.426667,-10.135101,0.860234,2.919655,0.109039,0.030238,-0.002749
1765410586.426955,-10.135101,0.860234,2.919655,0.109039,0.006414,-0.002749
1765410586.427205,-10.453131,0.830344,3.217360,0.112399,0.016493,-0.025351
1765410586.427455,-10.480630,0.946317,3.580822,0.118966,0.023976,-0.031765
1765410586.427705,-10.221185,1.188426,3.239478,0.121868,-0.002443,-0.038943
1765410586.427968,-10.214011,1.353419,3.017097,0.111788,-0.002443,-0.052840
1765410586.428168,-10.214011,1.353419,3.017097,0.111788,0.013439,-0.052840
1765410586.428368,-9.983260,1.530368,2.770205,0.126144,0.005803,-0.041081
1765410586.428568,-10.084887,1.561454,3.463653,0.124311,0.015882,-0.054978
1765410586.428768,-10.251074,1.589550,3.510282,0.120035,0.014661,-0.053298
1765410586.428941,-9.858918,1.070062,2.601626,0.118050,-0.001527,-0.056810
1765410586.429191,-10.056790,1.287063,2.577116,0.128740,-0.008247,-0.072846
1765410586.429441,-10.074724,1.395863,3.075083,0.131336,0.021380,-0.077733
1765410586.429691,-10.451936,1.303204,4.123624,0.131947,0.021380,-0.080787
1765410586.429926,-10.236131,1.134027,3.665709,0.131947,0.007330,-0.080787
1765410586.430176,-10.151840,1.024629,2.888570,0.124311,-0.011301,-0.103847
1765410586.430426,-9.562408,1.114897,2.125777,0.131336,0.002443,-0.108581
1765410586.430676,-10.072930,1.166906,3.476805,0.139277,0.015424,-0.115759
1765410586.430914,-10.344332,0.817790,4.373505,0.139888,0.021533,-0.118202
1765410586.431164,-9.671806,1.056910,2.922046,0.144011,0.001222,-0.131641
1765410586.431414,-9.549257,1.181253,2.427666,0.144470,-0.009621,-0.135612
1765410586.431664,-9.479913,1.038976,2.725968,0.152869,-0.003971,-0.133779
1765410586.432059,-10.230749,1.027020,3.876136,0.156687,0.008858,-0.142484
1765410586.432309,-10.035269,1.096365,3.629842,0.157298,0.018021,-0.150273
1765410586.432559,-10.035269,1.096365,3.629842,0.157298,0.001833,-0.150273
1765410586.432809,-9.905546,0.535629,2.812649,0.158520,-0.002443,-0.163406
1765410586.434435,-10.322811,0.938546,3.651363,0.170584,0.005651,-0.180969
1765410586.434685,-10.260041,1.186035,3.807986,0.173791,0.021838,-0.177304
1765410586.434935,-10.094451,1.197991,3.486370,0.167530,0.008247,-0.182191
1765410586.435185,-9.958152,1.209947,3.023074,0.175166,0.001222,-0.183412
1765410586.434503,-9.683165,0.954089,2.661406,0.186772,0.002443,-0.174249
1765410586.434753,-9.894786,0.681492,3.354256,0.180205,-0.003818,-0.191048
1765410586.435003,-10.486609,1.228479,4.114060,0.185856,0.009927,-0.206472
1765410586.435253,-9.848158,0.795074,3.012912,0.188452,0.007178,-0.197768
1765410586.434938,-9.313725,0.577475,2.265662,0.189674,-0.013897,-0.212887
1765410586.435188,-9.982065,1.055715,2.977642,0.193033,-0.006567,-0.237168
1765410586.435438,-10.208033,1.200382,3.436154,0.207847,0.015577,-0.217773
1765410586.435688,-9.931252,0.997130,3.375179,0.213956,0.007483,-0.215025
1765410586.435921,-10.215207,1.053324,3.596365,0.214108,0.000611,-0.230754
1765410586.436171,-9.713055,0.442372,2.837159,0.213345,0.005040,-0.219911
1765410586.436421,-9.487086,0.333572,2.224414,0.225562,-0.001069,-0.239154
1765410586.436671,-9.924676,0.909852,3.062529,0.239154,0.010537,-0.256411
1765410586.436976,-10.290529,1.092778,3.807986,0.239612,0.019700,-0.246484
1765410586.437176,-10.237924,1.195600,3.468436,0.245873,0.011606,-0.250455
1765410586.437376,-9.848158,1.108919,2.890961,0.249080,0.014661,-0.246637
1765410586.437576,-9.292204,0.548780,2.279412,0.256716,0.010232,-0.235489
1765410586.437776,-10.222979,0.594213,3.697991,0.268323,0.004276,-0.253967
1765410586.437935,-10.389765,0.575084,3.835485,0.278707,0.029016,-0.255342
1765410586.438185,-10.035867,0.434601,3.518651,0.275042,0.014813,-0.263130
1765410586.438435,-9.664036,0.643831,2.869440,0.282372,0.012981,-0.273973
1765410586.438685,-9.225848,0.903276,2.837159,0.289703,0.007483,-0.267101
1765410586.438918,-9.659851,0.937350,3.293878,0.298866,0.012828,-0.262672
1765410586.439168,-9.842777,1.384505,3.595169,0.303905,0.011759,-0.266032
1765410586.439418,-10.053802,1.003108,3.880320,0.300393,0.020464,-0.260381
1765410586.439668,-9.142156,0.723338,2.387613,0.307723,0.026114,-0.256869
1765410586.439931,-9.328072,0.165591,2.719990,0.319635,0.021075,-0.258396
1765410586.440181,-9.149927,0.133907,3.225729,0.324369,0.027794,-0.275653
1765410586.440431,-9.697512,1.435916,3.475609,0.327729,0.032529,-0.293521
1765410586.440681,-9.422523,1.431133,2.969871,0.324828,0.055131,-0.269392
1765410586.440943,-9.044714,1.294835,2.780966,0.334907,0.048258,-0.251218
1765410586.441193,-9.315517,1.231468,3.443328,0.338725,0.052229,-0.256105
1765410586.441443,-9.055475,0.567910,3.450502,0.339030,0.061087,-0.233656
1765410586.441693,-8.595766,-0.022716,2.478479,0.347277,0.049786,-0.247248
1765410586.441959,-8.576039,0.164993,1.774271,0.361785,0.055436,-0.254425
1765410586.442209,-9.158297,0.075323,3.009923,0.356287,0.055436,-0.268475
1765410586.442459,-9.582734,0.701219,3.773314,0.374766,0.081551,-0.275348
1765410586.442709,-8.926350,1.002511,2.651841,0.378431,0.089186,-0.255647
1765410586.442989,-8.601147,0.576279,2.187948,0.381027,0.075747,-0.245568
1765410586.443239,-9.090147,0.657580,2.347561,0.396299,0.092699,-0.249997
1765410586.443489,-9.510998,0.152439,3.164753,0.403782,0.092699,-0.241139
1765410586.443739,-9.655666,-0.393352,3.578431,0.410043,0.113926,-0.254120
1765410586.443978,-9.319702,0.042444,2.881994,0.421650,0.108276,-0.274126
1765410586.444228,-8.987326,0.083692,2.437828,0.428980,0.108276,-0.267559
1765410586.444478,-9.176230,0.386179,2.784552,0.448528,0.127671,-0.275348
1765410586.444728,-9.036345,0.161406,2.704447,0.456316,0.127671,-0.256105
1765410586.445004,-9.036345,0.161406,2.704447,0.456316,0.130114,-0.256105
1765410586.445254,-9.167263,-0.361071,3.058345,0.482584,0.121868,-0.283136
1765410586.445504,-9.375896,-0.029890,3.231707,0.488234,0.132405,-0.278860
1765410586.445754,-8.898851,0.455524,2.845528,0.505644,0.135765,-0.288176
1765410586.445887,-8.965805,1.180057,2.834768,0.506865,0.143859,-0.289245
1765410586.446137,-9.249162,0.891918,3.438546,0.501368,0.143553,-0.267712
1765410586.446387,-9.384265,0.786705,3.120516,0.521221,0.143248,-0.262825
1765410586.446637,-9.091343,0.553563,2.615973,0.510836,0.143248,-0.263741
1765410586.446955,-9.919893,0.500956,3.719512,0.515418,0.147982,-0.279624
1765410586.447205,-9.691534,0.736490,3.538976,0.521832,0.176693,-0.278707
1765410586.447455,-9.325681,0.534433,2.999760,0.525650,0.153633,-0.262061
1765410586.447705,-8.843255,0.123147,2.167623,0.521679,0.158214,-0.278249
1765410586.447912,-9.141558,0.642037,2.337398,0.537256,0.158214,-0.284816
1765410586.448162,-8.971185,0.527260,2.572931,0.549626,0.173944,-0.267559
1765410586.448412,-8.828311,0.518890,2.699665,0.551000,0.175929,-0.276417
1765410586.448662,-8.879124,0.624103,2.264467,0.555582,0.184787,-0.280387
1765410586.449000,-8.791247,0.005978,1.820899,0.557567,0.176387,-0.269392
1765410586.449250,-9.030367,-0.276184,1.782640,0.571312,0.168904,-0.291994
1765410586.449500,-9.030367,-0.276184,1.782640,0.571312,0.208305,-0.291994
1765410586.449750,-9.360951,0.347920,3.049976,0.595594,0.209374,-0.299171
1765410586.449965,-8.779291,0.023912,2.363103,0.600633,0.209374,-0.290466
1765410586.450215,-8.779291,0.023912,2.363103,0.600633,0.186467,-0.290466
1765410586.450465,-9.283834,-0.096844,3.071496,0.615752,0.214566,-0.304516
1765410586.450715,-9.451219,0.148254,3.495934,0.635147,0.209527,-0.304516
1765410586.451022,-9.666426,0.432807,3.030846,0.624304,0.217468,-0.337198
1765410586.451355,-9.128407,0.665949,2.309899,0.632704,0.204182,-0.323911
1765410586.451689,-9.532519,1.247011,2.337996,0.637591,0.195019,-0.343001
1765410586.452008,-9.655068,1.706121,2.724772,0.642936,0.216704,-0.319788
1765410586.452258,-9.211501,1.357006,2.633907,0.639881,0.234725,-0.305738
1765410586.452508,-8.983739,1.096365,1.799378,0.645532,0.215177,-0.294132
1765410586.452758,-9.448828,0.471066,2.135342,0.640645,0.196088,-0.297491
1765410586.453014,-10.254662,0.708991,2.930416,0.657138,0.224035,-0.312763
1765410586.453264,-9.649688,0.291129,2.557389,0.660345,0.226173,-0.304516
1765410586.453514,-9.087158,0.267814,2.321855,0.656222,0.226173,-0.318108
1765410586.453764,-9.221066,0.640842,1.604495,0.661873,0.213650,-0.325591
1765410586.453977,-9.538497,0.124342,1.924318,0.676533,0.202044,-0.296117
1765410586.454227,-9.703490,-0.581062,2.270445,0.694859,0.225867,-0.302836
1765410586.454477,-9.530128,-0.340746,2.550215,0.707382,0.254578,-0.311847
1765410586.454727,-9.661644,-0.743663,2.883190,0.705091,0.241292,-0.316275
1765410586.454963,-9.550453,-0.523673,2.617766,0.721585,0.229380,-0.334143
1765410586.455213,-9.710664,0.192492,1.853778,0.723112,0.233503,-0.342695
1765410586.455463,-9.723815,0.811812,2.285987,0.741132,0.240528,-0.332158
1765410586.455713,-9.833213,1.377331,2.895743,0.736703,0.244041,-0.333838
1765410586.455981,-9.738162,1.521999,2.355332,0.735634,0.239306,-0.296728
1765410586.456231,-9.738162,1.521999,2.355332,0.735634,0.227547,-0.296728
1765410586.456481,-9.412958,-0.343137,1.569823,0.746783,0.215177,-0.301309
1765410586.456731,-10.003586,-0.175753,2.299139,0.745256,0.227242,-0.323606
1765410586.456968,-9.989837,0.455524,2.507173,0.754571,0.247706,-0.334143
1765410586.457218,-9.365732,0.314443,1.605093,0.748921,0.247706,-0.313832
1765410586.457468,-9.230033,0.051411,1.257771,0.748921,0.220370,-0.313832
1765410586.457718,-9.930654,-0.398135,1.857962,0.773966,0.238543,-0.306654
1765410586.457914,-10.558344,-1.042563,2.590267,0.796568,0.235336,-0.301767
1765410586.458164,-9.866092,-1.484935,1.874701,0.798095,0.253509,-0.322537
1765410586.458414,-9.772237,-0.008369,1.894428,0.822377,0.243430,-0.351858
1765410586.458664,-9.851745,0.557747,2.468914,0.813367,0.244804,-0.343612
1765410586.458887,-9.989837,1.042563,2.299139,0.826501,0.238848,-0.320704
1765410586.459220,-9.659253,1.254782,2.073768,0.820545,0.237016,-0.327118
1765410586.459554,-9.727402,1.278096,2.161645,0.817796,0.225867,-0.298255
1765410586.460001,-9.310736,0.271401,1.761119,0.817185,0.222813,-0.287718
1765410586.460251,-9.424317,0.014347,1.367766,0.833373,0.201433,-0.289703
1765410586.460501,-9.758488,-0.388570,2.095289,0.824363,0.204182,-0.308487
1765410586.460751,-9.975489,0.350311,1.957795,0.843452,0.228158,-0.325897
1765410586.460890,-9.667024,0.145863,1.571018,0.836580,0.219911,-0.307265
1765410586.461140,-10.187708,0.092061,1.935676,0.846354,0.201586,-0.314137
1765410586.461390,-9.968315,-0.540411,1.308584,0.860098,0.221591,-0.300851
1765410586.461640,-9.429100,-1.108919,0.893113,0.881479,0.223271,-0.303905
1765410586.461999,-9.593494,-0.908656,1.285868,0.889725,0.225257,-0.340252
1765410586.462249,-10.396938,0.025705,2.769608,0.887740,0.234572,-0.355829
1765410586.462499,-10.178741,0.821377,2.120995,0.898888,0.232282,-0.348040
1765410586.462749,-9.829028,1.747967,1.995456,0.891558,0.223577,-0.348040
1765410586.463014,-9.775824,1.810139,2.388809,0.881020,0.239306,-0.328951
1765410586.463264,-9.119439,0.841702,1.275705,0.888351,0.239306,-0.279624
1765410586.463514,-9.460783,0.434601,1.606886,0.896292,0.199753,-0.290466
1765410586.463764,-9.709468,0.260641,1.792204,0.892932,0.217315,-0.303600
1765410586.464040,-9.896580,0.125538,1.997848,0.896597,0.226326,-0.300240
1765410586.464290,-9.646101,-0.301889,1.554280,0.907746,0.230296,-0.307876
1765410586.464540,-9.060257,-0.950502,0.820182,0.911411,0.211359,-0.317803
1765410586.464790,-9.961740,-0.266619,1.658297,0.919963,0.224188,-0.351553
1765410586.464908,-9.782400,0.466882,1.357006,0.939205,0.234420,-0.342390
1765410586.465158,-10.448348,0.848876,2.577714,0.939205,0.214414,-0.342390
1765410586.465408,-10.052606,1.360593,1.666069,0.944703,0.216399,-0.334907
1765410586.465658,-9.612624,1.208752,1.610473,0.934318,0.216399,-0.324828
1765410586.465936,-9.513390,0.836322,1.420971,0.925614,0.218842,-0.323911
1765410586.466186,-9.396221,0.729316,1.215925,0.935387,0.220064,-0.320246
1765410586.466436,-9.497249,1.022238,1.921329,0.935540,0.224646,-0.328798
1765410586.466686,-9.607244,1.237446,2.039694,0.927141,0.230296,-0.329409
1765410586.466942,-10.064561,1.215327,2.303921,0.930348,0.237779,-0.312152
1765410586.467275,-9.764465,-0.353300,1.453850,0.934929,0.229991,-0.288481
1765410586.467609,-9.557627,-1.242826,1.196796,0.948826,0.209069,-0.317803
1765410586.467953,-9.824244,-0.847083,1.333094,0.958906,0.229227,-0.349873
1765410586.468203,-9.824244,-0.847083,1.333094,0.958906,0.226478,-0.349873
1765410586.468453,-10.155428,0.686274,2.108441,0.973261,0.227395,-0.365450
1765410586.468703,-9.039932,1.499880,0.576279,0.962418,0.229227,-0.359036
1765410586.468881,-9.451219,1.812530,1.266140,0.953561,0.236863,-0.343306
1765410586.469131,-9.351983,1.021042,1.027020,0.962418,0.236863,-0.303447
1765410586.469381,-9.390243,-0.243902,0.847680,0.963335,0.211512,-0.294895
1765410586.469631,-9.528335,-0.407102,1.439502,0.965320,0.239459,-0.335670
1765410586.469998,-9.515780,-0.088474,1.173481,0.966389,0.252287,-0.339794
1765410586.470248,-9.665829,-0.555356,1.511836,0.979370,0.232434,-0.324675
1765410586.470498,-9.670013,-0.689861,1.164515,0.980744,0.232434,-0.350178
1765410586.470748,-10.567909,-0.103419,2.125777,1.003041,0.238696,-0.347124
1765410586.470961,-9.971304,-0.209230,1.673840,0.998917,0.253204,-0.348193
1765410586.471211,-10.251074,0.290531,1.765303,1.003957,0.239001,-0.356287
1765410586.471461,-9.799137,0.717360,1.370158,1.000139,0.239765,-0.352164
1765410586.471711,-10.107005,1.363582,1.908178,0.991434,0.226326,-0.357814
1765410586.471950,-9.970706,1.250598,1.450263,0.984867,0.242819,-0.320552
1765410586.472200,-9.824244,0.532042,0.973218,0.989602,0.227853,-0.306502
1765410586.472450,-9.804518,0.345528,1.120277,0.999070,0.227853,-0.315665
1765410586.472700,-9.804518,0.345528,1.120277,0.999070,0.234114,-0.315665
1765410586.472998,-10.178741,-0.688666,1.945241,1.003499,0.223577,-0.298102
1765410586.473248,-9.966521,-1.731229,1.137016,1.012356,0.222050,-0.308487
1765410586.473498,-9.853538,-1.651124,0.463295,1.031751,0.213497,-0.343001
1765410586.473748,-10.090266,-0.401722,0.961262,1.032210,0.232587,-0.376446
1765410586.474006,-10.090266,-0.401722,0.961262,1.032210,0.245873,-0.376446
1765410586.474339,-9.475131,2.014586,0.742468,1.036180,0.247095,-0.357662
1765410586.474673,-9.474532,2.132951,1.335485,1.017549,0.236558,-0.332005
1765410586.475025,-9.392036,1.257771,1.328909,1.014036,0.250760,-0.285732
1765410586.475275,-9.972500,0.100430,1.426351,1.021978,0.221897,-0.263436
1765410586.475525,-10.273193,-0.463893,1.753347,1.016785,0.233045,-0.302226
1765410586.475775,-9.932447,-0.003587,1.514825,1.025490,0.256716,-0.304669
1765410586.475985,-9.126613,-0.708393,0.434003,1.033126,0.248164,-0.289397
1765410586.476235,-9.616212,-1.021042,0.717958,1.046107,0.219911,-0.300851
1765410586.476485,-9.954566,-0.084888,1.171090,1.056186,0.219911,-0.322231
1765410586.476735,-10.400524,0.403515,1.608082,1.052521,0.242361,-0.323759
1765410586.477141,-9.380678,1.049737,0.291726,1.057408,0.248775,-0.314901
1765410586.477391,-9.717837,1.721664,0.798661,1.036791,0.228158,-0.321468
1765410586.477641,-10.326398,1.138211,1.299020,1.032820,0.248928,-0.293521
1765410586.477891,-9.695719,0.184720,0.727523,1.039693,0.245873,-0.275806
1765410586.477995,-9.446436,0.417862,1.213534,1.041678,0.234725,-0.301615
1765410586.478245,-9.819464,0.989359,1.413199,1.025490,0.243583,-0.311083
1765410586.478495,-10.340147,1.218914,1.694165,1.044274,0.237474,-0.273668
1765410586.478745,-10.340147,1.218914,1.694165,1.044274,0.230296,-0.273668
1765410586.478998,-9.624580,-1.028216,1.176470,1.054659,0.229074,-0.293215
1765410586.479248,-9.536106,-0.343137,0.732903,1.047328,0.257327,-0.325133
1765410586.479498,-9.617407,0.436394,1.274510,1.054506,0.223729,-0.332616
1765410586.479748,-9.355571,2.137135,0.234338,1.041525,0.230143,-0.352317
1765410586.479957,-9.764465,2.758249,0.950502,1.023046,0.237932,-0.323911
1765410586.480207,-9.442849,1.585366,1.000119,1.018312,0.262519,-0.268781
1765410586.480457,-9.049497,0.533238,-0.109397,1.029766,0.227700,-0.260076
1765410586.480707,-9.809898,0.394548,0.868006,1.011135,0.227547,-0.300240
1765410586.480949,-10.257052,0.543998,1.659493,1.010524,0.259312,-0.312305
1765410586.481199,-9.702294,0.369440,0.677905,1.028544,0.248775,-0.279624
1765410586.481449,-8.891079,-0.650406,-0.148254,1.021061,0.231518,-0.294895
1765410586.481699,-9.600669,0.214610,0.711382,1.035417,0.245568,-0.328340
1765410586.481987,-9.989837,0.483620,1.400048,1.032057,0.261450,-0.327729
1765410586.482320,-9.597081,1.716882,0.710186,1.036791,0.261450,-0.324064
1765410586.482654,-9.855330,2.395983,0.973218,1.007928,0.248317,-0.338877
1765410586.482959,-10.604972,1.893830,1.823290,0.991282,0.271377,-0.308792
1765410586.483209,-10.604972,1.893830,1.823290,0.991282,0.277791,-0.308792
1765410586.483459,-9.775824,0.365854,0.962458,0.994030,0.264199,-0.295048
1765410586.483709,-10.172164,1.127451,1.213534,0.973872,0.264199,-0.324064
1765410586.484033,-10.601385,1.189024,1.767695,0.992961,0.269697,-0.296117
1765410586.484283,-9.652080,-0.210426,0.214610,0.986089,0.265421,-0.267864
1765410586.484533,-9.478717,-1.089192,0.430416,1.001055,0.246331,-0.290161
1765410586.484783,-9.620994,-0.333572,0.985174,0.999834,0.264963,-0.336129
1765410586.485070,-9.839788,0.414873,1.157341,1.001819,0.255800,-0.334296
1765410586.485320,-9.204925,1.475968,-0.114778,0.996779,0.255647,-0.330936
1765410586.485570,-9.690338,2.333214,0.496772,0.975705,0.242666,-0.330325
1765410586.485820,-10.426827,1.519608,1.143591,0.965014,0.272599,-0.283441
1765410586.486047,-9.510998,0.704208,0.280966,0.984257,0.262519,-0.266032
1765410586.486297,-9.047106,0.483022,-0.363462,0.967916,0.262519,-0.282372
1765410586.486547,-9.594092,0.581062,1.107126,0.949895,0.270613,-0.293368
1765410586.486797,-10.927784,0.485414,2.309899,0.966542,0.274584,-0.281762
1765410586.487003,-9.934240,-0.823171,0.815399,0.964098,0.274584,-0.261298
1765410586.487253,-9.743543,-0.826160,0.847083,0.962265,0.258549,-0.313374
1765410586.487503,-9.436871,0.344931,0.575084,0.976468,0.278555,-0.321162
1765410586.487753,-9.436274,0.705404,0.273792,0.974635,0.242819,-0.298866
1765410586.488022,-9.987445,1.739598,0.591822,0.978759,0.265879,-0.293215
1765410586.488272,-9.997607,1.685198,0.624103,0.950812,0.265879,-0.275348
1765410586.488522,-9.997607,1.685198,0.624103,0.950812,0.274584,-0.275348
1765410586.488772,-9.368722,0.153635,-0.100430,0.949895,0.272446,-0.250760
1765410586.488950,-10.175154,0.562530,0.832138,0.939053,0.258243,-0.278249
1765410586.489200,-10.267216,1.223099,1.120875,0.938136,0.290008,-0.269086
1765410586.489450,-10.502151,0.784314,0.818986,0.938136,0.280234,-0.244041
1765410586.489700,-9.998802,-0.155428,0.559541,0.939816,0.276875,-0.234267
1765410586.490026,-10.187708,-1.070660,1.225490,0.930806,0.289550,-0.265421
1765410586.490276,-10.259443,-0.295911,1.689981,0.948826,0.289550,-0.274126
1765410586.490526,-9.225250,0.384983,0.706600,0.953255,0.261450,-0.283747
1765410586.490776,-9.322691,1.144189,0.319225,0.933555,0.261756,-0.287870
1765410586.491071,-9.210305,1.563845,0.025108,0.932638,0.262977,-0.271377
1765410586.491321,-10.108798,1.788618,1.465806,0.921643,0.279165,-0.264199
1765410586.491571,-10.045432,1.601506,0.951100,0.903317,0.279165,-0.238390
1765410586.491821,-9.346603,0.727523,0.010163,0.903317,0.261603,-0.220675
1765410586.491969,-9.274270,-0.075323,-0.176949,0.899499,0.265421,-0.229838
1765410586.492219,-9.557029,0.194883,-0.163797,0.901179,0.256869,-0.248928
1765410586.492469,-10.918220,0.344333,1.994261,0.899957,0.272140,-0.260687
1765410586.492719,-9.723815,0.242109,0.585844,0.904386,0.293521,-0.251829
1765410586.492975,-9.216881,0.196078,-0.208034,0.893390,0.266795,-0.267559
1765410586.493225,-9.218077,0.136298,-0.242707,0.900568,0.243888,-0.255036
1765410586.493475,-9.728598,-0.026303,0.356289,0.906829,0.243888,-0.265421
1765410586.493725,-10.234337,0.792085,0.651602,0.902706,0.280845,-0.286038
1765410586.493973,-9.427306,1.284672,0.321616,0.898583,0.293826,-0.279471
1765410586.494306,-9.173840,2.171210,0.340746,0.898583,0.288634,-0.279471
1765410586.494640,-9.557627,2.439024,0.469273,0.863916,0.278860,-0.258701
1765410586.495003,-9.995216,1.784433,1.023434,0.851852,0.294132,-0.223577
1765410586.495253,-10.490194,1.230273,1.099354,0.855211,0.277180,-0.223729
1765410586.495503,-10.197870,0.852463,1.110713,0.843758,0.289245,-0.233503
1765410586.495753,-9.664036,0.603778,0.239718,0.831082,0.299324,-0.249538
1765410586.495971,-9.713055,0.301291,0.069345,0.834747,0.274737,-0.253204
1765410586.496221,-9.944403,0.486609,0.811215,0.836275,0.264352,-0.262061
1765410586.496471,-10.437589,0.481827,1.275705,0.818101,0.274889,-0.283747
1765410586.496721,-9.914514,0.940937,0.520086,0.834595,0.294132,-0.270613
1765410586.497028,-9.059061,0.836322,-0.393352,0.825279,0.264810,-0.269086
1765410586.497278,-9.683763,1.773075,0.319225,0.820239,0.269697,-0.280998
1765410586.497528,-9.799137,1.294835,0.504543,0.809855,0.287870,-0.254273
1765410586.497778,-9.429697,1.660688,-0.121951,0.813062,0.282983,-0.250455
1765410586.498054,-9.870276,1.934481,0.312649,0.785878,0.283441,-0.268170
1765410586.498304,-10.624102,2.172405,1.761119,0.774730,0.295964,-0.248928
1765410586.498554,-9.735771,0.872788,0.266619,0.768774,0.283594,-0.226478
1765410586.498804,-8.990314,1.156145,-0.689263,0.766941,0.283594,-0.246484
1765410586.498934,-9.956359,1.233261,0.875179,0.755335,0.284663,-0.252440
1765410586.499184,-10.544595,1.041368,1.817312,0.748768,0.282067,-0.236099
1765410586.499434,-9.953370,0.499761,0.193089,0.743576,0.282067,-0.237932
1765410586.499684,-8.962218,0.178742,-0.789096,0.734718,0.278555,-0.254578
1765410586.499965,-9.219870,0.447154,-0.435198,0.737314,0.277791,-0.266185
1765410586.500215,-10.208632,0.619919,0.677905,0.750601,0.270766,-0.250760
1765410586.500465,-10.268411,0.902678,0.379005,0.738994,0.275806,-0.259618
1765410586.500715,-9.998802,1.560856,-0.020325,0.736703,0.292757,-0.254731
1765410586.500924,-9.514585,1.159732,-0.578670,0.721279,0.297950,-0.223271
1765410586.501174,-10.549377,0.242109,0.934361,0.724333,0.268323,-0.218537
1765410586.501424,-10.650405,0.150646,0.154232,0.718225,0.274584,-0.244041
1765410586.501674,-10.322811,1.190818,0.285151,0.713338,0.289703,-0.269392
1765410586.501962,-10.152438,1.533955,0.621712,0.692874,0.308945,-0.260229
1765410586.502212,-10.113581,1.036585,0.541607,0.690125,0.270919,-0.232434
1765410586.502462,-9.934240,0.966045,0.240316,0.678671,0.255800,-0.245262
1765410586.502712,-10.020324,1.306193,-0.194285,0.675312,0.260381,-0.243735
1765410586.502978,-10.166186,0.643233,0.337757,0.671188,0.262977,-0.220828
1765410586.503228,-9.840983,0.180536,0.026901,0.662025,0.258396,-0.237474
1765410586.503478,-10.030487,0.597800,-0.233142,0.655000,0.260381,-0.247248
1765410586.503728,-9.942610,0.575084,-0.795074,0.656833,0.250913,-0.240681
1765410586.503976,-10.609755,0.792085,0.151841,0.653626,0.246637,-0.243277
1765410586.504226,-10.524867,0.594811,-0.234338,0.653320,0.253356,-0.220828
1765410586.504476,-10.355091,-0.075323,-0.066356,0.649961,0.253356,-0.213803
1765410586.504726,-10.653992,0.138690,0.052009,0.651946,0.250455,-0.232587
1765410586.504969,-10.521877,-0.017336,-0.102822,0.646906,0.237779,-0.233045
1765410586.505219,-10.352701,0.558345,0.240913,0.645685,0.246790,-0.246790
1765410586.505469,-9.910329,0.695839,-0.389766,0.638965,0.237779,-0.237168
1765410586.505719,-10.066953,0.951100,-0.628886,0.638354,0.216704,-0.233045
1765410586.505930,-10.066953,0.951100,-0.628886,0.638354,0.217315,-0.233045
1765410586.506180,-10.634863,1.985892,0.395146,0.613156,0.232892,-0.233656
1765410586.506430,-10.150645,1.057508,-0.081301,0.602313,0.231976,-0.202349
1765410586.506680,-10.643829,0.573888,0.124342,0.596815,0.204945,-0.212123
1765410586.506955,-11.098157,0.391559,0.465088,0.591470,0.205251,-0.224188
1765410586.507205,-11.098157,0.391559,0.465088,0.591470,0.208152,-0.224188
1765410586.507455,-11.217119,1.312769,0.332377,0.583071,0.197462,-0.244804
1765410586.507705,-10.993543,1.349235,0.255858,0.573602,0.197462,-0.222966
1765410586.507950,-10.723337,1.303802,0.228360,0.563676,0.193797,-0.214108
1765410586.508200,-11.157340,0.989957,0.094452,0.562912,0.169668,-0.202196
1765410586.508450,-10.901481,0.013749,0.202056,0.554055,0.160963,-0.202044
1765410586.508700,-10.257052,0.545194,-0.621712,0.557720,0.173486,-0.229074
1765410586.508913,-10.227163,0.832138,-0.224773,0.548404,0.173486,-0.227242
1765410586.509163,-10.053802,0.370636,-0.280368,0.539852,0.153022,-0.225562
1765410586.509413,-10.408297,0.677905,-0.701219,0.544281,0.132710,-0.238696
1765410586.509663,-10.351504,1.061095,-1.097561,0.542601,0.146760,-0.235489
1765410586.509914,-10.392157,1.203969,-0.181731,0.546419,0.146302,-0.231365
1765410586.510164,-10.604972,1.195600,0.017336,0.535576,0.146302,-0.224646
1765410586.510414,-10.384982,0.913438,-0.632472,0.535576,0.124464,-0.224646
1765410586.510664,-10.750836,1.305595,-0.068149,0.517250,0.138819,-0.245721
1765410586.510997,-10.976804,1.531564,0.709589,0.513585,0.138819,-0.241597
1765410586.511247,-10.976804,1.531564,0.709589,0.513585,0.133169,-0.241597
1765410586.511497,-10.241510,2.196317,-0.051411,0.485180,0.097280,-0.240528
1765410586.511747,-10.495576,2.131755,-0.307269,0.485180,0.096517,-0.240528
1765410586.512021,-10.369438,1.277499,-0.288140,0.463494,0.102320,-0.201127
1765410586.512271,-10.643829,0.860832,0.257054,0.458913,0.102320,-0.224798
1765410586.512521,-10.643829,0.860832,0.257054,0.458913,0.107970,-0.224798
1765410586.512771,-10.568507,1.172884,0.304878,0.436310,0.094837,-0.238848
1765410586.512976,-10.023911,1.028216,-1.225490,0.434172,0.075595,-0.229991
1765410586.513226,-10.538018,0.940937,-0.629483,0.425620,0.059407,-0.234114
1765410586.513476,-10.900286,1.111908,0.228957,0.423330,0.086437,-0.244041
1765410586.513726,-11.095169,1.319345,0.687470,0.417068,0.089492,-0.232892
1765410586.513913,-10.198468,0.586442,0.186514,0.397979,0.052076,-0.233961
1765410586.514246,-9.580941,1.137016,-1.214132,0.393397,0.052076,-0.248317
1765410586.514580,-10.015541,0.939742,-0.802248,0.393855,0.041386,-0.235183
1765410586.514970,-9.904350,0.459110,-0.385581,0.384845,0.057421,-0.237932
1765410586.515220,-10.172164,0.786705,0.132712,0.392175,0.062614,-0.244193
1765410586.515470,-9.617407,0.553563,-0.563725,0.375071,0.062919,-0.237474
1765410586.515720,-9.690338,0.420851,-0.747848,0.372781,0.035277,-0.242972
1765410586.515971,-9.949782,0.258847,-1.057508,0.375377,0.044899,-0.240223
1765410586.516171,-9.948587,0.059780,-0.225968,0.377667,0.052076,-0.246179
1765410586.516371,-10.026302,0.367647,0.187709,0.371101,0.069486,-0.260229
1765410586.516571,-9.777617,0.619919,-0.200861,0.365297,0.050396,-0.250149
1765410586.516771,-9.836202,0.678503,-0.168580,0.363312,0.034667,-0.249997
1765410586.516921,-9.836202,0.678503,-0.168580,0.363312,0.044440,-0.249997
1765410586.517171,-9.850550,0.870397,0.166786,0.358425,0.054214,-0.227089
1765410586.517421,-9.336440,0.122549,-0.509326,0.350178,0.045509,-0.218537
1765410586.517671,-9.613820,0.007771,-0.096844,0.347430,0.037263,-0.235489
1765410586.517946,-9.340028,0.472860,-0.682688,0.345750,0.037263,-0.240070
1765410586.518196,-9.340028,0.472860,-0.682688,0.345750,0.040623,-0.240070
1765410586.518446,-9.653275,1.269727,0.256456,0.339183,0.051771,-0.234420
1765410586.518696,-9.574366,1.072453,-0.127929,0.324522,0.027794,-0.217315
1765410586.518918,-9.344810,1.206958,-0.538020,0.319941,0.029169,-0.214261
1765410586.519168,-9.100310,0.891918,-1.145983,0.317039,0.040317,-0.193950
1765410586.519418,-9.619798,0.179340,-0.208034,0.310778,0.042455,-0.185550
1765410586.519668,-10.081897,0.625299,0.277379,0.314596,0.049022,-0.205556
1765410586.519989,-10.080702,1.102941,0.289335,0.295659,0.056352,-0.201127
1765410586.520239,-9.549257,0.909254,-0.270206,0.292757,0.045662,-0.181274
1765410586.520489,-9.514585,0.733501,-1.019249,0.291383,0.035430,-0.175471
1765410586.520739,-9.508607,0.523673,-0.448948,0.292299,0.040623,-0.165850
1765410586.520913,-9.597081,0.784314,-0.083094,0.287565,0.055741,-0.170126
1765410586.521163,-9.796746,1.239239,0.243902,0.275806,0.041386,-0.162948
1765410586.521413,-9.688545,0.706600,-0.642037,0.269850,0.032681,-0.141263
1765410586.521663,-9.290410,0.145863,-1.122668,0.284510,0.028863,-0.132405
1765410586.521964,-9.069821,-0.151243,-0.944524,0.278096,0.049633,-0.145386
1765410586.522214,-9.763269,0.791487,0.098637,0.276417,0.052687,-0.159130
1765410586.522464,-9.707077,1.005500,-0.186514,0.272293,0.053451,-0.145386
1765410586.522714,-9.158297,1.225490,-0.920612,0.272293,0.041081,-0.134390
1765410586.522982,-8.690817,1.261358,-1.374940,0.263130,0.058948,-0.129045
1765410586.523232,-9.066236,1.374940,-0.298900,0.266490,0.059712,-0.110719
1765410586.523482,-9.560018,0.872788,0.105811,0.262519,0.056505,-0.093004
1765410586.523732,-9.805116,0.688666,-0.141081,0.253814,0.049633,-0.106291
1765410586.523920,-9.745336,1.053324,-0.364658,0.246484,0.060476,-0.114385
1765410586.524170,-9.820659,1.226088,0.098637,0.251371,0.060628,-0.100335
1765410586.524420,-9.883428,1.107126,0.523673,0.239306,0.049480,-0.094531
1765410586.524670,-9.848158,0.998924,0.194285,0.231365,0.049938,-0.097128
1765410586.524907,-9.179219,0.839909,-1.043759,0.223271,0.049938,-0.091172
1765410586.525157,-9.273074,1.458034,-0.896700,0.229227,0.042761,-0.095906
1765410586.525407,-9.907937,1.443687,0.512912,0.217773,0.056505,-0.083994
1765410586.525657,-9.912720,1.507652,0.624103,0.212276,0.069333,-0.066890
1765410586.525895,-9.233619,1.258967,-0.424438,0.202196,0.036652,-0.059254
1765410586.526145,-9.075800,1.357006,-1.048541,0.192881,0.036652,-0.063225
1765410586.526395,-9.502031,1.312769,-0.343137,0.204029,0.041081,-0.045357
1765410586.526645,-9.405188,0.970827,0.034672,0.196851,0.066126,-0.033598
1765410586.526890,-9.146938,0.901482,-0.180536,0.186925,0.058643,-0.041233
1765410586.527140,-8.926350,0.704208,-0.878168,0.173638,0.053451,-0.044288
1765410586.527390,-9.082973,1.035390,-0.786705,0.183260,0.042608,-0.041081
1765410586.527640,-9.309540,1.330703,-0.345528,0.178984,0.059712,-0.035736
1765410586.527971,-9.212696,1.540531,-0.083692,0.167377,0.072846,-0.028405
1765410586.528221,-9.313127,1.257771,-0.015543,0.157451,0.073609,-0.018784
1765410586.528471,-8.998086,1.153754,-0.760999,0.158825,0.056963,-0.010537
1765410586.528721,-9.454207,1.001913,-0.355691,0.148746,0.056658,-0.017410
1765410586.528979,-9.451219,1.441894,0.076518,0.151036,0.080023,-0.017562
1765410586.529179,-9.516976,1.294835,0.320421,0.136223,0.070555,-0.009468
1765410586.529379,-9.247966,1.393472,-0.227164,0.126602,0.070555,-0.007025
1765410586.529579,-9.247966,1.393472,-0.227164,0.126602,0.059101,-0.007025
1765410586.529779,-9.549855,1.516021,-0.008967,0.127060,0.074678,0.006872
1765410586.529984,-9.554040,1.437111,0.356887,0.114690,0.093004,0.011454
1765410586.530234,-9.726207,1.251195,0.771162,0.109039,0.067042,0.018326
1765410586.530484,-9.393829,1.107126,-0.420851,0.097128,0.067042,0.008858
1765410586.530734,-9.442849,1.310378,-0.522477,0.102014,0.061697,0.011148
1765410586.530920,-9.169056,1.293639,-0.295313,0.094990,0.084299,0.011912
1765410586.531120,-9.858918,1.377331,0.935557,0.087659,0.083841,0.011454
1765410586.531320,-9.630558,1.195002,0.402917,0.079871,0.054214,0.014203
1765410586.531520,-9.565996,1.291248,-0.268412,0.074373,0.054214,0.006414
1765410586.531720,-9.466762,1.485533,-0.328790,0.070097,0.068111,0.010690
1765410586.531963,-9.658057,1.358799,0.278575,0.069180,0.071929,0.015730
1765410586.532163,-9.903154,1.169895,0.840507,0.059865,0.071929,0.007025
1765410586.532363,-9.903154,1.169895,0.840507,0.059865,0.062156,0.007025
1765410586.532563,-9.680176,1.389885,0.028694,0.046273,0.060476,0.008858
1765410586.532763,-9.628167,1.478957,0.070540,0.049175,0.046884,0.010690
1765410586.532919,-10.059779,1.446676,0.622310,0.044746,0.051007,0.012523
1765410586.533169,-10.174556,1.121473,0.883548,0.035430,0.048411,0.013592
1765410586.533419,-10.174556,1.121473,0.883548,0.035430,0.043677,0.013592
1765410586.533669,-9.668220,1.270923,-0.015543,0.023824,0.035125,0.001374
1765410586.533886,-9.972500,1.160330,0.536824,0.023213,0.023671,0.003054
1765410586.534086,-10.193686,1.094572,0.859636,0.019395,0.025809,0.006261
1765410586.534286,-10.194881,0.758010,0.711382,0.013592,0.027031,0.005040
1765410586.534486,-10.194881,0.758010,0.711382,0.013592,0.017410,0.005040
1765410586.534686,-10.138689,0.708991,0.685079,0.011606,0.005345,-0.007636
1765410586.534979,-10.249280,0.724534,0.708991,0.006872,0.001374,-0.014355
1765410586.535179,-9.986848,0.675514,0.342539,0.006414,-0.002902,-0.010843
1765410586.535379,-9.726207,0.680894,0.145863,0.003054,-0.002902,-0.015119
1765410586.535579,-9.920491,0.628886,0.469871,-0.002138,-0.007178,-0.012675
1765410586.535779,-9.977283,0.363462,0.483620,-0.009774,-0.010385,-0.010843
1765410586.536004,-9.895982,0.245098,0.302487,-0.012065,-0.009163,-0.010385
1765410586.536254,-9.721423,0.156624,0.065758,-0.014203,-0.002902,-0.010843
1765410586.536504,-9.796148,-0.118364,0.105213,-0.012217,-0.002902,-0.007636
1765410586.536754,-9.825441,-0.217001,0.230751,-0.013592,-0.011454,-0.014966
1765410586.536977,-10.047226,-0.032281,0.453132,-0.012828,-0.008399,-0.020769
1765410586.537177,-9.860114,0.060976,0.217599,-0.012828,-0.004276,-0.016952
1765410586.537377,-9.765661,0.071736,0.035868,-0.012828,-0.007178,-0.016952
1765410586.537577,-9.943806,-0.043042,0.384983,-0.017104,-0.006414,-0.010079
1765410586.537777,-10.011955,-0.204448,0.410091,-0.019853,-0.005651,-0.011912
1765410586.537961,-9.934240,-0.174558,0.260641,-0.019700,-0.005651,-0.012370
1765410586.538161,-9.861309,-0.030488,0.237924,-0.021686,-0.003360,-0.013439
1765410586.538361,-9.846962,-0.027499,0.185318,-0.022449,-0.006414,-0.010232
1765410586.538561,-9.858320,-0.117169,0.242707,-0.021533,-0.009010,-0.007330
1765410586.538761,-10.025107,-0.241511,0.471664,-0.024893,-0.005040,-0.005651
1765410586.538971,-10.034670,-0.437590,0.436394,-0.027794,-0.006109,-0.001527
1765410586.539221,-9.970109,-0.401722,0.290531,-0.023671,-0.008247,-0.004429
1765410586.539471,-9.922284,-0.344333,0.231349,-0.021075,-0.003818,-0.001833
1765410586.539721,-9.946198,-0.398135,0.359278,-0.020159,-0.006414,0.000916
1765410586.539942,-10.069344,-0.358680,0.398733,-0.017104,-0.010537,-0.001374
1765410586.540142,-10.161406,-0.372429,0.548780,-0.015577,-0.007483,0.000458
1765410586.540342,-9.964728,-0.321019,0.304878,-0.013286,-0.002902,0.001985
1765410586.540542,-9.894786,-0.347920,0.304878,-0.010690,-0.012217,0.005803
1765410586.540742,-9.886416,-0.383788,0.331181,-0.010079,-0.011301,0.009316
1765410586.540929,-9.988043,-0.492587,0.469273,-0.008094,-0.012828,0.005192
1765410586.541129,-9.996411,-0.486011,0.457317,-0.002596,-0.007789,0.001833
1765410586.541329,-9.952174,-0.331779,0.269608,-0.000458,-0.007636,0.000611
1765410586.541529,-9.796746,-0.239718,0.150646,0.003512,-0.004887,0.001680
1765410586.541729,-9.860114,-0.083692,0.380201,0.003360,-0.008399,0.002443
1765410586.541962,-9.860114,-0.083692,0.380201,0.003360,-0.010232,0.002443
1765410586.542162,-9.909731,-0.190100,0.412482,0.004276,-0.007789,0.008552
1765410586.542362,-9.821257,-0.169775,0.167384,0.006567,-0.003207,0.007483
1765410586.542562,-9.848756,-0.057389,0.243902,0.008705,-0.005803,0.007483
1765410586.542762,-9.936632,0.008369,0.457915,0.006720,-0.005040,0.006109
1765410586.542938,-9.996411,0.040053,0.479436,0.004123,-0.006414,0.005345
1765410586.543138,-9.858918,0.078312,0.244500,0.005192,-0.003360,0.006720
1765410586.543338,-9.751313,0.050813,0.183525,0.007025,-0.004581,0.003360
1765410586.543538,-9.936033,0.044237,0.379603,0.006109,-0.009621,0.005956
1765410586.543738,-10.086082,0.028694,0.570301,0.004123,-0.007636,0.003360
1765410586.543993,-10.012553,0.062171,0.411286,0.000000,-0.002902,0.005803
1765410586.544193,-9.852941,0.108202,0.248685,0.001222,-0.003665,0.004887
1765410586.544393,-9.860114,0.150646,0.300096,-0.001680,-0.007483,0.000611
1765410586.544593,-10.017933,0.141081,0.420253,-0.000916,-0.005345,0.004734
1765410586.544793,-10.050214,0.146461,0.434003,-0.002902,-0.003971,0.005192
1765410586.545007,-9.836202,0.142276,0.164993,-0.005651,-0.003971,0.005498
1765410586.545207,-9.766856,0.161406,0.162602,-0.005803,-0.005192,0.004429
1765410586.545407,-9.915112,0.147059,0.339550,-0.006414,-0.005498,0.003818
1765410586.545607,-10.040649,0.156624,0.475849,-0.004887,-0.009316,0.002291
1765410586.545807,-10.025704,0.133907,0.395744,-0.005651,-0.004734,0.005040
1765410586.545962,-9.891200,0.099235,0.173960,-0.007178,-0.003054,0.004276
1765410586.546162,-9.891200,0.099235,0.173960,-0.007178,-0.005498,0.004276
1765410586.546362,-10.109396,0.092061,0.517695,-0.006567,-0.006872,-0.000305
1765410586.546562,-10.013150,0.131516,0.288737,-0.006567,-0.003971,-0.001222
1765410586.546762,-9.805116,0.112984,0.105811,-0.009316,-0.002902,-0.000305
1765410586.547001,-9.904947,0.104615,0.312052,-0.010537,-0.007941,-0.001374
1765410586.547201,-10.117167,0.105811,0.540411,-0.008399,-0.008094,-0.003054
1765410586.547401,-10.070539,0.102822,0.362267,-0.009316,-0.004276,-0.002138
1765410586.547601,-9.899570,0.050813,0.175753,-0.009468,-0.004276,-0.001833
1765410586.547801,-9.871471,0.015543,0.231946,-0.009468,-0.007789,-0.001833
1765410586.547951,-10.050214,0.083094,0.438785,-0.010996,-0.007178,-0.003512
1765410586.548151,-10.019128,0.080105,0.335964,-0.010385,-0.006414,-0.004581
1765410586.548351,-9.878048,0.027499,0.213415,-0.010690,-0.004429,-0.005803
1765410586.548551,-9.917501,-0.026303,0.389766,-0.013286,-0.007025,-0.003665
1765410586.548751,-10.063366,-0.011358,0.517695,-0.010996,-0.009774,-0.006109
1765410586.548979,-9.931850,0.022716,0.349713,-0.009927,-0.002291,-0.006414
1765410586.549179,-9.762074,-0.014347,0.096844,-0.012675,-0.002291,-0.005498
1765410586.549379,-9.790769,-0.058584,0.247489,-0.011301,-0.009468,-0.004429
1765410586.549579,-9.952174,-0.025108,0.434003,-0.012217,-0.009468,-0.006720
1765410586.549779,-9.905546,-0.020923,0.283955,-0.013439,-0.005803,-0.006109
1765410586.549957,-9.733380,-0.049617,0.137494,-0.013897,-0.005498,-0.005040
1765410586.550157,-9.860114,-0.064562,0.322812,-0.013286,-0.005803,-0.004581
1765410586.550357,-10.087276,-0.066954,0.553563,-0.014355,-0.010843,-0.006872
1765410586.550557,-9.998802,-0.050215,0.422047,-0.014966,-0.005651,-0.006720
1765410586.550757,-9.816475,-0.034672,0.123147,-0.014661,-0.003207,-0.003665
1765410586.550950,-9.780008,-0.117767,0.255261,-0.014355,-0.008705,-0.003512
1765410586.551150,-10.004781,-0.104017,0.541607,-0.012981,-0.010232,0.000153
1765410586.551350,-10.055594,-0.138690,0.491392,-0.013897,-0.008399,-0.000611
1765410586.551550,-9.870873,-0.168580,0.265423,-0.012828,-0.004276,-0.003971
1765410586.551750,-9.927068,-0.197274,0.365854,-0.012828,-0.004276,0.000611
1765410586.552005,-10.093256,-0.191296,0.520086,-0.010843,-0.010385,-0.000611
1765410586.552205,-10.025107,-0.186514,0.332975,-0.010079,-0.004734,-0.000916
1765410586.552405,-9.826636,-0.197274,0.180536,-0.009163,-0.003207,-0.000305
1765410586.552605,-9.939023,-0.206241,0.392157,-0.006872,-0.010996,-0.002443
1765410586.552805,-10.049019,-0.134505,0.452535,-0.004123,-0.009468,-0.003512
1765410586.552920,-9.989238,-0.129723,0.354495,-0.005040,-0.005192,-0.002596
1765410586.553120,-9.910329,-0.144668,0.274988,-0.003818,-0.003207,-0.002902
1765410586.553320,-10.007172,-0.159015,0.404113,-0.004123,-0.006567,0.000458
1765410586.553520,-10.031085,-0.029890,0.382592,-0.001527,-0.005651,0.000305
1765410586.553720,-9.966521,0.019130,0.270206,-0.005956,-0.006261,0.001527
1765410586.553899,-9.887612,-0.026303,0.251076,-0.007636,-0.008094,0.000305
1765410586.554099,-9.995814,-0.026303,0.426231,-0.008399,-0.008094,0.001527
1765410586.554299,-10.037063,-0.072932,0.418460,-0.005192,-0.005192,0.004887
1765410586.554499,-9.931850,-0.044237,0.278575,-0.004887,-0.006567,0.002596
1765410586.554699,-9.907937,-0.032281,0.264228,-0.006261,-0.006261,-0.002749
1765410586.555026,-10.044834,-0.009565,0.522477,-0.006261,-0.009468,-0.002749
1765410586.555226,-10.052606,0.029890,0.369440,-0.006720,-0.006872,0.003665
1765410586.555426,-9.886416,-0.017336,0.188307,-0.008094,-0.001527,0.005192
1765410586.555626,-9.857722,-0.044237,0.309660,-0.008552,-0.008552,0.001527
1765410586.555826,-10.003586,-0.057389,0.443568,-0.007636,-0.009774,0.000153
1765410586.555968,-10.055594,0.050215,0.370636,-0.008247,-0.005956,0.000153
1765410586.556168,-9.890003,0.072932,0.219393,-0.005345,-0.005192,0.003665
1765410586.556368,-9.830821,-0.005380,0.238522,-0.006720,-0.008858,0.001985
1765410586.556568,-9.997009,-0.025705,0.438785,-0.003971,-0.011759,0.002443
1765410586.556768,-9.952174,0.009565,0.312649,-0.005345,-0.006720,0.000458
1765410586.557020,-9.809898,0.011358,0.169177,-0.006109,-0.004887,0.001527
1765410586.557220,-9.806311,0.020325,0.283955,-0.005345,-0.006720,-0.000153
1765410586.557420,-10.007172,0.019130,0.442372,-0.006261,-0.012828,0.000000
1765410586.557620,-10.008368,0.010760,0.412482,-0.006414,-0.008094,0.001222
1765410586.557820,-9.961142,0.046628,0.293520,-0.006261,-0.003512,-0.000305
1765410586.557986,-9.878048,-0.008369,0.265423,-0.006261,-0.005956,0.001527
1765410586.558186,-9.959946,0.057987,0.415471,-0.008705,-0.010385,-0.002902
1765410586.558386,-9.956957,0.108800,0.353898,-0.006872,-0.004887,-0.005651
1765410586.558586,-9.778812,0.091463,0.202654,-0.009468,-0.001833,-0.001985
1765410586.558786,-9.842180,0.049020,0.337159,-0.011759,-0.008552,-0.002443
1765410586.559004,-9.979673,-0.011956,0.434601,-0.010843,-0.004734,-0.001833
1765410586.559204,-9.945600,0.049020,0.300693,-0.009163,-0.004581,-0.005345
1765410586.559404,-9.834408,0.031086,0.174558,-0.009774,-0.004581,-0.001833
1765410586.559604,-9.840983,-0.023912,0.310856,-0.009774,-0.007941,-0.000611
1765410586.559804,-9.976088,-0.009565,0.435198,-0.007789,-0.007789,-0.002596
1765410586.559951,-9.976088,-0.009565,0.435198,-0.007789,-0.005803,-0.002596
1765410586.560151,-9.775226,-0.062171,0.155428,-0.009316,-0.003512,-0.001680
1765410586.560351,-9.878048,-0.080703,0.303682,-0.009468,-0.007178,-0.003665
1765410586.560551,-10.066355,-0.077714,0.499761,-0.009010,-0.006109,-0.002749
1765410586.560751,-10.054996,-0.058584,0.400526,-0.007789,-0.004276,-0.001985
1765410586.560933,-9.883428,-0.080703,0.185318,-0.009927,-0.003665,-0.000305
1765410586.561133,-9.832614,-0.114180,0.191296,-0.009010,-0.006567,-0.001985
1765410586.561333,-9.964130,-0.107604,0.441176,-0.009927,-0.006567,0.000000
1765410586.561533,-9.992825,-0.068149,0.381396,-0.009010,-0.006261,0.001069
1765410586.561733,-9.819464,-0.043639,0.187709,-0.009621,-0.004581,-0.000764
1765410586.561925,-9.820060,-0.071736,0.243902,-0.008247,-0.004276,-0.001527
1765410586.562175,-10.017933,-0.104017,0.494978,-0.009010,-0.008399,0.000153
1765410586.562425,-10.018531,-0.080703,0.450741,-0.007483,-0.008399,-0.000458
1765410586.562675,-9.913317,-0.035868,0.228360,-0.006720,-0.002291,-0.001985
1765410586.562934,-9.793758,-0.069345,0.153037,-0.007941,-0.004887,0.000611
1765410586.563134,-9.934240,-0.086083,0.347920,-0.008399,-0.010079,-0.001680
1765410586.563334,-9.995216,-0.062171,0.389168,-0.005498,-0.010385,0.000153
1765410586.563534,-9.864299,-0.029292,0.240316,-0.007636,-0.003360,0.000000
1765410586.563734,-9.779410,-0.015543,0.230751,-0.007636,-0.004581,0.000000
1765410586.563955,-9.955164,-0.078910,0.431612,-0.006872,-0.010843,0.002596
1765410586.564155,-9.998802,-0.043042,0.469871,-0.005956,-0.010843,-0.000916
1765410586.564355,-9.998802,-0.043042,0.469871,-0.005956,-0.003054,-0.000916
1765410586.564555,-9.697512,-0.064562,0.141081,-0.010385,-0.005192,0.001374
1765410586.564755,-9.605451,-0.199665,0.187709,-0.010385,-0.012981,0.001374
1765410586.564985,-9.496053,-0.151841,0.380201,-0.006109,-0.008247,-0.000153
1765410586.565185,-9.369917,0.163797,-0.013152,-0.006567,-0.007789,-0.010232
1765410586.565385,-9.592299,0.377810,0.316834,-0.007025,0.007178,-0.003054
1765410586.565585,-9.510998,0.004782,0.465088,-0.007330,0.017257,0.014203
1765410586.565785,-10.143471,-0.206241,1.139407,-0.010537,-0.006567,0.001374
1765410586.565932,-10.255259,-0.065758,0.735294,-0.013897,-0.001069,-0.006567
1765410586.566132,-9.620994,-0.324008,-0.367049,-0.008399,0.004123,0.004123
1765410586.566332,-9.619201,-0.148254,-0.077714,-0.001833,-0.002902,-0.005651
1765410586.566532,-10.022716,0.367049,0.890722,-0.010537,0.010690,-0.010232
1765410586.566732,-10.174556,0.455524,0.889526,-0.012217,0.010690,0.003818
1765410586.566909,-9.901959,-0.104017,0.127929,-0.011148,-0.006261,0.012217
1765410586.567109,-9.772237,-0.607365,-0.019727,-0.009010,-0.006261,0.006261
1765410586.567309,-10.010758,-0.285151,0.550574,-0.005498,-0.002902,-0.012675
1765410586.567509,-10.104015,0.393352,0.642635,-0.006872,0.012981,-0.016188
1765410586.567709,-9.809898,0.401722,0.145863,-0.009163,0.005956,0.002596
1765410586.567958,-9.759683,0.004782,0.013749,-0.009163,-0.006261,0.002596
1765410586.568158,-10.083092,-0.286944,0.567312,-0.008858,0.002443,0.003818
1765410586.568358,-9.997607,-0.288140,0.545194,-0.007483,0.008247,-0.005345
1765410586.568558,-9.795551,-0.040650,0.047824,-0.008705,0.002902,-0.008399
1765410586.568758,-9.879243,0.276781,0.202654,-0.007330,0.000153,-0.006872
1765410586.568929,-9.879243,0.276781,0.202654,-0.007330,0.005040,-0.006872
1765410586.569129,-9.978478,0.032281,0.429818,-0.008094,0.009468,0.005345
1765410586.569329,-9.817072,-0.224773,0.194883,-0.011301,0.003512,0.001985
1765410586.569529,-9.814680,-0.210426,0.164993,-0.010232,0.004276,-0.002902
1765410586.569729,-9.854136,-0.032281,0.284553,-0.007483,0.004276,-0.006109
1765410586.569960,-9.837397,0.115973,0.339550,-0.003360,0.008399,-0.003665
1765410586.570160,-9.764465,0.004782,0.239120,-0.011606,0.006109,0.001222
1765410586.570360,-9.931850,0.010760,0.185916,-0.010385,0.001069,-0.001833
1765410586.570560,-9.967119,-0.111191,0.246294,-0.007789,0.008858,0.003818
1765410586.570760,-9.867287,-0.291726,0.388570,-0.006414,0.010079,0.002749
1765410586.572123,-9.965924,-0.243902,0.451937,-0.010996,0.004276,-0.008094
1765410586.572323,-9.928263,0.111191,0.280966,-0.009774,-0.000305,-0.008705
1765410586.572523,-9.867885,0.199665,0.082496,-0.007330,0.005345,-0.003360
1765410586.572723,-9.974891,0.102822,0.405308,-0.008094,0.009621,0.004429
1765410586.572923,-10.147058,-0.170971,0.576877,-0.009468,0.008247,0.006872
1765410586.572199,-9.958152,-0.349115,0.200861,-0.010232,0.004276,-0.001222
1765410586.572399,-9.966521,-0.142276,0.228360,-0.007941,0.002596,-0.007789
1765410586.572599,-9.990434,0.111191,0.346724,-0.005956,0.004581,-0.003971
1765410586.572799,-10.010758,0.179340,0.399330,-0.006872,0.004429,-0.000611
1765410586.572999,-9.851745,0.005380,0.135103,-0.008094,0.003971,0.002291
1765410586.572976,-9.926469,-0.112386,0.217001,-0.008399,0.004429,0.000916
1765410586.573176,-10.176947,-0.049617,0.515901,-0.010385,0.003818,0.001222
1765410586.573376,-10.218794,-0.099235,0.536824,-0.009774,0.005498,-0.000305
1765410586.573576,-10.027497,-0.082496,0.278575,-0.008094,0.005956,-0.001222
1765410586.573776,-9.989238,-0.011956,0.214012,-0.007330,0.001374,-0.002596
1765410586.574033,-10.027497,0.101626,0.373625,-0.009163,-0.001985,-0.001833
1765410586.574233,-10.022716,0.114778,0.303682,-0.005345,0.002749,0.002443
1765410586.574433,-9.964728,-0.017336,0.260641,-0.009621,0.002749,0.004429
1765410586.574633,-10.003586,-0.210426,0.361071,-0.011606,-0.000458,0.002902
1765410586.574833,-10.128527,-0.185916,0.493783,-0.010996,-0.002138,-0.003512
1765410586.574989,-10.060975,0.020325,0.357484,-0.008247,0.000153,-0.005040
1765410586.575189,-9.890003,0.133309,0.127929,-0.009010,-0.005956,-0.002291
1765410586.575389,-9.876852,0.007771,0.176949,-0.008247,-0.005956,0.000000
1765410586.575589,-9.968913,-0.064562,0.343137,-0.009010,-0.005803,0.001985
1765410586.575789,-9.997607,0.002391,0.306074,-0.009163,0.002443,-0.000153
1765410586.575940,-9.891797,-0.071138,0.229555,-0.007330,0.001680,-0.000153
1765410586.576140,-9.960544,-0.100430,0.318030,-0.009621,-0.007025,-0.000458
1765410586.576340,-10.126732,-0.004185,0.416069,-0.006567,-0.007789,-0.001680
1765410586.576540,-10.032280,0.041846,0.271999,-0.005498,-0.000305,-0.001069
1765410586.576740,-9.907937,0.069345,0.265423,-0.009010,-0.000458,-0.001222
1765410586.578941,-10.040649,0.050215,0.403515,-0.006720,-0.008858,0.000000
1765410586.580935,-10.092059,-0.064562,0.379603,-0.007330,-0.007636,0.002291
1765410586.583986,-9.904350,-0.120756,0.225371,-0.007330,-0.005803,-0.000916
1765410586.585948,-9.912122,-0.065160,0.247489,-0.009163,-0.001985,-0.002596
1765410586.592167,-10.028693,0.016738,0.377212,-0.009316,-0.005192,-0.003207
1765410586.592667,-10.002987,0.074127,0.312052,-0.005345,-0.005192,0.000458
1765410586.593967,-10.002987,0.074127,0.312052,-0.005345,-0.002596,0.000458
1765410586.594467,-9.928263,-0.066954,0.362865,-0.009316,-0.003512,0.001222
1765410586.598949,-10.112385,-0.070540,0.459708,-0.009927,-0.006414,-0.000153
1765410586.599921,-10.022716,-0.111191,0.316834,-0.008552,-0.004887,-0.002138
1765410586.603016,-9.922284,-0.043042,0.218795,-0.008552,-0.004887,-0.004734
1765410586.605964,-9.922284,-0.043042,0.218795,-0.008552,-0.005498,-0.004734
1765410586.607980,-10.057388,0.025108,0.466882,-0.009621,-0.009468,0.002138
1765410586.612021,-9.939621,0.011956,0.228360,-0.009316,-0.004581,0.001069
1765410586.613949,-9.835604,-0.055595,0.204448,-0.008858,-0.009621,0.002596
1765410586.615994,-9.958152,-0.159015,0.392755,-0.009316,-0.009621,0.000305
1765410586.616947,-10.020324,-0.063367,0.441176,-0.008399,-0.008094,-0.003054
1765410586.620883,-9.958152,0.058584,0.275586,-0.008552,-0.006109,-0.001680
1765410586.622973,-9.831419,0.013152,0.252869,-0.007330,-0.006109,-0.000153
1765410586.625971,-9.930056,-0.013749,0.393352,-0.009010,-0.007178,0.000000
1765410586.626961,-9.972500,-0.034672,0.337159,-0.007330,-0.003207,0.001069
1765410586.630941,-9.916306,-0.128527,0.270206,-0.006261,-0.000916,0.001069
1765410586.633996,-10.010161,-0.091463,0.438785,-0.008399,-0.005345,-0.002291
1765410586.635980,-10.086082,-0.003587,0.529651,-0.009010,-0.005345,-0.001069
1765410586.636932,-10.086082,-0.003587,0.529651,-0.009010,-0.001680,-0.001069
1765410586.640972,-9.776422,0.000000,0.196078,-0.007636,-0.002596,-0.000305
1765410586.643979,-9.862504,-0.026901,0.301889,-0.007789,-0.003054,0.002596
1765410586.645964,-9.999999,-0.041846,0.378407,-0.007178,-0.004734,-0.000916
1765410586.648966,-9.950381,-0.050215,0.347920,-0.005803,-0.001833,-0.001527
1765410586.651035,-9.950381,-0.050215,0.347920,-0.005803,-0.004276,-0.001527
1765410586.653981,-9.879243,0.020325,0.285748,-0.008705,-0.001985,-0.001222
1765410586.655988,-9.823050,0.010163,0.233142,-0.007330,-0.001985,-0.000458
1765410586.657991,-9.844571,-0.038857,0.252272,-0.005498,-0.002291,0.000458
1765410586.660948,-9.911524,-0.011956,0.363462,-0.009316,-0.003665,0.000153
1765410586.663957,-9.959349,0.005978,0.361669,-0.008247,-0.001680,0.000916
1765410586.665926,-9.875058,-0.092061,0.321616,-0.007636,0.000000,-0.000153
1765410586.667939,-9.869678,-0.094452,0.297704,-0.005956,-0.004581,-0.001069
1765410586.670918,-9.930654,-0.022716,0.346126,-0.007483,-0.003360,-0.001222
1765410586.671988,-9.879243,0.057987,0.246294,-0.007483,-0.000305,-0.000611
1765410586.675957,-9.858918,0.052606,0.278575,-0.005345,0.000764,0.000305
1765410586.676997,-9.961740,0.011956,0.447154,-0.006872,0.001527,-0.000611
1765410586.680955,-10.009563,-0.044237,0.453132,-0.008247,0.001069,-0.002596
1765410586.681987,-9.900167,-0.088474,0.273195,-0.008247,-0.001374,-0.001374
1765410586.686031,-9.870873,-0.067551,0.245696,-0.008094,0.001527,-0.002291
1765410586.688947,-9.932447,-0.029890,0.397537,-0.007789,0.001527,-0.001680
1765410586.692271,-9.977880,0.017336,0.364658,-0.005651,0.001222,-0.003818
1765410586.694008,-9.897775,0.034672,0.181731,-0.005651,0.005498,0.000000
1765410586.694508,-9.879243,-0.017934,0.227164,-0.005651,0.004123,0.000000
1765410586.697047,-10.023911,-0.058584,0.453132,-0.007941,-0.002596,0.001833
1765410586.700977,-10.066953,-0.132114,0.438785,-0.006567,-0.000458,0.001374
1765410586.701915,-9.896580,-0.075921,0.225968,-0.006109,0.005040,-0.002291
1765410586.705963,-9.885818,0.037064,0.244500,-0.007483,0.004581,-0.004123
1765410586.709055,-9.911524,0.008369,0.339550,-0.007789,-0.000611,0.001527
1765410586.709555,-9.942610,0.002391,0.333572,-0.007636,0.001374,0.000458
1765410586.712975,-9.991032,-0.060976,0.280368,-0.005345,0.000153,0.000305
1765410586.715938,-9.989238,-0.142874,0.380201,-0.006261,-0.001833,0.001222
1765410586.718922,-10.014943,-0.102822,0.409493,-0.005803,0.000611,-0.001222
1765410586.720947,-9.977880,-0.005978,0.313247,-0.007025,0.002596,-0.004429
1765410586.723958,-9.936632,0.023912,0.249880,-0.006414,0.000764,-0.002596
1765410586.725955,-10.011356,0.031086,0.365854,-0.004123,0.002596,0.000153
1765410586.728955,-10.054996,-0.024510,0.346724,-0.007483,0.001833,0.002443
1765410586.730979,-10.028095,-0.081301,0.310856,-0.009010,0.001680,0.000305
1765410586.732927,-10.082495,-0.087877,0.383788,-0.008247,0.000000,-0.000916
1765410586.734023,-10.094451,-0.078910,0.393950,-0.005345,-0.004123,0.000153
1765410586.736961,-10.019128,-0.008967,0.302487,-0.004429,0.000611,-0.001833
1765410586.740929,-9.889405,-0.005978,0.201459,-0.006261,-0.000458,0.002902
1765410586.743974,-9.884624,-0.010163,0.250478,-0.009163,-0.001985,0.002443
1765410586.745997,-9.977283,-0.039455,0.309063,-0.006414,-0.003512,0.000916
1765410586.747996,-9.997009,-0.047824,0.314443,-0.001222,-0.004581,0.000153
1765410586.751003,-9.947989,-0.078312,0.258250,-0.003971,-0.001527,0.003054
1765410586.752958,-9.970706,-0.032281,0.359876,-0.004734,-0.001985,0.000305
1765410586.755980,-9.998802,-0.047824,0.304878,-0.003360,-0.000916,0.001680
1765410586.758953,-9.912122,-0.054998,0.199067,-0.004276,-0.001222,0.000458
1765410586.759947,-9.903154,-0.010760,0.212817,-0.004123,0.000458,-0.001680
1765410586.763943,-10.029889,-0.046628,0.364658,-0.003971,-0.002596,0.001985
1765410586.765957,-9.974891,-0.088474,0.329388,-0.005345,-0.001680,-0.000305
1765410586.768045,-9.888808,-0.111191,0.193089,-0.004887,-0.002291,0.000305
1765410586.770934,-9.889405,-0.056193,0.199665,-0.005803,-0.002291,0.001527
1765410586.773994,-9.921089,-0.019130,0.290531,-0.006414,-0.001527,0.001527
1765410586.774494,-9.928263,-0.028097,0.249880,-0.003665,-0.001527,0.000916
1765410586.778950,-9.943806,0.032281,0.243902,-0.002749,-0.002138,0.000153
1765410586.779450,-9.988043,-0.017934,0.359876,-0.005040,-0.002291,0.002138
1765410586.782016,-9.992825,-0.035868,0.325801,-0.006567,-0.000764,0.001985
1765410586.785932,-9.905546,-0.048422,0.221784,-0.004581,0.002138,-0.000458
1765410586.788948,-9.866092,-0.029890,0.316834,-0.000458,0.001833,0.000153
1765410586.789448,-9.928861,-0.020325,0.381396,-0.002138,-0.000458,0.001680
1765410586.793034,-9.985053,0.011956,0.388570,-0.005803,-0.005345,0.000458
1765410586.796040,-9.927068,0.017934,0.341942,-0.006109,-0.006414,0.003971
1765410586.800298,-9.947989,-0.008369,0.275586,-0.006414,-0.009163,0.004581
1765410586.801002,-9.955761,-0.045433,0.303682,-0.005498,-0.008858,0.003360
1765410586.803985,-9.964130,-0.034672,0.327594,-0.006720,-0.006720,0.004276
1765410586.805995,-9.987445,-0.034672,0.392157,-0.004734,-0.008247,0.004276
1765410586.807013,-10.009563,-0.034672,0.398135,-0.007330,-0.008247,0.001833
1765410586.810962,-9.992227,0.012554,0.309660,-0.006109,-0.006872,0.002138
1765410586.813979,-9.926469,-0.005978,0.274988,-0.007178,-0.001680,0.003207
1765410586.815978,-9.942610,-0.010760,0.327594,-0.009316,-0.003665,0.003054
1765410586.817988,-9.919296,-0.003587,0.313845,-0.004887,-0.002596,0.002443
1765410586.820956,-9.874461,-0.040650,0.224773,-0.004429,-0.002596,0.003665
1765410586.823957,-9.915112,-0.070540,0.271401,-0.004429,-0.003818,0.003665
1765410586.825941,-9.958152,-0.015543,0.389766,-0.001222,-0.002749,0.000916
1765410586.826914,-9.880439,0.016738,0.239718,-0.002291,0.000000,0.002749
1765410586.829017,-9.806910,0.051411,0.159015,-0.003207,-0.000916,0.004429
1765410586.833946,-9.855330,0.048422,0.255858,-0.002596,-0.004429,0.005803
1765410586.836062,-9.922284,0.011956,0.386179,-0.003360,-0.004429,0.006414
1765410586.838021,-9.896580,-0.050813,0.254663,-0.004887,-0.001985,0.004123
1765410586.840968,-9.831419,-0.057389,0.143472,-0.003665,-0.001985,0.003054
1765410586.843982,-9.912122,-0.038857,0.209230,-0.005498,-0.001222,0.003360
1765410586.845920,-10.022716,0.003587,0.415471,-0.006567,0.001527,0.002291
1765410586.847018,-9.958751,0.005978,0.315041,-0.004276,0.011148,0.005192
1765410586.850951,-9.774628,-0.076518,0.216404,-0.005345,0.006720,0.007025
1765410586.853955,-9.906742,-0.069345,0.404711,-0.006261,0.000764,0.001527
1765410586.854933,-9.985053,-0.030488,0.486609,-0.006720,-0.001680,0.002902
1765410586.857962,-9.866689,-0.016738,0.324008,-0.007483,0.001069,0.001985
1765410586.860939,-9.859515,0.054998,0.261239,-0.006261,0.001527,0.002902
1765410586.862004,-10.034073,0.005380,0.466882,-0.008705,-0.006109,0.005498
1765410586.865952,-10.045432,-0.048422,0.410091,-0.005803,-0.005498,0.004123
1765410586.866987,-9.925871,-0.049020,0.230153,-0.002596,-0.003207,0.003054
1765410586.871943,-9.785987,-0.064562,0.129125,-0.005956,0.000305,0.003818
1765410586.873982,-9.872667,0.028694,0.285748,-0.007941,-0.005040,0.003360
1765410586.875954,-10.005977,0.005380,0.362267,-0.006414,-0.005498,0.002749
1765410586.878011,-9.909731,0.068149,0.212219,-0.002749,-0.001374,0.004887
1765410586.881031,-9.900764,0.041846,0.240316,-0.006261,-0.002291,0.008247
1765410586.883978,-10.063366,-0.031683,0.470469,-0.005956,-0.000764,0.007483
1765410586.886070,-10.049617,-0.075323,0.435198,-0.001680,-0.001222,0.007025
1765410586.889033,-10.049617,-0.075323,0.435198,-0.001680,-0.000153,0.007025
1765410586.891041,-9.827832,-0.035868,0.157819,-0.005192,0.001222,0.002902
1765410586.894024,-9.885221,0.016738,0.304878,-0.001222,-0.003971,0.003818
1765410586.896155,-9.953370,0.004782,0.340746,-0.005040,0.003512,0.004734
1765410586.899063,-9.882831,-0.054998,0.154830,-0.006720,0.003512,0.007941
1765410586.901006,-9.922883,-0.099235,0.245098,-0.006414,0.001527,0.006720
1765410586.902028,-10.050214,-0.071138,0.435796,-0.004734,0.005498,0.004887
1765410586.908166,-10.058583,-0.017934,0.449546,-0.003818,0.004276,0.005651
1765410586.908666,-9.898373,-0.017934,0.221784,-0.004734,0.002291,0.007025
1765410586.911047,-9.943806,0.008369,0.304878,-0.003360,0.001985,0.006720
1765410586.914016,-10.014346,-0.028694,0.474055,-0.005345,0.001069,0.006414
1765410586.916030,-10.016738,-0.052606,0.412482,0.000153,-0.001374,0.009774
1765410586.918029,-9.970706,-0.009565,0.272597,0.000764,-0.000305,0.007330
1765410586.921022,-10.002390,-0.008369,0.326399,-0.003360,-0.000458,0.008399
1765410586.924082,-10.100429,-0.078910,0.445361,-0.000305,-0.003818,0.004734
1765410586.925998,-9.990434,-0.076518,0.315638,0.000458,0.001374,0.009010
1765410586.928980,-9.858320,-0.033477,0.125538,-0.000458,0.001680,0.006567
1765410586.930936,-9.913317,0.045433,0.225371,-0.001222,-0.001833,0.006414
1765410586.932989,-10.139884,0.042444,0.498565,-0.000458,-0.002596,0.007636
1765410586.935970,-10.046029,0.007174,0.346724,-0.003512,0.000153,0.006567
1765410586.937023,-9.893590,-0.021521,0.153037,-0.006261,0.007483,0.006720
1765410586.941045,-9.939023,0.005978,0.228360,-0.005651,0.003818,0.007178
1765410586.942986,-10.020324,-0.051411,0.383788,-0.003207,0.001680,0.006414
1765410586.944030,-9.913916,-0.046031,0.258250,-0.006872,0.000153,0.009316
1765410586.948027,-9.884026,-0.026303,0.184720,-0.003971,0.004429,0.006414
1765410586.950996,-10.004781,0.038259,0.398733,-0.004429,0.000153,0.010385
1765410586.954116,-10.086082,-0.042444,0.418460,-0.004123,0.001069,0.009927
1765410586.955938,-9.982065,-0.090866,0.260641,-0.003512,0.001069,0.011454
1765410586.958975,-9.892395,-0.069345,0.242707,-0.005803,0.003360,0.008858
1765410586.960993,-10.008965,-0.002391,0.444165,-0.003512,0.000000,0.009927
1765410586.964006,-10.008965,-0.002391,0.444165,-0.003512,-0.000611,0.009927
1765410586.965990,-9.860114,-0.005978,0.212817,-0.000611,0.000153,0.010843
1765410586.968953,-9.824244,-0.076518,0.129125,0.001985,-0.002291,0.008858
1765410586.970958,-9.963533,-0.119560,0.345528,0.000764,-0.003971,0.007789
1765410586.973928,-9.968913,-0.069943,0.384983,0.003207,0.000000,0.006567
1765410586.974428,-9.968913,-0.069943,0.384983,0.003207,0.002902,0.006567
1765410586.979062,-9.759683,0.058584,0.099235,-0.000458,-0.005192,0.005956
1765410586.979562,-9.921686,0.076518,0.320421,0.001222,-0.005192,0.011454
1765410586.984003,-9.978478,0.000000,0.382592,0.000305,-0.002138,0.010232
1765410586.986027,-9.820060,-0.034075,0.184122,-0.003818,0.003665,0.010385
1765410586.989003,-9.854136,-0.001793,0.192492,-0.007483,-0.000458,0.009927
1765410586.992093,-9.999999,-0.041846,0.369440,-0.006109,0.001833,0.010079
1765410586.993983,-9.881634,0.051411,0.217599,-0.005803,0.001833,0.007636
1765410586.995998,-9.839788,0.114778,0.166188,-0.004581,0.003512,0.008552
1765410586.998985,-9.854136,0.037064,0.205643,-0.005803,0.007941,0.013744
1765410587.001000,-9.996411,-0.125538,0.468675,-0.006720,0.000764,0.016341
1765410587.003932,-9.927666,-0.138092,0.367647,0.001222,0.004123,0.009621
1765410587.004432,-9.868484,-0.057389,0.295911,0.001374,0.005192,0.007789
1765410587.008999,-9.906742,0.031086,0.374223,0.001069,0.000000,0.004429
1765410587.009985,-10.106407,0.132712,0.487805,0.004429,0.005345,0.006872
1765410587.013936,-10.036465,0.139885,0.327594,-0.000305,0.005345,0.009468
1765410587.015941,-10.036465,0.139885,0.327594,-0.000305,0.001222,0.009468
1765410587.017978,-9.915709,-0.037661,0.139885,-0.001833,0.000153,0.009316
1765410587.020956,-10.002987,-0.020325,0.395744,-0.002138,0.001069,0.009316
1765410587.021941,-9.887612,-0.035868,0.302487,-0.000764,0.005956,0.008247
1765410587.025944,-9.740554,-0.035868,0.085485,-0.002443,0.005956,0.008705
1765410587.029008,-9.740554,-0.035868,0.085485,-0.002443,0.000458,0.008705
1765410587.030953,-10.147655,0.056193,0.576279,-0.001222,-0.001069,0.014508
1765410587.033002,-10.016738,-0.044237,0.453132,0.000458,0.007941,0.013134
1765410587.035964,-9.820659,0.011358,0.101626,-0.002291,0.006109,0.012523
1765410587.038995,-9.886416,-0.017934,0.285748,-0.000305,-0.002749,0.011454
1765410587.040990,-9.999401,-0.005978,0.400526,-0.002596,-0.001985,0.010537
1765410587.044027,-9.990434,0.070540,0.289335,-0.002138,0.010537,0.010385
1765410587.046021,-9.796746,0.043042,0.113582,-0.002749,0.010537,0.013134
1765410587.046982,-9.796746,0.043042,0.113582,-0.002749,0.001833,0.013134
1765410587.050074,-10.142276,-0.104017,0.529651,-0.000764,-0.000916,0.012828
1765410587.051995,-9.971304,-0.167384,0.331181,-0.001374,0.007025,0.009774
1765410587.055991,-9.756096,-0.094452,0.035868,0.001222,0.003360,0.013592
1765410587.058995,-9.886416,-0.044237,0.364060,0.000000,0.003054,0.008552
1765410587.060949,-10.023313,0.056193,0.466882,0.001680,0.001374,0.010537
1765410587.062963,-9.960544,0.078910,0.277379,0.000153,0.002596,0.011148
1765410587.065985,-9.860711,0.086083,0.135701,0.000764,0.004276,0.011301
1765410587.068017,-9.952174,0.028097,0.396939,-0.003818,0.002902,0.014203
1765410587.071021,-10.019128,-0.107604,0.335964,-0.001069,0.002902,0.016952
1765410587.073030,-9.967119,-0.147059,0.318030,-0.001069,0.003360,0.016952
1765410587.076011,-9.890003,-0.065758,0.233142,0.002138,-0.001680,0.013286
1765410587.078983,-9.980869,-0.090268,0.324605,0.002596,-0.001680,0.014203
1765410587.081077,-9.992825,-0.015543,0.334768,0.000153,0.010537,0.010843
1765410587.083019,-9.984456,0.019130,0.186514,0.001222,0.010537,0.011759
1765410587.086061,-9.883428,-0.076518,0.208034,0.001222,0.007178,0.011759
1765410587.088963,-10.011955,0.078910,0.370636,0.003512,0.004429,0.009621
1765410587.090983,-9.978478,0.062171,0.430416,0.002749,0.003207,0.014355
1765410587.093990,-9.879841,0.071138,0.231946,0.001680,0.003207,0.012828
1765410587.095988,-9.917501,0.082496,0.299498,0.000611,0.003207,0.015272
1765410587.100185,-9.899570,-0.037064,0.205643,-0.001069,-0.001985,0.015272
1765410587.100999,-9.973696,-0.028097,0.228360,0.000305,0.003971,0.016952
1765410587.103017,-9.887612,-0.056193,0.214610,0.000764,0.008094,0.016952
1765410587.105964,-9.887612,-0.056193,0.214610,0.000764,0.006261,0.016952
1765410587.109027,-9.978478,-0.121951,0.252869,0.000764,0.008858,0.013744
1765410587.110950,-10.019128,-0.014347,0.313247,0.003971,0.002596,0.012370
1765410587.113939,-9.964130,0.065758,0.310856,0.005345,0.007025,0.013286
1765410587.115932,-9.925871,0.187709,0.222979,0.003360,0.006567,0.015577
1765410587.118935,-9.907937,0.133907,0.221186,-0.000305,0.002749,0.018173
1765410587.120964,-9.972500,0.080105,0.310856,0.000000,0.007025,0.020006
1765410587.123005,-9.981467,-0.037064,0.267814,-0.002291,0.002138,0.022755
1765410587.126015,-9.943208,-0.138690,0.246294,-0.002596,0.009163,0.017562
1765410587.128962,-9.887612,-0.108800,0.174558,0.004429,0.007941,0.018937
1765410587.131009,-9.903154,-0.074127,0.169775,0.001833,0.008552,0.016341
1765410587.134038,-9.849951,-0.013152,0.178144,0.004276,0.005040,0.014050
1765410587.135981,-9.964130,0.039455,0.472860,0.004887,0.012065,0.015577
1765410587.137031,-9.873264,-0.022716,0.434601,0.004734,0.000764,0.020311
1765410587.141011,-9.924676,0.023912,0.351506,0.005956,0.000764,0.016646
1765410587.144040,-9.852343,0.090866,-0.009565,0.001985,0.004429,0.012523
1765410587.145973,-9.791965,0.163797,-0.063367,0.001985,0.004429,0.016493
1765410587.148935,-9.989837,0.187709,0.401722,0.003207,0.004734,0.017410
1765410587.150947,-10.077712,0.034672,0.535031,-0.001069,0.009927,0.017715
1765410587.154016,-9.984456,-0.113582,0.257054,0.002443,0.009927,0.021533
1765410587.155953,-9.894786,-0.129723,0.092659,0.005651,0.006109,0.018937
1765410587.157966,-9.971903,-0.124940,0.335964,0.005651,0.004276,0.014355
1765410587.161005,-9.884026,0.038259,0.211023,0.004123,0.008094,0.014050
1765410587.164020,-9.980869,0.124342,0.315638,0.005803,0.010079,0.017715
1765410587.164520,-10.017335,0.083692,0.405308,0.005803,0.008094,0.015730
1765410587.168053,-10.060975,0.123745,0.424438,0.004429,0.008705,0.015424
1765410587.171013,-9.910329,0.163199,0.315638,0.004276,0.011148,0.019548
1765410587.174029,-10.038258,0.162004,0.382592,0.003207,0.010232,0.017868
1765410587.176030,-9.907937,0.083692,0.154232,0.002902,0.004429,0.021838
1765410587.179107,-9.904350,-0.026303,0.121951,-0.001527,0.005651,0.021838
1765410587.181049,-9.814083,-0.002391,0.092061,0.001527,0.012370,0.021838
1765410587.183084,-9.895982,-0.063965,0.377810,0.002749,0.009774,0.021838
1765410587.186052,-9.939023,-0.077714,0.417264,0.003818,0.012370,0.018937
1765410587.188103,-9.883428,-0.017934,0.222382,0.005040,0.007636,0.018937
1765410587.191010,-9.745336,-0.055595,0.071736,0.004276,0.005956,0.018784
1765410587.194727,-9.870873,0.014347,0.215208,0.002291,0.002749,0.018021
1765410587.196046,-10.054399,0.092061,0.355093,0.003818,0.006109,0.017257
1765410587.198089,-9.869678,0.096844,0.162602,0.003512,0.006109,0.021228
1765410587.201043,-9.869678,0.096844,0.162602,0.003512,0.007636,0.021228
1765410587.203193,-9.826636,0.020325,0.112386,-0.000458,0.007789,0.021533
1765410587.206002,-9.903154,-0.010760,0.248685,-0.000764,0.008399,0.023060
1765410587.208982,-10.065159,-0.000598,0.369440,0.000611,0.011148,0.021991
1765410587.211003,-10.117765,-0.081301,0.539216,0.005803,0.011148,0.024129
1765410587.213974,-10.012553,-0.101028,0.431014,0.005040,0.009621,0.024282
1765410587.215986,-9.846962,-0.107006,0.035868,0.002596,0.005956,0.021380
1765410587.219022,-9.904350,-0.087279,0.195481,0.005651,0.007025,0.015577
1765410587.219522,-9.994021,0.127331,0.298302,0.005803,0.010996,0.016035
1765410587.224037,-9.927666,0.163797,0.277379,0.005345,0.012217,0.020464
1765410587.226008,-9.733380,0.121951,-0.005978,0.005956,0.014813,0.023060
1765410587.229037,-10.021520,0.077714,0.309660,0.003054,0.012675,0.022602
1765410587.230979,-10.087276,-0.090866,0.445959,0.004276,0.012675,0.024893
1765410587.233008,-9.903154,-0.117169,0.280966,0.004887,0.015730,0.024587
1765410587.236021,-9.735771,-0.086083,0.043042,0.002291,0.016493,0.021075
1765410587.239031,-9.905546,-0.033477,0.228360,0.003512,0.009010,0.022602
1765410587.240988,-10.156623,0.064562,0.541009,0.008399,0.012217,0.021075
1765410587.244034,-10.006575,0.076518,0.332377,0.007941,0.016035,0.021991
1765410587.244534,-10.006575,0.076518,0.332377,0.007941,0.016799,0.021991
1765410587.248001,-9.925871,0.022716,0.335964,0.006109,0.008705,0.021991
1765410587.251023,-10.074127,0.072334,0.451937,0.011301,0.006109,0.023671
1765410587.254043,-9.999401,0.139885,0.243902,0.007636,0.009927,0.024587
1765410587.255956,-9.999999,0.028097,0.300096,0.002138,0.008858,0.024893
1765410587.258978,-9.999999,0.028097,0.300096,0.002138,0.004581,0.024893
1765410587.261038,-9.922284,-0.025705,0.165591,0.007941,0.019700,0.022602
1765410587.262003,-9.855929,0.046628,0.172166,0.008094,0.019700,0.024740
1765410587.266048,-9.931850,0.017934,0.229555,0.008705,0.011759,0.026420
1765410587.268087,-9.928861,0.027499,0.358680,0.008247,0.010385,0.027794
1765410587.271019,-9.930654,0.039455,0.252272,0.005651,0.010537,0.022144
1765410587.274016,-9.895982,0.020923,0.296509,0.006567,0.015577,0.023671
1765410587.276044,-9.840983,0.223577,0.233142,0.005498,0.010690,0.021228
1765410587.277035,-9.934838,0.148254,0.276184,0.002749,0.009621,0.024740
1765410587.281023,-9.783595,0.102822,0.021521,0.004887,0.016646,0.026420
1765410587.284015,-9.842180,0.069345,0.258250,0.006261,0.016646,0.026725
1765410587.284515,-9.842180,0.028097,0.368245,0.006872,0.010537,0.031612
1765410587.288050,-9.904350,-0.106408,0.109397,0.005040,0.010537,0.027794
1765410587.291051,-9.912122,-0.065758,0.065758,0.005040,0.010232,0.027794
1765410587.294038,-9.835604,-0.067551,0.010760,0.007178,0.012828,0.022144
1765410587.296121,-9.891200,0.152439,0.253467,0.009468,0.020006,0.022297
1765410587.299030,-9.886416,0.174558,0.341942,0.004734,0.019700,0.022602
1765410587.299530,-10.145862,0.078910,0.615734,0.005651,0.017868,0.027184
1765410587.304060,-10.126732,0.003587,0.312052,0.004734,0.013134,0.027794
1765410587.305047,-10.045432,-0.039455,0.255261,0.006872,0.017410,0.025656
1765410587.308155,-9.949186,0.081301,0.182927,0.003971,0.017410,0.022297
1765410587.311050,-10.109993,0.198470,0.378407,0.003818,0.012217,0.024587
1765410587.312053,-9.811692,0.145863,0.041846,0.006567,0.019090,0.034056
1765410587.313985,-9.851147,0.075323,0.032281,0.011912,0.018173,0.032223
1765410587.319024,-9.885221,-0.014347,0.353898,0.009621,0.020769,0.029627
1765410587.321101,-10.124342,0.005978,0.590626,0.008399,0.015730,0.033903
1765410587.322985,-10.124342,0.050215,0.552367,0.007941,0.014203,0.029169
1765410587.326022,-9.958152,0.015543,0.230751,0.008552,0.013134,0.030543
1765410587.328031,-9.864896,0.041846,0.075921,0.008399,0.011606,0.032681
1765410587.331046,-10.093256,-0.027499,0.373027,0.007636,0.008247,0.028863
1765410587.332002,-10.208033,0.095648,0.622908,0.009927,0.015424,0.027947
1765410587.335994,-9.955761,0.065758,0.153037,0.012675,0.017410,0.031612
1765410587.338102,-9.824843,0.015543,0.025108,0.009316,0.011912,0.030696
1765410587.342047,-9.909132,0.115973,-0.036466,0.005651,0.009774,0.025045
1765410587.344018,-10.135101,0.039455,0.424438,0.005498,0.027947,0.028100
1765410587.345986,-9.885221,0.142276,0.271999,0.005498,0.027947,0.028100
1765410587.349010,-10.040649,0.022716,0.361071,0.007636,0.016493,0.031612
1765410587.351006,-10.033475,0.035868,0.361071,0.005498,0.014813,0.027642
1765410587.354012,-10.026900,0.020325,0.199665,0.009774,0.011454,0.030238
1765410587.354512,-9.862504,0.025108,0.115973,0.011148,0.021380,0.032376
1765410587.359085,-9.970706,0.003587,0.308465,0.007178,0.021228,0.028100
1765410587.361029,-10.057388,0.054998,0.412482,0.011454,0.020769,0.029169
1765410587.362972,-9.874461,0.075323,0.050215,0.011606,0.016799,0.027336
1765410587.366002,-9.845766,0.148852,0.188905,0.011148,0.020006,0.030085
1765410587.368995,-9.788378,0.121951,0.179340,0.013286,0.016493,0.034056
1765410587.370967,-10.032280,0.029890,0.388570,0.009163,0.016493,0.032070
1765410587.373999,-9.955164,0.095648,0.180536,0.007636,0.019090,0.031307
1765410587.374499,-9.979673,0.057389,0.422047,0.010079,0.019242,0.032834
1765410587.377044,-9.850550,0.101626,0.247489,0.009927,0.018326,0.033445
1765410587.379040,-9.998802,0.017336,0.236729,0.007330,0.008247,0.033139
1765410587.384039,-9.817670,0.065160,-0.148254,0.007483,0.017868,0.029932
1765410587.385988,-9.775226,0.017934,-0.070540,0.010385,0.016188,0.030238
1765410587.387032,-9.934240,0.068747,0.463893,0.012523,0.022907,0.033750
1765410587.389440,-9.988043,0.035868,0.319225,0.009010,0.015730,0.029627
1765410587.393062,-9.931850,0.075921,0.119560,0.007941,0.017562,0.028100
1765410587.396082,-9.869678,0.167384,0.192492,0.009468,0.021228,0.031612
1765410587.398109,-9.916904,0.135103,0.392157,0.010690,0.021380,0.038790
1765410587.399075,-9.936632,-0.022716,0.312052,0.009010,0.019700,0.032681
1765410587.402072,-9.959349,-0.011358,0.166188,0.008094,0.019700,0.033903
1765410587.404026,-9.781204,0.021521,0.068747,0.013286,0.019700,0.036805
1765410587.408072,-9.982065,0.076518,0.278575,0.012675,0.013439,0.030543
1765410587.411054,-10.114776,0.121951,0.331779,0.008094,0.023824,0.028100
1765410587.414025,-9.897178,0.132114,0.001196,0.009468,0.021075,0.032223
1765410587.416056,-9.744141,0.093257,-0.086681,0.015272,0.021075,0.036346
1765410587.419033,-9.924676,0.102822,0.379005,0.015272,0.027336,0.036346
1765410587.421010,-10.013150,0.181133,0.532042,0.011912,0.028711,0.034819
1765410587.422988,-10.041844,0.056193,0.486011,0.010843,0.019242,0.039248
1765410587.426011,-10.041844,0.056193,0.486011,0.010843,0.015424,0.039248
1765410587.429051,-9.904350,0.050215,0.015543,0.013744,0.012065,0.035430
1765410587.431120,-9.904350,0.050215,0.015543,0.013744,0.021533,0.035430
1765410587.433036,-10.053802,0.255261,0.295313,0.015272,0.023671,0.034208
1765410587.436008,-9.978478,0.108202,0.322812,0.011301,0.023671,0.037415
1765410587.437024,-9.978478,0.108202,0.322812,0.011301,0.022755,0.037415
1765410587.441023,-9.966521,0.060378,0.291726,0.010996,0.020617,0.041081
1765410587.444064,-9.905546,0.036466,0.121353,0.008247,0.016799,0.034514
1765410587.446009,-9.779410,0.115973,-0.076518,0.010843,0.024435,0.033903
1765410587.449053,-9.770443,0.099235,-0.163199,0.014661,0.024435,0.039554
1765410587.449553,-9.868484,0.006576,0.313247,0.014508,0.024740,0.040928
1765410587.453057,-10.029292,0.081899,0.688666,0.014050,0.026725,0.034819
1765410587.456103,-9.860711,0.082496,0.187709,0.011912,0.028100,0.038332
1765410587.459012,-9.681969,0.025108,-0.090866,0.008094,0.018173,0.037874
1765410587.461025,-10.027497,0.077714,0.385581,0.012675,0.019700,0.036805
1765410587.463037,-10.032280,0.035868,0.428025,0.011301,0.024129,0.041081
1765410587.465982,-9.751911,0.015543,-0.117169,0.011912,0.019090,0.039554
1765410587.467989,-9.713055,0.043042,-0.370636,0.011912,0.019090,0.037568
1765410587.470968,-9.974294,-0.013152,0.162004,0.018784,0.022907,0.039554
1765410587.472002,-10.350309,0.142276,1.103539,0.022449,0.031307,0.037568
1765410587.473989,-10.147058,0.164993,0.801052,0.016188,0.034514,0.039095
1765410587.477026,-9.843973,0.165591,0.114778,0.008858,0.016493,0.038179
1765410587.481103,-9.927068,0.118962,-0.266619,0.012523,0.003207,0.036499
1765410587.484061,-9.927068,0.118962,-0.266619,0.012523,0.012217,0.036499
1765410587.486041,-9.879841,0.169775,0.090866,0.016341,0.028100,0.041844
1765410587.489053,-9.876852,0.184720,0.222979,0.013286,0.032376,0.039401
1765410587.491025,-9.986848,0.104017,0.256456,0.012828,0.019548,0.043371
1765410587.494107,-10.019128,0.092061,0.052606,0.020464,0.019548,0.040775
1765410587.496113,-9.929459,0.209230,0.182927,0.018479,0.032223,0.041233
1765410587.498142,-9.790769,0.108800,0.172166,0.019853,0.038179,0.043982
1765410587.501047,-9.843973,-0.037064,0.225968,0.014050,0.023366,0.044746
1765410587.502098,-10.047226,0.157221,0.364658,0.017562,0.023824,0.040012
1765410587.504061,-9.907937,0.064562,0.142874,0.019242,0.029474,0.045051
1765410587.508128,-9.806311,0.037661,0.144070,0.013744,0.029016,0.043830
1765410587.511093,-10.144069,0.111191,0.497370,0.012065,0.020006,0.040470
1765410587.513126,-10.124342,0.029890,0.297704,0.014813,0.026420,0.044746
1765410587.514027,-9.758488,0.082496,-0.216404,0.017562,0.025351,0.040623
1765410587.518025,-10.001194,0.185318,0.227164,0.016035,0.029627,0.039401
1765410587.518997,-10.063366,0.157819,0.478240,0.016341,0.029169,0.045815
1765410587.524063,-10.105211,0.143472,0.349115,0.020006,0.024282,0.044746
1765410587.526085,-9.820659,0.053802,-0.105811,0.019700,0.023671,0.042761
1765410587.527050,-9.987445,0.195481,0.199665,0.020922,0.026114,0.040317
1765410587.531055,-10.094451,0.223577,0.367049,0.017562,0.028253,0.043830
1765410587.533055,-10.111190,0.167384,0.447154,0.016035,0.025045,0.045815
1765410587.536049,-9.772835,0.159015,-0.210426,0.013897,0.029016,0.044440
1765410587.539037,-9.703490,0.143472,-0.178144,0.017104,0.024129,0.043371
1765410587.541015,-9.826636,0.229555,0.213415,0.016493,0.030238,0.047037
1765410587.543988,-9.966521,0.094452,0.094452,0.020617,0.031612,0.045662
1765410587.545980,-9.976685,0.147059,0.308465,0.016952,0.035277,0.043066
1765410587.548087,-10.066953,0.200263,0.555954,0.016952,0.037110,0.044288
1765410587.551050,-10.049019,0.074127,0.498565,0.015424,0.027642,0.051007
1765410587.553067,-9.851745,-0.017934,-0.053802,0.011454,0.021838,0.043830
1765410587.556003,-9.808702,0.169775,-0.145863,0.014966,0.027642,0.043066
1765410587.558061,-9.782400,0.039455,0.035270,0.018173,0.031307,0.046731
1765410587.561014,-10.062170,0.103419,0.424438,0.021075,0.033903,0.042608
1765410587.564015,-10.159613,0.212817,0.433405,0.018021,0.033903,0.038485
1765410587.566001,-9.772835,0.155428,-0.181731,0.017868,0.031460,0.049480
1765410587.567085,-9.808105,0.028097,-0.078312,0.014355,0.024129,0.048717
1765410587.571035,-9.808105,0.028097,-0.078312,0.014355,0.030543,0.048717
1765410587.573060,-9.938425,0.147059,0.056791,0.020617,0.036499,0.048411
1765410587.574011,-9.894786,0.229555,0.105213,0.020617,0.036499,0.045815
1765410587.577104,-10.070539,0.292922,0.389766,0.021991,0.036346,0.049327
1765410587.581065,-10.184121,0.121951,0.597800,0.021228,0.032834,0.052993
1765410587.583025,-10.179338,0.121951,0.344333,0.017257,0.033139,0.046884
1765410587.586080,-10.029292,0.160210,0.151841,0.017104,0.024435,0.048869
1765410587.588093,-9.848158,0.035270,0.054998,0.017715,0.024435,0.050702
1765410587.591053,-9.846962,0.149450,-0.001793,0.018631,0.024587,0.045204
1765410587.593122,-9.919893,0.174558,0.264825,0.020006,0.037110,0.044746
1765410587.596110,-9.813485,0.147657,0.060976,0.023213,0.033445,0.052840
1765410587.598001,-9.944403,0.093257,0.180536,0.016952,0.025962,0.051465
1765410587.601017,-10.013150,0.057389,0.256456,0.020464,0.029322,0.046578
1765410587.603022,-9.808105,0.062171,-0.007174,0.023213,0.034819,0.049786
1765410587.606078,-9.866092,0.147059,-0.021521,0.020464,0.029016,0.047189
1765410587.608098,-9.985053,0.214610,0.230751,0.018173,0.029016,0.045968
1765410587.611092,-9.875058,0.017934,0.065758,0.021686,0.032376,0.053756
1765410587.612088,-10.044236,0.139885,0.353898,0.022602,0.036652,0.047189
1765410587.614081,-10.047226,0.148852,0.318030,0.024282,0.035430,0.050549
1765410587.619013,-10.168577,-0.024510,0.416069,0.024740,0.032987,0.053756
1765410587.620974,-10.026302,0.216404,0.147657,0.029016,0.032987,0.049175
1765410587.624018,-10.026302,0.216404,0.147657,0.029016,0.031765,0.049175
1765410587.624518,-9.897178,0.196078,0.106408,0.021228,0.034056,0.050855
1765410587.629008,-10.088473,0.229555,0.266619,0.018021,0.027794,0.048411
1765410587.631037,-9.885221,0.143472,-0.011358,0.024587,0.033750,0.049480
1765410587.632038,-9.591104,0.231349,-0.555954,0.023824,0.033750,0.047647
1765410587.636026,-9.976088,0.309660,0.356887,0.021228,0.038026,0.049786
1765410587.637021,-10.156623,0.337757,0.588235,0.028100,0.041233,0.056810
1765410587.641064,-10.242108,0.176949,0.639048,0.018784,0.033292,0.056047
1765410587.644040,-10.242108,0.176949,0.639048,0.018784,0.038485,0.056047
1765410587.645995,-9.606647,0.045433,-0.334170,0.021533,0.027947,0.060934
1765410587.647075,-9.776422,0.080105,-0.046628,0.026114,0.030238,0.055589
1765410587.651000,-10.276181,0.168580,0.743065,0.025656,0.044440,0.051618
1765410587.653039,-10.118362,0.291726,0.530846,0.024129,0.044440,0.060018
1765410587.656086,-10.118362,0.291726,0.530846,0.024129,0.027489,0.060018
1765410587.657006,-9.701696,0.133907,-0.299498,0.017715,0.018631,0.055436
1765410587.661071,-9.912720,0.037064,-0.127929,0.023976,0.021228,0.055741
1765410587.663095,-10.088473,0.204448,0.322812,0.029932,0.039248,0.054672
1765410587.666029,-9.848756,0.264228,-0.052009,0.026878,0.045204,0.051924
1765410587.668139,-9.919296,0.369440,0.179340,0.021075,0.042302,0.053298
1765410587.671119,-9.918698,0.230751,-0.025108,0.020464,0.036346,0.057727
1765410587.674066,-10.261237,0.116571,0.556552,0.026114,0.034056,0.056810
1765410587.674566,-10.129124,0.190698,0.459110,0.025198,0.038637,0.050091
1765410587.678079,-10.104015,0.228360,0.392755,0.025504,0.038637,0.054825
1765410587.681056,-10.104015,0.228360,0.392755,0.025504,0.036499,0.054825
1765410587.683134,-9.999999,0.370636,0.068747,0.028405,0.027794,0.053756
1765410587.686126,-9.985652,0.150048,0.182927,0.022297,0.039248,0.061545
1765410587.687083,-10.040649,0.172166,0.297107,0.025809,0.038179,0.056810
1765410587.691077,-9.916306,0.045433,0.087279,0.022297,0.038179,0.058796
1765410587.693099,-9.765661,0.173362,-0.078910,0.023976,0.030543,0.051618
1765410587.696078,-10.095646,0.402917,0.215806,0.024129,0.034514,0.050091
1765410587.698077,-10.100429,0.358680,0.266619,0.026725,0.036194,0.060781
1765410587.701100,-10.109396,0.211621,0.219990,0.026725,0.038637,0.060781
1765410587.704102,-9.891200,0.113582,-0.109995,0.026573,0.038026,0.060781
1765410587.708229,-9.805116,0.034075,-0.230153,0.029932,0.040012,0.055131
1765410587.708361,-10.034670,0.292922,0.296509,0.030543,0.042455,0.052993
1765410587.711041,-10.245097,0.515304,0.805834,0.031307,0.049480,0.056505
1765410587.714033,-10.245097,0.515304,0.805834,0.031307,0.042455,0.056505
1765410587.716017,-9.652678,0.094452,-0.370636,0.020311,0.026573,0.065057
1765410587.718083,-9.800333,0.076518,-0.264825,0.025962,0.026420,0.060323
1765410587.719062,-9.868484,-0.006576,0.147059,0.031918,0.039095,0.058643
1765410587.724068,-10.017933,0.279770,0.533238,0.029016,0.045357,0.053909
1765410587.726035,-9.881036,0.353898,-0.040650,0.023213,0.040164,0.058948
1765410587.728085,-9.936632,0.243902,-0.166786,0.020922,0.027336,0.058796
1765410587.731010,-9.913916,0.251076,-0.218795,0.025962,0.035583,0.060781
1765410587.732015,-10.070539,0.263630,0.630081,0.025656,0.053145,0.062461
1765410587.736051,-9.826038,0.098039,0.287542,0.019700,0.050244,0.061697
1765410587.738125,-10.032280,0.105811,0.231946,0.018479,0.031612,0.054825
1765410587.741082,-10.068149,0.288140,-0.029890,0.027031,0.033292,0.052382
1765410587.743078,-9.897178,0.386179,-0.070540,0.034056,0.040317,0.061697
1765410587.744051,-9.795551,0.283357,0.138092,0.024740,0.036346,0.059101
1765410587.749004,-9.956957,0.316236,0.136896,0.023824,0.036346,0.059865
1765410587.751045,-9.817072,0.166188,-0.085485,0.023671,0.031001,0.062308
1765410587.752029,-9.835604,0.326399,-0.139885,0.026420,0.040470,0.060781
1765410587.754018,-9.878646,0.315638,0.178144,0.025809,0.047037,0.062614
1765410587.758041,-9.826038,0.243305,0.133309,0.027794,0.044593,0.062614
1765410587.761031,-9.710664,0.260043,-0.131516,0.026420,0.040775,0.063072
1765410587.763053,-9.699903,0.289335,-0.086681,0.025656,0.045204,0.061392
1765410587.766045,-9.859515,0.292922,0.118364,0.026114,0.044746,0.064599
1765410587.769031,-10.140482,0.147059,0.425634,0.021228,0.038332,0.064446
1765410587.771033,-10.125537,0.276781,0.221186,0.026725,0.043219,0.061545
1765410587.774032,-9.747727,0.094452,-0.135701,0.024435,0.040012,0.063530
1765410587.776056,-9.669415,0.209230,-0.221186,0.022755,0.035888,0.057574
1765410587.778046,-9.829028,0.376614,-0.203252,0.028100,0.035583,0.055589
1765410587.781052,-9.796746,0.362267,-0.184122,0.028863,0.047342,0.061545
1765410587.783038,-9.972500,0.441176,0.107604,0.029932,0.052687,0.063988
1765410587.786077,-10.177545,0.267814,0.602582,0.022907,0.051924,0.062919
1765410587.788155,-10.243901,0.326399,0.463893,0.023060,0.042150,0.060934
1765410587.791085,-10.017933,0.279770,-0.063367,0.025198,0.040623,0.064599
1765410587.794093,-9.814680,0.232544,-0.153037,0.025809,0.040623,0.062766
1765410587.796094,-9.814680,0.232544,-0.153037,0.025809,0.046884,0.062766
1765410587.799083,-10.231946,0.315041,0.453132,0.024740,0.042761,0.063377
1765410587.799583,-10.043041,0.336561,-0.019727,0.020464,0.036499,0.061087
1765410587.804078,-9.726804,0.374821,-0.475251,0.023671,0.038026,0.067959
1765410587.806109,-9.910329,0.235533,0.113582,0.026114,0.043371,0.072388
1765410587.807128,-9.910329,0.235533,0.113582,0.026114,0.043830,0.072388
1765410587.811042,-10.113581,0.160210,0.159015,0.022755,0.047037,0.062308
1765410587.812048,-9.813485,0.389168,-0.271401,0.027489,0.052076,0.064752
1765410587.816018,-9.760879,0.370636,-0.090268,0.025351,0.052076,0.070097
1765410587.819059,-10.082495,0.272597,0.555954,0.025504,0.039095,0.070860
1765410587.821067,-10.230749,0.214610,0.383788,0.021686,0.043830,0.063988
1765410587.823075,-9.821855,0.200861,-0.187709,0.022602,0.043830,0.064752
1765410587.826160,-9.672404,0.270206,-0.340746,0.029627,0.043830,0.067959
1765410587.828073,-10.029292,0.326399,0.141679,0.026878,0.034972,0.063377
1765410587.831080,-10.219989,0.341942,0.383788,0.027336,0.042455,0.063835
1765410587.834016,-9.937230,0.339550,-0.025108,0.027794,0.051924,0.068417
1765410587.834516,-9.681969,0.237924,-0.278575,0.027184,0.042455,0.070097
1765410587.837104,-9.875656,0.298900,0.052009,0.026725,0.042455,0.065668
1765410587.841055,-10.007771,0.254663,-0.016738,0.026725,0.046273,0.065668
1765410587.843117,-9.855330,0.257054,0.034672,0.027184,0.059712,0.063988
1765410587.846114,-9.913916,0.487805,0.334768,0.029016,0.059712,0.067806
1765410587.849034,-9.939023,0.340746,0.193687,0.028405,0.044899,0.076664
1765410587.849534,-9.890003,0.248087,-0.138690,0.025656,0.033903,0.067959
1765410587.854013,-9.890003,0.248087,-0.138690,0.025656,0.044440,0.067959
1765410587.856002,-9.710664,0.272597,-0.052009,0.030085,0.048564,0.071624
1765410587.859043,-9.836202,0.318030,0.204448,0.024587,0.048564,0.069028
1765410587.861034,-9.878646,0.350311,-0.005380,0.020159,0.051160,0.067348
1765410587.863051,-9.695719,0.294118,-0.450741,0.031154,0.051771,0.073457
1765410587.866038,-9.756096,0.196078,0.007174,0.033445,0.051313,0.076969
1765410587.869062,-9.964130,0.135103,0.400526,0.030543,0.051007,0.071166
1765410587.871048,-10.046627,0.316834,0.353300,0.026267,0.050549,0.062461
1765410587.874059,-9.730989,0.332377,-0.352702,0.028253,0.051465,0.070555
1765410587.876030,-9.793758,0.229555,-0.357484,0.029780,0.040928,0.073151
1765410587.878056,-10.132710,0.300096,0.340746,0.025809,0.047800,0.068722
1765410587.881084,-10.192491,0.373027,0.297107,0.028558,0.055283,0.070860
1765410587.884114,-9.965924,0.333572,-0.035868,0.028711,0.056047,0.069791
1765410587.886087,-9.982065,0.404113,0.104017,0.025045,0.052076,0.067959
1765410587.888060,-9.995814,0.318030,0.251076,0.030391,0.054367,0.075289
1765410587.889055,-9.882831,0.276184,-0.072334,0.033292,0.049786,0.074067
1765410587.893130,-9.907339,0.448350,-0.080105,0.029780,0.052229,0.072540
1765410587.894138,-9.980272,0.428025,0.111191,0.031918,0.052687,0.077122
1765410587.897184,-9.762074,0.209828,-0.246294,0.029322,0.045815,0.077122
1765410587.901130,-9.822452,0.415471,-0.259445,0.029932,0.050396,0.068111
1765410587.902143,-9.747129,0.242109,-0.174558,0.028558,0.061392,0.074831
1765410587.906108,-9.826038,0.233142,-0.023314,0.029627,0.057421,0.075900
1765410587.907101,-9.955164,0.307269,0.132712,0.026573,0.060018,0.069028
1765410587.911055,-9.968913,0.345528,0.135103,0.029169,0.069791,0.070708
1765410587.913118,-10.015541,0.365854,0.281564,0.032987,0.062156,0.074220
1765410587.916127,-10.223577,0.446557,0.435198,0.032987,0.052382,0.070708
1765410587.919079,-10.223577,0.446557,0.435198,0.032987,0.055589,0.070708
1765410587.921062,-9.760281,0.376614,-0.341942,0.033445,0.052076,0.074678
1765410587.922117,-9.929459,0.331181,-0.096844,0.030085,0.046731,0.071624
1765410587.926032,-10.164392,0.500956,0.145863,0.033445,0.049175,0.069944
1765410587.928058,-10.166784,0.454328,0.143472,0.035888,0.057421,0.074220
1765410587.931084,-9.887612,0.343137,0.002989,0.032376,0.062461,0.079260
1765410587.932055,-9.808105,0.279770,0.135103,0.030391,0.057116,0.078802
1765410587.936081,-10.155428,0.312052,0.285748,0.032070,0.049633,0.075747
1765410587.938119,-10.148253,0.451937,0.124342,0.033139,0.053909,0.073762
1765410587.941184,-9.861309,0.430416,-0.203252,0.030696,0.054672,0.079718
1765410587.943094,-9.852941,0.462697,-0.159015,0.030543,0.057727,0.075595
1765410587.946027,-10.099831,0.511717,0.226566,0.029474,0.053756,0.075747
1765410587.949055,-9.876254,0.390961,-0.079507,0.028558,0.056200,0.079565
1765410587.951091,-9.785987,0.341942,-0.402917,0.032223,0.056963,0.079718
1765410587.954073,-9.825441,0.257652,-0.113582,0.031001,0.056963,0.077122
1765410587.956086,-10.029889,0.398135,0.223577,0.033750,0.057574,0.076969
1765410587.958103,-10.180533,0.504543,0.585844,0.030085,0.065973,0.075442
1765410587.961051,-9.958152,0.480033,0.041846,0.029780,0.063072,0.082925
1765410587.964039,-9.854136,0.219990,-0.295313,0.032987,0.045815,0.082314
1765410587.966009,-10.037660,0.217599,-0.196078,0.031765,0.047037,0.072540
1765410587.969105,-10.019128,0.420851,0.056193,0.035888,0.065210,0.076358
1765410587.971075,-9.895982,0.310258,0.007174,0.031612,0.056200,0.079718
1765410587.974102,-10.004781,0.381994,0.076518,0.031307,0.056200,0.069791
1765410587.976384,-10.150645,0.520086,0.258847,0.035583,0.060170,0.076053
1765410587.979097,-9.952174,0.515901,-0.057389,0.041539,0.061697,0.081398
1765410587.981096,-9.821855,0.405906,-0.155428,0.039401,0.055283,0.083536
1765410587.983091,-10.019128,0.280966,-0.023912,0.032223,0.051313,0.076053
1765410587.986139,-10.133906,0.462697,0.040650,0.040470,0.054672,0.077274
1765410587.988093,-9.778812,0.418460,-0.227164,0.038790,0.064446,0.080787
1765410587.991078,-9.736967,0.355093,-0.225968,0.031765,0.060628,0.082009
1765410587.992133,-9.984456,0.357484,0.071736,0.029932,0.056505,0.080023
1765410587.996198,-9.972500,0.387374,0.110593,0.034667,0.061239,0.080940
1765410587.998130,-9.894786,0.421449,-0.185318,0.035736,0.063683,0.081092
1765410588.001093,-10.014346,0.396939,0.199665,0.027947,0.056047,0.077122
1765410588.004106,-10.028693,0.348517,0.135103,0.029169,0.058032,0.078496
1765410588.006088,-9.872667,0.343137,-0.332377,0.034514,0.051771,0.076511
1765410588.008143,-9.790769,0.412482,-0.387374,0.033598,0.063072,0.074220
1765410588.011099,-9.775226,0.423242,-0.220588,0.035125,0.063072,0.077733
1765410588.012192,-10.175752,0.506934,0.462697,0.038637,0.066584,0.081245
1765410588.016126,-10.075322,0.542802,0.096844,0.036194,0.065210,0.080787
1765410588.017166,-10.050214,0.478838,-0.007174,0.030238,0.056352,0.085063
1765410588.019094,-10.060975,0.414275,0.017934,0.036805,0.059254,0.083230
1765410588.023099,-9.964130,0.302487,0.068747,0.037568,0.059101,0.087812
1765410588.026076,-9.964130,0.302487,0.068747,0.037568,0.062614,0.087812
1765410588.028117,-10.044236,0.598996,-0.199665,0.035736,0.051618,0.077427
1765410588.029058,-9.933045,0.452535,-0.379005,0.034819,0.051618,0.084452
1765410588.032084,-9.933045,0.452535,-0.379005,0.034819,0.060628,0.084452
1765410588.036132,-10.237326,0.555954,0.583453,0.040623,0.074984,0.084758
1765410588.037178,-9.967718,0.399330,0.056193,0.036652,0.065515,0.090408
1765410588.041096,-10.170969,0.358680,0.069345,0.035430,0.058796,0.082161
1765410588.044091,-9.977880,0.404711,-0.190100,0.034819,0.058796,0.081245
1765410588.044591,-10.020324,0.517695,-0.027499,0.042150,0.057879,0.085368
1765410588.047080,-9.965326,0.388570,0.088474,0.030849,0.060781,0.085368
1765410588.051068,-10.031085,0.432807,-0.081301,0.026267,0.050396,0.082161
1765410588.053437,-9.777617,0.450741,-0.649211,0.029780,0.055283,0.083078
1765410588.056083,-9.959946,0.663558,-0.212817,0.036499,0.059559,0.083383
1765410588.059079,-10.212815,0.549976,0.601387,0.035583,0.069639,0.091019
1765410588.061064,-10.051410,0.320421,0.313845,0.037874,0.051618,0.092699
1765410588.064087,-9.739358,0.321616,-0.487207,0.037110,0.051618,0.087812
1765410588.066090,-9.667622,0.417264,-0.679101,0.038943,0.051618,0.085368
1765410588.068051,-9.971304,0.480033,-0.027499,0.044899,0.059865,0.088575
1765410588.072113,-9.900764,0.339550,0.074127,0.038179,0.065210,0.085521
1765410588.074142,-9.928861,0.549378,-0.170971,0.038332,0.063072,0.079871
1765410588.076153,-9.932447,0.588833,-0.043042,0.039401,0.065363,0.085979
1765410588.079082,-9.932447,0.588833,-0.043042,0.039401,0.057727,0.085979
1765410588.081087,-10.041844,0.405308,-0.043042,0.036041,0.058338,0.082009
1765410588.083069,-10.150645,0.530249,-0.007174,0.039706,0.061392,0.076053
1765410588.086140,-9.931850,0.533238,-0.121353,0.047037,0.067195,0.085827
1765410588.088166,-9.876852,0.413678,-0.169775,0.037110,0.057574,0.089339
1765410588.091178,-9.876852,0.413678,-0.169775,0.037110,0.059254,0.089339
1765410588.093141,-9.897178,0.607365,-0.188307,0.042455,0.059254,0.089186
1765410588.096208,-9.601864,0.469871,-0.520086,0.043524,0.059254,0.093615
1765410588.097153,-9.760879,0.527260,-0.103419,0.038790,0.062614,0.089339
1765410588.101170,-9.910329,0.414873,0.181133,0.039401,0.062614,0.087812
1765410588.103170,-9.574366,0.444763,-0.738881,0.041692,0.058948,0.095142
1765410588.108302,-9.615016,0.382592,-0.699426,0.038332,0.052076,0.084299
1765410588.108802,-9.961740,0.563725,0.062171,0.037263,0.065515,0.077733
1765410588.109085,-10.074127,0.701817,0.255858,0.043524,0.064294,0.091935
1765410588.113117,-9.739358,0.346724,-0.204448,0.034208,0.064294,0.089492
1765410588.114071,-9.999999,0.561932,-0.065160,0.039859,0.055741,0.080023
1765410588.119058,-10.074724,0.571497,0.088474,0.043219,0.063835,0.093768
1765410588.121065,-9.943806,0.297704,-0.025108,0.041844,0.059712,0.089644
1765410588.123076,-9.936033,0.574486,-0.190698,0.036652,0.061850,0.081703
1765410588.126076,-9.895385,0.661167,-0.332377,0.039095,0.056658,0.087812
1765410588.128079,-9.792562,0.565519,-0.534433,0.042455,0.059712,0.093004
1765410588.129059,-9.979673,0.743663,-0.074127,0.039706,0.066279,0.091324
1765410588.134088,-10.079505,0.653993,0.533238,0.040317,0.083230,0.096364
1765410588.134588,-9.965924,0.298900,0.089670,0.040317,0.063530,0.096364
1765410588.138090,-9.903154,0.163199,-0.486609,0.040164,0.050244,0.091324
1765410588.139139,-10.069344,0.280966,-0.008369,0.043830,0.060628,0.085368
1765410588.143115,-10.019128,0.578670,-0.100430,0.048564,0.073457,0.089950
1765410588.146084,-9.921089,0.647417,-0.289335,0.040623,0.059865,0.087659
1765410588.148111,-9.759085,0.543400,-0.594213,0.030849,0.067042,0.086285
1765410588.151146,-10.149448,0.746054,0.349115,0.045509,0.080787,0.093921
1765410588.153118,-9.833213,0.349115,0.188905,0.043982,0.077733,0.101862
1765410588.156175,-9.939023,0.414275,-0.069345,0.033445,0.059407,0.087506
1765410588.158097,-9.836202,0.516499,-0.607365,0.033903,0.059407,0.079565
1765410588.161118,-9.747727,0.674318,-0.345528,0.046426,0.065210,0.100182
1765410588.163158,-9.768052,0.597202,-0.063367,0.044135,0.070708,0.100640
1765410588.164085,-9.947392,0.548183,0.051411,0.031765,0.064599,0.093004
1765410588.168094,-9.780008,0.469871,-0.477044,0.041844,0.061545,0.099876
1765410588.171072,-9.622787,0.398135,-0.431014,0.052993,0.061545,0.101098
1765410588.174047,-9.799137,0.326399,-0.121951,0.043524,0.063988,0.092546
1765410588.176029,-10.054996,0.583453,0.076518,0.042302,0.065973,0.082772
1765410588.178087,-10.054996,0.583453,0.076518,0.042302,0.067653,0.082772
1765410588.181130,-9.597679,0.541607,-0.535629,0.042455,0.061545,0.094379
1765410588.183124,-10.107603,0.558345,0.260641,0.039706,0.071013,0.088270
1765410588.186094,-10.170371,0.604974,0.261836,0.046273,0.075289,0.095448
1765410588.189124,-9.928263,0.567910,-0.089670,0.044440,0.068417,0.096669
1765410588.191069,-9.910329,0.603180,-0.422047,0.039554,0.062766,0.092546
1765410588.192108,-10.011955,0.613343,-0.224773,0.041997,0.065973,0.094990
1765410588.194055,-9.738162,0.649211,-0.526064,0.049480,0.072693,0.095600
1765410588.198085,-9.765661,0.639646,-0.235533,0.045357,0.074984,0.096517
1765410588.201150,-9.806910,0.605571,-0.169775,0.045509,0.075136,0.096211
1765410588.204105,-10.167980,0.648015,0.327594,0.044440,0.072846,0.095600
1765410588.204605,-9.971304,0.506934,-0.102822,0.043219,0.071929,0.099876
1765410588.207149,-9.841581,0.478838,-0.276184,0.040012,0.070250,0.093768
1765410588.211086,-9.632950,0.498565,-0.766380,0.045968,0.065057,0.091935
1765410588.212170,-9.762074,0.487805,-0.466284,0.045204,0.078649,0.093004
1765410588.216094,-9.766856,0.634864,-0.283357,0.050244,0.078649,0.089339
1765410588.219115,-9.995216,0.802845,0.052606,0.046578,0.083536,0.090713
1765410588.219615,-10.005977,0.737685,0.112984,0.044440,0.080329,0.098502
1765410588.224090,-10.027497,0.654591,-0.032281,0.043677,0.069639,0.100335
1765410588.224590,-9.824843,0.590626,-0.355691,0.043066,0.066279,0.097891
1765410588.227141,-9.820659,0.678503,-0.404113,0.041233,0.066279,0.097433
1765410588.231053,-9.796746,0.581062,-0.469273,0.040164,0.067959,0.100029
1765410588.233082,-9.874461,0.628288,-0.431014,0.043066,0.067653,0.094226
1765410588.236095,-10.080702,0.737685,0.247489,0.047800,0.080481,0.095142
1765410588.237070,-9.961740,0.665949,0.102822,0.047800,0.075900,0.095142
1765410588.239067,-9.882233,0.394548,-0.270206,0.042761,0.061697,0.101098
1765410588.244130,-9.516378,0.576877,-0.989957,0.044746,0.062003,0.091324
1765410588.246113,-9.667622,0.713773,-0.615734,0.049938,0.073304,0.093768
1765410588.247178,-9.835006,0.857245,-0.135103,0.044593,0.073304,0.095753
1765410588.251188,-9.835006,0.857245,-0.135103,0.044593,0.072540,0.095753
1765410588.253198,-9.845168,0.548780,-0.413678,0.040775,0.077122,0.102473
1765410588.256078,-9.822452,0.497370,-0.414275,0.047953,0.073915,0.102778
1765410588.258094,-10.010758,0.480033,0.044237,0.042608,0.072540,0.099418
1765410588.259062,-10.124342,0.668938,-0.074725,0.041386,0.071929,0.095906
1765410588.264111,-10.124342,0.668938,-0.074725,0.041386,0.078191,0.095906
1765410588.264611,-9.438066,0.729316,-0.930775,0.045509,0.078954,0.104763
1765410588.268088,-9.767454,0.630679,-0.164993,0.046120,0.073915,0.105832
1765410588.271113,-10.092059,0.473458,0.267814,0.045051,0.079107,0.103084
1765410588.273101,-9.876254,0.352702,-0.376614,0.042913,0.072082,0.101251
1765410588.276135,-9.603658,0.582257,-1.024629,0.045051,0.069944,0.094379
1765410588.278079,-9.899570,0.687470,-0.430416,0.051465,0.081856,0.096975
1765410588.282084,-10.002390,0.675514,-0.077714,0.048869,0.081856,0.102167
1765410588.284045,-10.230749,0.707197,0.199665,0.046426,0.091630,0.096364
1765410588.284545,-9.968913,0.725729,-0.032281,0.040623,0.091630,0.096822
1765410588.287068,-9.674795,0.689263,-0.465088,0.047495,0.073304,0.107818
1765410588.291133,-9.768052,0.559541,-0.472262,0.042608,0.060323,0.098960
1765410588.293159,-10.002390,0.711382,-0.339550,0.042150,0.068417,0.094073
1765410588.296089,-9.915112,0.799856,-0.108202,0.047037,0.089034,0.105527
1765410588.298144,-9.659253,0.603778,-0.517695,0.044440,0.081092,0.107360
1765410588.299186,-10.202055,0.799856,0.190100,0.041386,0.072998,0.100182
1765410588.304112,-10.210424,0.704208,0.009565,0.047495,0.077885,0.107360
1765410588.306161,-9.868484,0.453132,-0.304878,0.046884,0.075595,0.109956
1765410588.308137,-9.868484,0.453132,-0.304878,0.046884,0.073915,0.109956
1765410588.311148,-9.757292,0.567910,-0.485414,0.043219,0.072540,0.093157
1765410588.313124,-9.872069,0.798063,-0.267814,0.048869,0.078954,0.101251
1765410588.314135,-10.070539,0.937350,0.019727,0.049022,0.083383,0.101556
1765410588.318201,-9.927068,0.801052,-0.044237,0.044135,0.085063,0.105374
1765410588.321130,-9.916306,0.667145,-0.335964,0.044746,0.075289,0.108887
1765410588.324139,-9.968913,0.579268,-0.435198,0.049175,0.066890,0.109039
1765410588.327169,-9.861309,0.579268,-0.369440,0.046120,0.075747,0.105069
1765410588.328157,-9.854136,0.859636,-0.245098,0.050396,0.079565,0.103389
1765410588.331144,-9.785987,0.766380,-0.243902,0.043524,0.079565,0.106291
1765410588.334070,-10.080702,0.815997,-0.085485,0.045815,0.069028,0.103542
1765410588.334570,-10.063366,0.808226,-0.160210,0.049786,0.078496,0.106291
1765410588.339171,-9.752509,0.497370,-0.496174,0.046426,0.074678,0.112094
1765410588.341161,-9.811692,0.539216,-0.397537,0.041997,0.077122,0.098807
1765410588.343173,-10.027497,0.754424,-0.261239,0.042608,0.077122,0.098655
1765410588.346144,-9.805714,0.765184,-0.430416,0.043982,0.076511,0.103084
1765410588.348078,-9.867287,0.954089,-0.162004,0.046578,0.082009,0.101862
1765410588.351100,-9.867287,0.954089,-0.162004,0.046578,0.088117,0.101862
1765410588.354072,-9.684361,0.638450,-0.669536,0.046578,0.066432,0.112857
1765410588.356090,-9.871471,0.642635,-0.567910,0.047953,0.075595,0.101709
1765410588.358206,-10.057985,0.780727,-0.035868,0.052687,0.092393,0.108887
1765410588.361106,-9.788378,0.718556,-0.242707,0.048869,0.095600,0.107970
1765410588.364072,-10.001194,0.747250,-0.031086,0.044593,0.077885,0.106291
1765410588.366106,-9.856527,0.753826,-0.274988,0.048106,0.077274,0.109650
1765410588.369097,-9.748923,0.610952,-0.674916,0.051771,0.069944,0.109803
1765410588.371058,-9.604255,0.582257,-0.859636,0.044746,0.073762,0.100487
1765410588.374102,-9.925274,0.824964,-0.231946,0.045662,0.084452,0.096822
1765410588.376131,-9.991630,0.926590,-0.133907,0.054978,0.091630,0.108581
1765410588.379088,-9.970109,0.971425,-0.137494,0.049633,0.083841,0.109803
1765410588.381145,-9.934838,0.978599,-0.329986,0.045204,0.082772,0.111177
1765410588.384154,-9.965326,0.733501,-0.332377,0.049022,0.076205,0.119424
1765410588.384654,-9.861309,0.593018,-0.579268,0.048564,0.082009,0.115606
1765410588.389114,-9.738162,0.659971,-0.750837,0.045051,0.082009,0.109803
1765410588.389614,-9.844571,0.720349,-0.353898,0.047342,0.092393,0.108429
1765410588.392136,-10.238522,1.047943,0.337159,0.051007,0.088881,0.109956
1765410588.396142,-10.097439,0.870397,-0.026303,0.046120,0.086437,0.120035
1765410588.398168,-9.789574,0.679101,-0.625897,0.041692,0.074067,0.113468
1765410588.401202,-9.780008,0.615136,-0.693448,0.050091,0.077274,0.115148
1765410588.403164,-9.780008,0.615136,-0.693448,0.050091,0.083994,0.115148
1765410588.406097,-9.953370,0.748446,-0.154830,0.050091,0.088728,0.107054
1765410588.409086,-9.833811,0.924199,-0.341942,0.047495,0.089797,0.111483
1765410588.411106,-9.717239,0.820779,-0.605571,0.051771,0.082161,0.117592
1765410588.413113,-9.820060,0.896102,-0.533835,0.049938,0.079871,0.114690
1765410588.414103,-10.022716,0.753228,-0.243902,0.048106,0.084910,0.118661
1765410588.419058,-9.993423,0.652798,-0.155428,0.045968,0.079260,0.118202
1765410588.421075,-9.840983,0.636059,-0.582257,0.049480,0.079260,0.111636
1765410588.424068,-9.998802,0.718556,-0.375418,0.045204,0.081092,0.108429
1765410588.426052,-10.013150,0.906265,-0.352702,0.048564,0.081703,0.110261
1765410588.427141,-9.805714,0.907460,-0.491392,0.047495,0.089034,0.112705
1765410588.431114,-9.666426,1.022238,-0.793878,0.049175,0.088881,0.109956
1765410588.433086,-9.984456,0.958871,-0.182927,0.045357,0.088881,0.116675
1765410588.436062,-10.066953,0.836920,-0.197274,0.049786,0.091783,0.120799
1765410588.438086,-9.985652,0.643831,-0.221784,0.047037,0.085216,0.118813
1765410588.441169,-9.958152,0.697633,-0.429220,0.046120,0.090408,0.109956
1765410588.443160,-9.823050,0.791487,-0.761597,0.053298,0.085979,0.110872
1765410588.444191,-9.684361,0.665351,-0.618125,0.049633,0.085979,0.111330
1765410588.449085,-9.913916,1.013271,-0.351506,0.049633,0.092393,0.111330
1765410588.451150,-10.092658,0.975610,-0.172166,0.051160,0.088423,0.112399
1765410588.453137,-9.863700,0.842898,-0.361071,0.050702,0.088423,0.111483
1765410588.456170,-9.863700,0.842898,-0.361071,0.050702,0.090713,0.111483
1765410588.458101,-9.776422,0.839311,-0.605571,0.053451,0.093615,0.119119
1765410588.459136,-9.950979,0.902678,-0.600789,0.053451,0.088270,0.119119
1765410588.463173,-10.114178,0.962458,-0.362267,0.048869,0.106749,0.111330
1765410588.466077,-10.107603,1.012673,-0.135103,0.047495,0.106749,0.116828
1765410588.468124,-9.805116,0.859636,-0.457915,0.050244,0.100335,0.125075
1765410588.471169,-10.071735,0.866212,-0.267814,0.044288,0.088575,0.115606
1765410588.473105,-10.156623,0.942133,-0.016738,0.045662,0.091477,0.117286
1765410588.476116,-9.854136,0.830942,-0.504543,0.052076,0.097433,0.123395
1765410588.479115,-9.680773,0.777140,-0.764586,0.051160,0.089339,0.118050
1765410588.481148,-9.864896,0.785509,-0.298900,0.045968,0.089186,0.113774
1765410588.483070,-10.049019,0.794476,-0.115973,0.050549,0.084605,0.116064
1765410588.484089,-9.734576,0.738881,-0.639048,0.050396,0.084605,0.115454
1765410588.489115,-9.695121,0.965447,-0.807030,0.049175,0.085368,0.108734
1765410588.491162,-10.064561,1.116690,-0.316834,0.053451,0.090866,0.116217
1765410588.493127,-9.979673,0.909852,-0.278575,0.054825,0.089492,0.122937
1765410588.496133,-9.721423,0.953491,-0.649211,0.050855,0.087354,0.119577
1765410588.498184,-9.520563,0.853658,-0.914634,0.048411,0.095448,0.118508
1765410588.501176,-9.675991,0.756815,-0.613343,0.052229,0.088881,0.121104
1765410588.503159,-10.100429,0.844094,-0.190698,0.049327,0.092852,0.114079
1765410588.506139,-10.019128,0.960665,-0.284553,0.048106,0.101709,0.113316
1765410588.508152,-9.772835,0.905667,-0.321019,0.045815,0.086132,0.119424
1765410588.511229,-9.693925,0.908656,-0.714969,0.045509,0.086132,0.115759
1765410588.513141,-9.693925,0.908656,-0.714969,0.045509,0.085368,0.115759
1765410588.516205,-9.771041,0.895504,-0.778336,0.052534,0.096364,0.117744
1765410588.520339,-9.737565,0.930177,-0.601387,0.053603,0.098502,0.121409
1765410588.521177,-9.907937,0.919416,-0.234338,0.048564,0.095753,0.115759
1765410588.523216,-10.225369,1.006695,0.076518,0.048869,0.096059,0.112399
1765410588.524142,-9.829028,0.952295,-0.490196,0.052687,0.094073,0.118966
1765410588.529086,-9.701099,1.052726,-0.895504,0.051465,0.085521,0.113774
1765410588.531189,-9.831419,1.047346,-0.569106,0.046884,0.092699,0.117744
1765410588.533274,-10.154830,0.943328,0.088474,0.050396,0.097433,0.123395
1765410588.536081,-9.917501,0.730512,-0.390363,0.053603,0.097433,0.122478
1765410588.539191,-9.766259,0.882353,-0.624103,0.047342,0.089034,0.114079
1765410588.539691,-9.735771,0.968436,-0.689263,0.049786,0.091783,0.112705
1765410588.544111,-9.922284,1.119679,-0.460306,0.051465,0.089034,0.117439
1765410588.546094,-9.937230,1.129842,-0.471066,0.048106,0.091630,0.115912
1765410588.549071,-9.845766,1.035390,-0.410689,0.045968,0.096822,0.122173
1765410588.549571,-9.794355,0.815399,-0.588235,0.046578,0.095906,0.124922
1765410588.554098,-9.829028,0.808823,-0.497370,0.056200,0.084299,0.121715
1765410588.556071,-9.993423,0.859039,-0.301889,0.052534,0.092393,0.114385
1765410588.559183,-9.858918,0.828551,-0.439981,0.049022,0.100029,0.114385
1765410588.559683,-9.747727,0.844094,-0.453132,0.051007,0.095142,0.115148
1765410588.564097,-10.052007,1.043161,-0.390961,0.049175,0.080940,0.108429
1765410588.564597,-10.071735,1.156743,-0.434003,0.048106,0.089644,0.114690
1765410588.569117,-9.825441,1.095170,-0.936155,0.055283,0.089644,0.119882
1765410588.571111,-9.720826,0.960067,-0.643233,0.049022,0.100487,0.121409
1765410588.574126,-9.988043,1.000717,-0.157819,0.053909,0.098807,0.120188
1765410588.576102,-10.286942,0.890722,0.046628,0.049786,0.092852,0.121715
1765410588.577069,-9.924676,0.865017,-0.735294,0.046273,0.094379,0.115759
1765410588.581145,-9.699903,1.024629,-0.996533,0.047647,0.094379,0.113010
1765410588.584092,-9.698110,1.184840,-0.693448,0.049022,0.095753,0.119119
1765410588.586166,-10.054996,1.022238,-0.214610,0.044288,0.095142,0.118813
1765410588.588147,-10.084887,0.914634,-0.262434,0.043219,0.098197,0.114385
1765410588.591133,-9.912720,0.988761,-0.500956,0.049786,0.099571,0.117897
1765410588.594211,-9.725011,0.928981,-0.658776,0.052534,0.091324,0.121562
1765410588.596187,-9.765661,1.024629,-0.729316,0.050244,0.086437,0.116523
1765410588.599104,-9.683165,1.104735,-0.947513,0.046426,0.093004,0.115148
1765410588.601083,-9.906742,1.153754,-0.430416,0.050396,0.101098,0.122173
1765410588.603148,-9.980869,0.983979,-0.274988,0.051771,0.094073,0.129198
1765410588.604136,-10.025107,0.927786,-0.149450,0.050855,0.094073,0.120188
1765410588.608228,-9.728598,0.951698,-1.060497,0.049022,0.093004,0.118050
1765410588.611181,-9.690338,1.085605,-0.804639,0.052382,0.090866,0.124158
1765410588.613192,-9.794355,0.995935,-0.672525,0.052534,0.096669,0.122631
1765410588.618376,-10.049019,0.938546,-0.126734,0.042455,0.098197,0.118355
1765410588.618876,-9.753705,1.101745,-0.710186,0.046120,0.096517,0.113010
1765410588.621141,-9.612624,1.398852,-1.023434,0.049175,0.087354,0.122631
1765410588.622181,-9.836799,1.133429,-0.655787,0.047495,0.084758,0.134543
1765410588.626108,-10.083690,0.844094,-0.086083,0.048106,0.094837,0.131947
1765410588.628140,-10.083690,0.844094,-0.086083,0.048106,0.098502,0.131947
1765410588.631141,-9.426111,0.751435,-1.282879,0.053298,0.093615,0.114079
1765410588.634164,-9.426111,0.751435,-1.282879,0.053298,0.081703,0.114079
1765410588.636116,-9.862504,1.153754,-0.567910,0.056810,0.099418,0.114843
1765410588.638152,-10.077712,1.282879,-0.211023,0.052993,0.099418,0.119424
1765410588.639138,-10.077712,1.282879,-0.211023,0.052993,0.103389,0.119424
1765410588.644110,-9.717837,1.111908,-0.583453,0.051465,0.093768,0.122173
1765410588.646151,-9.717837,0.918221,-0.894309,0.055283,0.084758,0.126907
1765410588.649418,-9.930654,0.919416,-0.821377,0.052076,0.103389,0.120799
1765410588.651205,-9.801530,1.070660,-0.775944,0.050244,0.103389,0.114690
1765410588.653184,-9.641916,1.076638,-0.780727,0.051160,0.108276,0.124617
1765410588.654191,-9.750716,1.137613,-0.524868,0.050549,0.096059,0.119577
1765410588.657142,-10.070539,1.218316,-0.233142,0.048258,0.094226,0.119882
1765410588.661169,-9.810495,0.879962,-0.755619,0.048411,0.094073,0.128587
1765410588.663199,-9.312529,0.762793,-1.387494,0.054214,0.094073,0.118661
1765410588.666130,-9.564800,1.018651,-0.940937,0.054672,0.094073,0.115301
1765410588.669203,-10.077712,1.407221,-0.164395,0.056810,0.101404,0.117286
1765410588.671217,-10.082495,1.390483,-0.219990,0.052534,0.101404,0.128282
1765410588.673337,-10.082495,1.390483,-0.219990,0.052534,0.099113,0.128282
1765410588.676185,-9.712457,0.928383,-0.961262,0.049022,0.096211,0.125227
1765410588.678127,-9.744141,0.700622,-0.752032,0.058948,0.100029,0.128434
1765410588.681165,-9.986250,0.923601,-0.459110,0.063683,0.098197,0.117133
1765410588.683158,-10.004781,1.225490,-0.366451,0.052382,0.112705,0.110872
1765410588.686161,-10.004781,1.225490,-0.366451,0.052382,0.106596,0.110872
1765410588.687152,-9.736967,1.066475,-0.695839,0.050702,0.095142,0.127060
1765410588.691174,-10.009563,1.074247,-0.351506,0.052229,0.094684,0.123547
1765410588.694137,-10.151840,1.177666,-0.219393,0.054367,0.096364,0.124617
1765410588.696093,-9.722022,0.930775,-0.887135,0.052840,0.096364,0.129656
1765410588.698210,-9.722022,0.930775,-0.887135,0.052840,0.091630,0.129656
1765410588.699302,-9.882831,1.126853,-0.655787,0.056047,0.096211,0.124006
1765410588.704204,-9.816475,1.043759,-0.529651,0.056505,0.105222,0.128587
1765410588.706218,-9.895982,1.250598,-0.486011,0.054672,0.103084,0.118355
1765410588.708139,-9.756096,1.016858,-0.674318,0.050702,0.103084,0.124769
1765410588.711184,-9.655666,0.944524,-1.086800,0.060018,0.090255,0.124311
1765410588.713183,-9.527737,0.955284,-1.180057,0.060323,0.097433,0.120188
1765410588.716157,-9.611428,1.147776,-0.779531,0.060323,0.114690,0.119882
1765410588.719331,-9.872667,1.353419,-0.520684,0.060018,0.110414,0.124922
1765410588.721128,-9.942013,1.195600,-0.331181,0.053298,0.101862,0.124922
1765410588.723188,-9.982065,1.267336,-0.607365,0.054062,0.100487,0.122631
1765410588.726162,-9.506216,1.085605,-1.452654,0.054367,0.104153,0.130267
1765410588.728177,-9.655068,1.092778,-0.890722,0.053298,0.098655,0.127518
1765410588.731185,-9.655068,1.092778,-0.890722,0.053298,0.113010,0.127518
1765410588.733177,-10.054996,1.083214,-0.088474,0.058948,0.111483,0.133474
1765410588.734162,-9.717837,1.032401,-1.016260,0.054978,0.106443,0.117133
1765410588.738201,-9.996411,1.342659,-0.723338,0.058338,0.098502,0.117744
1765410588.741202,-10.100429,1.269727,-0.420851,0.061697,0.110261,0.127213
1765410588.742145,-9.917501,1.312769,-0.558345,0.063683,0.111330,0.129809
1765410588.747180,-9.717837,1.197393,-0.854854,0.055589,0.112399,0.127824
1765410588.749207,-9.709468,1.096365,-0.779531,0.065821,0.097128,0.130114
1765410588.751185,-9.807508,1.032401,-0.914634,0.065363,0.103542,0.131794
1765410588.752160,-9.953967,1.265543,-0.545194,0.062156,0.103542,0.119424
1765410588.756193,-9.825441,1.272118,-0.717958,0.054062,0.120188,0.126907
1765410588.758183,-9.916904,1.164515,-0.626494,0.057879,0.104611,0.134543
1765410588.761245,-9.974891,1.013271,-0.756217,0.055283,0.099724,0.127671
1765410588.763192,-10.098038,1.158536,-0.505739,0.060018,0.117439,0.127671
1765410588.766134,-10.066953,1.287661,-0.429220,0.062308,0.117439,0.126449
1765410588.769084,-9.977283,1.324725,-0.512912,0.065363,0.105374,0.132710
1765410588.771114,-10.110592,1.270923,-0.509326,0.061850,0.096364,0.132710
1765410588.774144,-9.818267,1.108321,-1.027020,0.063377,0.102473,0.135918
1765410588.776120,-9.630558,0.983979,-1.104735,0.059865,0.102778,0.131336
1765410588.779086,-9.877449,1.163319,-0.763988,0.064599,0.102014,0.122478
1765410588.781103,-9.884026,1.170492,-0.576877,0.060781,0.109956,0.127365
1765410588.784121,-9.695121,1.302009,-0.818986,0.064294,0.107512,0.126602
1765410588.786150,-9.711261,1.444883,-0.988761,0.058338,0.108276,0.129045
1765410588.789195,-9.730989,1.450263,-0.880559,0.052229,0.109650,0.129503
1765410588.789695,-9.843973,1.371353,-0.740076,0.054978,0.110719,0.137292
1765410588.792149,-9.870873,1.121473,-0.708991,0.055589,0.112857,0.141110
1765410588.796100,-9.973696,1.041368,-0.622908,0.055131,0.107665,0.131947
1765410588.799078,-9.873863,1.072453,-0.774749,0.057727,0.109345,0.131489
1765410588.801124,-9.916306,1.239837,-0.787900,0.060018,0.114079,0.126602
1765410588.804165,-9.782997,1.374940,-0.951698,0.059101,0.111330,0.130420
1765410588.806128,-10.015541,1.312171,-0.450741,0.055436,0.107360,0.131336
1765410588.809123,-10.017933,1.264945,-0.569106,0.058032,0.108887,0.133169
1765410588.811138,-9.876852,1.166906,-0.809421,0.064446,0.108887,0.136681
1765410588.813202,-9.784193,1.299020,-1.007891,0.059865,0.115148,0.127976
1765410588.816160,-9.891200,1.403634,-0.702415,0.062308,0.110414,0.137903
1765410588.819136,-9.937230,1.278096,-0.514108,0.062308,0.111025,0.139125
1765410588.821208,-9.733380,1.197991,-1.021640,0.057727,0.109803,0.136223
1765410588.822206,-9.692131,1.133429,-0.937948,0.056200,0.109803,0.136987
1765410588.824157,-9.905546,1.146580,-0.791487,0.061545,0.107360,0.130725
1765410588.828185,-10.035867,1.282879,-0.612745,0.061239,0.107665,0.131031
1765410588.831217,-9.913916,1.346246,-0.758010,0.056352,0.111483,0.129503
1765410588.832221,-9.962935,1.329507,-0.907460,0.057269,0.104916,0.131183
1765410588.834137,-10.056191,1.377331,-0.649211,0.061545,0.106138,0.133474
1765410588.838152,-9.811692,1.200980,-0.838116,0.056963,0.111483,0.135001
1765410588.841157,-9.784193,1.157939,-0.736490,0.062003,0.102473,0.133321
1765410588.843110,-9.729793,1.084409,-0.906863,0.061697,0.102473,0.130420
1765410588.846183,-9.729793,1.084409,-0.906863,0.061697,0.099418,0.130420
1765410588.849186,-9.609037,1.297226,-1.415590,0.062156,0.106749,0.124922
1765410588.852109,-9.656264,1.588952,-0.977403,0.063225,0.109650,0.128434
1765410588.854201,-9.735771,1.532759,-0.845289,0.057421,0.110567,0.137750
1765410588.856166,-9.904947,1.211143,-0.627690,0.054978,0.110567,0.145080
1765410588.858146,-9.904947,1.211143,-0.627690,0.054978,0.114385,0.145080
1765410588.861131,-9.678980,1.307986,-1.281683,0.059559,0.112857,0.137903
1765410588.863230,-9.609037,1.316953,-1.011478,0.060323,0.116064,0.138819
1765410588.866184,-9.922883,1.365375,-0.554758,0.061850,0.117133,0.135001
1765410588.869221,-9.903154,1.364180,-0.579866,0.057116,0.119882,0.139735
1765410588.869721,-9.647297,1.333094,-1.299617,0.057421,0.114079,0.137292
1765410588.873176,-9.696316,1.180057,-1.285868,0.057574,0.114079,0.145080
1765410588.874156,-10.002390,1.229675,-0.771162,0.063835,0.114079,0.135307
1765410588.878151,-10.078907,1.175275,-0.566117,0.061087,0.126907,0.136834
1765410588.879163,-9.678382,1.356408,-1.062888,0.055589,0.126907,0.127671
1765410588.883180,-9.805116,1.781444,-0.789694,0.062003,0.122326,0.129809
