time,acc_x_g,acc_y_g,acc_z_g,gyro_x_rad_s,gyro_y_rad_s,gyro_z_rad_s
1765409363.370561,-5.254570788328973,-7.350400738573197,-3.761615101276138,-0.00825424407363948,-0.008633893491031478,-0.0032314561065399866
1765409363.370761,-5.23679620503361,-7.338608211221205,-3.7885708393689077,-0.008658236147966184,-0.009054545252953504,-0.0028778563231362997
1765409363.370961,-5.217905282154671,-7.327455554916422,-3.8171921176406403,-0.00909707851166845,-0.009445187499958157,-0.0025618519796156993
1765409363.371161,-5.19762168707642,-7.317190880824503,-3.8473363563695573,-0.00955878021910127,-0.0097312513553417,-0.002254972954476421
1765409363.371424,-5.1757363621848915,-7.308061961666341,-3.8787729316741935,-0.010024697707170927,-0.00983302520821181,-0.0019252035893805733
1765409363.371674,-5.152128816494569,-7.300309686801371,-3.911169589600316,-0.010469284134269804,-0.009668446422999131,-0.0015375024475073901
1765409363.371924,-5.126785205564004,-7.294159354913897,-3.9440820414020723,-0.010860266692671485,-0.009156243785107711,-0.001054404115832552
1765409363.372174,-5.099812412650891,-7.289810029557626,-3.9769480065973313,-0.011159288450359517,-0.008219321591800888,-0.0004366914798895753
1765409363.372458,-5.07144707924624,-7.287422532465826,-4.0090873673561465,-0.011323021764584178,-0.006788247322095285,0.00035588575201686535
1765409363.372708,-5.042058325215655,-7.287107050592987,-4.039710090406424,-0.011304728394677449,-0.004804686078748781,0.0013638776191547413
1765409363.372958,-5.012143012128934,-7.288911686836959,-4.067932990551916,-0.011056203959988154,-0.0022246146043748936,0.002627415668597993
1765409363.373208,-4.9823126884530815,-7.292813501696984,-4.092805671369894,-0.010530002755673158,0.0009788598894589495,0.004185532168150477
1765409363.373374,-4.9532715992170555,-7.298713637522338,-4.113345490067902,-0.009681801932413563,0.004813254594504263,0.006075528976244075
1765409363.373574,-4.925785527495685,-7.306437942499281,-4.128580995175827,-0.0084727396458305,0.009265207697493375,0.008332398768834246
1765409363.373774,-4.900642162788113,-7.3157440446344415,-4.137602502593929,-0.006871551291195651,0.014299854132194183,0.010988292382073427
1765409363.373974,-4.878605168222383,-7.326335038984338,-4.139617199836038,-0.004856330124292637,0.019861176685114296,0.014072017943382949
1765409363.374174,-4.8603655848202925,-7.33787893779421,-4.134004817492087,-0.0024157552991030487,0.02587338827601687,0.01760855310837469
1765409363.374476,-4.846495085819497,-7.350032016539351,-4.120368893308031,0.0004503346733515086,0.03224335742185093,0.02161855471648169
1765409363.374726,-4.837405756203849,-7.362463451705588,-4.098578068764257,0.0037310915634535943,0.038864027480561114,0.02611786150548345
1765409363.374976,-4.833320625061929,-7.37487840261961,-4.0687919340349,0.007405531662822112,0.04561869750282849,0.031117001932808586
1765409363.375226,-4.834258030798441,-7.387036961805428,-4.031467372220973,0.011444063207443938,0.052385940263111434,0.03662073453411928
1765409363.37543,-4.8400310119892,-7.398767019742392,-3.9873444523556767,0.01581052649931044,0.059044849718184994,0.04262765793034252
1765409363.37568,-4.850260810890198,-7.409969881618917,-3.937414581307498,0.020464554743358686,0.06548025675678268,0.04912993157791381
1765409363.37593,-4.86440207980096,-7.420618372977296,-3.8828760029686693,0.02536404200895195,0.07158754993867497,0.056113148747449326
1765409363.37618,-4.8817767941975845,-7.43074813692153,-3.8250820290518446,0.030467513677764086,0.07727679499037343,0.06355639995185633
1765409363.376474,-4.901613775234595,-7.4404437321944865,-3.765486371401459,0.03573622445721403,0.08247594494876365,0.07143255711821167
1765409363.376724,-4.923090699757093,-7.449821832277596,-3.7055886686682595,0.04113585051499823,0.08713303536841346,0.07970879702324819
1765409363.376974,-4.9453757003538135,-7.459014146614648,-3.6468820255833565,0.046637691610834316,0.09121733565526974,0.08834736813631526
1765409363.377224,-4.967666381341471,-7.468152465899342,-3.5908032018496536,0.052219354147042964,0.09471947341005742,0.09730658910850434
1765409363.377395,-4.989224920604919,-7.477357439448522,-3.538685682184268,0.05786494358956989,0.09765057980672473,0.10654205309001204
1765409363.377645,-5.009408282679475,-7.486731639648421,-3.4917166119676324,0.06356484723963174,0.10004053849456535,0.11600800375228475
1765409363.377895,-5.027692505520926,-7.496356690647657,-3.450899491723301,0.06931522340558521,0.10193546467536799,0.1256588438836741
1765409363.378145,-5.043690135818881,-7.506294002519287,-3.4170242851808204,0.07511731969990972,0.1033945864416106,0.1354507256602208
1765409363.378468,-5.057160313402062,-7.51658868169722,-3.390645506666362,0.08097672089965631,0.10448672882545225,0.14534314666190803
1765409363.378718,-5.068011215134561,-7.527276006954288,-3.3720684917113926,0.08690258856196434,0.10528660017983126,0.15530044740559878
1765409363.378968,-5.076294223744792,-7.538389350117053,-3.3613450920844206,0.09290691971267016,0.10587105795082381,0.16529309635690118
1765409363.379218,-5.082188834475911,-7.549967916526513,-3.3582811624861075,0.09900383094596828,0.1063155055867868,0.17529866860558377
1765409363.379354,-5.085977911655427,-7.5620625768922825,-3.36245756698827,0.10520886188551316,0.10669055719560643,0.18530246339611922
1765409363.379604,-5.088014627507821,-7.574738463844835,-3.3732638839505396,0.11153827888447876,0.1070591019187539,0.19529774255798704
1765409363.379854,-5.08868427195691,-7.588073709661856,-3.389941269044099,0.1180083476684001,0.10747389725639149,0.20528559677552302
1765409363.380104,-5.088365075914518,-7.602154399267954,-3.411629519461297,0.12463454202251563,0.10797580756079818,0.21527446421971827
1765409363.38255,-5.0873922316086375,-7.6170663121763384,-3.4374131418245324,0.13143066775613155,0.10859276909434123,0.2252793427195085
1765409363.3828,-5.086029060105264,-7.632884331513147,-3.466361576423081,0.13840789968789252,0.10933950259022908,0.23532075185432902
1765409363.38305,-5.0844489281752825,-7.649660592499037,-3.497559849977236,0.1455737485332417,0.11021792269247904,0.24542351126268616
1765409363.3833,-5.082730480812494,-7.667412553448171,-3.530128136562262,0.15293099794678242,0.11121814198803152,0.25561540579493147
1765409363.382609,-5.080866645248482,-7.6861122269325834,-3.5632314097984166,0.16047668188294426,0.11231995632575796,0.2659258104695629
1765409363.382859,-5.078785333486543,-7.705677934925536,-3.59608234277623,0.16820119917141174,0.1134947140638233,0.27638434893773006
1765409363.383109,-5.076378083622389,-7.725970181731461,-3.6279411875101015,0.17608767317732005,0.11470748061822388,0.28701965001449087
1765409363.383359,-5.073532594274385,-7.74679325824226,-3.6581160091802705,0.18411165876021235,0.1159193950052912,0.2978582372070711
1765409363.383434,-5.070165573507846,-7.767903580384115,-3.6859661930403798,0.19224128545917296,0.11709009569011718,0.30892353917841936
1765409363.383684,-5.066252644861022,-7.789024487817957,-3.7109116157958915,0.20043790996973096,0.11818009713307426,0.32023496722801414
1765409363.383934,-5.061852236236912,-7.809865687868999,-3.73244853361802,0.20865732463975012,0.11915302515526148,0.33180699384397105
1765409363.384184,-5.057121137101868,-7.830144261310241,-3.7501709157517507,0.216851519211966,0.11997763761288342,0.3436481908924642
1765409363.384401,-5.052320908562082,-7.849603624646062,-3.763793872685055,0.22497092462753945,0.1206295463396403,0.3557602362744949
1765409363.384734,-5.047815751884731,-7.86802733206477,-3.773175369655956,0.23296700733089004,0.12109253538308844,0.36813695743280983
1765409363.385068,-5.044062970211129,-7.885245955136261,-3.7783333717417777,0.24079505419373254,0.12135937528615165,0.3807635326876415
1765409363.385319,-5.041596836160313,-7.901136961944996,-3.7794566187310057,0.24841698874661228,0.12143207348125444,0.39361600276005104
1765409363.385569,-5.041006156012689,-7.915618963675209,-3.7769078114795525,0.2558040663246748,0.12132155026069072,0.4066612440939637
1765409363.385819,-5.042905765084152,-7.928642673061062,-3.7712184996966265,0.26293929117173925,0.1210467621816797,0.4198575159321227
1765409363.386069,-5.047902991776043,-7.940181429025991,-3.763075381449515,0.2698193829755697,0.120633317315057,0.4331556170999169
1765409363.386367,-5.056561727700978,-7.950224041308129,-3.753297425573415,0.2764561097130016,0.1201116620576732,0.4465005948116198
1765409363.386617,-5.069368402509509,-7.95877171517634,-3.7428023647489086,0.28287681660247527,0.11951496619686318,0.45983386636933016
1765409363.386867,-5.0867046973553585,-7.965839025258622,-3.7325611177105364,0.28912402564675943,0.11887686254610973,0.47309557044178635
1765409363.387117,-5.108830557037017,-7.971457122851769,-3.72354060270604,0.2952540507841091,0.11822918693313116,0.4862269661901148
1765409363.387471,-5.135878560558816,-7.975676660737678,-3.7166382862714964,0.3013346561050008,0.11759982566205035,0.49917273509889476
1765409363.387721,-5.167858257514193,-7.978568751879993,-3.712613959369838,0.30744186686331865,0.11701074531674259,0.5118830871405807
1765409363.387971,-5.204667358156386,-7.980224027136129,-3.712025279082878,0.31365611792085824,0.11647627251098627,0.5243156054242966
1765409363.388221,-5.2461055380424035,-7.980751361591937,-3.715174409647166,0.32005798473391844,0.11600169791861818,0.5364367737907456
1765409363.388425,-5.291886091900004,-7.980278295120103,-3.7220736777788113,0.32672378078061143,0.11558228395266422,0.5482231320954543
1765409363.388675,-5.3416413545176775,-7.978954567201589,-3.7324371477807348,0.3337213199904855,0.11520275890813574,0.5596620143979314
1765409363.388925,-5.39492003374452,-7.976959042312474,-3.745701456800281,0.34110613376483534,0.11483738446694858,0.5707518550126941
1765409363.389175,-5.451177625734464,-7.974509174821342,-3.761074147110841,0.3489183971479326,0.11445067329776287,0.5815020845929457
1765409363.389474,-5.509763589236983,-7.9718713832403365,-3.7776033408249723,0.35718075676737654,0.11399879017176462,0.5919326629466447
1765409363.389724,-5.569910212421823,-7.969370352614737,-3.794260332637008,0.3658971749086972,0.11343160021119213,0.6020733005278005
1765409363.389974,-5.63072833846979,-7.967395218174096,-3.8100260447976457,0.37505282740781953,0.11269526377889921,0.6119624176187359
1765409363.390224,-5.691214656421355,-7.9664006605474,-3.8239722178382265,0.3846150284949281,0.11173524336716595,0.6216458915997501
1765409363.390431,-5.750273679005178,-7.966901259223954,-3.8353290420869532,0.3945351034261341,0.11049957560175948,0.6311756480457877
1765409363.390764,-5.806754344003771,-7.9694581625399925,-3.843533842275918,0.404751087073882,0.10894224466395068,0.6406081502929171
1765409363.391098,-5.859497398910758,-7.97465806488426,-3.8482597362156485,0.4151910920023357,0.10702646219180696,0.6500028281969575
1765409363.391386,-5.907387500805781,-7.983085180573375,-3.8494261795933005,0.42577716238266883,0.1047276344572036,0.6594204668202059
1765409363.391636,-5.949404241009571,-7.995287197406982,-3.847193462824971,0.4364294105821645,0.1020358084879757,0.668921563325697
1765409363.391886,-5.98466782762456,-8.011736455551345,-3.841942134921016,0.4470702208220913,0.09895743478965982,0.6785646621598972
1765409363.392136,-6.012476267043328,-8.032788170198613,-3.834238436635807,0.45762829876898753,0.09551633515153189,0.6884046895924182
1765409363.392461,-6.032331626826966,-8.058638123547494,-3.8247882906364974,0.46804234965747565,0.09175379432094137,0.6984913195468
1765409363.392711,-6.043954646027498,-8.089282372664803,-3.814383324488089,0.4782641820320356,0.08772771424268849,0.7088674096291042
1765409363.392961,-6.047289868680318,-8.124481181856632,-3.803841806322779,0.48826105622990745,0.08351081159235715,0.7195675529489736
1765409363.393211,-6.0425059146850035,-8.163729254764673,-3.7939465892885353,0.49801712391849345,0.0791879155527055,0.7306168023069728
1765409363.393382,-6.029995485933835,-8.206234962386539,-3.785382836305286,0.5075338439300489,0.0748525073483689,0.7420296370199236
1765409363.393632,-6.0103770630236575,-8.250912347113283,-3.778680102159599,0.5168293196248909,0.0706027012088173,0.7538092510930825
1765409363.393882,-5.984496570900886,-8.296390263961746,-3.774164664296496,0.5259365802662636,0.06653688777431382,0.7659472375392767
1765409363.394132,-5.953424327168525,-8.341042381265812,-3.7719280509513453,0.5349009077829494,0.06274925783719253,0.7784237284634672
1765409363.394451,-5.918441344828502,-8.383040017100313,-3.7718168220486623,0.5437763821862888,0.0593254110344653,0.7912080313691953
1765409363.394701,-5.881010034835965,-8.420427561563482,-3.7734466859649767,0.5526218847754072,0.05633823970068702,0.8042597826551985
1765409363.394951,-5.842727457946689,-8.451218100306445,-3.7762403338398425,0.5614968524105912,0.053844270817998585,0.8175306148536728
1765409363.395201,-5.8052633032963525,-8.473505096616217,-3.77948363940048,0.5704571056450871,0.05188065048683641,0.8309662982938645
1765409363.395389,-5.770287777598764,-8.485584622673272,-3.782391617037621,0.5795510723951953,0.05046295057257843,0.8445092679302342
1765409363.395639,-5.739395423801338,-8.486081492809046,-3.784175633094931,0.5888166984434312,0.04958394896407083,0.8581013822552352
1765409363.395889,-5.714030051351927,-8.474071460657601,-3.784106025915002,0.5982792789354614,0.04921349088341824,0.8716866892323835
1765409363.396139,-5.695414733184695,-8.44919010948151,-3.781567150966923,0.6079503658400328,0.04929950387411059,0.8852139145438662
1765409363.396472,-5.684490041445616,-8.411717335865504,-3.7761033490506213,0.6178278091302148,0.049770215859507944,0.8986383741754135
1765409363.396805,-5.681863578498666,-8.362625319773954,-3.767454346199118,0.6278968759630896,0.050537581334543266,0.9119230737963805
1765409363.397139,-5.687774390097891,-8.303578858022934,-3.7555778716920547,0.6381322733994947,0.05150182551102015,0.9250388908620152
1765409363.397448,-5.702076697387196,-8.23688067455694,-3.740656745909812,0.64850080282116,0.05255688247186614,0.9379639085251209
1765409363.397698,-5.724247767289814,-8.165360452115111,-3.7230879312436516,0.6589643260609299,0.05359637803712772,0.9506821305444997
1765409363.397948,-5.753423729608185,-8.092213439612545,-3.703452082800974,0.6694827337160143,0.05451973014572704,0.9631819067644275
1765409363.398198,-5.7884642223635066,-8.020800934238679,-3.68246390117034,0.6800166592820961,0.05523791345093388,0.9754544190857821
1765409363.398442,-5.828042179126701,-7.9544296465969415,-3.6609062494307896,0.6905297499426203,0.055678445803939616,0.9874925221371148
1765409363.398692,-5.87075008281921,-7.896129404072961,-3.639554307133842,0.7009903677175786,0.05578919841730788,0.9992901196446949
1765409363.398942,-5.915210452830458,-7.848448545874915,-3.6190985469355152,0.7113726559588086,0.05554071881967209,1.0108421195349777
1765409363.399192,-5.960177598711547,-7.813283851714446,-3.600075391993553,0.7216569752407872,0.0549268897668963,1.0221448889298326
1765409363.39938,-6.004619505412794,-7.791757736610259,-3.5828124233335648,0.7318297841614567,0.05396390889020505,1.033197052954849
1765409363.39963,-6.047771632017486,-7.784150823307272,-3.567393108695251,0.7418830940729902,0.05268772698872701,1.0440004516683763
1765409363.39988,-6.089157597785656,-7.789893511439026,-3.5536450459724116,0.7518136498806341,0.05115020075959775,1.0545610741364706
1765409363.40013,-6.128575637239099,-7.8076158023940545,-3.541154177812995,0.7616219912672452,0.04941429755323035,1.0648898154618571
1765409363.400315,-6.166054425148065,-7.835250292666708,-3.5293042911008805,0.7713115417141138,0.047548745857157244,1.0750029451942837
1765409363.400565,-6.201786113062253,-7.870179354833326,-3.5173375300643577,0.7808878497769081,0.04562255624546194,1.08492222873034
1765409363.400815,-6.236046735807349,-7.909415108973871,-3.5044292979023908,0.7903580611137979,0.0436998339946978,1.0946746971792802
1765409363.401065,-6.2691144430745345,-7.9498004662087265,-3.489769920637037,0.7997306452009325,0.041835262877546575,1.1042920956705313
1765409363.401378,-6.301195079442484,-7.988220425386722,-3.472645040056208,0.809015358277875,0.04007057272259463,1.1138100312361625
1765409363.401711,-6.332362854660622,-8.021812837062951,-3.452507038628644,0.8182233992457141,0.03843222700240523,1.123266789461255
1765409363.402045,-6.362521386032873,-8.048165568077476,-3.429031485889015,0.8273677009334394,0.03693048031275374,1.1327017385008473
1765409363.402386,-6.391388084462653,-8.065483383659089,-3.4021549892398983,0.8364632875377886,0.035559851159601634,1.1421532527997422
1765409363.402636,-6.4185034089738195,-8.072706049221821,-3.372092581070225,0.8455276166960755,0.034300939079492575,1.1516561935932614
1765409363.402886,-6.443265202226212,-8.069562090826942,-3.339333840933159,0.8545808127979486,0.03312340380657827,1.1612391410678926
1765409363.403136,-6.464985739293336,-8.056550638464856,-3.304618467853141,0.8636456929401277,0.031989828641474136,1.1709217068998605
1765409363.403392,-6.482965326957148,-8.0348539553768,-3.268894185978623,0.8727474974813333,0.03086011361937498,1.1807123033612497
1765409363.403642,-6.4965731854626725,-8.006191816828393,-3.2332614060852256,0.8819132663610445,0.029695995011137653,1.1906066952118155
1765409363.403892,-6.5053256419860865,-7.972634051736405,-3.1989090427230367,0.8911708408355161,0.028465280306641243,1.2005875477550683
1765409363.404142,-6.508953056477655,-7.936390113033263,-3.1670450299632606,0.9005475045358338,0.02714542486208227,1.2106250543928514
1765409363.40441,-6.507448793355042,-7.899595750304375,-3.1388246613657373,0.9100683053071764,0.025726141999928755,1.2206786083583165
1765409363.40466,-6.5010952219703295,-7.864116620610748,-3.1152800834763017,0.919754132921042,0.02421081730723263,1.2306993840225264
1765409363.40491,-6.49046387493944,-7.8313863868026745,-3.097254494221233,0.9296196756448546,0.022616594428098612,1.2406336141329164
1765409363.40516,-6.476390102488532,-7.802293081964896,-3.0853447055897405,0.9396714241054734,0.020973125004184762,1.250426294367518
1765409363.405404,-6.459926150038471,-7.777123464687226,-3.079855889362503,0.949905909401399,0.019320118507868692,1.260025015958763
1765409363.405654,-6.442279302979345,-7.755570786536707,-3.08077210236856,0.9603083540576329,0.01770395240173934,1.2693836119766118
1765409363.405904,-6.424742926335058,-7.73680580875739,-3.0877450081458266,0.9708518985822869,0.01617368096219179,1.278465298590657
1765409363.406154,-6.408627840840396,-7.719603777549803,-3.1001014457392086,0.9814975493034068,0.014776815897852607,1.2872450118665555
1765409363.406404,-6.3951996371224595,-7.702512757781686,-3.1168691930836956,0.9921949608323957,0.013555260863663262,1.2957107018072078
1765409363.406737,-6.385624781198987,-7.684043249531263,-3.136819805741626,1.0028841077904793,0.012541765588699674,1.303863449655399
1765409363.407071,-6.380925971806696,-7.662856683041731,-3.158527044772597,1.0134978191224162,0.011757211796886439,1.3117164000127703
1765409363.407402,-6.381946203736914,-7.637931298666827,-3.1804384863788666,1.0239650554621287,0.011208954867194604,1.3192926169704795
1765409363.407652,-6.389321080852603,-7.6086872219882276,-3.2009567883239507,1.0342147205853154,0.010890342042661124,1.3266220646496114
1765409363.407902,-6.403459086102082,-7.5750570935270645,-3.2185262662217076,1.0441797302552565,0.01078142569006271,1.3337379764586412
1765409363.408152,-6.4245294001827045,-7.5374936683928215,-3.231719608385078,1.0538010291552737,0.010850789409007121,1.3406729287623487
1765409363.408402,-6.452456841257022,-7.4969115158093675,-3.239318500239425,1.0630312490442708,0.011058301414731797,1.3474549920610515
1765409363.408652,-6.486923650860887,-7.454567204042902,-3.2403814080878255,1.0718377231713359,0.011358508124085618,1.354104397179987
1765409363.408902,-6.52737781312344,-7.411891493035593,-3.2342926629478272,1.080204596708516,0.011704299902756794,1.3606311897552383
1765409363.409152,-6.573047466390458,-7.370296337428648,-3.2207889960487472,1.0881338074197306,0.012050446788281358,1.367034290835321
1765409363.409369,-6.622961421877941,-7.330985417329744,-3.19996174542234,1.095644783212208,0.012356634142450107,1.3733021983478695
1765409363.409619,-6.675976908561262,-7.294796616281146,-3.1722346781809168,1.102772829243939,0.012589725964675438,1.3794152955653245
1765409363.409869,-6.730816319710493,-7.262098422793681,-3.138319345333939,1.109566335699198,0.012725122619946419,1.3853494769364054
1765409363.410119,-6.7861139232389185,-7.232752553844118,-3.099152393982688,1.1160830808210214,0.012747221718771662,1.3910806297311387
1765409363.410326,-6.840471486131339,-7.206145622440613,-3.0558215302792338,1.1223859936137153,0.012649101853301748,1.396589419457872
1765409363.410576,-6.892519452748573,-7.1812848774018425,-3.0094882170100115,1.1285387730565564,0.012431613844797774,1.4018657792880855
1765409363.410826,-6.940978100228845,-7.156946111816714,-2.9613160658896684,1.134601754239009,0.012102090880411719,1.4069124851854329
1765409363.411076,-6.9847113728648225,-7.131854706661975,-2.9124141191125203,1.140628375030681,0.011672896218458764,1.4117472403814366
1765409363.411354,-7.022766262817276,-7.104874238509756,-2.863802080275242,1.1466625235720551,0.011160023320248784,1.4164028418061383
1765409363.411687,-7.054393932715151,-7.075173676934621,-2.8163989442679007,1.1527369357205342,0.010581939903816966,1.4209252709732436
1765409363.412021,-7.079054193488511,-7.04234641328447,-2.7710295782226346,1.158872673977041,0.009958815723222733,1.425369896328043
1765409363.412386,-7.09640927022698,-7.006462766864659,-2.728439626230985,1.1650795765455813,0.009312195003099002,1.4297962993404207
1765409363.412636,-7.10631376054992,-6.968050084981441,-2.6893093153841914,1.171357446898776,0.008665072269576822,1.43426244775995
1765409363.412886,-7.108805887961668,-6.928007261199567,-2.654259553542591,1.1776976886495876,0.008042214569529823,1.438818992161134
1765409363.413136,-7.104102450235695,-6.887470113511189,-2.623846917739417,1.1840850867782855,0.007470477481620715,1.4435043799906773
1765409363.413381,-7.092597289279841,-6.847649465580317,-2.598547272250622,1.190499482673401,0.006978834356519799,1.4483413244878984
1765409363.413631,-7.0748609853359214,-6.809665892414923,-2.578730828097015,1.1969171701419337,0.006597894905102258,1.453334979151555
1765409363.413881,-7.051638458151485,-6.774405053734228,-2.5646334552556707,1.20331194143462,0.006358802390200507,1.4584729611938634
1765409363.414131,-7.023841774583502,-6.742414933690081,-2.5563290317672376,1.2096558261161983,0.006291531022414703,1.4637271373240774
1765409363.414378,-6.992537005290437,-6.713859776484039,-2.553706226681173,1.215919672519247,0.006422735726493566,1.4690568581756498
1765409363.414628,-6.9589248657995775,-6.688535272731959,-2.556452183169001,1.222073794178478,0.006773413874197652,1.4744131636527997
1765409363.414878,-6.924314417210639,-6.665938558695445,-2.564046023646176,1.2280889149065497,0.007356691531554425,1.4797434259054516
1765409363.415128,-6.890088394475122,-6.64537831705901,-2.5757657578781408,1.2339375840014069,0.008176031271681107,1.4849959320229185
1765409363.415445,-6.857659501029012,-6.626105742776105,-2.590711079756606,1.2395961136118943,0.009224096330463744,1.490123976884615
1765409363.415695,-6.828419589421899,-6.607445096068461,-2.607841341606787,1.2450469471909489,0.01048242880281246,1.495089108014976
1765409363.415945,-6.8036864803502075,-6.588902379727647,-2.6260242649531302,1.2502812255563063,0.011922020690613813,1.4998632584520337
1765409363.416195,-6.78465420826825,-6.570233713307868,-2.644088621146946,1.2553011932363705,0.013504770751971944,1.504429643797442
1765409363.416391,-6.772350923731647,-6.551462401663421,-2.6608743433463933,1.2601220175032124,0.015185716572659581,1.5087824690254328
1765409363.416724,-6.767605751421907,-6.53284402290782,-2.675275954882931,1.2647726130316805,0.01691581223904139,1.5129256420566812
1765409363.417058,-6.771023952799803,-6.5147886320516095,-2.6862778822295446,1.2692951778664507,0.018644924353877074,1.5168707870613818
1765409363.417421,-6.782970025507537,-6.497755727280286,-2.6929815678623696,1.2737433188043505,0.020324697474295897,1.520634886451193
1765409363.417671,-6.803559665918303,-6.482140522976439,-2.6946249140470604,1.2781788397585143,0.021911010465317626,1.5242378734394448
1765409363.417921,-6.8326615778860695,-6.46817012409314,-2.6905958658762055,1.282667453628998,0.023365866843226182,1.5277004606198081
1765409363.418171,-6.8699083313206755,-6.455825994213982,-2.6804435327310077,1.2872738281037583,0.02465867927473127,1.5310424276214754
1765409363.418386,-6.914713482520683,-6.444804781556192,-2.663890427721238,1.2920564697949932,0.025766990841495162,1.5342815061481656
1765409363.418636,-6.966291793426295,-6.434523362689963,-2.640847353025828,1.2970629793951383,0.02667672346062928,1.537432904420729
1765409363.418886,-7.023680721961471,-6.424166819305363,-2.6114292332923443,1.302326165852725,0.02738207064322046,1.5405094198964833
1765409363.419136,-7.0857630867341985,-6.41277151715263,-2.575967734726488,1.3078613928795655,0.027885159746001153,1.5435220112901151
1765409363.419383,-7.151292100662043,-6.3993307340258925,-2.535015796818497,1.313665368164716,0.028195582183110236,1.5464806447895976
1765409363.419716,-7.218921165482727,-6.382907693193547,-2.4893395635018822,1.3197164057409536,0.028329825241419353,1.5493952005112537
1765409363.42005,-7.287241974014773,-6.362740459656225,-2.4398937518209936,1.3259760219387782,0.028310565690981473,1.5522762320690824
1765409363.420411,-7.354834330339963,-6.338325291081894,-2.387777738565658,1.3323915856671877,0.02816573841562052,1.5551354132484847
1765409363.420661,-7.420328589232286,-6.30946938293257,-2.334172656935123,1.3388996548394976,0.027927281948201665,1.5579855621168361
1765409363.420911,-7.482477451148036,-6.276308928887389,-2.2802644881110194,1.3454296133783492,0.027629480106738748,1.560840189881851
1765409363.421161,-7.540229767004502,-6.239292622279152,-2.227163000595827,1.3519072807254655,0.02730687083802459,1.5637125856538545
1765409363.421409,-7.592796089638796,-6.199134253328632,-2.175829520881534,1.3582582668526344,0.026991796448202886,1.5666145230699744
1765409363.421659,-7.6396944266968285,-6.156741541036922,-2.12702656989744,1.3644109430789901,0.026711806109156595,1.5695547417927762
1765409363.421909,-7.680766032263186,-6.11313121597391,-2.0812989171286502,1.3702989704564077,0.026487223038072792,1.5725373920382624
1765409363.422159,-7.7161562327506585,-6.069341081412674,-2.0389890235154584,1.3758633827859823,0.026329200974387595,1.5755606283561543
1765409363.422365,-7.74626312984765,-6.02634761320984,-2.0002818899581385,1.3810542665165249,0.026238535294171642,1.5786155157410207
1765409363.422615,-7.771663890177237,-5.984993875154429,-1.9652679059063018,1.3858320968916664,0.02620540583728156,1.5816853893213336
1765409363.422865,-7.793031228565968,-5.945929551032893,-1.9340096011202244,1.3901687618220306,0.02621011617229212,1.5847457989996803
1765409363.423115,-7.8110520671941766,-5.909564490692376,-1.9065990306049012,1.394048250272154,0.026224749624090788,1.5877651607175658
1765409363.423387,-7.826358446502478,-5.876039207865293,-1.8831953070193412,1.397466945744324,0.02621551766458448,1.5907061986407083
1765409363.42372,-7.83947834479032,-5.845218435079611,-1.8640357836053834,1.4004334765437116,0.02614549116435594,1.5935281725441692
1765409363.424054,-7.850810325112486,-5.8167147462650135,-1.8494196869252113,1.4029681253083188,0.025977403942203544,1.5961897404123127
1765409363.424406,-7.8606210104899965,-5.789946489566085,-1.839668877317719,1.4051018649224063,0.025676262413485817,1.5986521396379274
1765409363.424656,-7.869060346655411,-5.7642273773072805,-1.835074718966636,1.406875138026951,0.025211540356797256,1.6008822405197212
1765409363.424906,-7.876188413176056,-5.738876032249528,-1.8358408809766587,1.4083365076490948,0.024558792689566487,1.6028549967917107
1765409363.425156,-7.882008973124147,-5.713326493476342,-1.8420296829792504,1.4095412688224997,0.023700616391513666,1.6045549195102895
1765409363.425401,-7.88650703291409,-5.687218469889373,-1.8535167423692538,1.4105500427751294,0.022627005901119233,1.6059764032692527
1765409363.425651,-7.889688646709167,-5.660449777668946,-1.8699572030163798,1.4114273063813116,0.021335241064867803,1.607122968207271
1765409363.425901,-7.891620783928204,-5.633181410712197,-1.8907665878956688,1.4122397639636248,0.019829472296679578,1.6080056770094964
1765409363.426151,-7.8924683533923154,-5.605795390257142,-1.9151185017207637,1.4130544568101493,0.018120140578148092,1.6086410927779211
1765409363.426412,-7.892525357191505,-5.578814099919931,-1.941959077946513,1.4139365316733876,0.01622332088466969,1.6090491488058707
1765409363.426745,-7.892237181828127,-5.552795529080163,-1.9700357918715423,1.4149466548197867,0.014160023554265216,1.609251237821898
1765409363.427079,-7.892210387713499,-5.528221745751456,-1.9979380745914244,1.4161381561775828,0.011955436749660526,1.6092687444802887
1765409363.427403,-7.893205604077457,-5.50539883733451,-2.024148671951083,1.4175540982194956,0.009638062557603527,1.6091221628407446
1765409363.427653,-7.896109942417934,-5.48438564598808,-2.0471056745003886,1.419224555970467,0.007238703746728899,1.6088308491095153
1765409363.427903,-7.901888530100737,-5.464965018675171,-2.0652741206971705,1.4211644373265908,0.004789292586805942,1.6084133454258045
1765409363.428153,-7.911519342190335,-5.446664410488765,-2.077223463696362,1.4233721530639352,0.0023216032040131638,1.6078880906020985
1765409363.428388,-7.925919393846749,-5.42882359204829,-2.081704684461895,1.4258293748562503,-0.00013406452162609516,1.6072742517463723
1765409363.428638,-7.945871793473486,-5.410698230712879,-2.077720042661903,1.428502015438619,-0.002550121711566859,1.6065923954642163
1765409363.428888,-7.971961667275574,-5.391581213120919,-2.0645798652130676,1.4313424353551398,-0.004902754335461686,1.605864763892552
1765409363.429138,-8.004525451289098,-5.370919792800968,-2.041943626556621,1.4342927307973046,-0.007172753800353835,1.605115010140548
1765409363.429371,-8.043614452025695,-5.348406820291673,-2.009845184550779,1.4372888051028057,-0.009346088153875057,1.604367364401561
1765409363.429621,-8.088971995776813,-5.324029186866099,-1.968702626343865,1.4402648078106923,-0.011414213066208047,1.603645327932566
1765409363.429871,-8.140024521420042,-5.298065660744906,-1.9193117268566402,1.4431574810540229,-0.01337413494371249,1.6029700992635738
1765409363.430121,-8.195888946360855,-5.271037292569277,-1.8628207684366043,1.4459100028045644,-0.015228244810178385,1.602358994222479
1765409363.430388,-8.255399201993821,-5.243623653902687,-1.8006854298555113,1.448475038165196,-0.016983947754628897,1.6018241039228356
1765409363.430721,-8.317153197636207,-5.216564545837268,-1.7346052690246305,1.450816860330461,-0.018653114578315685,1.6013713374814351
1765409363.431055,-8.379578618470646,-5.190567109716263,-1.6664462891467793,1.4529125473209266,-0.0202513717720414,1.6009998556872291
1765409363.431319,-8.44101333389901,-5.1662323502270056,-1.5981559069355091,1.4547523729386491,-0.02179722985236793,1.6007017965407464
1765409363.431569,-8.499794586691241,-5.144006334178201,-1.531676802151168,1.4563395677636306,-0.023311046990049412,1.600462188008047
1765409363.431819,-8.55435042698993,-5.124154394304509,-1.4688648925297123,1.4576896234196441,-0.02481384453510516,1.6002590265746617
1765409363.432069,-8.603286486825233,-5.106753676943139,-1.4114151250621119,1.4588292695518306,-0.026326025409717776,1.6000635983772904
1765409363.43244,-8.645461132607814,-5.091699230382155,-1.3607976817985723,1.4597951947220345,-0.027866079910337103,1.5998411682292097
1765409363.43269,-8.680043168312373,-5.078719613808652,-1.3182060200296106,1.4606325290118318,-0.02944938606688673,1.5995521476367915
1765409363.43294,-8.706549178750528,-5.067398986238733,-1.2845162351516866,1.4613930684318122,-0.03108721855287634,1.5991537957962754
1765409363.43319,-8.724860977139777,-5.057204082035071,-1.2602558616425155,1.4621332107529166,-0.032786067981555485,1.5986024299014305
1765409363.433342,-8.735225040529414,-5.047516430392472,-1.245581657259472,1.4629116004031877,-0.034547345491713274,1.5978560365372385
1765409363.433675,-8.738234806987293,-5.037671803770893,-1.2402695747328938,1.4637865428235182,-0.03636751525259883,1.5968770885379815
1765409363.434009,-8.734795478200333,-5.027008765740263,-1.2437223126451036,1.4648133228468667,-0.038238654842786345,1.5956352843959862
1765409363.434428,-8.726071418458881,-5.014925316668228,-1.2549982337614007,1.4660416149714945,-0.040149374206078274,1.5941098612832627
1765409363.434678,-8.713417923052809,-5.00093782145064,-1.272861653936602,1.4675131768200647,-0.04208593977295389,1.5922911295036255
1765409363.434928,-8.69830088349253,-4.984732400679669,-1.2958512594266063,1.469259964444235,-0.04403340169676051,1.5901809623913223
1765409363.435178,-8.682209633489935,-4.96619814774899,-1.3223613689640126,1.4713027293644907,-0.04597654595998147,1.5877921319613524
1765409363.435335,-8.666570320180192,-4.945433856810107,-1.3507290611442149,1.4736500931149377,-0.04790057015425504,1.5851465611794402
1765409363.435585,-8.652668912135413,-4.922723930135179,-1.3793185521025235,1.4762980575412277,-0.049791468014084364,1.5822727345934753
1765409363.435835,-8.64159314888077,-4.898483924815562,-1.4065935506971063,1.4792298843341602,-0.05163618339854006,1.579202651051815
1765409363.436085,-8.634200308784905,-4.873181747924709,-1.4311699146166565,1.4824162631524405,-0.05342265576987525,1.575968791309046
1765409363.436366,-8.631112434082034,-4.847246373285879,-1.4518452724214437,1.4858157040065676,-0.05513991115608394,1.5726015796055102
1765409363.436699,-8.63273385909231,-4.820980729272966,-1.46760831181533,1.4893751490771,-0.056778340407675175,1.5691277245539694
1765409363.437033,-8.639280447625671,-4.794497198425622,-1.4776356548798135,1.4930308853459449,-0.058330258459099414,1.5655696398088317
1765409363.437319,-8.650808901508091,-4.767691441169975,-1.4812859474587994,1.49670991416595,-0.0597907695439504,1.5619459052592206
1765409363.437569,-8.667238329341338,-4.74026282977124,-1.478098100166457,1.5003319595724907,-0.0611588703172087,1.5582724960430718
1765409363.437819,-8.688362205420551,-4.7117795407890934,-1.467795478122503,1.503812256396948,-0.06243860493905565,1.5545643519677814
1765409363.438069,-8.713853652457125,-4.6817765056239145,-1.4502933707775287,1.5070651579845447,-0.06363998934666422,1.550836828079209
1765409363.438356,-8.743269595025088,-4.64986740690962,-1.4257047964233096,1.5100084591875316,-0.06477941477208819,1.5471066429098657
1765409363.438689,-8.776060135772966,-4.615848517865664,-1.3943393838227993,1.5125681686927201,-0.06587933540602489,1.5433920770872183
1765409363.439023,-8.81158823977167,-4.57977278049049,-1.3566917678875094,1.5146833200035474,-0.06696718604031286,1.5397123401295214
1765409363.439336,-8.849161133510245,-4.5419778425863075,-1.3134195183933468,1.5163103151628339,-0.06807360622019339,1.5360861980052967
1765409363.439586,-8.888070178522266,-4.503061565143973,-1.2653140378492742,1.5174262759841792,-0.0692301489803983,1.5325301031039293
1765409363.439836,-8.92763277322353,-4.46381022190572,-1.2132689098242284,1.5180309579644187,-0.07046672477443591,1.5290561523299373
1765409363.440086,-8.967229078582891,-4.425094462948829,-1.158249297787459,1.5181469614394305,-0.07180907485481036,1.525670204171413
1765409363.440308,-9.006327523882637,-4.387753395993393,-1.1012649805911252,1.517818207477963,-0.07327657828765338,1.5223704257423953
1765409363.440558,-9.044495517672816,-4.352487182583541,-1.0433488099603014,1.5171068699532353,-0.07488066742532094,1.5191464415640072
1765409363.440808,-9.081395106337617,-4.319774169926913,-0.9855409585554894,1.5160891251109203,-0.07662405715039397,1.5159791458955332
1765409363.441058,-9.116766465270613,-4.289821704948196,-0.9288774232319114,1.5148501731038897,-0.07850088551660413,1.512841152936848
1765409363.441336,-9.150403913198195,-4.262552974321874,-0.874380216690717,1.5134790020876534,-0.08049773258157628,1.5096978181435692
1765409363.441669,-9.182129573568663,-4.237627133501336,-0.8230470675132681,1.512063322924524,-0.08259536295423796,1.5065087571150528
1765409363.442003,-9.211769658980943,-4.214486386796739,-0.7758392011010772,1.5106850233057074,-0.08477094448550054,1.503229780082602
1765409363.442404,-9.23913767320876,-4.1924207917905845,-0.733666103027538,1.5094163900749435,-0.08700042922299052,1.4998151388053715
1765409363.442654,-9.264027155009424,-4.170639875358262,-0.697366327207874,1.508317237017552,-0.08926076380811415,1.496219971231999
1765409363.442904,-9.286214597684133,-4.1483409739289545,-0.6676833673531304,1.507432964063218,-0.09153166020454771,1.4924028413463974
1765409363.443154,-9.30547221950347,-4.124767797648068,-0.6452351779652116,1.506793487126635,-0.09379679447063631,1.4883282869209233
1765409363.444331,-9.321590330863994,-4.099257605242417,-0.6304761491743434,1.506412937233844,-0.0960444508457766,1.483969271661234
1765409363.444581,-9.334408696027213,-4.071279355318922,-0.62365247699477,1.506290027329742,-0.09826773140490702,1.4793093719408943
1765409363.444831,-9.34385458958141,-4.040466336749036,-0.6247552763593728,1.506408999059649,-0.10046448514371288,1.4743444291945809
1765409363.445081,-9.349982812229,-4.006644335694671,-0.6334784495848251,1.506741066673583,-0.10263708790773576,1.4690833249766955
1765409363.444368,-9.35301101250533,-3.9698518997328036,-0.6491892435931678,1.507246262660656,-0.10479215720809283,1.46354756084583
1765409363.444701,-9.353343165416076,-3.9303459608056484,-0.6709188837305988,1.5078755707713658,-0.10694023945746679,1.4577694862586281
1765409363.445035,-9.351575505764563,-3.888586238504111,-0.6973785987190492,1.5085732277865636,-0.10909546898793182,1.45178927838133
1765409363.445353,-9.348482545885712,-3.845195027633186,-0.7270024760535874,1.509279092372586,-0.11127516361086728,1.4456510496459738
1765409363.445603,-9.344984709217455,-3.8008933590739145,-0.7580141466533378,1.5099310027205162,-0.11349929030165276,1.4393986534570722
1765409363.445853,-9.34210165951496,-3.7564189849067438,-0.7885113452492403,1.5104670581977282,-0.11578972083130505,1.4330718274802512
1765409363.446103,-9.340896092960685,-3.712436047783947,-0.8165611660536964,1.5108277638202128,-0.11816921755639852,1.4267032550037135
1765409363.446335,-9.342412709888572,-3.6694503400448126,-0.8402981238598881,1.5109579847515857,-0.12066014163605751,1.4203169582481923
1765409363.446585,-9.347616861213906,-3.627746287138404,-0.8580172047514001,1.5108086879333402,-0.12328293633236681,1.413928189987168
1765409363.446835,-9.35733630034082,-3.58736009991501,-0.868256384029507,1.5103385001889487,-0.12605448695605656,1.4075447041763318
1765409363.447085,-9.372207683634828,-3.548097031650479,-0.8698667231425559,1.5095151604672978,-0.1289864934084674,1.4011690270991175
1765409363.447399,-9.392628612092995,-3.5095909944343098,-0.8620698256667605,1.508316947824884,-0.13208400855279037,1.3948011828835847
1765409363.447649,-9.4187170259015,-3.4713951883676826,-0.8445008840947669,1.506734108782698,-0.13534428657629236,1.388441288890596
1765409363.447899,-9.450281422724968,-3.4330856187863703,-0.8172335338497176,1.5047702131133314,-0.1387560573683162,1.382091526415885
1765409363.448149,-9.486806145815306,-3.3943567537448427,-0.7807829028221113,1.5024432744285607,-0.14229931972485868,1.3757571724196267
1765409363.448342,-9.52745575680186,-3.3550903124514266,-0.7360848470171664,1.4997864007123407,-0.14594572708406103,1.3694465895869319
1765409363.448675,-9.571101315383139,-3.315383534191745,-0.6844509545600499,1.4968477013105927,-0.14965959887454308,1.3631702659642728
1765409363.449009,-9.61636857811222,-3.2755308722383494,-0.627501154524417,1.4936891885629455,-0.1533995316115326,1.3569391520430456
1765409363.44949,-9.661704130129472,-3.2359616463033736,-0.5670791466098877,1.4903844883684072,-0.15712053491123493,1.3507626589124133
1765409363.44974,-9.70545247779087,-3.1971449263358935,-0.5051586019716459,1.4870153135751876,-0.16077657372209894,1.3446467416616064
1765409363.44999,-9.745936791362562,-3.1594805412289944,-0.4437484359797117,1.4836668365520567,-0.16432333112627262,1.3385924657069517
1765409363.45024,-9.781537773511678,-3.123199325121419,-0.3848037579356139,1.4804222843010373,-0.1677209287668504,1.3325953219627413
1765409363.451443,-9.810767474416604,-3.0882942919043637,-0.33014678466211983,1.4773572304399203,-0.17093630713075075,1.326645354344587
1765409363.451693,-9.832336691724244,-3.0544971439143884,-0.2813999158376274,1.4745341415044413,-0.173945004365261,1.3207279678016615
1765409363.451943,-9.845215578831974,-3.0213039638130867,-0.23993128739889732,1.471997728867285,-0.17673215867794495,1.3148251659402124
1765409363.452193,-9.848687124508023,-2.9880440375543214,-0.20681161953809477,1.469771563003841,-0.17929266211376302,1.3089169455042877
1765409363.451488,-9.842392001555162,-2.953979060488162,-0.18278094881163917,1.4678562529231691,-0.18163049725847824,1.3029826207206048
1765409363.451821,-9.826361129745205,-2.9184163379927357,-0.16822521939919885,1.4662293186533277,-0.18375738343046052,1.2970019157463575
1765409363.452155,-9.801030256447923,-2.880817771654152,-0.16316479765154168,1.4648467168380213,-0.18569093264221218,1.290955728200124
1765409363.452404,-9.767230189469954,-2.840886433456398,-0.1672586043087151,1.463645832281897,-0.18745256393647866,1.2848265413134208
1765409363.452654,-9.726147779067535,-2.7986155146274108,-0.17982768715539665,1.46254962580736,-0.1890654422936156,1.2785985469393653
1765409363.452904,-9.679256415748597,-2.7542908002056117,-0.1998997759124907,1.4614715369464741,-0.19055267602165513,1.2722576155008116
1765409363.453154,-9.628219851983397,-2.7084464861502315,-0.2262721552759126,1.4603206895467928,-0.19193592104059184,1.265791291404
1765409363.45335,-9.5747782204122,-2.6617832503142416,-0.2575861490433416,1.459006949504032,-0.19323443704695262,1.2591889882305225
1765409363.4536,-9.520629217887826,-2.6150649172669236,-0.2924043234031652,1.4574454470882912,-0.19446455835194695,1.2524424944597785
1765409363.45385,-9.467319675001283,-2.569013660325075,-0.32928146077821324,1.455560303187736,-0.19563948960850483,1.245546782913493
1765409363.4541,-9.416161808882432,-2.5242219834404773,-0.3668221273075557,1.4532874576001678,-0.19676930499876083,1.2385009834844096
1765409363.454454,-9.368183693612885,-2.4810933064141385,-0.40372086953427105,1.4505766321259996,-0.19786102106880146,1.231309290399278
1765409363.454704,-9.324116293335507,-2.4398148215484916,-0.4387850330390784,1.447392535015868,-0.1989186448961842,1.223981578804176
1765409363.454954,-9.28441263211402,-2.4003599119406163,-0.4709438403017664,1.4437154286753267,-0.1999431687734552,1.216533588814034
1765409363.455204,-9.249290507755036,-2.36251433143296,-0.49924948367121535,1.4395411648954153,-0.20093254340431094,1.2089866360642865
1765409363.455386,-9.21878895266652,-2.325919435078137,-0.5228757918718524,1.434880769133546,-0.20188166861490572,1.2013668769857573
1765409363.455719,-9.192829482071204,-2.290125182274873,-0.541117755609793,1.4297596373275312,-0.20278241295047647,1.1937041948336484
1765409363.456053,-9.171274819466953,-2.254645149349723,-0.5533922293327742,1.4242163824163399,-0.2036236644799434,1.1860308003615867
1765409363.456447,-9.15397911485787,-2.2190067010410672,-0.5592384821869794,1.4183013273064518,-0.20439144095202108,1.1783796621439924
1765409363.456697,-9.14082413436378,-2.1827923772374382,-0.5583181257915416,1.4120746100390096,-0.2050691245760311,1.170782877429739
1765409363.456947,-9.131736151089243,-2.145671873355449,-0.5504162274065291,1.4056038736765988,-0.20563790778474253,1.1632700513364866
1765409363.457197,-9.126679546681096,-2.1074254477225685,-0.5354468775137717,1.3989615596020997,-0.2060775223680797,1.1558666896851568
1765409363.45734,-9.12562602978022,-2.067958570852472,-0.5134660748263138,1.3922218877836592,-0.2063672708715828,1.148592578118247
1765409363.45759,-9.128502696141418,-2.0273056474056848,-0.4846927642360743,1.3854576658032556,-0.20648730667382328,1.1414601540017546
1765409363.45784,-9.13512722382513,-1.9856198796369966,-0.4495354785124322,1.3787370994200248,-0.20642004675871553,1.1344729650556113
1765409363.45809,-9.14514263715177,-1.943147922650665,-0.4086183185499296,1.3721207775274544,-0.20615155961818663,1.1276243984751024
1765409363.458424,-9.157964944604451,-1.9001910673585465,-0.3627985188298442,1.3656589920089564,-0.20567275119290304,1.120896911091121
1765409363.458757,-9.172753977735574,-1.8570574007694685,-0.31316991807682915,1.3593895442142232,-0.20498018461096734,1.1142619838000354
1765409363.459091,-9.188413270594163,-1.8140108320235868,-0.26104992798833226,1.3533361762890272,-0.2040764155461766,1.1076809751190013
1765409363.459378,-9.20362138257272,-1.7712235515158614,-0.20794904961816,1.3475077315614432,-0.20296977862853313,1.1011069676945184
1765409363.459628,-9.216894571792936,-1.7287387871960942,-0.15552208814265148,1.3418980925826394,-0.20167360192202458,1.094487581937623
1765409363.459878,-9.226677580469927,-1.6864499942540059,-0.10550131225861197,1.3364868773016134,-0.20020487282200222,1.087768575096517
1765409363.460128,-9.231455332843971,-1.6441002091179266,-0.05961423704982315,1.3312408047573332,-0.1985824513819761,1.080897887604795
1765409363.460392,-9.229874878635043,-1.601301676077405,-0.01949111823563617,1.3261155886649867,-0.1968250092031052,1.0738296981553626
1765409363.460642,-9.220864832081634,-1.5575723724466422,0.01343104810048762,1.3210581954688678,-0.1949489265759337,1.066528040904088
1765409363.460892,-9.203739073970386,-1.5123840190931948,0.03800026713989651,1.3160093115424953,-0.1929663961784096,1.0589696121758103
1765409363.461142,-9.178272961870952,-1.4652160433090995,0.05342929218882028,1.3109058901218595,-0.19088396968848176,1.0511455063711306
1765409363.461337,-9.144743763850443,-1.4156109465364033,0.05935646688554037,1.3056836870163973,-0.1887017439603737,1.04306172952272
1765409363.461587,-9.103931522247674,-1.3632268473927482,0.05588190334073297,1.3002797422557242,-0.18641330562133768,1.034738431194061
1765409363.461837,-9.05708090295543,-1.3078816375916855,0.0435749984310939,1.294634802079021,-0.1840064450064459,1.0262078908152203
1765409363.462087,-9.005828167076892,-1.2495816465436775,0.02345200438521625,1.2886956734378872,-0.181464542661165,1.0175114213467764
1765409363.462377,-8.952099710763022,-1.188528750356749,-0.003075102450857718,1.2824174603143734,-0.17876845656872137,1.0086955084080396
1765409363.462627,-8.897989461952458,-1.125104535895343,-0.03427614196524034,1.27576557928567,-0.175898709659557,0.9998076350758415
1765409363.462877,-8.845622839896928,-1.0598363006850338,-0.06820370471825045,1.26871742283528,-0.17283778042745135,0.9908922843774672
1765409363.463127,-8.797016528264656,-0.9933537207983811,-0.10281229538610599,1.2612635446137845,-0.16957230442299578,0.9819875354030779
1765409363.463334,-8.753945928095895,-0.9263447616164966,-0.13608621831900652,1.2534082772932118,-0.16609498756280897,0.9731225096057791
1765409363.463667,-8.717833667525149,-0.8595156197267798,-0.1661634502600261,1.2451697450385515,-0.1624060306764837,0.964315756195499
1765409363.464001,-8.689670611969555,-0.793555152437853,-0.19144285538985867,1.2365792744891864,-0.15851389443353325,0.9555745573675289
1765409363.464511,-8.669975230916744,-0.7291022426857225,-0.21066574545468678,1.2276802247402216,-0.15443530459818458,0.9468950987397157
1765409363.464761,-8.658790270323518,-0.6667155737041437,-0.2229676615536875,1.2185262567260573,-0.15019449895667009,0.9382634405851586
1765409363.465011,-8.655710458654031,-0.6068476688290928,-0.2279001200313265,1.2091790704539271,-0.1458218251753913,0.929657186887946
1765409363.465261,-8.65993287735252,-0.5498263075559829,-0.2254245657178279,1.1997056720570338,-0.14135188393381465,0.9210476782919187
1765409363.465508,-8.67032219181283,-0.49584540289979695,-0.21588240801310338,1.1901752858728838,-0.1368214484952192,0.9124024770527172
1765409363.465758,-8.685485000192676,-0.44496520725762245,-0.19994559099318981,1.1806560765459153,-0.13226737065957475,0.9036879103925142
1765409363.466008,-8.703849965623045,-0.3971204258154374,-0.178551560905642,1.171211873128493,-0.1277246218895548,0.8948714898899602
1765409363.466258,-8.723751993100795,-0.35213526555016594,-0.15282600717966816,1.1618990885781904,-0.12322455714318106,0.8859240800016515
1765409363.466532,-8.743518744884396,-0.30974516157511595,-0.12399783916167256,1.1527640082545934,-0.11879345645028498,0.8768217018861156
1765409363.466782,-8.761556656162337,-0.26962389200707343,-0.0933129951840079,1.1438405789425565,-0.11445138991483207,0.8675468373216874
1765409363.467032,-8.77643252595788,-0.23141206735006808,-0.06195468039734435,1.135148765935453,-0.11021144309429927,0.8580891017393382
1765409363.467282,-8.786946347665467,-0.19474096675713765,-0.03097644808454399,1.1266934767471677,-0.10607932343886442,0.8484452319458903
1765409363.467401,-8.79219072884667,-0.1592467059262423,-0.0012526483123833974,1.1184640077738488,-0.1020533522926722,0.8386184607689114
1765409363.467601,-8.79159140323015,-0.12457368180306153,0.026549989690457364,1.1104339782287487,-0.09812483302369451,0.8286174591143108
1765409363.467801,-8.784922929703521,-0.09037087697575731,0.0519761863268944,1.1025617672276689,-0.0942787648484782,0.8184550682529911
1765409363.468001,-8.772295928225502,-0.05628738243131277,0.07476040994184083,1.0947915289055008,-0.09049483875163226,0.808147021964723
1765409363.468201,-8.754117846536404,-0.021973276908406093,0.0947842259602333,1.0870548854409843,-0.08674861502404504,0.7977107945037273
1765409363.468334,-8.731035672098088,0.012910559620265417,0.11202292079983743,1.079273370840839,-0.08301275525199225,0.7871646344297327
1765409363.468584,-8.703872344272463,0.04867349193806774,0.12649380070506933,1.0713616334884801,-0.07925817616901219,0.7765267830739919
1765409363.468834,-8.673567422765418,0.0855698231616433,0.13821663386807354,1.0632313278220322,-0.07545501601245104,0.7658148486289307
1765409363.469084,-8.641128419597367,0.12377197012307613,0.14719251507386677,1.0547955451612874,-0.07157335801628653,0.7550453144742898
1765409363.470614,-8.607594535230547,0.1633476293988364,0.15340273540852734,1.0459735510690558,-0.06758373275282643,0.7442331885821767
1765409363.470864,-8.574010930527601,0.20424543456637267,0.1568249970320555,1.0366955262370952,-0.06345749742208318,0.733391827361152
1765409363.471114,-8.54140969237312,0.24629120300086493,0.15746144902180279,1.026906976646397,-0.05916722872490907,0.7225329729993526
1765409363.471364,-8.510793269630609,0.2891941364552646,0.15537219338844738,1.0165724992878569,-0.054687244063384974,0.7116670191177237
1765409363.470657,-8.483117047361743,0.3325605649296952,0.15070864253756475,1.0056786482959859,-0.049994303315474206,0.7008034705154794
1765409363.470907,-8.459269416768983,0.37591254199333357,0.14374206991507815,0.9942357168406842,-0.04506848424811311,0.6899515101572068
1765409363.471157,-8.440049527890974,0.41870909614044977,0.13488312553688708,0.9822783155051208,-0.03989419017709436,0.6791205558020579
1765409363.471407,-8.426144278204818,0.4603681798443072,0.12468863312361964,0.9698646907389966,-0.03446122453501717,0.6683206870097204
1765409363.471334,-8.418106765973565,0.500287442877773,0.11385371157430972,0.9570747981184554,-0.028765835543890134,0.6575628364557633
1765409363.471584,-8.416338377909959,0.5378629983595339,0.10318983926010937,0.9440072218425711,-0.022811603830668593,0.6468586589088577
1765409363.471834,-8.421075717423706,0.572507678780516,0.09359109150029976,0.9307750963560282,-0.016610042935376042,0.6362200315610678
1765409363.472084,-8.432381857333347,0.6036725408415274,0.08599042744154271,0.9175012262753323,-0.010180816614529908,0.6256582177655352
1765409363.472487,-8.450139979679278,0.6308757490013517,0.08130700861459733,0.9043126216555881,-0.0035515263809265648,0.6151828312828002
1765409363.472737,-8.474047675650455,0.653740787339579,0.08038628175811126,0.8913346777418947,0.0032429390171343953,0.6048008285422368
1765409363.472987,-8.503612077300328,0.6720419868479633,0.08393706183697976,0.8786852397247358,0.01016147883846379,0.5945157866430135
1765409363.473237,-8.538148044596388,0.68575108509181,0.09247203833480647,0.8664688111965164,0.01715824981196145,0.5843276734175566
1765409363.473391,-8.576782350548434,0.6950755433741634,0.10625827838810924,0.8547711927442909,0.02418447650608525,0.5742331979038808
1765409363.473591,-8.618466230145806,0.700478923203322,0.12528268030947623,0.8436548624999385,0.03119052119892354,0.5642266851020824
1765409363.473791,-8.661997754646015,0.7026761974614443,0.1492353204244303,0.8331554123653011,0.038128107493095274,0.5543012908035511
1765409363.473991,-8.706054693400818,0.7026016524284515,0.17751205395208872,0.8232793181873589,0.04495258164514745,0.5444502959658899
1765409363.474191,-8.749237553884067,0.7013522853675627,0.20923634124348778,0.8140032466044579,0.0516250969635544,0.5346682196569291
1765409363.474414,-8.790121361716114,0.7001134430887958,0.24329867630607235,0.805274991248336,0.05811460261215783,0.524951563437976
1765409363.474664,-8.827314083771833,0.7000749438428093,0.2784105457582306,0.7970160072591499,0.06439950054234932,0.515299112530618
1765409363.474914,-8.859519709695148,0.7023456041321787,0.3131692332220618,0.7891254053348915,0.07046882015660393,0.50571182003878
1765409363.475164,-8.885604174367263,0.707873190001856,0.34612989877712036,0.7814851854179077,0.07632277428081576,0.496192356818386
1765409363.475414,-8.90466153877083,0.7173760800889128,0.3758812213950337,0.7739664233939876,0.08197260862650375,0.48674442160977355
1765409363.475664,-8.916076185922964,0.7312922643185059,0.4011199571934095,0.7664360667458167,0.0874397252210861,0.47737190018306885
1765409363.475914,-8.919575539735485,0.7497502094121469,0.42071897517664203,0.7587639567631111,0.0927541264438586,0.4680779646135405
1765409363.476164,-8.915268324638049,0.7725643215461453,0.43378414639819685,0.750829678248654,0.09795227782855406,0.4588642159925036
1765409363.476381,-8.903665449067185,0.7992554291211846,0.43969772556071457,0.7425288370108291,0.1030745249305353,0.44972997841921974
1765409363.476631,-8.885682386329377,0.8290942872032876,0.4381474931902204,0.733778385152422,0.10816222630348325,0.4406718374873913
1765409363.476881,-8.862621957226203,0.8611637814419212,0.4291405267812449,0.7245206648326861,0.11325478568803103,0.4316834853636932
1765409363.477131,-8.836135411150986,0.8944334332003508,0.4129994026562807,0.7147259228665248,0.11838678792930825,0.42275589231459926
1765409363.47736,-8.808159879319673,0.9278384561436357,0.3903392369932374,0.7043931511720353,0.12358545825752712,0.41387777354926053
1765409363.47761,-8.780832819130062,0.9603556461804337,0.3620264185794282,0.69354922025984,0.12886864684964588,0.40503626774547097
1765409363.47786,-8.756387833225736,0.9910698589227622,0.32912225019425284,0.682246384589034,0.13424347267784964,0.39621770723730404
1765409363.47811,-8.737039082657773,1.0192269620908951,0.2928157623847087,0.6705583431636215,0.13970566396755157,0.38740835678247293
1765409363.478371,-8.724862362305963,1.044271174618584,0.25435025008868206,0.6585751319374031,0.14523954983102666,0.3785950278146342
1765409363.478571,-8.721680290266992,1.0658664079033333,0.21494841563823872,0.6463971969311746,0.150818613440711,0.36976552196419604
1765409363.478771,-8.728958014783908,1.0839024732540194,0.17574114584108474,0.634129037119605,0.15640650824534197,0.3609089069541549
1765409363.478971,-8.747714984171049,1.0984875313037965,0.13770436070874115,0.6218728145469494,0.16195845142991502,0.3520156717409732
1765409363.479171,-8.778457900620747,1.1099280839627435,0.1016074343882173,0.6097223155186394,0.16742293004388922,0.3430778354231789
1765409363.47935,-8.821140083220628,1.1186978489059172,0.06797641810988901,0.5977576143595464,0.17274367178385733,0.3340890859500033
1765409363.4796,-8.875152711401118,1.125397421519059,0.037075804523156675,0.5860407370912073,0.17786183198375596,0.32504500346547494
1765409363.47985,-8.939352617476542,1.1307073090710706,0.008912491965888301,0.5746125496333219,0.1827183267360332,0.3159433925983979
1765409363.4801,-9.012128233372898,1.135337133299507,-0.016736513574100786,0.5634910108628601,0.1872562092634343,0.3067847144208877
1765409363.480342,-9.091500237348885,1.139973637324973,-0.04027492834680024,0.5526708362530462,0.19142296121344787,0.2975725699676875
1765409363.480592,-9.175248442207298,1.145230167457797,-0.062222241988568704,0.5421245153260071,0.19517256293755905,0.28831414879119754
1765409363.480842,-9.261053604586582,1.1516006882606367,-0.08314017194518597,0.5318045302799806,0.19846721278408552,0.27902053599247834
1765409363.481092,-9.346642406251837,1.1594216696593962,-0.10355778269560466,0.5216465513325953,0.2012785794832719,0.26970678264451203
1765409363.481337,-9.429924720076187,1.1688448995879717,-0.12390243890313746,0.5115733442113017,0.20358849936247875,0.26039168266452545
1765409363.481587,-9.50911350209477,1.1798233837364551,-0.14444350898690633,0.5014991175239948,0.20538907951969018,0.25109724945276346
1765409363.481837,-9.582819087384529,1.1921111794930717,-0.16525453767181494,0.49133405904197996,0.20668223316926124,0.24184793585647882
1765409363.482087,-9.650111351807194,1.2052764900498452,-0.18619751466347467,0.48098884724204044,0.20747873298477043,0.23266968037570285
1765409363.482399,-9.710545192056465,1.2187259647531492,-0.20693071465017102,0.4703789611204172,0.20779690445306823,0.22358887897243043
1765409363.482649,-9.764147351248525,1.2317374144501465,-0.22693963035422401,0.45942864281602824,0.20766109493851453,0.21463137068722876
1765409363.482899,-9.811366006514582,1.243498394208095,-0.2455881938002309,0.4480743981965552,0.2071000581773008,0.20582149797136393
1765409363.483149,-9.852988408859902,1.2531490683971191,-0.26218457747837687,0.43626794388476303,0.20614539238156737,0.19718128113001837
1765409363.483396,-9.890035358729982,1.259828565848727,-0.27605338550089675,0.42397851062533426,0.20483015038667374,0.18872974374186258
1765409363.483646,-9.923643567150657,1.262723809843632,-0.2866054063721984,0.41119439496687693,0.2031876908170483,0.18048243294789842
1765409363.483896,-9.9549476230117,1.261118559567803,-0.29339759565606655,0.39792364302814726,0.2012507746409259,0.1724511733086124
1765409363.484146,-9.984972498969505,1.254438976248183,-0.29617831432990566,0.38419378438541996,0.1990508683974947,0.1646440660485168
1765409363.484401,-10.014545674452684,1.2422913961634665,-0.2949145800348281,0.3700506143162109,0.19661761602996863,0.1570657080842553
1765409363.484651,-10.044235407955002,1.2244885518311526,-0.2897991038110177,0.3555561144804755,0.19397846680905975,0.1497175746586585
1765409363.484901,-10.074318739298144,1.2010619430860414,-0.28123626687684306,0.3407856649901905,0.19115845625494357,0.14259849584996107
1765409363.485151,-10.104779830512918,1.1722598075622068,-0.26980836391302254,0.32582472544435354,0.18818011319070765,0.13570516226001916
1765409363.485364,-10.135336736627595,1.1385316882523968,-0.2562254131095729,0.3107651697709961,0.185063433998489,0.12903261361931703
1765409363.485614,-10.165492723504293,1.1005017087224684,-0.24126280069934758,0.29570146855409846,0.18182585738162033,0.12257468569254168
1765409363.485864,-10.194606309196175,1.058933241084161,-0.22569175937299585,0.2807269207310006,0.17848219083349712,0.116324405260789
1765409363.486114,-10.221971993280174,1.014687793037179,-0.21020923015564724,0.26593013302696483,0.17504446305453883,0.1102743266854148
1765409363.48642,-10.246901989585508,0.9686809932559056,-0.195375222098465,0.25139192820589085,0.17152169636094863,0.10441680447396012
1765409363.48667,-10.268799599652278,0.9218386553268649,-0.18156528094364685,0.23718283451654026,0.16791961750565357,0.09874420539512968
1765409363.48692,-10.287217394553833,0.8750556941098212,-0.16894263269224416,0.22336126527971528,0.16424035373418658,0.09324908009345821
1765409363.48717,-10.301896641859527,0.8291598467902088,-0.15745105212598814,0.20997244055855063,0.160482175943636,0.08792432390190492
1765409363.487358,-10.312786871522807,0.7848810319926722,-0.14682745156672494,0.19704804776246426,0.1566393410878476,0.08276334909828363
1765409363.487608,-10.320046020005943,0.742826426585656,-0.13663208494082776,0.18460660093120737,0.15270206451430973,0.07776027073807557
1765409363.487858,-10.324022951599153,0.7034612619798417,-0.1262927671753328,0.17265443816897796,0.1486566409250906,0.07291008851025091
1765409363.488108,-10.325225424425705,0.6670956933052674,-0.11515805124473,0.16118727801746702,0.14448573213578705,0.0682088361594433
1765409363.488368,-10.324277240256851,0.6338784436006926,-0.10255433146770027,0.15019222838939195,0.14016883720910592,0.0636536685517153
1765409363.488618,-10.321868348218704,0.6037979974369925,-0.08784313798029957,0.13965011232353736,0.13568295517710774,0.0592428647351311
1765409363.488868,-10.318701595886505,0.576691790751244,-0.07047562116799456,0.12953795556546968,0.13100345843850691,0.054975744933002765
1765409363.489118,-10.315439912642304,0.552263101206423,-0.050040594754831996,0.11983147341140976,0.1261052149181561,0.0508525236393637
1765409363.489334,-10.312657704503476,0.5301044215754022,-0.026301796737449736,0.11050739094495414,0.12096399649572143,0.04687413323150906
1765409363.489534,-10.310799807499993,0.5097254684002649,0.0007792010121100984,0.10154543294675872,0.11555816580651473,0.04304204318091576
1765409363.489734,-10.310150441643938,0.4905839789804574,0.031035796557126766,0.09292984197892537,0.10987056445790268,0.03935807996841258
1765409363.489934,-10.310813471441543,0.4721179509861477,0.06410402580091053,0.08465033379257912,0.10389047374428471,0.03582424267210327
1765409363.490134,-10.312704312754708,0.45377844345542123,0.09944318345562617,0.07670246483820659,0.0976154963576715,0.03244251764407568
1765409363.490313,-10.315553297728558,0.4350619683263045,0.13636736354259182,0.06908744569490184,0.09105319937006094,0.02921471379059958
1765409363.490513,-10.318920107515108,0.41554083194991503,0.17408570832423662,0.061811477131330284,0.08422235919861572,0.026142352433973025
1765409363.490713,-10.322218673306686,0.39488907151677716,0.2117484684903419,0.05488471179267886,0.0771536708695274,0.023226642526211233
1765409363.490913,-10.324751554325001,0.3729014754145692,0.24849529923328556,0.048319952498301434,0.06988983302462673,0.02046855180692978
1765409363.491113,-10.325752287086562,0.3495037048129782,0.2835022143599146,0.04213119058558755,0.062484982500055575,0.017868955354638113
1765409363.491336,-10.324433637677702,0.32475243135438203,0.31602423174088884,0.0363320779900275,0.05500350438196149,0.015428819189004753
1765409363.491586,-10.320039122246557,0.2988253879095799,0.34543141244584014,0.03093442726487244,0.04751827277423891,0.013149368044692505
1765409363.491836,-10.311894713411425,0.27200223037043025,0.37123651125733664,0.025946842512746867,0.040108394479681966,0.01103219122166523
1765409363.492086,-10.299457397465055,0.24463806007006764,0.3931129951333474,0.021373588392972834,0.03285655301725226,0.009079251150050222
1765409363.492375,-10.282357113664622,0.21713219840218367,0.4109027433884607,0.017213792904096872,0.025846086884411017,0.007292772028587396
1765409363.492575,-10.26042861563004,0.18989525249017564,0.4246131541043213,0.013461049765675762,0.0191579658946402,0.005675000217816774
1765409363.492775,-10.233730207867783,0.16331769585678113,0.4344037862336518,0.010103443762726077,0.01286784028348868,0.004227844724335565
1765409363.492975,-10.20254733299457,0.13774311853693488,0.4405634326710464,0.007123977406858657,0.0070433336028156235,0.0029524261300400887
1765409363.493175,-10.167380504250628,0.11344885994183374,0.44347970636763506,0.004501337032734389,0.0017417369126527175,0.0018485844758390714
1765409363.493348,-10.12891879121665,0.0906357563994664,0.4436044222955802,0.0022109050551134607,-0.0029917685075121726,0.0009144146421647159
1765409363.493548,-10.088001706548251,0.06942725202863474,0.4414187575569588,0.00022590753129327897,-0.007125285616622257,0.00014590217509842098
1765409363.493748,-10.04557364881533,0.049876570815703285,0.4374020844875366,-0.0014814139908065846,-0.01064076259887585,-0.0004632827923346147
1765409363.493948,-10.002635674695034,0.031979617756720875,0.4320074871877152,-0.002938702787928372,-0.01353398040819201,-0.0009218071041345146
1765409363.494148,-9.960199026817007,0.01569101471861719,0.42564551645576304,-0.004172533408141431,-0.015814031176450704,-0.0012405194478035625
1765409363.494389,-9.919243677848398,0.0009409400271935427,0.4186761396824041,-0.005207654098311142,-0.017502357249537318,-0.0014321507235501728
1765409363.494589,-9.880683728839255,-0.012349151255090039,0.41140757017423546,-0.006066453962870688,-0.018631423545928845,-0.0015109131788419408
1765409363.494789,-9.845340336105558,-0.024253433079833537,0.40409997848719437,-0.006768667591079453,-0.01924310319788873,-0.001492044424069879
1765409363.494989,-9.813922020516367,-0.034832205817109385,0.3969719524089361,-0.007331316822726776,-0.01938686284419316,-0.00139134153000427
1765409363.495189,-9.787011539102014,-0.044126210623805735,0.39020775909440414,-0.007768875541995334,-0.019117834933610543,-0.0012247244413452671
1765409363.495377,-9.765057935513285,-0.052154253079936826,0.3839637785059985,-0.008093628267008865,-0.018494863018600514,-0.001007854205931426
1765409363.495577,-9.748372172211743,-0.05891330041414316,0.3783728640374366,-0.008316178828363236,-0.017578604770701955,-0.0007558117637124081
1765409363.495777,-9.737125051529608,-0.06438050415622475,0.3735458925334037,-0.008446053164085655,-0.01642977145567064,-0.00048282454149976937
1765409363.495977,-9.731346774978917,-0.06851723599233778,0.3695704124684308,-0.008492331432955724,-0.015107566019673014,-0.000202019956794015
1765409363.496177,-9.730928113579465,-0.07127562612058987,0.36650694983754695,-0.008464241329193796,-0.013668356706464239,7.480836899838883e-05
1765409363.496377,-9.735623577270713,-0.07260786044787122,0.36438398188625987,-0.008371648413590173,-0.012164597997173529,0.00033741898976555654
1765409363.496577,-9.745057231840958,-0.07247775506748386,0.36319280504396356,-0.00822539035876733,-0.010643992704867915,0.0005773070267539453
1765409363.496777,-9.75873198281122,-0.07087340892255532,0.3628836092552162,-0.008037418267461169,-0.009148878032134863,0.0007878301056251862
1765409363.496977,-9.77604311678789,-0.06781946321448509,0.36336397154992306,-0.007820726832584406,-0.007715810928643054,0.0009642550696942621
1765409363.497177,-9.796296513344496,-0.06338761721968794,0.36450051868714434,-0.007589073850584957,-0.006375324756772986,0.0011037112905622974
1765409363.497316,-9.81873131588534,-0.05770419662168086,0.36612380368032527,-0.007356508190652699,-0.0051518327886675135,0.0012050432219746037
1765409363.497516,-9.842546313702725,-0.050953575718672844,0.36803595669397876,-0.007136745196428468,-0.004063662494752693,0.0012685663097191607
1765409363.497716,-9.866929033433134,-0.04337637824503733,0.3700206351792356,-0.00694244967985092,-0.0031232125391232736,0.001295748908752812
1765409363.497916,-9.89108639480168,-0.03526194300980352,0.3718548708813707,-0.006784504636284462,-0.002337229220807203,0.0012888617032177406
1765409363.498116,-9.91427549228015,-0.0269354593102046,0.37332216294939236,-0.00667135176950036,-0.001707201052352361,0.001250644378303966
1765409363.498345,-9.935832676188383,-0.018741023553054702,0.3742256933105156,-0.006608484219756519,-0.001229868811022204,0.001184032005864385
1765409363.498545,-9.955198966794777,-0.011022313498331783,0.3744003398608463,-0.006598153256246154,-0.0008978434836102142,0.0010919655949669597
1765409363.498745,-9.97194015833355,-0.004102642599791263,0.373722478707749,-0.006639322101807656,-0.0007003179410086211,0.0009772922467398157
1765409363.498945,-9.985760581766945,0.001733945377424233,0.37211710597786907,-0.006727866904667112,-0.0006238512576512431,0.0008427469034852419
1765409363.499145,-9.996510027194303,0.006259023138798394,0.36956213236823177,-0.006856994996358832,-0.0006531965221732444,0.0006909996017499665
1765409363.499355,-10.004183611914897,0.009312259910206604,0.3660897203774597,-0.0070178301602366235,-0.0007721347534351723,0.0005247457551323439
1765409363.499555,-10.008914579776041,0.01080908842188543,0.36178452938627687,-0.007200104953163718,-0.0009642735347555828,0.00034681073310212005
1765409363.499755,-10.010960351568805,0.010743140508651956,0.35677894716549075,-0.007392899157256291,-0.0012137716253473449,0.00016023684988641384
1765409363.499955,-10.010682581187474,0.009183619818109995,0.3512456909357788,-0.007585368407978317,-0.00150595720538013,-3.167452088178162e-05
1765409363.500155,-10.008522289319439,0.006268241859039564,0.34538827091157304,-0.007767415160488782,-0.0018278144280760606,-0.0002253798727464725
1765409363.500304,-10.004971296059,0.0021925826906513076,0.3394297340018131,-0.00793026313606646,-0.0021683216119543947,-0.0004171673804028072
1765409363.500504,-10.000541364124583,-0.002803321079879572,0.33360014106277425,-0.008066904967850844,-0.0025186354499873694,-0.0006032736144714211
1765409363.500704,-9.995732807738273,-0.008450324229707746,0.3281234757262342,-0.008172400770719648,-0.0028721250500171993,-0.0007800255512513564
1765409363.500904,-9.991004593834521,-0.014466642901497833,0.3232048690955543,-0.008244013931072615,-0.0032242637624814697,-0.000943991855450913
1765409363.501104,-9.986747892091572,-0.02057449381714006,0.31901895012548187,-0.008281181573721421,-0.003572388896307732,-0.001092129268707494
1765409363.501335,-9.983264697728249,-0.0265158664789755,0.315699975499508,-0.008285331445352585,-0.003915346958827889,-0.0012219113667838815
1765409363.501535,-9.980752858810886,-0.03206641041887461,0.31333441474680424,-0.00825957119100935,-0.004253057188648844,-0.0013314297305672682
1765409363.501735,-9.979298647042127,-0.037046521238065594,0.3119567787215361,-0.008208285456701119,-0.004586041945429604,-0.001419461081069472
1765409363.501935,-9.978877637500386,-0.04132884317361782,0.3115493525965277,-0.008136679731871578,-0.004914979486004439,-0.0014854966641733305
1765409363.502135,-9.97936391307585,-0.04484159537271109,0.31204601996996517,-0.008050310745874827,-0.005240329944032737,-0.001529733023049789
1765409363.50235,-9.98054668633665,-0.047567441015555725,0.3133398031607441,-0.007954644266906438,-0.005562072115773195,-0.0015530270888468262
1765409363.50255,-9.982152694605846,-0.04953806033764617,0.3152933693563196,-0.007854679969903456,-0.005879568615861854,-0.0015568212370989049
1765409363.50275,-9.983872277581025,-0.05082508574171154,0.3177515128535789,-0.007754675262386741,-0.006191551049639681,-0.0015430435683927526
1765409363.50295,-9.985386761186488,-0.05152848922176804,0.3205543209015261,-0.007657985278609697,-0.006496192787135453,-0.0015139867971452044
1765409363.50315,-9.986394638394575,-0.051763752371641505,0.3235494396594089,-0.007567019190120094,-0.006791226728391537,-0.0014721694562092416
1765409363.503301,-9.986634258895053,-0.051649143373385754,0.32660192746287986,-0.0074832986551789235,-0.007074073148051966,-0.0014201868888325383
1765409363.503501,-9.985901400102124,-0.05129424402101637,0.329600760922118,-0.007407595306712774,-0.007341959625972153,-0.0013605643560879463
1765409363.503701,-9.984060930520398,-0.05079062523295655,0.332461820901806,-0.0073401205501877195,-0.007592028750915224,-0.0012956275335671938
1765409363.503901,-9.981052411723924,-0.05020530811076282,0.335127679481737,-0.0072807406740379756,-0.00782143465785398,-0.001227405300104978
1765409363.504101,-9.976889815078538,-0.04957736244170242,0.3375646491829418,-0.007229191420352562,-0.008027430068745624,-0.0011575757677815526
1765409363.50431,-9.971655791894536,-0.04891769339166029,0.33975762786531566,-0.007185268015864026,-0.008207445765519437,-0.0010874593149261724
1765409363.50451,-9.965491361980876,-0.04821178203053553,0.3417034971518118,-0.007148969329475466,-0.008359164311247561,-0.0010180537585221126
1765409363.50471,-9.958582388015275,-0.047424899768177715,0.34340407496821207,-0.007120579041754819,-0.008480587761984258,-0.0009500998663278592
1765409363.50491,-9.951144492685465,-0.04650912112744027,0.3448596288190009,-0.007100674466748159,-0.008570096390152049,-0.0008841622829536092
1765409363.50511,-9.943408036063799,-0.04541133486627867,0.3460637604595498,-0.0070900663198878435,-0.008626495388343992,-0.0008207112101567897
1765409363.505323,-9.935604561865846,-0.04408143079305423,0.3470003444007228,-0.007089687100025091,-0.008649050458615666,-0.0007601922936091953
1765409363.505523,-9.927955867247684,-0.04247992011659942,0.34764316042554755,-0.007100454913788495,-0.008637518803525989,-0.0007030752245015312
1765409363.505723,-9.920666422988159,-0.04058438276409455,0.34795855644162754,-0.007123139524221039,-0.0085921852493206,-0.0006498754743236776
1765409363.505923,-9.91391916170323,-0.038394265238218615,0.3479107579833524,-0.007158250716010151,-0.008513911206089065,-0.0006011486359644355
1765409363.506123,-9.907873914689763,-0.03593366289980456,0.3474687169395359,-0.007205960764354498,-0.008404196764030739,-0.0005574626574984432
1765409363.506313,-9.902667417433413,-0.03325184923665575,0.3466131609404521,-0.007266065400890526,-0.008265245818835242,-0.0005193575202533698
1765409363.506513,-9.898413868116922,-0.030421494103115874,0.3453427064941051,-0.007337981139621143,-0.00810001519468202,-0.0004873018109732753
1765409363.506713,-9.895205188271914,-0.027534722659168624,0.34367810152714,-0.007420771219220104,-0.007912226327012484,-0.0004616513754353923
1765409363.506913,-9.893110224122024,-0.024697355853545287,0.3416637538925517,-0.0075131893808437775,-0.0077063244271516245,-0.00044261067084419
1765409363.507113,-9.89217236777767,-0.02202181346200973,0.339366006266863,-0.0076137316591242035,-0.007487382391198362,-0.00043019606188802567
1765409363.507368,-9.892405687782471,-0.01961926142994397,0.3368683067789253,-0.00772068970040588,-0.007260958338087843,-0.00042420174999247993
1765409363.507568,-9.893790412591056,-0.017591657560986348,0.3342641697071947,-0.0078322017437087,-0.007032920241194641,-0.00042417070279467806
1765409363.507768,-9.896269042825066,-0.016024368200533958,0.33164918212945715,-0.007946298997552751,-0.006809248231045509,-0.000429374044491994
1765409363.507968,-9.89974429872945,-0.014979958914116609,0.3291132405268368,-0.008060947703363663,-0.0065958214268549056,-0.0004388040011550338
1765409363.508168,-9.904079754056392,-0.01449362967209475,0.32673397221101563,-0.008174090843261268,-0.00639819843187696,-0.00045118767198769203
1765409363.508375,-9.909103625376284,-0.01457064720137804,0.3245720972571196,-0.008283695706115568,-0.006221407796337148,-0.0004650295026457485
1765409363.508575,-9.914615806021125,-0.015186048832985853,0.32266924197367525,-0.00838781187037808,-0.006069768542540117,-0.0004786871870941919
1765409363.508775,-9.920397752861964,-0.01628677821276667,0.32104828900341736,-0.008484638468607857,-0.0059467556181658455,-0.0004904785948010353
1765409363.508975,-9.926224264699652,-0.017796182941818256,0.3197158009946684,-0.008572592697449952,-0.005854914962378795,-0.0004988085599605029
1765409363.509175,-9.93187574947705,-0.019620482724812274,0.3186656499728861,-0.00865036772597412,-0.00579582582731265,-0.0005022980866453937
1765409363.509382,-9.937149512379339,-0.021656521338516643,0.31788294366156705,-0.0087169699778637,-0.00577010553501211,-0.0004998979217405636
1765409363.509582,-9.941868937944639,-0.023799948285020044,0.31734759129325035,-0.00877173181113139,-0.005777449265492369,-0.0004909731187645116
1765409363.509782,-9.945889974598,-0.025952955704766134,0.31703712780382387,-0.008814302097381363,-0.005816693557235133,-0.0004753516306043402
1765409363.509982,-9.949104850573306,-0.028030792564670583,0.31692861199045647,-0.008844621178403128,-0.005885891534570382,-0.00045333480325767615
1765409363.510182,-9.951443401143404,-0.029966466953118165,0.3169996671292896,-0.008862887080382931,-0.005982392794733388,-0.000425670327711477
1765409363.510368,-9.952872728248511,-0.03171330657301516,0.31722907262751254,-0.008869517318646228,-0.006102926742656931,-0.00039349031720308685
1765409363.510568,-9.953395996112867,-0.03324532561125546,0.31759748641623226,-0.008865107791575387,-0.006243689574829351,-0.0003582199130214628
1765409363.510768,-9.95305089473934,-0.034555584472189614,0.31808866478030545,-0.008850390046290568,-0.006400433434970169,-0.0003214651069109767
1765409363.510968,-9.951907843564154,-0.03565291785101866,0.31869111206407785,-0.008826190663358595,-0.006568556682741747,-0.00028489173680629475
1765409363.511168,-9.950067672049606,-0.03655757074799023,0.3193997938337483,-0.008793399282521493,-0.0067431978139937615,-0.0002501094080485757
1765409363.511402,-9.947658428619707,-0.03729639870021493,0.32021749737698507,-0.008752952556478566,-0.0069193384965523744,-0.0002185723661647977
1765409363.511602,-9.944830993287312,-0.03789827662672678,0.3211554352849742,-0.008705838281233594,-0.00709192036881937,-0.00019150441256911705
1765409363.511802,-9.941753172461135,-0.038390184311436766,0.3222326413939918,-0.008653116480777419,-0.00725597667502329,-0.00016984975736784055
1765409363.512002,-9.938602030933316,-0.03879418456647759,0.32347377255733,-0.008595945303709234,-0.007406776495530579,-0.00015424820414952756
1765409363.512202,-9.93555452531743,-0.03912532947152144,0.32490528966763127,-0.008535595166285031,-0.0075399776338508145,-0.00014503131726025832
1765409363.512418,-9.932776979805428,-0.03939048405135024,0.32655048170145484,-0.008473438353903073,-0.007651782474695033,-0.00014223604289534638
1765409363.512618,-9.93041431348085,-0.039588074617428456,0.3284240383874844,-0.00841091136399023,-0.007739087419721383,-0.0001456330797212143
1765409363.512818,-9.928580036545997,-0.03970874436031888,0.3305267929436648,-0.008349458217479493,-0.007799612560962226,-0.00015476842048313093
1765409363.513018,-9.927348027343001,-0.03973681291202931,0.3328411827430132,-0.008290469888937356,-0.007831997995316267,-0.0001690179181184558
1765409363.513218,-9.926747144571987,-0.039652353435273235,0.3353281281104302,-0.008235235667959303,-0.007835857154437197,-0.00018765547794057905
1765409363.513381,-9.926759673645911,-0.03943366584198311,0.33792613619867873,-0.008184916924312507,-0.00781178198619035,-0.00020993324665708287
1765409363.513581,-9.927324193018725,-0.039059924879343455,0.3405531614701262,-0.008140544215392276,-0.007761297299518197,-0.00023516712169877583
1765409363.513781,-9.928342742198684,-0.03851379461995607,0.3431112276378993,-0.008103028009651252,-0.007686764252630425,-0.00026281663896482785
1765409363.513981,-9.92969153417949,-0.03778382406844369,0.3454934165345051,-0.0080731657899609,-0.007591238654175211,-0.00029254791854582966
1765409363.514181,-9.93123405964033,-0.03686646195117201,0.3475926182598791,-0.008051627757662105,-0.0074782964816480545,-0.0003242720391887852
1765409363.514479,-9.932835134234283,-0.03576752897969851,0.34931116247170535,-0.008038910537797447,-0.007351842082539641,-0.0003581566956601942
1765409363.514679,-9.934374156731558,-0.03450297501901272,0.35057004873101966,-0.008035260707495172,-0.007215913481931799,-0.00039461252459416067
1765409363.514879,-9.935755803760987,-0.03309878901050493,0.35131629091714905,-0.008040583177109374,-0.007074498205376347,-0.0004342548509274051
1765409363.515079,-9.936916840764475,-0.03159006350131042,0.3515272260716815,-0.008054357831146691,-0.006931373537782563,-0.00047783928285079756
1765409363.515279,-9.93782855103871,-0.03001939321461688,0.3512114109267994,-0.008075587550933978,-0.006789983540251485,-0.0005261702861485959
1765409363.515357,-9.938495038682413,-0.028434893850833132,0.3504064557001518,-0.008102792905792189,-0.006653358495339481,-0.0005799870538559152
1765409363.515557,-9.938948053435388,-0.026888092221843993,0.3491744564919465,-0.008134057749601391,-0.006524073129342671,-0.0006398378488286306
1765409363.515757,-9.939239114436369,-0.025431802090867057,0.3475956626255489,-0.008167120169592486,-0.006404233145393929,-0.0007059589423004781
1765409363.515957,-9.93942985941014,-0.02411797143550227,0.34576099042429365,-0.00819949828869973,-0.006295478373681105,-0.0007781757356586327
1765409363.516157,-9.939581820533148,-0.02299545291186649,0.3437641506255718,-0.008228640725561589,-0.006198994752469249,-0.0008558418389195006
1765409363.51642,-9.939747034269391,-0.022107721350868345,0.34169433933353044,-0.008252092873638454,-0.006115533487461223,-0.0009378269864568999
1765409363.51667,-9.939960761046855,-0.0214906836104723,0.33963037472075186,-0.008267668224744808,-0.0060454400638561565,-0.0010225569147715695
1765409363.51692,-9.940237094799514,-0.021170812207244486,0.3376367849351594,-0.008273609590681137,-0.005988695726076448,-0.0011080994873201551
1765409363.51717,-9.940567648973763,-0.02116382628593942,0.3357619119938871,-0.008268722888329085,-0.005944970604381641,-0.0011922841266889324
1765409363.517366,-9.940923095054721,-0.02147405284299099,0.33403786206961633,-0.0082524687302085,-0.005913683726915701,-0.0012728375169146547
1765409363.517566,-9.941257118883316,-0.022094489976794373,0.33248208504391563,-0.008225002783328971,-0.005894062428816648,-0.0013475179929095186
1765409363.517766,-9.941512170129062,-0.023007507674667686,0.33110026292160843,-0.008187161725247897,-0.005885192676735355,-0.0014142341978317275
1765409363.517966,-9.941626154224037,-0.02418606343545403,0.32988995359954854,-0.008140396014034455,-0.005886053465557955,-0.001471139368590761
1765409363.518166,-9.941539140715586,-0.02559527519933672,0.3288443168533961,-0.00808665357903821,-0.005895533587414212,-0.0015166984310419486
1765409363.51833,-9.941199392712699,-0.02719418543255078,0.3279554402789571,-0.008028220951788527,-0.005912436350846673,-0.0015497289571424703
1765409363.51853,-9.94056840317026,-0.028937559768306618,0.3272171052100475,-0.007967531898258204,-0.005935483424269598,-0.0015694189056618874
1765409363.51873,-9.939624853581206,-0.030777577699608937,0.3266269770895412,-0.007906959338205354,-0.005963329599760392,-0.0015753250067018184
1765409363.51893,-9.938367425107266,-0.03266530142929584,0.32618817404989314,-0.00784861321737594,-0.005994595587977327,-0.0015673565036058727
1765409363.51913,-9.936816385499016,-0.034551880048012365,0.32591020392943454,-0.007794171670921564,-0.006027918217335957,-0.0015457495835370242
1765409363.519361,-9.935013950360505,-0.03638955196972318,0.325809385131493,-0.007744771273797099,-0.0060620099295280545,-0.0015110372953045864
1765409363.519561,-9.933023435761276,-0.03813257769641503,0.32590881072108563,-0.00770097250316908,-0.0060957157337847645,-0.0014640178895378255
1765409363.519761,-9.930927074959254,-0.03973820028002377,0.32623758691603166,-0.007662801085100588,-0.006128058354972242,-0.0014057225442099626
1765409363.519961,-9.928822221362172,-0.04116762387429327,0.32682880345154863,-0.007629850891554807,-0.006158269913406179,-0.0013373822672109075
1765409363.520161,-9.926815724998072,-0.04238692684261473,0.32771580662694444,-0.0076014258118734974,-0.006185815142823538,-0.0012603930079717906
1765409363.520358,-9.92501654809715,-0.04336783729059041,0.32892677282891497,-0.0075766980757552465,-0.006210411537889835,-0.0011762774930272116
1765409363.520558,-9.923527020237591,-0.04408834826852885,0.33047803614667615,-0.007554864542172124,-0.00623204697088794,-0.001086642961584799
1765409363.520758,-9.922433469496763,-0.04453317358217204,0.3323670027761116,-0.00753528513762263,-0.006250990684028484,-0.000993136580433339
1765409363.520958,-9.921797337285502,-0.04469403557934642,0.33456582154984993,-0.007517588120705461,-0.0062677920784345595,-0.000897403868621019
1765409363.521158,-9.92164817558297,-0.04456976229933842,0.3370171536026707,-0.007501728908745904,-0.006283261933106357,-0.0008010571957462424
1765409363.521359,-9.921979859744084,-0.0441661713400981,0.33963314980257014,-0.007487996225031333,-0.00629843189589099,-0.0007056590210033368
1765409363.521559,-9.922750825302888,-0.043495728962664744,0.34229809556599433,-0.007476970429716288,-0.0063144927421312025,-0.0006127187079205
1765409363.521759,-9.923888420184806,-0.042576988898019454,0.3448744751357013,-0.007469449335792602,-0.006332720428172798,-0.0005236959040457998
1765409363.521959,-9.925296896864534,-0.04143384138896843,0.3472117993951805,-0.0074663616140017795,-0.0063544060174732285,-0.00044000093156236004
1765409363.522159,-9.926868189239466,-0.04009464759836127,0.3491574185990496,-0.007468685623237711,-0.006380804704200172,-0.00036298458870375383
1765409363.522372,-9.92849423536785,-0.03859138319115301,0.3505684262820776,-0.007477384924335896,-0.006413110303110959,-0.00029391504620436917
1765409363.522572,-9.930079183617146,-0.03695892895574125,0.35132353281311346,-0.007493364617343358,-0.006452451533911457,-0.00023394511069260704
1765409363.522772,-9.931549605690913,-0.03523459534287402,0.35133364334926653,-0.007517446586820157,-0.006499901394184931,-0.00018407632466259244
1765409363.522972,-9.932861093407116,-0.03345785584909206,0.3505500332943156,-0.0075503567401892175,-0.00655648982353227,-0.0001451273580024308
1765409363.523172,-9.934000285397401,-0.03167013293178302,0.34896939841927177,-0.007592714169381617,-0.006623207869385125,-0.00011771440813061915
1765409363.523411,-9.934982120352807,-0.029914397731370567,0.3466354071619345,-0.007645012510268047,-0.006700988509022259,-0.00010225027443887431
1765409363.523611,-9.93584266452783,-0.028234373481000788,0.3436366086178399,-0.007707587684731256,-0.0067906497883826735,-9.896476787855836e-05
1765409363.523811,-9.93662822758996,-0.02667327212078323,0.34010079595371656,-0.007780571121457732,-0.006892791685043863,-0.00010794284948266796
1765409363.524011,-9.93738182875659,-0.02527214990798412,0.33618628116648036,-0.007863831297781424,-0.007007645768106058,-0.00012917113940534973
1765409363.524211,-9.938128421124613,-0.024068023296756055,0.3320708527805409,-0.007956910177841428,-0.007134884159936173,-0.00016258013611701857
1765409363.524375,-9.938860482873233,-0.023091837870387773,0.32793929114345344,-0.00805896621212154,-0.007273403352239956,-0.0002080688926707105
1765409363.524575,-9.93952560368274,-0.022366357137710333,0.32397031916660024,-0.008168738997637287,-0.007421109908193318,-0.0002655013220911683
1765409363.524775,-9.940017673612493,-0.021904132033655377,0.32032404466576275,-0.00828454794414317,-0.007574744134076259,-0.00033466953734074254
1765409363.524975,-9.940173269056794,-0.021705869404147853,0.3171312875574871,-0.008404328902137955,-0.007729776441985561,-0.0004152285422793828
1765409363.525175,-9.939774630948401,-0.021759593595693714,0.3144862765516226,-0.008525704293081682,-0.007880395943132286,-0.0005066140743150588
1765409363.525437,-9.938560036890827,-0.02204091065082031,0.3124437370649417,-0.008646078431203814,-0.008019588559160221,-0.0006079580898386652
1765409363.525637,-9.936241451434466,-0.02251448679892676,0.31102056588871557,-0.008762750138576489,-0.00813928606699019,-0.0007180154249075161
1765409363.525837,-9.932528398953687,-0.023136645838200128,0.31020155849192715,-0.008873035859495641,-0.008230566857505447,-0.0008351136657772931
1765409363.526037,-9.927156270140514,-0.02385884514476925,0.3099482373243685,-0.008974395611657714,-0.008283900380414785,-0.0009571362364221683
1765409363.526237,-9.919916733413737,-0.024631714395529122,0.3102095780876227,-0.00906455198653127,-0.008289439232470346,-0.0010815439649653265
1765409363.52635,-9.910687484341986,-0.025409291438455394,0.31093318293560923,-0.00914159182752985,-0.008237367774286308,-0.0012054335172310881
1765409363.52655,-9.899458293405656,-0.026153030801237154,0.3120752967145563,-0.009204042468105654,-0.008118313947677765,-0.0013256260325546973
1765409363.52675,-9.88635039507385,-0.026835129836756625,0.3136081987876987,-0.009250917691663182,-0.007923824756462878,-0.0014387789525619932
1765409363.52695,-9.871626765856577,-0.027440790644483768,0.3155239318497516,-0.009281730871380615,-0.007646896017843513,-0.0015415170578125402
1765409363.52715,-9.855691584439548,-0.027969208657199113,0.31783385561282784,-0.009296474993659855,-0.007282531502839629,-0.0016305812286371872
1765409363.527355,-9.839077903774614,-0.028433248431635597,0.32056397690294675,-0.009295573281515637,-0.0068282873824495795,-0.001702993088031355
1765409363.527555,-9.822423258073222,-0.028857849261691024,0.3237464204302126,-0.009279808635282499,-0.00628474293928173,-0.001756230858545008
1765409363.527755,-9.806433798824056,-0.029277218319740363,0.3274078763075104,-0.009250241580076719,-0.0056558345382484556,-0.0017884071780256857
1765409363.527955,-9.79183880784971,-0.02973089641680547,0.3315564288360044,-0.009208123922639366,-0.004948996059054267,-0.001798433413476934
1765409363.528155,-9.779338977623455,-0.03025885386084616,0.3361686911395394,-0.009154812404835962,-0.0041750615460619395,-0.001786148647020468
1765409363.528372,-9.769553312238843,-0.0308958575285631,0.34117939783798407,-0.009091686965749423,-0.003347904899951997,-0.0017523879124696534
1765409363.528572,-9.76297046730182,-0.031665478363669966,0.34647543981272216,-0.009020080811403859,-0.002483819063955325,-0.001698965616382357
1765409363.528772,-9.759910414073383,-0.03257446029285582,0.3518958533625317,-0.008941230490151402,-0.0016006711387174094,-0.001628557921995298
1765409363.528972,-9.760501112413358,-0.033608760152467596,0.3572384705585001,-0.00885625189928602,-0.000716903735937166,-0.0015444854533599114
1765409363.529172,-9.764672434820413,-0.03473283669434457,0.36227258320070976,-0.008766143519967781,0.00014952015637788023,-0.0014504261918006204
1765409363.529352,-9.772166749067445,-0.03589299181017513,0.36675537117175355,-0.008671811759672073,0.0009821183780926467,-0.0013501168899321023
1765409363.529602,-9.782563557821753,-0.037023907111145,0.37044913558404097,-0.008574106091401296,0.001766735384504291,-0.0012471084104499562
1765409363.529852,-9.795314838835036,-0.038056172093107764,0.37313730007380735,-0.008473848945197981,0.002492165422449682,-0.0011446159764856847
1765409363.530102,-9.80978752034358,-0.03892264853234295,0.3746387465294731,-0.008371853027075875,0.0031505325672280316,-0.0010454644865267163
1765409363.530408,-9.825309066430506,-0.039562896827585306,0.37482055627589617,-0.00826893259598543,0.0037374394521100885,-0.000952098569682201
1765409363.530608,-9.84121165203295,-0.03992644851148753,0.3736082720230165,-0.008165920799381856,0.004251899575624916,-0.000866623606881864
1765409363.530808,-9.856870816051794,-0.0399760835395144,0.3709919662287329,-0.008063696265575673,0.0046960599024424765,-0.0007908634163934675
1765409363.531008,-9.871736126623675,-0.03969115284838222,0.3670271161621207,-0.00796321081139874,0.005074731788891646,-0.0007264385965041393
1765409363.531208,-9.885353392945364,-0.039069677803170694,0.361830938357724,-0.007865510034166866,0.005394779039454178,-0.0006748618722255393
1765409363.531371,-9.897379148076968,-0.03812808503886551,0.35557577899970694,-0.007771746318759915,0.0056644313142430215,-0.0006376185150277887
1765409363.531571,-9.907588235238556,-0.036898949707018534,0.3484808211638936,-0.007683186160486717,0.005892582885309381,-0.0006161866438419185
1765409363.531771,-9.915874972850482,-0.035428250722042365,0.34080252716872655,-0.0076012076126469215,0.006088117186966491,-0.0006119769209188306
1765409363.531971,-9.922248211758806,-0.033773092977663725,0.33282371205130723,-0.007527278620709524,0.006259285954635964,-0.0006262124171092745
1765409363.532171,-9.926820790069717,-0.03199938684823245,0.32484110792028237,-0.007462910562804494,0.006413168653590418,-0.0006597870166128623
1765409363.532394,-9.929794210187758,-0.030178350527813494,0.3171515421299581,-0.007409591285589683,0.006555236594480513,-0.0007131245706752658
1765409363.532594,-9.931439580952276,-0.028381537150223037,0.3100372333664195,-0.007368711316979143,0.006689043906441379,-0.0007860389272059043
1765409363.532794,-9.93207597429118,-0.02667538537242308,0.30375106117003825,-0.007341499947655072,0.006816061770040545,-0.0008775950724045487
1765409363.532994,-9.932047472581159,-0.02511676522865736,0.29850289558233345,-0.007328982479454774,0.006935660545165948,-0.000985992356532571
1765409363.533194,-9.93170036383464,-0.023750337478398748,0.2944481612843252,-0.0073319592579029974,0.0070452322054883705,-0.0011085088093638871
1765409363.53333,-9.931362002511925,-0.022607472583587352,0.2916796805971566,-0.007350997474665665,0.007140441576630075,-0.0012415410312735847
1765409363.53353,-9.931322634016613,-0.0217059309421361,0.29022342411770025,-0.00738642263466716,0.007215596693967367,-0.0013807466883994026
1765409363.53373,-9.931821101372952,-0.021049897836226225,0.29003827518746383,-0.0074382981887762415,0.0072641240156664,-0.0015212646481105518
1765409363.53393,-9.933035048716627,-0.020630844291517025,0.2910195905753154,-0.007506386844076512,0.007279119129655325,-0.001657973373275617
1765409363.53413,-9.93507595576862,-0.020430094960479803,0.2930062190904104,-0.0075900932892773955,0.007253927670652377,-0.0017857585003059587
1765409363.534351,-9.937988818144255,-0.020423343258691135,0.29579044557226636,-0.007688394498024922,0.007182704681236037,-0.0018997818569650633
1765409363.534551,-9.941755605762092,-0.020586107625622407,0.29913000729040845,-0.00779976985842645,0.007060903927177502,-0.0019957540288928813
1765409363.534751,-9.946301295654143,-0.02089841758270907,0.3027611865542663,-0.007922147109830371,0.006885657303325519,-0.0020701995858200895
1765409363.534951,-9.951501580494122,-0.021347542474466408,0.306412202160641,-0.00805287852214164,0.006656016989852276,-0.0021206802240262826
1765409363.535151,-9.957191960470544,-0.021928795737553648,0.3098164885588327,-0.008188755527021162,0.006373047828627609,-0.0021459328389457455
1765409363.535335,-9.963178296007394,-0.02264519445853886,0.3127256624246015,-0.008326064373353639,0.006039768550721584,-0.0021459008982012352
1765409363.535535,-9.969248840089904,-0.023506486915992407,0.31492194767061615,-0.008460683986968625,0.005660945744310441,-0.002121672438272882
1765409363.535735,-9.975187395460932,-0.02452733177178523,0.3162296150576817,-0.008588227618551093,0.005242752602446091,-0.0020753563060238733
1765409363.535935,-9.980786742003236,-0.025724160296192615,0.31652468141146717,-0.008704227803796573,0.004792323447805701,-0.002009919004611094
1765409363.536135,-9.985861115845697,-0.027110826386379242,0.3157419072517096,-0.008804358667095998,0.004317256810625816,-0.0019289866256704071
1765409363.536325,-9.990256575006711,-0.028693999583406037,0.3138782818396828,-0.00888468220148385,0.0038251290726148365,-0.0018366135837924321
1765409363.536525,-9.993858544573474,-0.03046953753767008,0.31099269339999286,-0.008941898167248627,0.0033230732389976977,-0.0017370338490507457
1765409363.536725,-9.996596300000082,-0.03242055020691568,0.30720198762367196,-0.008973573834685174,0.002817460252421864,-0.0016344234260577321
1765409363.536925,-9.998444298042397,-0.034517104993054396,0.3026737802845818,-0.008978331849556305,0.002313699626580945,-0.0015327004979335287
1765409363.537125,-9.999420262955324,-0.03671715274694373,0.2976163236318386,-0.008955979951123181,0.0018161564887350502,-0.0014353741911156605
1765409363.537345,-9.999580126514973,-0.038968326921050137,0.29226581016923175,-0.008907571414463257,0.0013281707271374002,-0.0013454370047710285
1765409363.537545,-9.99901031100257,-0.04121044778421906,0.2868718384382814,-0.00883538897608576,0.0008521635967631599,-0.0012652889355704985
1765409363.537745,-9.997818179803334,-0.043378655348931525,0.28168212347840227,-0.008742849049191197,0.0003898169290126896,-0.0011966836658196369
1765409363.537945,-9.99612166264868,-0.0454071143353361,0.2769277116924852,-0.008634327764961747,-5.77023772353359e-05,-0.0011406943594575692
1765409363.538145,-9.994039147481484,-0.04723318733021719,0.27280994393269203,-0.008514915146560373,-0.0004895187796467893,-0.0010977037167295143
1765409363.538333,-9.9916806314667,-0.04880182904853692,0.2694901585082916,-0.008390108906892277,-0.0009048778271914894,-0.0010674263138172391
1765409363.538533,-9.989140694569649,-0.050069766130302305,0.26708257799165297,-0.008265466726010104,-0.0013030658752327213,-0.0010489696347355114
1765409363.538733,-9.986493286237652,-0.051008905188338824,0.2656502250237413,-0.008146245737394099,-0.0016834271968162045,-0.0010409352437269215
1765409363.538933,-9.983788065935078,-0.051608436229876195,0.2652035298681643,-0.008037066565879327,-0.0020454569544884086,-0.0010415558547744478
1765409363.539133,-9.981048282159948,-0.051875287582383134,0.2657016026339278,-0.00794164060857309,-0.0023889291271217096,-0.0010488585603363513
1765409363.539364,-9.978270539940148,-0.051832896624685584,0.26705643559190273,-0.007862590411214152,-0.002714013673206558,-0.0010608391141122967
1765409363.539564,-9.975426866788657,-0.05151857002054567,0.26914012333410614,-0.007801376926172656,-0.003021347162282814,-0.0010756286169095828
1765409363.539764,-9.97246922949687,-0.0509798732631888,0.27179468124378836,-0.00775833014065519,-0.003312038186260862,-0.0010916346841848225
1765409363.539964,-9.969336307468659,-0.050270459335923647,0.2748436312559653,-0.007732765750838163,-0.0035876021492792344,-0.0011076434487232863
1765409363.540164,-9.965961989086567,-0.04944564514551189,0.27810436679792716,-0.00772316272508768,-0.003849826839911764,-0.0011228732043558822
1765409363.540357,-9.962284719983893,-0.04855806637514785,0.2814002914926804,-0.00772737545749946,-0.004100578629255773,-0.001136974098015045
1765409363.540557,-9.958256615074577,-0.04765389577889994,0.2845718050821262,-0.007742857917562775,-0.004341574870963399,-0.0011499736044031626
1765409363.540757,-9.95385131031464,-0.04677015462193771,0.28748545139931536,-0.007766882106423295,-0.004574162874666535,-0.0011621759987236408
1765409363.540957,-9.949069804729081,-0.04593336833235436,0.29004085581811107,-0.007796736852199303,-0.004799145950123216,-0.0011740322518360472
1765409363.541157,-9.943943788907,-0.04515934113093618,0.29217523425256364,-0.007829895874890943,-0.005016680392195193,-0.0011859994607573124
1765409363.541392,-9.938536119462471,-0.044453554438718935,0.29386525649887224,-0.007864147428584581,-0.005226245784655149,-0.0011984052616696391
1765409363.541892,-9.932938369200233,-0.04381189163959602,0.2951261777105755,-0.007897681650551382,-0.0054266767674654584,-0.0012113279225735728
1765409363.544399,-9.927265829573667,-0.04322185394068991,0.29600850694211267,-0.007929134883481433,-0.0056162392124490005,-0.0012245031195926583
1765409363.548361,-9.921650713452905,-0.04266466979915306,0.2965927418747032,-0.007957592529768902,-0.00579273270812651,-0.0012372737576449545
1765409363.550466,-9.916234330625658,-0.04211843943553201,0.2969825920092605,-0.00798255464202674,-0.005953602073292264,-0.0012486020416122884
1765409363.553498,-9.911158759591025,-0.04156190125980484,0.2972968462583959,-0.008003871766486996,-0.006096045178693897,-0.0012571548331808287
1765409363.555418,-9.906558330872242,-0.04097802974962966,0.2976600182860224,-0.008021660897983658,-0.006217112998688285,-0.0012614534012791018
1765409363.556306,-9.902551229433008,-0.040356775682622525,0.29819218081999427,-0.008036211440626415,-0.006313806617796196,-0.0012600564405991694
1765409363.559378,-9.899231611704604,-0.03969670726222991,0.2989986896988466,-0.008047889489891288,-0.006383180408046983,-0.0012517340077026577
1765409363.563417,-9.896662694326933,-0.03900568281141347,0.30016060962358265,-0.008057046844525432,-0.006422459676044107,-0.0012355967431972893
1765409363.565355,-9.894871330143266,-0.03830070085830195,0.3017266782598366,-0.008063939361193984,-0.006429176395287395,-0.0012111642568674531
1765409363.568368,-9.893844669123567,-0.03760685301856467,0.3037076845936331,-0.008068657722029375,-0.006401319823295588,-0.0011783761645683462
1765409363.570453,-9.893529496811952,-0.0369551937108925,0.3060740723800014,-0.00807107292703787,-0.0063374914299671814,-0.001137559673950416
1765409363.57138,-9.89383463097872,-0.0363795390463291,0.30875725202873405,-0.008070799671129055,-0.006237048860784051,-0.0010893690645370304
1765409363.575416,-9.894636392483111,-0.03591260958419307,0.31165458954690456,-0.008067183531467481,-0.006100224510117583,-0.0010347108385766607
1765409363.579926,-9.895786795127083,-0.03558223824497319,0.31463755249715475,-0.00805932103402767,-0.005928208713506578,-0.0009746677922948387
1765409363.580383,-9.897123769063473,-0.0354083245863881,0.3175621099164685,-0.008046121809860049,-0.005723190098741654,-0.0009104348146437005
1765409363.581384,-9.898482437054362,-0.03540085385814865,0.32028018753990284,-0.008026416540308405,-0.0054883449131915354,-0.00084327538776905
1765409363.585287,-9.899706312702731,-0.03555892267094156,0.3226508768820244,-0.007999103784544824,-0.005227768155843769,-0.0007744992633276892
1765409363.586344,-9.900657431859752,-0.03587061769678029,0.32455032904357617,-0.007963316845169594,-0.004946345164495308,-0.0007054524566978929
1765409363.590333,-9.90122479610172,-0.03631374801548497,0.32587971970379587,-0.00791858413181816,-0.004649568608544083,-0.0006375072444818219
1765409363.593347,-9.901330847919501,-0.03685754120624991,0.3265710559834645,-0.00786495797926669,-0.004343308224757628,-0.0005720450956939092
1765409363.595433,-9.900935880881134,-0.037465284461845175,0.32659080083818104,-0.0078030976187889465,-0.004033542340044562,-0.0005104341421112453
1765409363.598355,-9.900040384154805,-0.03809763330895391,0.32594142090076883,-0.007734304942445526,-0.003726066203429196,-0.0004540063859560703
1765409363.600298,-9.898685354889334,-0.038716148207807326,0.3246610213286305,-0.00766051789976788,-0.003426199844436555,-0.00040403589459113556
1765409363.603283,-9.89695051016388,-0.039286624797879637,0.3228211122937383,-0.007584263845536432,-0.0031385210669299954,-0.0003617135240234629
1765409363.605327,-9.894950170991592,-0.03978186843105259,0.32052237518844645,-0.007508570312177311,-0.002866646383522509,-0.00032811298947613073
1765409363.608334,-9.892826639821797,-0.040183655486599,0.31788838359255556,-0.007436829849266751,-0.00261307817139614,-0.0003041477833519568
1765409363.611339,-9.890741258469328,-0.04048372649694962,0.3150576482540135,-0.0073726188601955095,-0.0023791308302142634,-0.00029052348371293857
1765409363.613282,-9.888863790080743,-0.04068377622273889,0.3121747524100202,-0.007319475352059294,-0.002164939869913245,-0.0002876915405558321
1765409363.616345,-9.887361050436398,-0.040794521471733576,0.30938142568022886,-0.007280646796268776,-0.0019695477392673326,-0.00029580953839330554
1765409363.618338,-9.886385805811107,-0.040834013338468,0.3068082769250424,-0.0072588268365870795,-0.0017910548383819763,-0.0003147116985071843
1765409363.620273,-9.886066951746868,-0.04082540102241645,0.30456779956541385,-0.0072559067896370375,-0.0016268242119072528,-0.00034389250460771216
1765409363.623336,-9.886501833710335,-0.04079436182524012,0.3027491296576033,-0.007272772534307605,-0.0014737283755618346,-0.0003825052245332941
1765409363.625377,-9.88775117342006,-0.04076642903017927,0.3014147147313394,-0.007309176766588941,-0.0013284247599936714,-0.0004293761836726207
1765409363.628335,-9.889836580830584,-0.04076448351079952,0.30059867534046836,-0.007363708060271584,-0.0011876461732277341,-0.0004830358008742386
1765409363.63035,-9.89274036807444,-0.040806668404670024,0.300306523059023,-0.007433862540090792,-0.0010484940926973015,-0.0005417682466503849
1765409363.63339,-9.896407397151586,-0.04090490177851216,0.3005160408522398,-0.007516207105662533,-0.0009087192906162291,-0.0006036814127715213
1765409363.635379,-9.900748756147227,-0.04106403847167983,0.3011792437868192,-0.007606611560400449,-0.0007669655288461352,-0.0006667962878594643
1765409363.638318,-9.90564702447982,-0.04128162562517334,0.30222532644163447,-0.007700522317984654,-0.0006229458575603568,-0.0007291501831306751
1765409363.640326,-9.910962857187627,-0.041548144604166386,0.3035645581098286,-0.007793249728476405,-0.0004775238279205053,-0.0007889033967582705
1765409363.643332,-9.916542659946852,-0.04184767151502877,0.3050932367406382,-0.007880242335955762,-0.00033268274801427373,-0.0008444358980300788
1765409363.646335,-9.922227096986733,-0.04215900252242011,0.30669978211508914,-0.00795732519147769,-0.00019138154677341237,-0.0008944212790434964
1765409363.648316,-9.927859960654734,-0.042457352765142106,0.30827170734491605,-0.008020885999208093,-5.7313528598208016e-05,-0.000937870620956294
1765409363.650348,-9.93329669185897,-0.0427166244868981,0.3097028495222093,-0.00806800042770902,6.539877659792406e-05,-0.0009741471582348062
1765409363.653343,-9.938411815210415,-0.042911992593017284,0.3109001961048121,-0.008096494920539437,0.0001725288385334312,-0.001002958649102035
1765409363.65542,-9.9431047385735,-0.04302235716357734,0.3117898319599102,-0.00810495268341016,0.0002600490343774081,-0.0010243346789409345
1765409363.658366,-9.947303571648174,-0.04303220917125341,0.3123216488692536,-0.008092676073900566,0.0003243828503330515,-0.0010385927164784413
1765409363.660416,-9.950966779551173,-0.04293264218822525,0.312472466369947,-0.008059622521372866,0.00036259682316748044,-0.0010462944250608426
1765409363.663351,-9.954082713792143,-0.0427214960750202,0.3122473298896462,-0.008006328587377598,0.000372535934493763,-0.0010481945252116954
1765409363.666355,-9.95666735050049,-0.04240281355058942,0.31167901281349203,-0.007933831355144643,0.00035290998395075745,-0.001045186114308381
1765409363.666855,-9.958760714358055,-0.041985874335938034,0.3108259072591767,-0.007843593182681706,0.00030333710122119477,-0.0010382459247025263
1765409363.669362,-9.96042237369042,-0.041484049012035146,0.3097684345311311,-0.0077374349861567574,0.0002243490745496098,-0.0010283807312589084
1765409363.673303,-9.961726223593322,-0.04091362443964684,0.30860405474635655,-0.0076174820272748274,0.00011736181519472802,-0.0010165742194437213
1765409363.675444,-9.962754714827405,-0.040292674823492004,0.3074410738731268,-0.007486124004077064,-1.5388308094930376e-05,-0.0010037334851643724
1765409363.678453,-9.963592697264984,-0.03964006109334225,0.30639158959033513,-0.007345987848609588,-0.00017094390597356053,-0.000990636214436794
1765409363.680401,-9.964321029294759,-0.038974697698957735,0.3055639223376034,-0.007199916497929676,-0.0003457634411428034,-0.0009778832616484997
1765409363.681409,-9.96501014331772,-0.03831519590278578,0.3050548725973562,-0.007050941812984487,-0.0005358946011150092,-0.0009658651562734508
1765409363.685337,-9.965713976133186,-0.03767982909875596,0.30494231184373966,-0.006902237986201488,-0.000737177948935098,-0.0009547519812782932
1765409363.688316,-9.966464943967463,-0.037086599037327875,0.30527883679227463,-0.00675704484741465,-0.000945466407781072,-0.0009445123241691815
1765409363.690313,-9.967270679424455,-0.036553165681358926,0.30608722566650304,-0.0066185583066324955,-0.001156837142783897,-0.0009349599408970635
1765409363.693381,-9.96811297758775,-0.03609653873736852,0.3073581954825194,-0.006489796091065029,-0.0013677675269955785,-0.0009258198575297919
1765409363.695357,-9.968949023959382,-0.035732589181247616,0.30905066270583864,-0.006373457148035706,-0.0015752502795388509,-0.0009168024783745205
1765409363.69833,-9.969714668210926,-0.035475505881385566,0.31109443680515064,-0.006271797980617312,-0.001776834719089101,-0.0009076762908207339
1765409363.700283,-9.970329258449889,-0.03533726028830985,0.3133949520349909,-0.00618654596916245,-0.0019705976257514838,-0.0008983342353122037
1765409363.70136,-9.970701381882082,-0.035327010273558,0.3158393492383873,-0.006118859189737176,-0.0021550626151426366,-0.0008888506975704768
1765409363.705313,-9.970734893526734,-0.035450309205515555,0.3183032003869474,-0.006069329054494261,-0.0023290948147364717,-0.0008795232851744627
1765409363.708337,-9.970334835209256,-0.035708096101206,0.3206574116778747,-0.006038012593276177,-0.0024917943747751604,-0.0008708893186910569
1765409363.710338,-9.969413008151914,-0.03609565692878589,0.3227750083058738,-0.006024479039360751,-0.002642401555325378,-0.0008637064862980499
1765409363.711363,-9.967892925026167,-0.036601853103196295,0.32453742299339805,-0.006027859476318402,-0.0027802167416397026,-0.0008588928907586162
1765409363.715319,-9.965713814049513,-0.03720880537022098,0.32583981714163374,-0.00604689468755192,-0.0029045361602795363,-0.0008574317067697878
1765409363.718303,-9.962833499812533,-0.03789203729328617,0.32659511188812684,-0.006079981456424714,-0.0030146058546542823,-0.0008602543133441497
1765409363.719281,-9.959230266545276,-0.03862102573516796,0.3267366997914398,-0.006125220148783694,-0.003109597634560998,-0.0008681182016688305
1765409363.723298,-9.954903974499858,-0.03936020085978213,0.32621998124809054,-0.006180467341240573,-0.003188609314976295,-0.0008814928871925535
1765409363.72533,-9.949876685157545,-0.040070525504496024,0.3250228724366384,-0.0062433975920846195,-0.003250688110148501,-0.0009004642047307039
1765409363.726295,-9.944193003994672,-0.04071171542427094,0.32314545181945953,-0.006311577799603779,-0.003294871361867201,-0.0009246687390326933
1765409363.730335,-9.937920343152564,-0.04124495805307018,0.3206090452191114,-0.006382555004065999,-0.003320234431143849,-0.0009532730074888251
1765409363.731362,-9.931149195250077,-0.04163579992567836,0.31745510641328156,-0.006453954615233665,-0.0033259343663065563,-0.0009850098059502475
1765409363.735286,-9.923993165140772,-0.0418568178406499,0.3137440243679649,-0.006523582804051812,-0.0033112420489420876,-0.0010182737734856604
1765409363.738305,-9.916588110081305,-0.04188974775330026,0.3095536243702519,-0.006589524890195578,-0.0032755638717481667,-0.0010512637092198584
1765409363.740287,-9.909089670325585,-0.04172684264439055,0.30497700906203956,-0.006650230264981082,-0.003218462315948231,-0.0010821478480208405
1765409363.743338,-9.901668857677175,-0.041371348693389196,0.3001196199363221,-0.006704573503047555,-0.003139689042329202,-0.0011092245363080835
1765409363.74528,-9.894505904021926,-0.04083713782291237,0.29509568548268206,-0.006751881315175252,-0.0030392434143151716,-0.0011310541186734238
1765409363.746328,-9.887782895667508,-0.040147657731782166,0.2900242722869619,-0.006791916040163762,-0.0029174644061593247,-0.0011465461348711347
1765409363.750276,-9.881675815028085,-0.03933437840045223,0.28502506638971814,-0.006824808947263685,-0.0027751546563675785,-0.001154996899068491
1765409363.753337,-9.876346687736199,-0.038434841032419696,0.2802140631978897,-0.00685094226194867,-0.002613723088978399,-0.0011560833349125203
1765409363.755282,-9.871936632610844,-0.03749035739156683,0.2756995694601712,-0.006870788482381742,-0.0024353211940588,-0.001149826572231512
1765409363.758301,-9.868560528493237,-0.036543451114627236,0.2715790413386958,-0.006884727070614825,-0.002242943281266508,-0.0011365415867058382
1765409363.76031,-9.866303628425518,-0.03563525705603321,0.2679370795255538,-0.0068928667102455595,-0.0020404658618967024,-0.0011167875022724484
1765409363.763307,-9.865219971370891,-0.034803181866994104,0.26484451008685206,-0.006894901475849864,-0.001832613079940593,-0.0010913293274620558
1765409363.765331,-9.865332156269936,-0.03407907726914024,0.2623581827142303,-0.0068900221860920775,-0.001624846363949415,-0.0010611176615554687
1765409363.76831,-9.866632012159538,-0.03348801541477785,0.26052100996704175,-0.006876895190060118,-0.001423182294349857,-0.0010272872915853795
1765409363.770355,-9.869081806097705,-0.03304761093785098,0.25936181101259226,-0.006853713976762955,-0.0012339459195287606,-0.0009911671515751323
1765409363.773274,-9.872615806797324,-0.032767795572271254,0.25889474290701064,-0.00681832395200818,-0.0010634726011859805,-0.0009542859266195981
1765409363.775374,-9.877142216258518,-0.032651000069972985,0.25911846825441065,-0.006768414777000953,-0.0009177798240784268,-0.0009183564133597862
1765409363.778298,-9.882545565923982,-0.03269275444401246,0.26001544464282356,-0.006701766271855164,-0.000802237496146019,-0.0008852303835292803
1765409363.780398,-9.888689586020728,-0.032882708234442726,0.26155160935577493,-0.006616524439771191,-0.0007212685688648083,-0.0008568286953297683
1765409363.78331,-9.895420447557656,-0.03320598539346237,0.2636764616452412,-0.006511476939668677,-0.0006781097965562292,-0.0008350601154975292
1765409363.785335,-9.902570307215369,-0.033644695521511905,0.2663234514795854,-0.006386294768012924,-0.00067465408464237,-0.0008217428664415997
1765409363.786459,-9.909961185433358,-0.034179411695886876,0.2694106817184979,-0.006241709476402974,-0.0007113834210676622,-0.0008185381074975041
1765409363.788427,-9.917409231896709,-0.03479048472792596,0.2728420180488773,-0.006079602584051351,-0.0007873903400192543,-0.0008268991981742321
1765409363.793315,-9.92472941941045,-0.03545910699615957,0.27650877145494546,-0.005902995239003392,-0.0009004791925616609,-0.0008480366089063438
1765409363.795301,-9.931740747519243,-0.036168049133255054,0.2802922699092346,-0.005715939730025645,-0.0010473329910219275,-0.0008828947209915497
1765409363.798308,-9.938272024081718,-0.03690205088711627,0.2840676951463924,-0.005523326763281738,-0.0012237240503699235,-0.0009321330189534003
1765409363.800447,-9.944168082175254,-0.0376479744799156,0.2877092491098456,-0.00533062963550159,-0.0014247417517557527,-0.0009961023612209859
1765409363.803303,-9.949296001026946,-0.038394908556333374,0.29109616316374165,-0.005143606166307681,-0.0016450152515809042,-0.0010748091417487613
1765409363.804312,-9.95355077957132,-0.039134338197283354,0.29411872946138645,-0.004967973020756844,-0.001878919270763102,-0.0011678655249079094
1765409363.806309,-9.956859977564672,-0.03986032535004661,0.2966836123045691,-0.004809061044279625,-0.002120756815902972,-0.0012744305918138046
1765409363.810351,-9.959186921923626,-0.04056952158108134,0.29871797373227454,-0.004671461520025096,-0.002364912003410344,-0.0013931536877960723
1765409363.811328,-9.960532136755335,-0.041260845453016136,0.30017221754524587,-0.004558683317001998,-0.0026059677038823936,-0.001522135517199118
1765409363.815279,-9.960932793155434,-0.04193478323683212,0.30102139344735146,-0.0044728533693323795,-0.002838791723160389,-0.0016589226130777578
1765409363.818279,-9.96046015032068,-0.04259244535482722,0.301265417377639,-0.004414499437005054,-0.0030586060292835103,-0.0018005472621173
1765409363.820278,-9.959215020451635,-0.043234631040189854,0.30092813114669176,-0.0043824514193988974,-0.0032610574265645215,-0.00194362042377429
1765409363.823319,-9.95732130218413,-0.04386112957050576,0.3000550324519361,-0.004373886947537177,-0.003442303406576893,-0.002084480811863891
1765409363.825309,-9.95491786623915,-0.04447034256393862,0.29870965112777215,-0.0043845294412196015,-0.00359911804108308,-0.0022193973868386506
1765409363.828285,-9.952149573637813,-0.04505918903430638,0.2969690493206303,-0.0044089837337247155,-0.003729012628154042,-0.00234481345018764
1765409363.830297,-9.949158590011912,-0.045623236537322254,0.29491930695022045,-0.0044411726494336355,-0.003830355775303308,-0.0024576103358070075
1765409363.833321,-9.946077109037056,-0.046157013024110086,0.2926517622617188,-0.004474826984933372,-0.0039024728928450563,-0.0025553619264370845
1765409363.835253,-9.943022205780405,-0.04665440157063918,0.2902603754662378,-0.004503983382850533,-0.003945710057142892,-0.0026365505593887433
1765409363.83835,-9.940093064665046,-0.04710894749244181,0.2878401913926473,-0.00452345196412442,-0.003961455987682915,-0.002700719222839474
1765409363.840331,-9.937370350788367,-0.04751393032740349,0.285486556612201,-0.00452921978452133,-0.003952118192615701,-0.0027485424182528894
1765409363.84331,-9.93491704102149,-0.04786219503969027,0.28329447669844454,-0.004518756749108643,-0.0039210458231614355,-0.0027818082878604323
1765409363.844287,-9.93277978549767,-0.04814589775031437,0.28135743306207495,-0.004491193624918234,-0.0038723926268524277,-0.002803316006633175
1765409363.848332,-9.93099001010309,-0.04835638701701187,0.2797652306364631,-0.0044473516780671315,-0.0038109223412956038,-0.00281670047380407
1765409363.850364,-9.92956438968101,-0.04848437966152728,0.278600827343762,-0.00438961891179407,-0.003741769148976344,-0.002826197995097042
1765409363.853322,-9.928504720389046,-0.04852045609006618,0.27793632374474697,-0.004321684321747206,-0.003670171282017313,-0.0028363648829242364
1765409363.855344,-9.927797445931617,-0.04845578263489617,0.2778283698071736,-0.004248155292372906,-0.0036011969828074106,-0.0028517614079090945
1765409363.858262,-9.927413226862255,-0.04828292861367754,0.2783133984001612,-0.004174093813194756,-0.0035394808772503156,-0.00287661840770672
1765409363.860365,-9.927307061848529,-0.0479966830454549,0.2794033859893649,-0.0041045163021878606,-0.003488985470267153,-0.002914510688726754
1765409363.863297,-9.927419486595193,-0.04759483264449941,0.28108304073049173,-0.004043908714999547,-0.0034527978819391954,-0.002968066642234407
1765409363.865274,-9.927679160974176,-0.04707887639764991,0.2833091507993729,-0.003995808915801764,-0.003432969710687048,-0.003038744593046967
1765409363.868307,-9.928006744232096,-0.04645461642301492,0.2860122729453294,-0.003962499445180481,-0.0034304098940356343,-0.003126701691354726
1765409363.870289,-9.928319572924204,-0.045732523775564235,0.28910030532173797,-0.0039448387488953685,-0.0034448429382712316,-0.0032307708408940584
1765409363.873318,-9.928536498986002,-0.044927770376648433,0.2924631484408514,-0.00394224248875647,-0.0034748417913632646,-0.0033485476367635567
1765409363.875337,-9.928582308311809,-0.04405985966534199,0.2959777268539826,-0.003952810962786851,-0.003517933209430544,-0.0034765758308618264
1765409363.878346,-9.928391279453942,-0.04315187995265968,0.29951291350016773,-0.003973583767086969,-0.003570757590538001,-0.0036106092047715455
1765409363.880323,-9.927909613819438,-0.04222951020932077,0.30293414879491015,-0.004000889638994297,-0.0036292544283045712,-0.003745921976698073
1765409363.883329,-9.927096750086003,-0.04131994857013614,0.3061077723796456,-0.0040307512019237,-0.003688846625292975,-0.003877639894461816
1765409363.885412,-9.925925922733684,-0.040450860928704584,0.308905307612549,-0.004059303323560629,-0.0037446099141102023,-0.00400106836743326
1765409363.888349,-9.924384496039877,-0.03964931578073761,0.3112079976159261,-0.004083188340501762,-0.0037914278344047037,-0.004111998426487372
1765409363.890386,-9.922474440907699,-0.03894059850368619,0.3129116716675302,-0.00409989735067605,-0.003824140582505122,-0.004206972814582466
1765409363.893289,-9.920212956279823,-0.03834686478313924,0.3139316968210672,-0.004108030677064179,-0.003837697167840707,-0.004283494044498358
1765409363.895247,-9.917632913436915,-0.0378857900740325,0.3142075661262916,-0.004107451671433731,-0.0038273181812495884,-0.0043401580704080555
1765409363.898353,-9.914782622642566,-0.037569578981498986,0.31370658205286195,-0.004099308597029627,-0.003788673532759887,-0.004376704348392859
1765409363.901343,-9.911724398628733,-0.03740471610786122,0.3124260591373882,-0.004085904015130137,-0.003718075372160067,-0.004393984113769684
1765409363.903274,-9.908531602673637,-0.03739255477008816,0.3103936248897935,-0.004070404539284969,-0.0036126806319215464,-0.004393858963171501
1765409363.90532,-9.905284296303368,-0.037530411387819235,0.30766562755259863,-0.004056407018754457,-0.0034706922997474717,-0.004379047075901834
1765409363.908306,-9.90206415570335,-0.03781262152112564,0.30432412094909433,-0.004047404753631531,-0.003291545561350999,-0.004352934311829954
1765409363.910341,-9.898949528125582,-0.038231211123769995,0.30047304308148737,-0.004046219967319511,-0.003076063129946842,-0.004319365683662061
1765409363.913341,-9.89601133227667,-0.03877621931528452,0.2962340126168822,-0.004054480271541624,-0.0028265622335805402,-0.004282432870256806
