time,acc_x_g,acc_y_g,acc_z_g,gyro_x_rad_s,gyro_y_rad_s,gyro_z_rad_s
1765409453.197752,1.842420,-0.043042,5.499760,0.008858,0.000611,-0.008552
1765409453.197952,-8.449306,-0.102224,5.839311,-0.009163,-0.007483,0.000458
1765409453.198152,-8.368004,-0.080703,5.607364,-0.008552,-0.006720,0.000916
1765409453.198352,-8.180894,-0.062171,5.386178,-0.007483,-0.006720,-0.001069
1765409453.198552,-8.220946,-0.088474,5.508130,-0.007483,-0.010079,-0.001069
1765409453.198748,-8.436154,-0.086083,5.815399,-0.009316,-0.010385,-0.002138
1765409453.198948,-8.292084,-0.082496,5.579268,-0.009010,-0.005192,0.001222
1765409453.199148,-8.088234,-0.107604,5.407699,-0.007330,-0.003360,-0.000305
1765409453.199348,-8.119320,-0.169775,5.746054,-0.009468,-0.011454,-0.004581
1765409453.199548,-8.164752,-0.181731,5.760401,-0.010079,-0.007330,-0.001527
1765409453.199733,-7.813246,-0.313247,5.309659,-0.009927,-0.000458,0.000611
1765409453.199983,-7.528694,-0.577475,5.231946,-0.003360,-0.000458,-0.001069
1765409453.200233,-7.582496,-0.557150,5.594213,-0.003360,-0.000916,-0.001069
1765409453.200483,-7.688904,-0.379005,5.613342,-0.009774,0.005956,-0.015272
1765409453.200671,-7.366092,-0.197274,5.292922,-0.001222,0.021686,-0.014661
1765409453.200871,-7.097082,-0.288737,5.272596,-0.001069,0.027184,-0.005956
1765409453.201071,-7.167622,-0.512912,5.543400,-0.005345,0.027184,-0.009927
1765409453.201271,-7.167622,-0.512912,5.543400,-0.005345,0.039554,-0.009927
1765409453.201471,-6.618842,-0.860234,5.013749,-0.006261,0.058796,-0.018326
1765409453.202434,-6.567431,-0.474653,5.365853,-0.004734,0.069486,-0.029169
1765409453.202684,-6.673840,-0.393352,5.686274,-0.011606,0.085674,-0.023671
1765409453.202934,-6.370157,-0.581062,5.280966,-0.019395,0.096059,-0.020769
1765409453.203184,-6.220109,-0.667743,5.217598,-0.022907,0.112094,-0.026725
1765409453.202752,-6.204567,-0.644428,5.596006,-0.025045,0.151189,-0.023518
1765409453.203002,-5.738880,-0.655787,5.807030,-0.031612,0.151189,-0.019090
1765409453.203252,-6.065876,-0.803443,5.659373,-0.041081,0.176998,-0.025504
1765409453.203502,-5.576278,-0.827355,5.368245,-0.043371,0.176998,-0.026114
1765409453.203663,-5.557149,-0.980392,5.198469,-0.043371,0.176540,-0.026114
1765409453.203913,-5.391558,-1.029412,5.076518,-0.051924,0.198073,-0.027947
1765409453.204163,-5.478240,-1.031803,5.328790,-0.054978,0.222050,-0.028405
1765409453.204413,-5.483022,-0.915830,5.748445,-0.044135,0.256716,-0.025198
1765409453.204699,-5.386776,-0.958871,5.560735,-0.053298,0.273057,-0.020922
1765409453.204949,-5.357484,-1.096365,5.291726,-0.062003,0.276875,-0.022602
1765409453.205199,-5.812410,-1.105930,5.595408,-0.060323,0.293063,-0.021380
1765409453.205449,-5.891917,-1.166906,5.844093,-0.062003,0.323606,-0.010690
1765409453.205669,-5.833930,-1.154352,5.761597,-0.066890,0.345139,-0.010690
1765409453.205919,-5.757412,-1.093974,5.526661,-0.070708,0.358731,-0.018631
1765409453.206169,-5.625298,-1.328312,5.389765,-0.073762,0.368810,-0.010690
1765409453.206419,-6.016259,-1.139407,5.676709,-0.067806,0.384845,-0.012370
1765409453.206659,-6.077234,-1.309182,5.760401,-0.077427,0.413861,-0.009163
1765409453.206909,-5.902678,-1.402439,5.422644,-0.077427,0.426231,-0.009163
1765409453.207159,-6.021042,-1.132831,5.475250,-0.080787,0.439670,-0.014813
1765409453.207409,-6.408416,-1.092181,5.926589,-0.084910,0.442266,-0.003054
1765409453.207702,-6.582974,-1.324725,5.414873,-0.095295,0.459829,-0.004887
1765409453.207952,-6.744380,-1.286466,5.665949,-0.087812,0.473879,-0.002596
1765409453.208202,-6.395265,-1.159732,5.264227,-0.088117,0.508698,0.001374
1765409453.208452,-6.768292,-1.205165,5.537422,-0.090561,0.500146,0.005345
1765409453.208658,-7.108440,-0.973218,5.841104,-0.092393,0.516945,0.001680
1765409453.208908,-6.924317,-1.194404,5.439382,-0.091935,0.529467,0.001680
1765409453.209158,-6.453849,-1.379722,4.483500,-0.102778,0.537561,0.017410
1765409453.209408,-7.167622,-1.058106,5.154232,-0.103847,0.533591,0.000305
1765409453.209711,-7.566953,-0.846485,5.670731,-0.103694,0.562454,0.013744
1765409453.209961,-7.140721,-0.755619,4.979674,-0.101098,0.567188,0.019853
1765409453.210211,-7.100071,-0.600789,4.595887,-0.121868,0.584598,0.013439
1765409453.210461,-7.050454,-0.686274,4.763271,-0.125227,0.583834,0.031460
1765409453.210743,-7.522716,-0.615734,5.179937,-0.116675,0.573602,0.032529
1765409453.210993,-7.472500,-0.417264,4.641319,-0.126907,0.596204,0.022755
1765409453.211243,-7.098278,-0.184122,4.135581,-0.145080,0.614683,0.033445
1765409453.211493,-7.341582,-0.147657,4.335844,-0.143095,0.600328,0.041233
1765409453.211756,-8.283116,-0.312052,5.515303,-0.158061,0.604909,0.036652
1765409453.212006,-8.249043,-0.039455,4.699904,-0.164323,0.627359,0.036652
1765409453.212256,-8.182089,0.411286,4.560019,-0.171959,0.630718,0.039248
1765409453.212506,-8.224533,0.329986,5.150645,-0.187688,0.629191,0.042455
1765409453.212687,-7.789334,0.321616,4.410569,-0.194561,0.641409,0.050244
1765409453.212937,-7.205881,0.101626,3.764945,-0.202655,0.645074,0.047495
1765409453.213187,-8.094213,0.668340,4.653275,-0.213039,0.640339,0.050855
1765409453.213437,-8.094213,0.232544,4.623983,-0.228922,0.654237,0.053909
1765409453.213735,-7.626733,0.857245,3.841463,-0.221439,0.671646,0.048258
1765409453.213985,-7.246531,0.669536,3.884504,-0.245721,0.673479,0.060170
1765409453.214235,-7.819224,0.913438,4.740554,-0.242208,0.673021,0.068111
1765409453.214485,-8.351266,0.563128,5.017335,-0.251982,0.673021,0.067042
1765409453.214734,-8.043997,0.647417,3.904830,-0.249386,0.685849,0.076511
1765409453.214984,-7.714011,0.362865,3.700382,-0.265574,0.680962,0.063835
1765409453.215234,-7.714011,0.362865,3.700382,-0.265574,0.669050,0.063835
1765409453.215484,-7.998564,1.178862,4.249163,-0.283289,0.686307,0.075595
1765409453.215694,-7.549616,1.064084,3.287302,-0.301004,0.684322,0.074220
1765409453.215944,-8.020683,0.943926,4.392634,-0.316734,0.693790,0.072998
1765409453.216194,-9.038138,1.306791,5.282161,-0.311389,0.687223,0.084452
1765409453.216444,-9.038138,1.306791,5.282161,-0.311389,0.690583,0.084452
1765409453.216680,-8.849234,1.271520,4.380678,-0.343306,0.706313,0.069333
1765409453.216930,-8.170133,1.309182,4.169057,-0.350789,0.706313,0.088270
1765409453.217180,-8.579626,1.347441,4.265901,-0.377973,0.687071,0.087812
1765409453.217430,-9.157698,1.690578,4.726207,-0.382096,0.684322,0.079107
1765409453.218669,-9.194164,1.490913,5.252271,-0.398131,0.696845,0.099571
1765409453.218919,-8.336919,1.024032,3.868962,-0.407905,0.696539,0.105985
1765409453.219169,-8.160568,1.058106,3.846245,-0.413556,0.696539,0.094073
1765409453.219419,-8.678861,0.839311,4.185796,-0.438754,0.686002,0.100335
1765409453.218716,-9.812290,1.363582,5.274987,-0.428522,0.669050,0.095142
1765409453.218966,-8.637014,1.068866,4.285628,-0.441656,0.698983,0.102473
1765409453.219216,-7.976446,0.889526,2.907700,-0.463341,0.674395,0.107054
1765409453.219466,-8.769129,0.680296,3.776303,-0.460134,0.674395,0.104000
1765409453.219695,-9.901959,0.769966,5.416069,-0.463952,0.682642,0.101709
1765409453.219945,-9.340028,1.251793,4.076996,-0.470214,0.704175,0.106749
1765409453.220195,-8.784073,0.750239,3.939502,-0.476628,0.704175,0.105222
1765409453.220445,-8.784073,0.750239,3.939502,-0.476628,0.672257,0.105222
1765409453.220690,-9.697512,0.991152,4.687350,-0.460134,0.653320,0.111025
1765409453.220940,-8.819942,0.633668,4.264706,-0.460134,0.681420,0.111025
1765409453.221190,-8.344092,1.036585,2.715208,-0.467006,0.658818,0.122173
1765409453.221440,-8.478598,0.623505,3.250837,-0.474337,0.658818,0.126449
1765409453.221654,-9.179817,1.060497,4.623385,-0.481515,0.663858,0.122020
1765409453.221904,-8.987326,0.805834,3.637015,-0.490525,0.676533,0.135154
1765409453.222154,-8.544355,0.885940,3.164156,-0.507934,0.668592,0.137139
1765409453.222404,-8.752988,0.610354,3.861788,-0.512974,0.677755,0.136987
1765409453.222770,-9.415948,1.113104,4.184600,-0.516945,0.667828,0.150426
1765409453.223020,-9.470347,0.447752,4.357364,-0.536645,0.656375,0.151342
1765409453.223270,-9.561213,0.700622,4.147537,-0.541837,0.682337,0.145997
1765409453.223520,-9.114058,0.748446,3.749402,-0.546419,0.682337,0.170126
1765409453.223680,-9.435676,0.365854,4.825442,-0.560011,0.663400,0.162643
1765409453.223930,-9.509803,0.502152,4.369918,-0.565967,0.676381,0.152411
1765409453.224180,-8.486369,0.919416,2.956719,-0.571617,0.693637,0.178678
1765409453.224430,-8.779291,0.188905,3.787661,-0.587500,0.658665,0.187230
1765409453.224686,-9.934838,0.696437,5.006575,-0.586125,0.657138,0.175318
1765409453.224936,-9.354973,-0.193687,4.181611,-0.599564,0.689056,0.191506
1765409453.225186,-8.204805,-0.182927,3.046389,-0.587194,0.689056,0.197309
1765409453.225436,-9.246771,0.008967,4.336442,-0.592234,0.651182,0.189826
1765409453.225687,-10.639645,-0.255858,5.925992,-0.610102,0.667065,0.184634
1765409453.225937,-9.742945,-0.176949,4.528933,-0.589027,0.699899,0.199600
1765409453.226187,-9.742945,-0.176949,4.528933,-0.589027,0.666454,0.199600
1765409453.226437,-8.785269,-0.710784,4.361549,-0.591470,0.667218,0.194408
1765409453.226711,-9.253346,-0.013152,4.175633,-0.572381,0.667218,0.184787
1765409453.226961,-8.635221,0.007174,3.363821,-0.581696,0.653473,0.202655
1765409453.227211,-9.142754,-0.010163,3.800812,-0.587805,0.653473,0.203113
1765409453.227461,-9.778812,-0.010163,4.940219,-0.587805,0.667065,0.203113
1765409453.227800,-9.131993,0.911047,3.736250,-0.591165,0.688751,0.204029
1765409453.228133,-9.253346,0.455524,3.677666,-0.620486,0.665538,0.213650
1765409453.228467,-10.541606,1.093974,5.552367,-0.614683,0.644921,0.196699
1765409453.228807,-9.809898,0.756815,4.675992,-0.641561,0.693790,0.212887
1765409453.229057,-8.613103,0.981588,2.997369,-0.647670,0.681115,0.222355
1765409453.229307,-9.177425,1.227283,4.017216,-0.656222,0.650419,0.219301
1765409453.229557,-10.192491,0.527260,5.170970,-0.680046,0.656833,0.232892
1765409453.229783,-8.737445,0.830942,3.114538,-0.663247,0.690278,0.237932
1765409453.230033,-8.599951,0.864419,3.151602,-0.686613,0.678366,0.232892
1765409453.230283,-9.867287,0.717360,4.935437,-0.712574,0.659734,0.229838
1765409453.230533,-9.998802,0.877571,4.687948,-0.691805,0.667065,0.244652
1765409453.230720,-8.493543,0.253467,2.944763,-0.710742,0.691347,0.246026
1765409453.230970,-8.451697,0.392157,2.923840,-0.723417,0.679893,0.235030
1765409453.231220,-9.713055,0.385581,4.772835,-0.713338,0.670119,0.237474
1765409453.231470,-10.334169,0.273792,5.035270,-0.720668,0.680962,0.241139
1765409453.231717,-9.549257,0.282759,3.951458,-0.724639,0.700662,0.231976
1765409453.231967,-9.264705,0.419656,4.375896,-0.711505,0.694859,0.228005
1765409453.232217,-8.993303,0.364060,3.374581,-0.706466,0.673937,0.244652
1765409453.232467,-8.522237,0.801052,2.837159,-0.698830,0.649961,0.235641
1765409453.232685,-8.942491,1.120875,3.790650,-0.720974,0.688598,0.218079
1765409453.232935,-8.342897,1.223697,2.999760,-0.710894,0.688445,0.249844
1765409453.233185,-7.691295,0.640244,2.340985,-0.731664,0.688445,0.259465
1765409453.233435,-8.901242,1.260760,3.283118,-0.735634,0.662331,0.235794
1765409453.233709,-9.605451,0.681492,4.137972,-0.760527,0.695470,0.249080
1765409453.233959,-8.699784,0.694644,3.116332,-0.738078,0.695165,0.270002
1765409453.234209,-8.673480,0.506337,2.702654,-0.766330,0.695012,0.243124
1765409453.234459,-9.384863,0.471664,3.809182,-0.775493,0.683405,0.253509
1765409453.234697,-9.760879,0.554758,3.931133,-0.756862,0.685238,0.263436
1765409453.234947,-9.630558,0.250478,3.646580,-0.787253,0.678519,0.253814
1765409453.235197,-9.218077,0.147059,3.302845,-0.798095,0.694706,0.250302
1765409453.235447,-9.210902,0.084888,3.183285,-0.789543,0.667523,0.257632
1765409453.235767,-9.172644,0.045433,3.525825,-0.797943,0.667523,0.257938
1765409453.236017,-9.433285,-0.211621,3.422405,-0.806037,0.689361,0.248011
1765409453.236267,-9.214490,0.350311,2.680535,-0.802830,0.695776,0.259923
1765409453.236517,-9.200143,0.480033,3.008130,-0.806342,0.668439,0.260381
1765409453.236703,-9.654470,0.303085,3.829507,-0.816880,0.684474,0.260687
1765409453.236953,-8.779291,0.408895,2.194524,-0.817338,0.711200,0.276264
1765409453.237203,-8.742228,0.246891,2.452176,-0.822683,0.692721,0.273668
1765409453.237453,-9.647895,0.450143,4.282042,-0.815963,0.684780,0.271224
1765409453.237678,-9.800333,0.069943,3.786465,-0.822530,0.704480,0.282220
1765409453.238011,-8.782878,-0.155428,1.972142,-0.818712,0.705091,0.282525
1765409453.238345,-9.497847,-0.022119,2.910090,-0.825890,0.675770,0.270155
1765409453.239767,-10.425035,0.258250,4.862505,-0.825890,0.675006,0.270155
1765409453.240017,-9.934240,-0.069345,4.121233,-0.835053,0.700357,0.273209
1765409453.240267,-8.555714,-0.376016,2.367886,-0.840092,0.700357,0.275195
1765409453.240517,-8.555714,-0.376016,2.367886,-0.840092,0.664316,0.275195
1765409453.239826,-10.742467,0.050813,4.637135,-0.840398,0.662331,0.270002
1765409453.240076,-9.735771,0.093257,3.479196,-0.841314,0.683711,0.278402
1765409453.240326,-8.651959,0.616930,2.323051,-0.855364,0.675006,0.261450
1765409453.240576,-8.992705,0.777140,3.346484,-0.866971,0.675006,0.271682
1765409453.240776,-9.534910,0.965447,3.443328,-0.864374,0.657291,0.291230
1765409453.241026,-8.741032,0.338953,2.076757,-0.877202,0.670730,0.286038
1765409453.241276,-8.415829,0.631277,2.160449,-0.888351,0.684016,0.287565
1765409453.241526,-9.756096,0.604974,3.468436,-0.890794,0.663094,0.294742
1765409453.241674,-9.917501,0.034672,3.971185,-0.901943,0.666454,0.290008
1765409453.241924,-9.348994,-0.159015,2.580105,-0.902859,0.679893,0.284205
1765409453.242174,-9.317909,0.240316,2.582496,-0.904081,0.650113,0.281151
1765409453.242424,-9.935436,-0.405308,4.298182,-0.916451,0.650113,0.282372
1765409453.242666,-10.084887,0.081301,3.651363,-0.916451,0.640645,0.282372
1765409453.242916,-8.619081,-0.336561,2.083931,-0.920421,0.665232,0.262367
1765409453.243166,-7.817431,-0.249880,1.885461,-0.904386,0.673479,0.277486
1765409453.243416,-8.651361,0.208034,2.313486,-0.879951,0.637896,0.278555
1765409453.243788,-9.452414,0.339550,3.540172,-0.898125,0.626137,0.258549
1765409453.244038,-9.452414,0.339550,3.540172,-0.898125,0.663247,0.258549
1765409453.244288,-8.241869,0.635461,1.264945,-0.877202,0.673021,0.296575
1765409453.244538,-8.613103,-0.051411,2.152080,-0.907746,0.635300,0.288328
1765409453.244738,-10.169774,0.514108,3.717718,-0.894918,0.651030,0.278402
1765409453.244988,-10.608559,0.002391,4.258130,-0.898430,0.671646,0.292299
1765409453.245238,-10.608559,0.002391,4.258130,-0.898430,0.671188,0.292299
1765409453.245488,-8.865375,-0.406504,2.260282,-0.914465,0.663400,0.277944
1765409453.245813,-9.634145,-0.700622,3.237685,-0.911411,0.648433,0.280082
1765409453.246063,-9.716641,-0.776542,3.877331,-0.901179,0.670119,0.267712
1765409453.246313,-9.233619,-0.508130,2.611190,-0.906982,0.670119,0.260381
1765409453.246563,-8.897655,-0.247489,1.867527,-0.914618,0.664927,0.267254
1765409453.246689,-10.270204,-0.323410,3.857006,-0.907898,0.637438,0.270002
1765409453.246939,-10.321615,0.133907,3.743424,-0.902706,0.664010,0.265115
1765409453.247189,-9.241988,0.056193,2.045672,-0.932638,0.668287,0.272599
1765409453.247439,-9.425512,0.053802,2.373266,-0.928973,0.668287,0.285427
1765409453.247685,-10.441773,-0.103419,4.472740,-0.914923,0.642019,0.288176
1765409453.248018,-9.806910,-0.539216,3.040411,-0.924850,0.690125,0.286496
1765409453.248352,-8.680057,-0.665949,1.235055,-0.920879,0.690125,0.285427
1765409453.248682,-8.680057,-0.665949,1.235055,-0.920879,0.671799,0.285427
1765409453.248932,-10.485414,-1.258967,4.433285,-0.910189,0.649961,0.279318
1765409453.249182,-10.093256,-1.098756,3.479196,-0.902401,0.699593,0.258396
1765409453.249432,-8.385341,-1.105930,1.417982,-0.899957,0.705702,0.262825
1765409453.249764,-9.543280,-0.688666,2.845528,-0.890489,0.649961,0.257938
1765409453.250014,-10.894308,-0.746054,4.432089,-0.876286,0.652404,0.255647
1765409453.250264,-9.393829,-0.785509,1.815519,-0.882395,0.693027,0.259007
1765409453.250514,-9.020802,-0.008369,1.318149,-0.887129,0.672104,0.243735
1765409453.250656,-11.290051,0.728718,4.702295,-0.885296,0.654084,0.245110
1765409453.250906,-10.836322,0.270803,4.025586,-0.892321,0.677755,0.282220
1765409453.251156,-8.914394,-0.356289,0.715567,-0.898277,0.685238,0.282372
1765409453.251406,-8.311213,-0.300096,1.236848,-0.897361,0.675006,0.268170
1765409453.251660,-10.013150,-0.664754,3.579626,-0.911869,0.649502,0.278860
1765409453.251910,-9.818865,-0.527260,2.460545,-0.893696,0.705855,0.263436
1765409453.252160,-8.655546,-0.624701,1.347441,-0.913091,0.705855,0.256869
1765409453.252410,-8.633428,-0.871592,1.256576,-0.909884,0.671341,0.265421
1765409453.252681,-10.389765,-0.839311,3.546747,-0.889420,0.643394,0.251371
1765409453.253014,-10.176947,-0.970827,3.280726,-0.907135,0.677908,0.241903
1765409453.253348,-9.650286,-0.912243,2.023553,-0.899804,0.701731,0.233045
1765409453.253676,-9.236010,-0.610354,2.176590,-0.876133,0.696997,0.239612
1765409453.253926,-10.145862,-0.089670,3.230511,-0.890031,0.657902,0.236558
1765409453.254176,-10.789094,0.454328,3.668101,-0.895987,0.664469,0.224340
1765409453.254426,-10.789094,0.454328,2.469512,-0.895987,0.702037,0.224340
1765409453.254690,-8.614299,-0.167982,0.857843,-0.899041,0.685849,0.271835
1765409453.254940,-10.243901,-0.606169,3.214968,-0.895528,0.644157,0.252593
1765409453.255190,-10.847081,-0.600191,4.194763,-0.885449,0.672868,0.240375
1765409453.255440,-9.693925,-0.642037,2.118006,-0.864985,0.697455,0.250607
1765409453.255652,-8.139645,-1.207556,0.675514,-0.865138,0.684016,0.243277
1765409453.255902,-9.448828,-0.520086,2.154471,-0.861931,0.645837,0.226936
1765409453.256152,-10.715566,-1.083214,3.637015,-0.857197,0.653931,0.231060
1765409453.256402,-9.934240,-0.928981,2.666786,-0.842383,0.683253,0.227242
1765409453.256663,-8.932328,-0.830344,1.268532,-0.846965,0.689514,0.218079
1765409453.256913,-10.092059,-0.882951,2.715208,-0.853990,0.657291,0.217773
1765409453.257163,-11.183643,-0.929579,4.141558,-0.822683,0.662178,0.223271
1765409453.257413,-10.243901,-0.775347,2.252511,-0.824515,0.688140,0.219911
1765409453.257647,-9.567192,-0.105213,1.492109,-0.839176,0.689667,0.211665
1765409453.257980,-10.719750,-0.125538,3.433165,-0.834747,0.660498,0.228922
1765409453.258314,-11.079625,-0.471066,3.573648,-0.819934,0.660498,0.255647
1765409453.258656,-9.682567,-1.498087,2.210665,-0.841161,0.676686,0.234725
1765409453.258906,-8.912003,-0.649211,0.956480,-0.840092,0.688903,0.212276
1765409453.259156,-9.665230,-0.723338,2.458153,-0.830471,0.649502,0.236558
1765409453.259406,-10.144069,-1.760521,3.299856,-0.838107,0.635605,0.228616
1765409453.259664,-9.467957,-0.696437,1.046150,-0.824668,0.686460,0.198837
1765409453.259914,-8.122907,-1.336083,0.742468,-0.825890,0.701426,0.227242
1765409453.260164,-9.072810,-1.434720,1.857962,-0.807411,0.644768,0.225257
1765409453.260414,-10.093256,-1.244620,2.828192,-0.803135,0.662025,0.197615
1765409453.260734,-8.678263,-1.478957,1.016858,-0.800692,0.709978,0.204945
1765409453.260984,-8.145623,-0.931372,-0.022716,-0.764803,0.704633,0.215177
1765409453.261234,-9.424915,-1.398254,2.928025,-0.766330,0.675159,0.213650
1765409453.261484,-10.795072,-1.032401,3.529412,-0.756098,0.716239,0.202960
1765409453.261702,-9.811094,-0.670732,1.796987,-0.746783,0.716239,0.200517
1765409453.262035,-9.811094,-0.670732,1.796987,-0.746783,0.705549,0.200517
1765409453.262369,-10.074724,-0.605571,2.887972,-0.748921,0.676991,0.216399
1765409453.262672,-9.936033,-1.047346,2.801889,-0.749837,0.682947,0.206320
1765409453.262922,-8.316594,-0.516499,0.632472,-0.748463,0.707382,0.200364
1765409453.263172,-8.807985,-0.591822,1.119082,-0.747088,0.680657,0.204487
1765409453.263422,-8.807985,-0.591822,1.119082,-0.747088,0.661414,0.204487
1765409453.263642,-9.656861,-0.833931,1.948828,-0.748157,0.700968,0.197920
1765409453.263892,-8.797225,-0.963056,0.719751,-0.736093,0.700968,0.199753
1765409453.264142,-9.346005,-0.673721,1.581181,-0.743881,0.693332,0.188757
1765409453.264392,-10.645622,-0.740076,2.967479,-0.734260,0.671341,0.191048
1765409453.264637,-10.178144,-1.040172,2.864658,-0.740980,0.711353,0.188910
1765409453.264887,-9.075800,-1.034194,0.975012,-0.729984,0.722501,0.195630
1765409453.265137,-9.663438,-1.325920,1.438905,-0.735329,0.681115,0.194255
1765409453.265387,-11.220706,-0.602582,3.381157,-0.711200,0.656069,0.181885
1765409453.265672,-11.013868,-1.251793,3.372788,-0.718072,0.705091,0.184176
1765409453.265922,-8.923959,-1.428144,0.596604,-0.706924,0.708145,0.193492
1765409453.266172,-9.562408,-0.923003,1.161525,-0.699899,0.659734,0.173486
1765409453.266422,-11.172882,-0.429220,3.487565,-0.704480,0.653779,0.164017
1765409453.266645,-10.903275,-0.761597,2.724772,-0.688445,0.690583,0.182649
1765409453.266978,-8.736250,-0.822573,0.254663,-0.667981,0.670730,0.183565
1765409453.267312,-9.484695,-0.873984,0.986968,-0.678213,0.670730,0.171500
1765409453.267683,-10.960065,-0.598398,3.230511,-0.643088,0.646295,0.181427
1765409453.267933,-10.487803,-0.889526,2.542444,-0.649502,0.686460,0.172264
1765409453.268183,-8.913198,-0.621712,0.000000,-0.649502,0.702953,0.172264
1765409453.268433,-8.711143,-1.258967,0.502152,-0.650724,0.682031,0.178831
1765409453.268654,-10.844690,-0.560139,2.763629,-0.625526,0.644616,0.171500
1765409453.268904,-10.793877,-1.035390,2.656623,-0.639118,0.684780,0.170126
1765409453.269154,-8.989717,-0.811812,0.145863,-0.634231,0.715476,0.169973
1765409453.269404,-8.603538,-0.927786,-0.170971,-0.629191,0.692721,0.173791
1765409453.269711,-10.441175,-1.238642,2.754663,-0.617737,0.682031,0.187688
1765409453.269961,-11.209946,-1.397059,2.725968,-0.613461,0.682031,0.171500
1765409453.270211,-11.209946,-1.397059,2.725968,-0.613461,0.719905,0.171500
1765409453.270461,-9.059061,-1.686992,0.545194,-0.600633,0.691805,0.182343
1765409453.270747,-10.763391,-1.438307,2.919058,-0.582765,0.646143,0.169821
1765409453.271080,-10.812408,-1.293041,2.548421,-0.589027,0.677602,0.163712
1765409453.271414,-8.469630,-2.049258,-0.669536,-0.572686,0.704328,0.174402
1765409453.271711,-8.295074,-1.234457,-0.652200,-0.560469,0.672257,0.157756
1765409453.271961,-10.701219,-1.073649,2.643472,-0.560011,0.660803,0.149509
1765409453.272211,-11.105929,-0.921808,2.884983,-0.544281,0.701273,0.161421
1765409453.272461,-9.494260,-0.813008,-0.000598,-0.550848,0.710894,0.158672
1765409453.272687,-9.697512,-0.689861,0.783118,-0.550848,0.682031,0.158672
1765409453.272937,-11.184839,-0.924797,2.653037,-0.529315,0.668897,0.166461
1765409453.273187,-11.102342,-0.917025,2.318269,-0.527940,0.696997,0.159589
1765409453.273437,-9.560018,-0.738881,0.392157,-0.518166,0.726013,0.159741
1765409453.273742,-9.629362,-0.619321,1.407221,-0.505338,0.684016,0.167530
1765409453.273992,-10.188903,-0.956480,2.138928,-0.517403,0.650572,0.160963
1765409453.274242,-10.212815,-0.630081,1.385700,-0.507171,0.678671,0.154091
1765409453.274492,-8.802606,-0.616332,-0.359876,-0.500299,0.706466,0.163406
1765409453.274725,-9.264705,-0.675514,0.600191,-0.505796,0.659734,0.169973
1765409453.275058,-10.338950,-0.845887,1.974533,-0.496939,0.664927,0.156687
1765409453.275392,-9.491868,-0.807030,0.767575,-0.493274,0.698830,0.165392
1765409453.275757,-9.044714,-0.754424,-0.538020,-0.494954,0.695623,0.164475
1765409453.276007,-10.142276,-0.826160,1.477164,-0.493121,0.676839,0.158978
1765409453.276257,-11.177665,-0.805834,2.629722,-0.491136,0.679435,0.160810
1765409453.276507,-9.829626,-1.075442,1.117886,-0.478155,0.709215,0.155312
1765409453.276711,-7.803682,-1.215925,-1.405428,-0.483805,0.712727,0.156076
1765409453.276961,-9.641318,-0.387374,0.462697,-0.471588,0.671494,0.148135
1765409453.277211,-10.978598,-1.063486,2.629124,-0.461051,0.704786,0.159741
1765409453.277461,-10.025107,-1.073649,0.813606,-0.447001,0.704786,0.161421
1765409453.277730,-9.206120,-1.192611,0.015543,-0.450513,0.716087,0.136681
1765409453.277980,-10.046627,-0.863821,1.445480,-0.437838,0.685391,0.153480
1765409453.278230,-10.046627,-0.863821,1.445480,-0.437838,0.647823,0.153480
1765409453.278480,-10.842896,-1.046748,1.799378,-0.426842,0.672104,0.135307
1765409453.278746,-9.701099,-0.811812,0.303682,-0.421650,0.707077,0.139430
1765409453.278996,-9.607842,-0.726925,0.068149,-0.375988,0.658513,0.160199
1765409453.279246,-10.689261,-1.220708,1.944046,-0.385151,0.630871,0.144317
1765409453.279496,-11.183643,-0.533238,1.758728,-0.353233,0.666454,0.143095
1765409453.279710,-9.864299,-1.236250,-0.057987,-0.344223,0.629802,0.156229
1765409453.280043,-10.182925,-0.628886,0.434601,-0.337045,0.629802,0.144317
1765409453.280377,-11.654112,-0.593018,2.247728,-0.336892,0.630718,0.140499
1765409453.280728,-11.348636,-1.134624,1.566236,-0.324522,0.648128,0.148593
1765409453.280978,-10.620514,-0.680894,-0.383190,-0.315970,0.665080,0.149051
1765409453.281228,-11.368961,-0.851267,1.384505,-0.311389,0.625831,0.156992
1765409453.281478,-12.427665,-1.089789,3.105571,-0.305280,0.625831,0.152716
1765409453.281719,-12.277617,-0.644428,2.037302,-0.277486,0.641256,0.153633
1765409453.281969,-10.419655,-1.180057,-0.474055,-0.288939,0.649808,0.161268
1765409453.282219,-10.847081,-0.868006,0.217599,-0.269086,0.602619,0.160963
1765409453.282469,-12.528692,-0.985174,3.041009,-0.249233,0.595594,0.162185
1765409453.282719,-11.664871,-1.252989,1.354615,-0.255342,0.612698,0.160810
1765409453.282969,-10.243901,-0.756815,-0.992348,-0.247859,0.609185,0.156076
1765409453.283219,-10.783714,-0.816595,0.516499,-0.237627,0.560927,0.155312
1765409453.283469,-11.423958,-0.933764,1.555476,-0.216704,0.560927,0.162643
1765409453.283740,-11.423958,-0.933764,1.555476,-0.216704,0.592692,0.162643
1765409453.283990,-9.857722,-0.417264,-0.833931,-0.216704,0.596052,0.151800
1765409453.284240,-10.881156,-0.535031,0.585844,-0.216704,0.550848,0.151800
1765409453.284490,-11.560257,-0.437590,1.138211,-0.187688,0.545961,0.149662
1765409453.284720,-10.565517,-0.224773,-0.369440,-0.180511,0.594983,0.145691
1765409453.284970,-9.727402,-0.441176,-0.777140,-0.171500,0.572075,0.151495
1765409453.285220,-11.400046,-0.281564,1.456241,-0.161268,0.534660,0.134849
1765409453.285470,-12.158056,0.167384,1.622429,-0.144164,0.552986,0.129045
1765409453.285721,-11.416785,0.339550,0.664754,-0.134696,0.560163,0.145997
1765409453.285971,-11.470587,0.224773,1.170492,-0.137445,0.535271,0.136223
1765409453.286221,-11.538138,0.127929,1.055715,-0.132405,0.524275,0.132558
1765409453.286471,-11.367765,0.133907,0.766977,-0.118661,0.511752,0.131031
1765409453.286738,-11.229673,0.294118,0.576279,-0.114079,0.511752,0.114079
1765409453.286988,-11.367765,0.703013,0.876375,-0.107970,0.505949,0.116675
1765409453.287238,-11.628407,0.438785,1.145983,-0.099418,0.489608,0.118508
1765409453.287488,-11.589549,0.449546,0.979794,-0.096059,0.477849,0.113316
1765409453.287724,-11.407818,0.243902,0.390363,-0.094684,0.469450,0.107818
1765409453.287974,-11.660686,0.539216,0.690459,-0.084758,0.460134,0.097891
1765409453.288224,-11.837636,0.708991,1.333094,-0.073457,0.448528,0.093615
1765409453.288474,-11.611668,0.666547,0.781922,-0.078649,0.445168,0.089186
1765409453.288723,-11.334289,0.723338,0.449546,-0.072082,0.431271,0.083383
1765409453.288923,-11.548898,0.661167,0.597800,-0.070555,0.385303,0.088575
1765409453.289123,-11.820897,0.499761,0.688666,-0.066890,0.385303,0.074526
1765409453.289323,-11.820897,0.499761,0.688666,-0.066890,0.382707,0.074526
1765409453.289523,-11.804159,0.785509,0.610952,-0.065973,0.373391,0.063988
1765409453.289782,-11.667861,0.767575,0.484816,-0.060170,0.360869,0.062003
1765409453.290032,-11.886657,0.592420,0.510521,-0.052229,0.321315,0.061239
1765409453.290282,-11.664274,0.643831,-0.027499,-0.058948,0.317803,0.041997
1765409453.290532,-11.807746,0.710186,0.147657,-0.043066,0.295506,0.042913
1765409453.290719,-11.944045,0.747250,0.572095,-0.040928,0.285732,0.038943
1765409453.290969,-12.226207,0.819584,0.601387,-0.043982,0.255189,0.029169
1765409453.291219,-11.854374,0.729914,-0.101626,-0.043219,0.255189,0.032070
1765409453.291469,-11.747369,0.637853,-0.160210,-0.029932,0.230143,0.025656
1765409453.291710,-11.906981,0.674318,0.429220,-0.036041,0.218995,0.022144
1765409453.291960,-12.296746,0.858441,0.767575,-0.037568,0.197768,0.012370
1765409453.292210,-11.899208,0.679101,0.078910,-0.040928,0.186314,0.013897
1765409453.292460,-11.899208,0.679101,0.078910,-0.040928,0.155771,0.013897
1765409453.292733,-11.893828,0.463295,0.274988,-0.035277,0.152869,-0.000153
1765409453.292933,-11.740194,0.454328,0.374223,-0.027947,0.148135,0.003512
1765409453.293133,-11.718077,0.573888,0.245098,-0.025504,0.120035,-0.008247
1765409453.293333,-11.677425,0.691057,0.185318,-0.029322,0.101709,-0.011912
1765409453.293533,-11.660686,0.377810,0.387374,-0.027031,0.084605,0.000916
1765409453.293749,-11.520205,0.188905,0.324605,-0.022602,0.069180,-0.003971
1765409453.293999,-11.539932,0.240316,0.450741,-0.024893,0.057421,-0.012523
1765409453.294249,-11.352222,0.282759,0.174558,-0.029932,0.040775,-0.018631
1765409453.294499,-11.157340,0.341942,-0.078312,-0.029780,0.020617,-0.020006
1765409453.294689,-11.031800,0.352702,0.054400,-0.026420,0.017257,-0.021228
1765409453.294889,-10.985173,0.355093,0.057987,-0.027184,0.010232,-0.022602
1765409453.295089,-10.881754,0.264825,0.336561,-0.032529,-0.001374,-0.023213
1765409453.295289,-10.866210,0.358082,0.396939,-0.030085,-0.007178,-0.022297
1765409453.295489,-10.590626,0.243305,0.170971,-0.028711,-0.007178,-0.016493
1765409453.295713,-10.355091,0.259445,0.108800,-0.027336,-0.020311,-0.019242
1765409453.295963,-10.338950,0.193089,0.326399,-0.023213,-0.023366,-0.013134
1765409453.296213,-10.153036,0.053204,0.445959,-0.025045,-0.023213,-0.006109
1765409453.296463,-9.717837,-0.071736,0.071736,-0.023213,-0.028863,-0.008705
1765409453.296647,-9.636537,-0.121951,0.121951,-0.024435,-0.028863,-0.011454
1765409453.296847,-9.868484,-0.235533,0.367049,-0.019242,-0.029474,-0.008247
1765409453.297047,-9.943806,-0.298900,0.607365,-0.017104,-0.027184,-0.006414
1765409453.297247,-9.857125,-0.259445,0.582257,-0.016493,-0.019853,-0.011148
1765409453.297447,-9.713055,-0.211621,0.534433,-0.017562,-0.020769,-0.008094
1765409453.297667,-9.883428,-0.265423,0.630081,-0.017104,-0.035430,-0.008399
1765409453.297917,-9.928263,-0.197274,0.671927,-0.014813,-0.027947,-0.007025
1765409453.298167,-9.679578,-0.264825,0.492587,-0.012065,-0.017868,-0.005192
1765409453.298417,-9.627569,-0.309660,0.548780,-0.015424,-0.020311,-0.006720
1765409453.298674,-9.900764,-0.126734,0.862028,-0.014661,-0.027336,-0.007178
1765409453.298874,-9.884026,-0.050215,0.705404,-0.012675,-0.016035,-0.002902
1765409453.299074,-9.581538,-0.308465,0.380201,-0.012217,-0.014050,0.002749
1765409453.299274,-9.516378,-0.487207,0.384983,-0.014050,-0.016646,-0.002902
1765409453.299474,-9.689142,-0.370636,0.604376,-0.013744,-0.016646,-0.007025
1765409453.299665,-9.689142,-0.370636,0.604376,-0.013744,-0.013592,-0.007025
1765409453.299865,-9.555235,-0.163797,0.249880,-0.008247,-0.005192,0.000611
1765409453.300065,-9.611428,-0.332377,0.416069,-0.008247,-0.008705,0.000611
1765409453.300265,-9.698110,-0.413080,0.432209,-0.002443,-0.000916,0.002291
1765409453.300465,-9.673002,-0.255858,0.293520,-0.001985,-0.000916,-0.001527
1765409453.300660,-9.673002,-0.255858,0.293520,-0.001985,0.004123,-0.001527
1765409453.300860,-9.762074,-0.089670,0.474653,-0.001985,0.000764,0.005345
1765409453.301060,-9.819464,-0.129125,0.502750,-0.002443,-0.000611,0.005345
1765409453.301260,-9.721423,-0.157819,0.252869,-0.000305,0.003512,0.006414
1765409453.301460,-9.688545,-0.259445,0.178742,0.002291,0.003512,0.006872
1765409453.301646,-9.878048,-0.167982,0.423242,0.001680,0.001833,0.000916
1765409453.301846,-10.022716,0.013152,0.508130,0.002443,0.010537,0.001527
1765409453.302046,-9.933045,0.107604,0.437590,-0.003971,0.010537,0.003207
1765409453.302246,-9.924078,0.075323,0.368245,-0.001527,0.010079,0.006567
1765409453.302446,-10.112983,0.031683,0.607365,-0.001222,0.005040,0.008552
1765409453.302685,-10.133906,0.017934,0.560736,-0.001680,0.005345,0.008247
1765409453.302885,-9.898971,0.015543,0.286944,-0.001985,0.005803,0.006261
1765409453.303085,-9.852941,-0.007174,0.290531,-0.003971,0.005803,0.005345
1765409453.303285,-9.852941,-0.007174,0.290531,-0.003971,0.000916,0.005345
1765409453.303485,-10.028693,0.017934,0.331779,-0.002138,0.006720,0.006261
1765409453.303686,-9.916306,0.041248,0.248685,-0.002443,0.010232,0.001985
1765409453.303886,-9.968913,0.013749,0.334768,-0.003818,0.002291,0.002138
1765409453.304086,-10.033475,0.019727,0.346724,-0.001680,-0.002138,0.003971
1765409453.304286,-10.033475,0.019727,0.346724,-0.001680,0.005498,0.003971
1765409453.304486,-9.858918,0.047226,0.192492,-0.002138,0.003360,0.001069
1765409453.304647,-9.942013,0.096844,0.269010,-0.003818,0.003360,-0.001985
1765409453.304847,-10.105211,0.165591,0.304280,-0.004887,0.003971,0.000458
1765409453.305047,-10.051410,0.174558,0.277379,-0.003665,0.003971,0.000000
1765409453.305247,-9.945600,0.095050,0.196676,-0.003665,0.005498,0.000000
1765409453.305447,-9.989238,0.133907,0.312052,-0.007178,0.002902,-0.000305
1765409453.305737,-10.056191,0.200861,0.196078,-0.007178,0.002443,-0.002902
1765409453.305937,-9.973696,0.141081,0.169775,-0.008399,0.000305,-0.000458
1765409453.306137,-10.040051,0.064562,0.272597,-0.009774,0.000305,-0.000611
1765409453.306337,-10.137493,0.117169,0.369440,-0.009621,-0.000305,-0.001833
1765409453.306537,-10.156623,0.121951,0.204448,-0.010843,-0.002902,-0.003971
1765409453.306717,-10.063964,0.084290,0.217599,-0.012828,-0.001222,-0.002291
1765409453.306917,-10.114776,0.031086,0.328790,-0.011606,-0.003054,-0.001069
1765409453.307117,-10.122547,0.060378,0.345528,-0.008552,-0.004276,-0.003512
1765409453.307317,-10.031085,0.062171,0.176949,-0.009010,-0.001527,-0.004887
1765409453.307517,-10.008368,-0.014347,0.225371,-0.011301,-0.005040,-0.001833
1765409453.307694,-10.223577,-0.001196,0.453132,-0.012675,-0.005040,-0.004429
1765409453.307894,-10.277976,-0.001196,0.493783,-0.012675,-0.006872,-0.004429
1765409453.308094,-10.124342,-0.021521,0.294715,-0.011454,-0.005192,-0.003818
1765409453.308294,-10.064561,-0.044237,0.335964,-0.012370,-0.007025,-0.001985
1765409453.308494,-10.217599,-0.039455,0.492587,-0.010996,-0.016493,-0.003360
1765409453.308691,-10.140482,-0.071736,0.410091,-0.012675,-0.011301,-0.004276
1765409453.308891,-9.980869,-0.103419,0.276781,-0.007636,-0.008552,-0.002902
1765409453.309091,-9.958152,-0.124940,0.325203,-0.010079,-0.013592,-0.007330
1765409453.309291,-10.133906,-0.090866,0.589431,-0.009621,-0.017868,-0.005345
1765409453.309491,-9.985652,-0.076518,0.331181,-0.008705,-0.013592,-0.003207
1765409453.309749,-9.788378,-0.090866,0.131516,-0.009621,-0.012523,-0.001985
1765409453.309949,-9.777617,-0.128527,0.257054,-0.007941,-0.013592,-0.001527
1765409453.310149,-9.935436,-0.099235,0.410091,-0.010385,-0.017410,-0.002596
1765409453.310349,-9.848158,-0.052606,0.275586,-0.006567,-0.012675,-0.005803
1765409453.310549,-9.736967,-0.083094,0.194883,-0.008247,-0.010690,-0.004276
1765409453.310729,-9.801530,-0.069943,0.292922,-0.009010,-0.012828,-0.002291
1765409453.310979,-9.846365,-0.040650,0.316834,-0.008094,-0.014661,0.000000
1765409453.311229,-9.745336,-0.038259,0.151841,-0.004276,-0.009927,-0.002291
1765409453.311479,-9.710664,-0.145265,0.212817,-0.011606,-0.009774,0.001833
1765409453.311708,-9.869678,-0.191296,0.379603,-0.008705,-0.010690,-0.000916
1765409453.311908,-10.022716,-0.061573,0.480033,-0.007789,-0.011148,-0.001069
1765409453.312108,-9.901959,-0.065758,0.315638,-0.006872,-0.004734,0.000000
1765409453.312308,-9.855330,-0.105213,0.333572,-0.007483,-0.009316,0.003207
1765409453.312508,-9.999999,-0.099833,0.472262,-0.007636,-0.010996,0.000611
1765409453.312707,-10.045432,-0.080105,0.483620,-0.005803,-0.009163,-0.000916
1765409453.312907,-9.821855,-0.057389,0.290531,-0.006414,-0.005040,-0.001069
1765409453.313107,-9.840983,-0.066954,0.331779,-0.005956,-0.009316,0.002138
1765409453.313307,-10.023911,-0.043042,0.542802,-0.006261,-0.012828,-0.000764
1765409453.313507,-9.990434,0.015543,0.453132,-0.007636,-0.007330,-0.000153
1765409453.313658,-9.835006,0.033477,0.242707,-0.006109,-0.006872,0.000916
1765409453.313858,-9.779410,-0.025705,0.241511,-0.005345,-0.006414,0.001069
1765409453.314058,-9.952174,0.009565,0.529053,-0.007178,-0.007178,-0.000458
1765409453.314258,-9.917501,0.060976,0.396939,-0.006720,-0.002291,0.000611
1765409453.314458,-9.728598,0.046628,0.161406,-0.010232,-0.002291,0.001833
1765409453.314708,-9.728598,0.046628,0.161406,-0.010232,-0.005345,0.001833
1765409453.314908,-10.005977,-0.007174,0.499761,-0.008858,-0.007789,-0.000458
1765409453.315108,-10.025107,0.022716,0.442372,-0.008399,-0.003360,-0.000458
1765409453.315308,-9.825441,0.035868,0.199665,-0.007789,-0.001680,-0.002902
1765409453.315508,-9.728000,0.010760,0.198470,-0.007636,-0.003818,-0.001833
1765409453.315644,-9.978478,-0.011956,0.447154,-0.008399,-0.006720,0.001069
1765409453.315844,-10.058583,0.021521,0.461502,-0.009774,-0.005498,-0.000153
1765409453.316044,-9.890003,0.014347,0.176949,-0.006109,0.001222,-0.000611
1765409453.316244,-9.735771,-0.020923,0.094452,-0.008247,-0.003360,0.000611
1765409453.316444,-9.952174,0.011956,0.353300,-0.009468,-0.007330,0.000153
1765409453.316640,-10.139884,-0.008369,0.527260,-0.007330,-0.006109,-0.000305
1765409453.316840,-10.026302,-0.014347,0.332377,-0.007636,-0.000305,-0.002596
1765409453.317040,-9.923481,0.014347,0.174558,-0.009468,-0.000305,-0.000611
1765409453.317240,-10.005977,-0.014945,0.353898,-0.009468,-0.009621,-0.000611
1765409453.317440,-10.167382,-0.071736,0.599593,-0.007483,-0.009316,-0.000153
1765409453.317676,-10.020324,-0.020325,0.324605,-0.010232,-0.007483,-0.002596
1765409453.317876,-9.747727,0.010760,0.026303,-0.008247,-0.010385,-0.003512
1765409453.318076,-9.758488,-0.030488,0.139885,-0.008552,-0.010385,-0.003818
1765409453.318276,-9.758488,-0.030488,0.139885,-0.008552,-0.011912,-0.003818
1765409453.318476,-10.086082,-0.034672,0.435198,-0.010385,-0.012523,-0.001527
1765409453.318658,-9.899570,0.000000,0.196078,-0.009621,-0.007025,-0.004429
1765409453.318858,-9.775824,-0.016738,0.132712,-0.009468,-0.004581,-0.002596
1765409453.319058,-9.919893,-0.034672,0.355691,-0.008858,-0.009163,-0.000305
1765409453.319258,-10.117167,-0.068149,0.542802,-0.008247,-0.009163,0.000000
1765409453.319458,-10.075920,-0.072932,0.420851,-0.006261,-0.003971,0.000305
1765409453.319706,-9.893590,-0.017336,0.154232,-0.008094,-0.003971,-0.000764
1765409453.319906,-9.835006,-0.065160,0.196078,-0.006414,-0.008094,0.000916
1765409453.320106,-10.005977,-0.077714,0.485414,-0.008705,-0.009468,0.001527
1765409453.320306,-10.101624,-0.032281,0.487805,-0.009163,-0.006261,-0.001222
1765409453.320506,-9.824843,-0.059182,0.144668,-0.009010,-0.003971,-0.002291
1765409453.320738,-9.777617,-0.063965,0.199067,-0.008705,-0.009316,-0.000916
1765409453.320938,-9.988641,-0.068149,0.479436,-0.008399,-0.008858,0.000611
1765409453.321138,-10.123744,-0.089072,0.549976,-0.008094,-0.009468,-0.001833
1765409453.321338,-9.955164,-0.063367,0.343137,-0.006414,-0.004123,-0.000153
1765409453.321538,-9.725011,-0.054400,0.078910,-0.005651,-0.005956,0.000000
1765409453.321709,-9.836202,-0.027499,0.296509,-0.006872,-0.011759,-0.000916
1765409453.321909,-9.973696,-0.040053,0.487207,-0.007941,-0.010385,0.001985
1765409453.322109,-9.925871,-0.046628,0.307269,-0.008705,-0.004887,0.000153
1765409453.322309,-9.759683,-0.002391,0.124342,-0.010079,-0.006261,0.000000
1765409453.322509,-9.824244,-0.038259,0.333572,-0.010232,-0.007636,-0.000305
1765409453.322700,-10.014346,-0.045433,0.517097,-0.004276,-0.005498,-0.002443
1765409453.322900,-10.090266,-0.016738,0.474653,-0.008247,-0.005956,-0.000153
1765409453.323100,-9.830223,0.022716,0.195481,-0.006109,-0.004887,-0.000153
1765409453.323300,-9.757292,-0.016738,0.197872,-0.007636,-0.006261,-0.000916
1765409453.323500,-9.984456,-0.019130,0.451937,-0.007789,-0.010079,-0.001833
1765409453.323722,-10.059779,0.016141,0.500956,-0.005956,-0.006414,-0.000764
1765409453.323922,-9.844571,0.013152,0.138690,-0.007483,-0.000458,0.000458
1765409453.324122,-9.776422,-0.043042,0.177547,-0.008858,-0.007483,0.000764
1765409453.324322,-10.008368,-0.054400,0.467480,-0.009010,-0.007483,-0.000305
1765409453.324522,-10.129124,0.002391,0.587040,-0.010996,-0.009621,-0.001680
1765409453.324764,-9.876852,0.004782,0.190100,-0.007025,-0.004429,-0.000153
1765409453.324964,-9.728598,0.000000,0.071138,-0.009468,-0.002749,-0.000916
1765409453.325164,-9.971304,-0.039455,0.432807,-0.007636,-0.009163,-0.001222
1765409453.325364,-10.133906,-0.050215,0.563128,-0.010537,-0.009163,0.000764
1765409453.325564,-9.936632,0.016141,0.291129,-0.006261,-0.004276,-0.002749
1765409453.325718,-9.744739,0.044237,0.093855,-0.005040,-0.001833,-0.000153
1765409453.325918,-9.884026,-0.022716,0.288737,-0.008552,-0.009468,0.000305
1765409453.326118,-10.153036,-0.025108,0.585844,-0.006720,-0.006720,-0.000611
1765409453.326318,-10.111190,0.007174,0.468077,-0.006720,-0.005192,-0.000611
1765409453.326518,-9.805116,0.020325,0.139885,-0.008552,-0.005651,-0.002291
1765409453.326781,-9.808702,-0.036466,0.205643,-0.008399,-0.008094,-0.000305
1765409453.326981,-10.027497,-0.080105,0.407700,-0.007483,-0.009010,-0.001833
1765409453.327181,-10.135699,0.008369,0.533835,-0.008705,-0.003971,-0.002596
1765409453.327381,-9.868484,0.023912,0.184122,-0.008399,-0.004887,-0.002596
1765409453.327581,-9.765661,-0.013749,0.080105,-0.006261,-0.007483,-0.001833
1765409453.327789,-10.025107,-0.053204,0.517695,-0.008858,-0.008705,-0.000305
1765409453.327989,-10.225369,-0.064562,0.651602,-0.008094,-0.010690,-0.000916
1765409453.328189,-10.018531,-0.022716,0.331181,-0.008552,-0.005345,-0.001985
1765409453.328389,-9.744141,-0.008967,0.050215,-0.009316,-0.005651,-0.002596
1765409453.328589,-9.800333,-0.091463,0.265423,-0.009163,-0.010385,-0.001069
1765409453.328775,-10.099234,-0.056193,0.589431,-0.009163,-0.006261,-0.000153
1765409453.328975,-10.052606,-0.037661,0.423840,-0.009774,-0.006261,-0.001222
1765409453.329175,-9.778812,-0.031086,0.196078,-0.009010,0.000458,0.000764
1765409453.329375,-9.776422,-0.085485,0.241511,-0.009010,-0.007025,0.000611
1765409453.329575,-9.989238,-0.072334,0.483022,-0.007941,-0.008399,0.000916
1765409453.329721,-10.023911,-0.095050,0.500956,-0.007178,-0.003207,0.000305
1765409453.329921,-9.831419,-0.019727,0.198470,-0.007789,-0.003207,-0.000764
1765409453.330121,-9.723815,-0.028694,0.118364,-0.006567,-0.005803,-0.000611
1765409453.330321,-9.860114,-0.057389,0.350909,-0.007025,-0.010996,-0.001222
1765409453.330521,-9.860114,-0.057389,0.350909,-0.007025,-0.007330,-0.001222
1765409453.330763,-9.809898,0.022716,0.144668,-0.006872,-0.004429,-0.001374
1765409453.330963,-9.757292,-0.021521,0.209230,-0.007941,-0.004429,-0.001833
1765409453.331163,-9.948587,-0.059182,0.463893,-0.007789,-0.010079,0.000458
1765409453.331363,-10.117167,-0.035868,0.520086,-0.007178,-0.007636,-0.001527
1765409453.331563,-9.943806,0.013152,0.279173,-0.007025,-0.004581,0.000305
1765409453.331690,-9.777617,-0.017934,0.185318,-0.009316,-0.009316,0.001069
1765409453.331890,-9.918698,-0.004782,0.365854,-0.008552,-0.009316,-0.001833
1765409453.332090,-10.062170,-0.033477,0.535031,-0.007025,-0.008858,-0.001680
1765409453.332290,-9.934240,-0.008369,0.249880,-0.007941,-0.004734,-0.001222
1765409453.332490,-9.719033,-0.033477,0.078312,-0.007025,-0.000153,-0.001985
1765409453.332683,-9.885221,-0.017336,0.349115,-0.009010,-0.010690,-0.002138
1765409453.332883,-10.162002,-0.049020,0.618125,-0.007636,-0.011912,0.001680
1765409453.333083,-10.069344,-0.013152,0.417264,-0.009316,-0.003512,-0.002749
1765409453.333283,-9.776422,-0.020325,0.114778,-0.008094,-0.009468,-0.003512
1765409453.333483,-9.811692,-0.037064,0.264228,-0.009621,-0.009468,-0.000611
1765409453.333667,-10.022716,-0.084888,0.437590,-0.008552,-0.008399,-0.001527
1765409453.333867,-9.976088,0.002989,0.319225,-0.006261,-0.008247,-0.001680
1765409453.334067,-9.713055,-0.070540,0.017336,-0.006261,-0.001069,-0.001680
1765409453.334267,-9.555235,-0.248087,0.529053,-0.010843,-0.006414,-0.004887
1765409453.334467,-9.600669,0.072932,0.235533,-0.010537,-0.006414,-0.012981
1765409453.334676,-9.549855,0.425634,0.167982,-0.007941,0.002902,-0.005956
1765409453.334876,-9.347799,0.133907,0.318030,-0.005040,0.013592,0.009774
1765409453.335076,-9.528335,-0.195481,0.627092,-0.009774,-0.000305,0.006567
1765409453.335276,-10.245695,-0.100430,0.903874,-0.018173,-0.003512,-0.006109
1765409453.335476,-9.943208,-0.449546,0.035868,-0.009316,0.002291,0.001985
1765409453.335673,-9.564800,-0.328192,-0.249880,-0.000305,0.003360,-0.007941
1765409453.335923,-9.974891,0.408895,0.695839,-0.005803,0.013134,-0.016799
1765409453.336173,-10.514704,0.549976,1.361789,-0.012217,0.013134,-0.000764
1765409453.336423,-10.093256,-0.143472,0.413678,-0.012217,0.008247,0.013744
1765409453.336718,-9.716641,-0.689861,-0.000598,-0.008399,-0.000305,0.009468
1765409453.336918,-9.622787,-0.516499,0.088474,-0.006872,0.003207,-0.014355
1765409453.337118,-9.947989,0.312052,0.492587,-0.009163,0.004123,-0.020311
1765409453.337318,-9.995216,0.577475,0.309660,-0.005956,0.007330,0.000000
1765409453.337518,-9.995216,0.577475,0.309660,-0.005956,0.009010,0.000000
1765409453.337732,-9.741151,-0.457915,0.331181,-0.011148,0.006109,0.007025
1765409453.337932,-10.123145,-0.365256,0.747250,-0.006872,0.006414,-0.004123
1765409453.338132,-9.986848,-0.164993,0.270206,-0.007178,0.005345,-0.008858
1765409453.338332,-9.714250,0.151243,-0.072932,-0.005803,0.004276,-0.008094
1765409453.338532,-9.794355,0.260641,0.247489,-0.008858,0.005651,-0.001527
1765409453.338718,-10.002390,0.126734,0.551172,-0.009927,0.003971,0.006720
1765409453.338918,-9.970706,-0.117767,0.321019,-0.010843,0.004581,0.005803
1765409453.339118,-9.687947,-0.280966,0.001793,-0.009927,0.009010,0.000305
1765409453.339318,-9.687947,-0.186514,0.184122,-0.007025,0.009010,-0.003360
1765409453.339518,-9.926469,0.096844,0.412482,-0.007025,0.003054,-0.003360
1765409453.339691,-10.078907,0.278575,0.400526,-0.008858,0.004887,-0.003360
1765409453.339891,-9.895982,0.155428,0.081301,-0.007636,0.008247,0.005803
1765409453.340091,-9.867287,-0.196676,0.142874,-0.005956,0.010079,0.009927
1765409453.340291,-10.037063,-0.341942,0.524271,-0.008552,0.006261,0.000916
1765409453.340491,-10.041844,-0.156624,0.498565,-0.007025,0.006414,-0.005803
1765409453.340660,-9.845766,0.118364,0.023912,-0.007330,0.004734,-0.009774
1765409453.340860,-9.831419,0.237924,0.193687,-0.006261,0.001527,-0.003818
1765409453.341060,-9.831419,0.237924,0.193687,-0.006261,0.005956,-0.003818
1765409453.341260,-10.040649,-0.141081,0.451937,-0.009927,0.005956,0.006872
1765409453.341460,-9.936632,-0.309660,0.093257,-0.006720,0.005803,0.000000
1765409453.341770,-9.940218,-0.159015,0.162602,-0.008247,0.004429,-0.004581
1765409453.341970,-10.137493,0.079507,0.552367,-0.010232,0.001374,-0.005956
1765409453.342170,-10.150046,0.219393,0.527260,-0.010232,0.004887,-0.005956
1765409453.342370,-9.866092,0.056193,0.080105,-0.009163,0.006261,0.004887
1765409453.342570,-9.843375,-0.083692,0.099235,-0.007330,0.000305,0.004887
1765409453.342663,-10.147058,-0.117767,0.529651,-0.008705,0.006414,0.000764
1765409453.342863,-10.175154,-0.064562,0.555954,-0.008247,0.007789,-0.001222
1765409453.343063,-9.956957,-0.004185,0.130320,-0.010690,0.008247,-0.004123
1765409453.343263,-9.894786,0.083692,0.170373,-0.010232,-0.001222,-0.002902
1765409453.343463,-10.057388,0.025108,0.399928,-0.008705,-0.003512,-0.001069
1765409453.343687,-10.136297,-0.001196,0.423242,-0.008552,0.006109,0.000611
1765409453.343887,-10.054399,-0.018532,0.196676,-0.009316,0.006109,0.001069
1765409453.344087,-9.899570,-0.078312,0.141081,-0.008552,0.003054,0.001833
1765409453.344287,-10.114178,-0.089072,0.489000,-0.009621,-0.004276,-0.000305
1765409453.344487,-10.114178,-0.089072,0.489000,-0.009621,-0.002902,-0.000305
1765409453.344716,-9.914514,0.025705,0.068149,-0.006414,-0.005040,-0.000153
1765409453.344916,-9.734576,-0.047824,-0.065758,-0.009010,-0.005040,-0.001222
1765409453.345116,-9.943806,-0.035868,0.291726,-0.007789,-0.008705,-0.003360
1765409453.345316,-10.219392,-0.014347,0.546987,-0.007789,-0.004123,-0.004887
1765409453.345516,-10.029889,-0.073529,0.324008,-0.009316,0.001985,0.001374
1765409453.347713,-9.852941,-0.083094,0.117767,-0.007636,-0.003207,0.000916
1765409453.351778,-10.026900,-0.090268,0.371832,-0.008858,-0.008247,-0.000611
1765409453.352278,-10.196077,-0.011956,0.600191,-0.005803,-0.007483,-0.003054
1765409453.354734,-10.053802,0.041846,0.283357,-0.004734,-0.000153,-0.002443
1765409453.358654,-9.774628,0.047824,0.059780,-0.009621,-0.001833,-0.001374
1765409453.361668,-9.842777,-0.053802,0.224773,-0.009468,-0.003971,0.001680
1765409453.363718,-10.193686,-0.135701,0.591822,-0.007330,-0.008858,0.000916
1765409453.366686,-10.196077,-0.074127,0.466882,-0.007483,-0.007330,-0.001985
1765409453.368707,-9.887612,0.026303,0.120756,-0.007483,-0.009010,-0.002902
1765409453.371706,-9.894786,0.068149,0.172166,-0.009316,-0.009010,-0.001222
1765409453.373653,-10.119559,0.031086,0.493783,-0.007483,-0.014508,0.000153
1765409453.376688,-10.233739,-0.046031,0.604376,-0.010537,-0.006261,0.000764
1765409453.378664,-9.901959,-0.135701,0.231946,-0.009468,-0.002443,0.003207
1765409453.381644,-9.699903,-0.152439,-0.016738,-0.007941,-0.005956,-0.001527
1765409453.383655,-9.895982,-0.023314,0.279770,-0.006567,-0.005956,-0.004123
1765409453.386657,-9.895982,-0.023314,0.279770,-0.006567,-0.008552,-0.004123
1765409453.388724,-9.952174,0.041846,0.309660,-0.009774,-0.005956,-0.000764
1765409453.391699,-9.763269,-0.004782,0.108800,-0.007483,-0.005498,0.000764
1765409453.393693,-9.900167,-0.029890,0.326399,-0.007789,-0.007789,0.001222
1765409453.396674,-10.052606,-0.142276,0.552965,-0.007025,-0.007789,0.000611
1765409453.398640,-10.022118,-0.078910,0.436394,-0.009163,-0.008399,-0.003207
1765409453.401633,-9.854136,0.037661,0.168580,-0.005803,-0.008399,-0.004734
1765409453.403651,-9.830223,0.049020,0.232544,-0.006720,-0.008399,-0.000305
1765409453.406669,-9.976088,-0.016738,0.437590,-0.006720,-0.008858,-0.000305
1765409453.408666,-10.078907,-0.025108,0.532042,-0.007636,-0.010385,0.000458
1765409453.411711,-9.928263,-0.043639,0.324008,-0.007636,-0.001527,0.000153
1765409453.413648,-9.874461,-0.100430,0.263032,-0.007025,-0.004887,-0.001833
1765409453.416643,-9.999401,-0.064562,0.456719,-0.007789,-0.004887,-0.003818
1765409453.418630,-10.070539,0.014945,0.499163,-0.006109,-0.004734,-0.002749
1765409453.421697,-9.833213,0.045433,0.187111,-0.006261,0.002291,-0.000764
1765409453.423659,-9.695121,0.039455,0.113582,-0.007941,-0.005192,0.001069
1765409453.426676,-9.935436,-0.029890,0.381396,-0.009010,-0.001222,0.000000
1765409453.428663,-10.007172,-0.079507,0.503348,-0.007636,-0.001222,0.001222
1765409453.431719,-9.844571,-0.131516,0.293520,-0.007636,0.001069,0.001222
1765409453.434667,-9.758488,-0.082496,0.136896,-0.008247,-0.003665,-0.000153
1765409453.436708,-9.877449,-0.004782,0.352702,-0.008858,-0.003665,-0.000305
1765409453.438706,-10.020324,0.015543,0.537422,-0.009316,-0.001222,-0.002291
1765409453.439657,-9.950381,-0.017934,0.393352,-0.009774,0.003054,0.001222
1765409453.443670,-9.818267,-0.052606,0.231946,-0.009774,0.002138,0.001222
1765409453.446702,-9.789574,-0.104017,0.185318,-0.006414,-0.001680,0.002902
1765409453.449357,-9.934838,-0.139885,0.390961,-0.009774,-0.001680,0.002596
1765409453.451710,-9.945002,-0.117169,0.404113,-0.008399,0.001985,-0.001833
1765409453.453658,-9.806311,-0.045433,0.195481,-0.004734,0.001985,-0.003360
1765409453.456647,-9.781204,0.056193,0.202056,-0.007636,-0.000611,-0.002749
1765409453.459664,-9.949782,0.035868,0.405308,-0.009774,-0.001680,0.001985
1765409453.461647,-10.011356,-0.039455,0.431612,-0.007941,0.001374,0.002291
1765409453.463657,-9.851745,-0.164993,0.242707,-0.007178,0.005956,0.001985
1765409453.466662,-9.767454,-0.239718,0.140483,-0.006414,0.001833,0.000458
1765409453.467621,-9.905546,-0.144668,0.377212,-0.003360,-0.001222,-0.003665
1765409453.471702,-10.008965,0.029890,0.430416,-0.001680,0.000916,-0.002749
1765409453.473622,-9.921089,0.084290,0.216404,-0.006109,0.005803,0.001222
1765409453.476691,-9.885818,0.044237,0.243902,-0.007789,0.000916,0.002443
1765409453.478678,-10.040649,-0.092061,0.426829,-0.007330,0.002749,0.004123
1765409453.481662,-10.044236,-0.186514,0.399330,-0.005651,0.002443,0.002902
1765409453.483625,-9.885221,-0.146461,0.195481,-0.007025,0.001527,0.001222
1765409453.486672,-9.831419,-0.045433,0.221186,-0.005956,0.003207,-0.002443
1765409453.488659,-9.954566,0.011956,0.326997,-0.004276,-0.000916,-0.001069
1765409453.491701,-9.948587,0.076518,0.273195,-0.006109,-0.000611,0.003665
1765409453.493652,-9.854136,0.056193,0.156624,-0.006109,-0.000611,0.005498
1765409453.496695,-9.884026,-0.148254,0.250478,-0.005040,0.001374,0.008705
1765409453.498672,-10.013748,-0.241511,0.381396,-0.005040,-0.000458,0.004734
1765409453.501679,-10.080104,-0.148254,0.426829,-0.006567,0.001069,-0.001069
1765409453.503690,-9.842180,0.014945,0.170971,-0.002138,0.008858,-0.003207
1765409453.506680,-9.788976,0.144668,0.139287,-0.007789,0.004429,0.001833
1765409453.507726,-9.972500,0.065758,0.322812,-0.008552,-0.000458,0.005040
1765409453.511677,-10.121950,-0.034672,0.486011,-0.006109,-0.001680,0.004887
1765409453.513686,-9.946795,-0.205643,0.243902,-0.006109,0.003512,0.007636
1765409453.516645,-9.823050,-0.211621,0.153037,-0.007178,0.000458,0.003054
1765409453.518630,-10.026302,-0.111191,0.388570,-0.003360,0.000000,-0.000153
1765409453.521641,-10.150645,-0.021521,0.575084,0.000000,-0.000611,-0.002138
1765409453.522141,-9.946795,0.084888,0.259445,-0.002902,0.006872,-0.002443
1765409453.526688,-9.809898,0.074127,0.094452,-0.001833,-0.000611,0.000458
1765409453.528673,-9.941415,0.013152,0.312052,-0.003665,-0.003665,0.004123
1765409453.531658,-10.143471,-0.125538,0.492587,-0.003818,-0.003971,0.005498
1765409453.533671,-10.062170,-0.133309,0.367049,-0.003207,-0.002749,0.003360
1765409453.536637,-9.940218,-0.011358,0.222979,-0.003665,0.003665,0.003360
1765409453.538784,-10.021520,0.045433,0.368245,-0.001680,-0.003207,-0.000153
1765409453.541638,-10.115973,0.042444,0.468077,-0.004581,-0.007941,0.002443
1765409453.543700,-10.025704,0.015543,0.319225,-0.006261,-0.001527,0.005498
1765409453.546752,-9.809300,-0.094452,0.090866,-0.007483,0.003054,0.005498
1765409453.548705,-9.859515,-0.142276,0.170373,-0.002902,-0.003818,0.004123
1765409453.551649,-10.031085,-0.128527,0.424438,-0.001985,-0.004276,-0.000458
1765409453.553658,-9.948587,-0.066954,0.347322,-0.000153,-0.000458,0.000458
1765409453.556671,-9.760879,0.051411,0.056193,-0.003971,-0.000458,-0.001374
1765409453.558683,-9.747727,0.114180,0.100430,-0.004123,-0.004429,0.001222
1765409453.559698,-10.033475,0.104017,0.444763,-0.003512,-0.005040,0.003818
1765409453.565338,-10.068149,-0.142276,0.413678,-0.007025,-0.002443,0.007789
1765409453.565838,-9.860114,-0.281564,0.176949,-0.005345,0.001680,0.005498
1765409453.568700,-9.756096,-0.188905,0.068149,-0.003512,0.001374,-0.000916
1765409453.571673,-9.909132,-0.010760,0.301291,-0.002443,-0.001985,-0.002749
1765409453.573655,-10.069344,0.126734,0.484218,-0.005192,0.000916,-0.001069
1765409453.576648,-10.068746,0.178144,0.515901,-0.002749,0.006414,0.001374
1765409453.577642,-9.824244,0.045433,0.233740,-0.003818,0.008247,0.005192
1765409453.581652,-9.763269,-0.124342,0.240913,-0.004887,0.000305,0.009316
1765409453.583616,-10.022716,-0.133907,0.529053,-0.001527,-0.002138,0.004887
1765409453.586659,-10.148253,-0.120158,0.584051,-0.000611,-0.000916,0.003665
1765409453.588702,-9.918698,-0.046031,0.278575,-0.001374,-0.000916,-0.000611
1765409453.591676,-9.837397,0.074127,0.221186,0.000611,-0.006414,-0.000458
1765409453.593675,-9.935436,0.086083,0.317432,-0.001222,-0.005498,0.003665
1765409453.596713,-10.043041,-0.123147,0.410091,-0.003665,-0.005040,0.008247
1765409453.598692,-10.018531,-0.291726,0.395744,-0.004734,-0.002443,0.006567
1765409453.601690,-9.943806,-0.244500,0.301889,-0.001069,-0.002443,0.000764
1765409453.603684,-9.837996,-0.244500,0.263630,-0.001069,0.001069,0.000764
1765409453.606712,-9.887612,0.191296,0.381396,-0.001833,-0.001833,-0.005192
1765409453.608694,-9.940218,0.300096,0.430416,-0.005192,-0.007789,0.002138
1765409453.611636,-9.927068,0.153037,0.321616,-0.005345,-0.003971,0.007483
1765409453.613647,-9.788378,-0.109995,0.141081,-0.007789,0.000153,0.012065
1765409453.616635,-9.788378,-0.109995,0.141081,-0.007789,0.001069,0.012065
1765409453.619668,-9.882233,-0.316236,0.335366,-0.003971,0.002749,0.002596
1765409453.621699,-9.962935,-0.082496,0.480631,-0.000611,0.002749,-0.002443
1765409453.623663,-9.962935,-0.082496,0.480631,-0.000611,0.000916,-0.002443
1765409453.624664,-9.781204,0.093257,0.129125,-0.000764,0.004734,0.005040
1765409453.626697,-9.776422,-0.023314,0.107604,-0.001374,0.005040,0.008399
1765409453.631663,-9.936632,-0.155428,0.325801,-0.000305,0.006414,0.005345
1765409453.632703,-9.975489,-0.099833,0.404113,-0.002291,0.012065,0.003512
1765409453.636647,-9.939023,0.033477,0.344333,-0.004276,0.017104,0.002596
1765409453.638665,-9.839190,0.081301,0.344333,-0.003665,0.012065,0.003665
1765409453.641728,-9.846962,0.054998,0.376614,-0.001069,0.005956,0.005345
1765409453.643637,-10.043041,-0.115973,0.466284,-0.001374,0.008247,0.008552
1765409453.646663,-10.023911,-0.291129,0.355093,-0.001833,0.008247,0.005651
1765409453.647693,-9.983858,-0.217599,0.303682,-0.000458,0.006872,0.004276
1765409453.651675,-10.008368,-0.064562,0.451339,-0.001527,-0.000458,-0.000458
1765409453.653706,-10.162600,0.074127,0.576877,0.001985,-0.000458,-0.000153
1765409453.659473,-10.175752,0.107604,0.494978,0.001680,0.001374,0.005040
1765409453.659973,-9.925871,0.115375,0.240316,-0.001833,0.002902,0.006872
1765409453.661662,-9.803921,0.019130,0.129125,-0.005803,0.008399,0.008094
1765409453.663687,-9.891200,-0.168580,0.263032,-0.006567,0.000611,0.008858
1765409453.667524,-10.050812,-0.258250,0.343137,-0.004276,0.001069,0.006109
1765409453.668024,-10.002390,-0.139885,0.308465,-0.001222,0.005192,0.001680
1765409453.669645,-9.860114,-0.019727,0.245696,-0.001069,0.011606,0.001985
1765409453.673682,-9.790769,0.011956,0.142276,0.002291,0.005192,0.004887
1765409453.676639,-10.004781,-0.008369,0.325801,0.001069,0.006109,0.004276
1765409453.678631,-10.025107,-0.072932,0.327594,0.000000,0.006109,0.007636
1765409453.681670,-10.025107,-0.072932,0.327594,0.000000,0.008399,0.007636
1765409453.683607,-9.847560,0.034672,0.225968,-0.000305,0.009316,-0.000458
1765409453.686660,-9.967119,0.121951,0.307269,-0.000458,0.008247,0.003818
1765409453.688685,-9.968913,0.038259,0.234338,0.001222,0.005651,0.009927
1765409453.691617,-9.940218,-0.147059,0.190100,0.001069,0.005345,0.009010
1765409453.693648,-9.878048,-0.136298,0.211023,0.002596,0.011912,0.007025
1765409453.696612,-10.009563,-0.109995,0.286346,0.000153,0.009774,0.004887
1765409453.698633,-10.229554,0.045433,0.661167,0.004734,0.009927,0.003054
1765409453.701618,-10.125537,0.105213,0.469871,0.005803,0.008247,0.005345
1765409453.703619,-9.929459,-0.078312,0.290531,0.002138,0.008247,0.007941
1765409453.706732,-9.859515,-0.066954,0.059780,-0.000305,0.002596,0.003512
1765409453.707232,-9.986848,-0.058584,0.312052,-0.000153,-0.001069,0.003971
1765409453.711663,-9.933045,-0.060976,0.205643,0.000764,-0.000458,0.003054
1765409453.712669,-9.862504,-0.075323,0.190100,-0.000764,-0.000305,0.005040
1765409453.714706,-9.854136,0.031086,0.151243,0.001833,0.004887,0.004276
1765409453.719664,-9.976088,0.004782,0.254663,0.000764,0.000764,0.005956
1765409453.721696,-10.081299,-0.008369,0.390961,0.000153,0.001833,0.004276
1765409453.722196,-10.071735,-0.046628,0.357484,-0.000305,0.004429,0.004276
1765409453.726686,-9.925871,-0.079507,0.324008,0.000458,0.010843,0.004276
1765409453.728738,-9.892993,-0.033477,0.190698,0.002443,0.005192,0.003971
1765409453.731723,-9.962935,0.053204,0.390961,0.001222,0.003971,0.004276
1765409453.733626,-10.040649,0.184122,0.469871,-0.001833,0.007636,0.006261
1765409453.736638,-9.866689,-0.029890,0.203850,-0.000764,0.011454,0.014203
1765409453.737722,-9.739956,-0.205643,-0.003587,0.000000,0.006414,0.006567
1765409453.741632,-10.057388,-0.089670,0.503348,0.001374,-0.000764,0.004429
1765409453.743688,-10.289334,0.046628,0.760999,0.001985,0.003665,0.004429
1765409453.746704,-9.987445,0.005978,0.185318,0.002291,0.003818,0.008094
1765409453.748695,-9.775226,-0.014347,0.047824,-0.001222,0.003818,0.006567
1765409453.751776,-9.907339,-0.041846,0.374223,0.000611,0.004123,0.006109
1765409453.753719,-10.026302,-0.066356,0.552367,0.000764,0.000305,0.007178
1765409453.759425,-9.911524,-0.045433,0.262434,0.002596,0.002749,0.004276
1765409453.759925,-9.756096,-0.026303,0.027499,-0.000764,0.001374,0.006414
1765409453.759654,-9.893590,-0.113582,0.203252,0.005040,-0.002749,0.008247
1765409453.763777,-10.120754,-0.108202,0.517097,0.003971,-0.001222,0.007636
1765409453.764705,-10.087276,0.062171,0.474653,0.004123,0.009010,0.001527
1765409453.768608,-9.710664,-0.004782,-0.037064,0.004581,0.012217,0.007178
1765409453.771646,-9.830223,-0.149450,0.230751,0.005040,0.000153,0.006261
1765409453.773695,-10.040051,-0.131516,0.439383,0.000916,0.000153,0.006414
1765409453.776615,-10.004781,-0.078910,0.423242,0.000916,0.007483,0.003054
1765409453.778620,-9.565996,0.022119,-0.103419,-0.000458,0.009774,0.003818
1765409453.781728,-9.735173,0.019727,0.219990,-0.001222,0.001985,0.008705
1765409453.783611,-9.950979,-0.109995,0.407700,0.002596,-0.001985,0.008247
1765409453.786650,-10.109993,-0.159613,0.453132,0.002902,0.000611,0.006567
1765409453.788637,-9.799137,0.015543,0.045433,0.000305,0.012828,0.006261
1765409453.791706,-9.800333,0.038259,0.148254,0.002596,0.010385,0.008399
1765409453.793650,-9.955164,0.050215,0.467480,0.002138,0.002291,0.012065
1765409453.796672,-9.955164,0.050215,0.467480,0.002138,0.001527,0.012065
1765409453.798688,-9.776422,-0.104615,0.093855,0.003512,0.015119,0.009621
1765409453.801681,-9.637134,-0.069943,-0.127929,0.003665,0.010079,0.006414
1765409453.803643,-10.001194,0.077714,0.588235,0.003360,0.004276,0.004581
1765409453.806671,-10.218794,0.075921,0.543998,0.001374,0.004276,0.007483
1765409453.808606,-9.890003,-0.029292,0.169177,0.000611,0.005651,0.010996
1765409453.811600,-9.713055,-0.046628,-0.027499,0.001069,0.009468,0.009163
1765409453.813643,-9.827234,-0.166188,0.248087,0.001069,0.010385,0.014508
1765409453.816698,-10.154231,-0.187709,0.563128,0.004887,0.003360,0.006109
1765409453.818643,-10.007172,-0.049020,0.318030,0.005192,0.012370,0.005498
1765409453.821647,-9.852941,0.024510,0.220588,0.006261,0.013286,0.007941
1765409453.822658,-9.777020,0.118364,0.154232,0.006720,0.011912,0.008247
1765409453.826657,-10.070539,0.038259,0.558345,-0.000458,0.001985,0.009621
1765409453.827638,-10.058583,-0.208034,0.344333,0.002443,0.010232,0.014661
1765409453.831696,-9.781204,-0.307867,-0.084290,0.006872,0.005192,0.011606
1765409453.833717,-9.889405,-0.166188,0.284553,0.006567,0.006872,0.001833
1765409453.836764,-9.949782,0.131516,0.352702,0.005651,0.006872,0.003360
1765409453.838669,-10.148851,0.242707,0.569106,0.003512,0.006872,0.009621
1765409453.841662,-10.148851,0.242707,0.569106,0.003512,0.010232,0.009621
1765409453.843628,-9.880439,-0.142276,0.175753,0.000305,0.011301,0.014508
1765409453.846601,-9.814680,-0.343137,0.111789,0.006261,0.006261,0.012065
1765409453.847639,-10.025107,-0.264228,0.418460,0.006872,0.003512,0.004734
1765409453.851616,-10.037063,0.109995,0.487207,0.005803,0.010843,0.002443
1765409453.852597,-10.037063,0.109995,0.487207,0.005803,0.007941,0.002443
1765409453.856654,-9.878048,0.164993,0.192492,0.003360,0.001527,0.013592
1765409453.858622,-9.972500,-0.025108,0.240316,0.001069,0.001527,0.016188
1765409453.861678,-10.108798,-0.245098,0.453132,0.003971,0.010079,0.015730
1765409453.865343,-9.923481,-0.424438,0.099833,0.008247,0.010079,0.011454
1765409453.866681,-9.800333,-0.229555,0.139287,0.011912,0.009621,0.009163
1765409453.868634,-9.849353,0.097441,0.193089,0.009621,0.009010,0.005040
1765409453.871638,-10.123744,0.198470,0.583453,0.006720,0.007178,0.010537
1765409453.873689,-10.032877,0.038259,0.297704,0.006872,0.006567,0.014355
1765409453.876593,-9.863700,-0.135701,0.038259,0.008552,0.006567,0.017562
1765409453.878619,-9.693925,-0.255858,-0.172166,0.007483,0.010079,0.014203
1765409453.881696,-10.077712,-0.288140,0.376614,0.011759,0.004276,0.015577
1765409453.884634,-10.214011,-0.150646,0.598996,0.012370,0.008247,0.007330
1765409453.885134,-10.214011,-0.150646,0.598996,0.012370,0.016799,0.007330
1765409453.887605,-9.701696,0.100430,-0.007174,0.010079,0.013744,0.015577
1765409453.891670,-9.805116,-0.015543,0.202056,0.011454,0.003665,0.015577
1765409453.893611,-10.084887,-0.061573,0.651602,0.012217,0.006567,0.017715
1765409453.895641,-9.980869,-0.339550,0.338355,0.010996,0.015730,0.015424
1765409453.898618,-9.671208,-0.199665,-0.203252,0.010996,0.012370,0.015424
1765409453.901648,-9.879243,0.075323,0.219990,0.014508,0.007789,0.005803
1765409453.903664,-10.123145,0.223577,0.642037,0.013286,0.006261,0.011759
1765409453.904663,-10.095049,0.172166,0.472262,0.007483,0.009316,0.014966
1765409453.908684,-9.805116,0.052606,0.009565,0.009774,0.010232,0.019395
1765409453.911661,-9.683763,-0.099235,0.028694,0.008705,0.006261,0.022144
1765409453.913657,-9.954566,-0.334170,0.434003,0.010079,0.006109,0.018479
1765409453.914663,-10.057388,-0.245098,0.547585,0.014355,0.007483,0.012828
1765409453.918609,-9.827832,0.005380,0.203252,0.014050,0.008705,0.009163
1765409453.921599,-9.723815,0.144668,0.143472,0.010690,0.008705,0.012217
1765409453.923645,-9.729196,0.020325,0.075323,0.011301,0.004123,0.016188
1765409453.926650,-10.014346,0.013152,0.309660,0.010079,0.001527,0.018631
1765409453.928603,-10.014346,0.013152,0.309660,0.010079,0.010385,0.018631
1765409453.931704,-9.793758,-0.294715,0.097441,0.015119,0.013134,0.019242
1765409453.933617,-9.976088,-0.131516,0.469871,0.015730,0.013134,0.010385
1765409453.936604,-10.090864,0.093257,0.483022,0.011912,0.014966,0.011148
1765409453.938823,-10.069344,0.161406,0.301291,0.012828,0.011912,0.015424
1765409453.939731,-10.069344,0.161406,0.301291,0.012828,0.009468,0.015424
1765409453.943637,-10.129124,0.054998,0.419656,0.010690,0.011454,0.020464
1765409453.946637,-10.014346,-0.253467,0.289933,0.011454,0.017868,0.023060
1765409453.948642,-9.857722,-0.255858,0.220588,0.014813,0.012981,0.016646
1765409453.951676,-10.026302,-0.037661,0.509326,0.013134,0.011759,0.009010
1765409453.953685,-10.062170,0.117169,0.564323,0.014203,0.012981,0.013134
1765409453.954732,-9.978478,0.138092,0.166188,0.013897,0.007636,0.014355
1765409453.958722,-9.886416,0.157819,0.132114,0.012065,0.012675,0.018173
1765409453.961621,-9.765063,-0.107604,0.074127,0.013439,0.014966,0.024282
1765409453.963602,-9.730989,-0.387374,-0.019130,0.012675,0.011606,0.023671
1765409453.966713,-9.931252,-0.218795,0.242707,0.018173,0.013286,0.011759
1765409453.968613,-10.004184,0.040650,0.400526,0.014508,0.022602,0.009468
1765409453.971583,-9.890003,0.175753,0.267814,0.010537,0.017410,0.011912
1765409453.973622,-9.805116,0.114180,0.288140,0.015119,0.014355,0.017715
1765409453.974696,-9.866092,0.010760,0.173362,0.014355,0.008094,0.020922
1765409453.978582,-9.986250,-0.043042,0.224773,0.014203,0.008094,0.020617
1765409453.981597,-10.037660,-0.221186,0.343137,0.015730,0.015882,0.020617
1765409453.983676,-9.991630,-0.205045,0.402917,0.019548,0.018784,0.016799
1765409453.984603,-9.846962,0.015543,0.155428,0.015882,0.017715,0.016799
1765409453.988590,-9.880439,0.260641,0.123147,0.013439,0.010079,0.017410
1765409453.989581,-9.894188,0.120158,0.198470,0.014661,0.010079,0.022449
1765409453.993701,-9.894188,0.120158,0.198470,0.014661,0.010079,0.022449
1765409453.996669,-9.942610,-0.249880,0.302487,0.013439,0.020922,0.018021
1765409453.998638,-9.754900,-0.228957,0.021521,0.019853,0.017715,0.018326
1765409454.001612,-9.796746,-0.105213,0.124940,0.019395,0.009163,0.013134
1765409454.003617,-10.145862,0.127929,0.597800,0.018479,0.013286,0.014050
1765409454.006625,-10.191893,0.089670,0.660569,0.019548,0.019090,0.018173
1765409454.008616,-9.846365,0.090866,0.170971,0.020311,0.009316,0.021838
1765409454.011621,-9.861309,0.031086,0.070540,0.017562,0.009316,0.019242
1765409454.014585,-9.861309,0.031086,0.070540,0.017562,0.008858,0.019242
1765409454.016742,-9.952772,-0.234338,0.175155,0.019395,0.014050,0.019395
1765409454.018667,-9.973696,-0.059182,0.381994,0.017410,0.020922,0.012981
1765409454.021685,-9.890003,0.109397,0.414873,0.017104,0.023213,0.016035
1765409454.023702,-9.809898,0.161406,0.163199,0.017104,0.015577,0.021228
1765409454.024709,-9.903154,0.042444,0.301291,0.015272,0.013439,0.025962
1765409454.028593,-9.884026,-0.191296,0.200861,0.018631,0.015882,0.029322
1765409454.031592,-9.925274,-0.415471,0.241511,0.018021,0.015882,0.023824
1765409454.033682,-9.887612,-0.249880,0.290531,0.020311,0.019548,0.014661
1765409454.036661,-9.829028,0.155428,0.249880,0.019090,0.019548,0.014355
1765409454.038612,-9.802128,0.237924,0.132712,0.019090,0.015119,0.014355
1765409454.041617,-9.927068,0.170971,0.240913,0.016646,0.012828,0.023976
1765409454.043740,-9.976088,-0.021521,0.150646,0.018937,0.012828,0.027336
1765409454.044726,-9.733380,-0.261239,-0.194883,0.020006,0.024587,0.029169
1765409454.048676,-9.598277,-0.332377,-0.184720,0.019853,0.024587,0.022297
1765409454.051740,-9.868484,-0.051411,0.467480,0.022755,0.031001,0.014966
1765409454.053619,-10.129124,0.169775,0.817790,0.025198,0.028253,0.021228
1765409454.056707,-9.969511,0.165591,0.310856,0.021838,0.024129,0.023824
1765409454.059672,-9.919893,0.048422,0.154232,0.015272,0.015424,0.026878
1765409454.061603,-9.971304,-0.099235,0.299498,0.021533,0.021838,0.029627
1765409454.063653,-9.958152,-0.280966,0.423242,0.025809,0.022144,0.027947
1765409454.066640,-9.918698,-0.199067,0.253467,0.025504,0.025198,0.017104
1765409454.069648,-10.051410,0.167384,0.327594,0.023366,0.021991,0.016493
1765409454.072020,-10.052007,0.270206,0.515304,0.020159,0.025045,0.023213
1765409454.072520,-9.930654,0.137494,0.266021,0.021228,0.020006,0.029474
1765409454.076616,-9.783595,-0.077714,0.058584,0.020311,0.012370,0.028558
1765409454.078610,-9.718434,-0.162004,-0.243902,0.020922,0.016188,0.025962
1765409454.081581,-9.845766,-0.267217,-0.002989,0.025198,0.016493,0.026267
1765409454.083674,-9.942610,-0.041846,0.367049,0.027336,0.029627,0.017868
1765409454.086615,-10.019128,0.215806,0.595409,0.024587,0.035888,0.018173
1765409454.087605,-9.894786,0.278575,0.410091,0.024893,0.031765,0.026878
1765409454.091617,-9.997607,0.117767,0.297704,0.020617,0.014813,0.027336
1765409454.094599,-10.075322,-0.047824,0.277977,0.020769,0.015424,0.029322
1765409454.096570,-9.994021,-0.297107,0.143472,0.023518,0.024893,0.029474
1765409454.098581,-9.791965,-0.337159,-0.011358,0.025045,0.026114,0.022449
1765409454.101608,-9.954566,0.043042,0.325203,0.027642,0.029474,0.014508
1765409454.104610,-9.954566,0.043042,0.325203,0.027642,0.025809,0.014508
1765409454.106688,-9.973098,0.301291,0.184122,0.024129,0.021533,0.026114
1765409454.107697,-9.814680,0.172166,0.070540,0.024740,0.018784,0.028100
1765409454.111670,-9.818865,-0.057389,-0.069345,0.018021,0.025656,0.028253
1765409454.114600,-10.013150,-0.177547,0.278575,0.022907,0.024282,0.030085
1765409454.116608,-10.014346,-0.156624,0.355093,0.024129,0.030085,0.020311
1765409454.118612,-9.860114,0.178742,0.032879,0.022755,0.036652,0.015272
1765409454.120581,-9.861309,0.295911,0.092659,0.024435,0.039248,0.021380
1765409454.123584,-9.939023,0.158417,0.384983,0.023824,0.031154,0.029169
1765409454.126645,-10.059779,0.045433,0.527260,0.019700,0.032529,0.028405
1765409454.127606,-10.025107,-0.155428,0.386179,0.023213,0.032834,0.025045
1765409454.131626,-9.736967,-0.222382,0.062171,0.028863,0.032834,0.027031
1765409454.133703,-9.872667,-0.045433,0.242707,0.028100,0.023213,0.017104
1765409454.136678,-10.074127,0.208034,0.388570,0.022449,0.025962,0.016799
1765409454.138662,-10.038258,0.349115,0.095648,0.023366,0.019090,0.021686
1765409454.141693,-9.876254,0.178144,-0.111789,0.018479,0.025504,0.027794
1765409454.143657,-9.939023,-0.041846,0.259445,0.018326,0.033750,0.032070
1765409454.146657,-10.050214,-0.233740,0.474055,0.021991,0.040164,0.028711
1765409454.148601,-10.141079,-0.235533,0.544596,0.021991,0.024893,0.024587
1765409454.149609,-10.096842,-0.052606,0.267217,0.020311,0.024893,0.017562
1765409454.153623,-9.970706,0.179340,0.092659,0.023060,0.025962,0.020159
1765409454.156631,-9.873863,0.276184,0.112386,0.023518,0.025198,0.022755
1765409454.158655,-10.018531,0.254065,0.506934,0.016188,0.025198,0.025351
1765409454.161632,-10.136297,0.013749,0.416069,0.015272,0.025656,0.030696
1765409454.163592,-9.964728,-0.305476,-0.017336,0.023366,0.025198,0.032987
1765409454.166678,-9.964728,-0.305476,-0.017336,0.023366,0.026114,0.032987
1765409454.168735,-9.943806,-0.077714,0.202056,0.025809,0.034361,0.018479
1765409454.171580,-9.943208,0.129125,0.221186,0.026420,0.031765,0.018326
1765409454.173580,-9.898373,0.219990,0.041248,0.022602,0.030543,0.021686
1765409454.174699,-9.819464,0.225968,-0.045433,0.023824,0.035277,0.031001
1765409454.178570,-9.875656,-0.084290,0.109995,0.023976,0.037721,0.032834
1765409454.181581,-10.023911,-0.297704,0.483620,0.026725,0.040317,0.032681
1765409454.183600,-10.232543,-0.218197,0.894309,0.028100,0.040317,0.026420
1765409454.184643,-10.058583,-0.056193,0.552367,0.027489,0.034208,0.021533
1765409454.188633,-9.802128,0.136298,-0.147059,0.022755,0.021075,0.019853
1765409454.191654,-9.953370,0.310856,-0.092061,0.027184,0.016341,0.023060
1765409454.193718,-10.055594,0.083094,0.352702,0.022602,0.034361,0.033598
1765409454.194681,-9.991630,-0.173362,0.285748,0.028253,0.034361,0.035430
1765409454.198631,-9.688545,-0.260641,-0.138690,0.028863,0.035277,0.035430
1765409454.201655,-9.765063,-0.064562,-0.011956,0.027336,0.026725,0.022297
1765409454.203622,-10.105808,0.188905,0.526064,0.028711,0.028711,0.022449
1765409454.206604,-10.087874,0.191894,0.553563,0.029932,0.036499,0.030391
1765409454.208609,-9.650286,-0.014347,-0.074725,0.021991,0.034667,0.031307
1765409454.211609,-9.650286,-0.014347,-0.074725,0.021991,0.026267,0.031307
1765409454.213620,-10.034670,-0.249880,0.337159,0.031765,0.033445,0.038790
1765409454.216630,-10.018531,-0.252272,0.319225,0.031765,0.033445,0.029932
1765409454.218671,-10.018531,-0.252272,0.319225,0.031765,0.038332,0.029932
1765409454.221639,-9.778812,0.205643,0.014347,0.025809,0.034056,0.025809
1765409454.223759,-9.695719,0.170373,-0.211621,0.025809,0.024740,0.025809
1765409454.226638,-10.086082,0.125538,0.466882,0.031765,0.040470,0.033139
1765409454.228609,-10.210424,-0.124342,0.622908,0.030543,0.040470,0.037874
1765409454.231666,-9.968315,-0.402917,0.162602,0.035125,0.027642,0.036805
1765409454.232609,-9.797942,-0.253467,-0.172166,0.034361,0.022449,0.018784
1765409454.236623,-9.889405,0.205643,0.017934,0.034667,0.032223,0.020769
1765409454.238648,-10.027497,0.392157,0.379005,0.032987,0.036957,0.031918
1765409454.241617,-10.055594,0.295313,0.477642,0.029932,0.039095,0.035888
1765409454.243785,-9.946198,-0.047824,0.191296,0.027184,0.033903,0.037721
1765409454.246704,-9.796148,-0.228360,-0.041846,0.035430,0.031460,0.033750
1765409454.248625,-9.772835,-0.260641,-0.017934,0.036499,0.031460,0.033139
1765409454.251605,-9.938425,-0.090268,0.277379,0.032070,0.035888,0.024893
1765409454.253693,-9.984456,0.239120,0.224175,0.030391,0.035888,0.020464
1765409454.256773,-10.010758,0.521282,0.210426,0.031001,0.040012,0.030238
1765409454.258617,-9.982065,0.363462,0.352702,0.028711,0.037110,0.038943
1765409454.261581,-10.117167,0.043042,0.429220,0.022449,0.029932,0.042761
1765409454.263602,-10.019128,-0.426829,0.071138,0.028863,0.027031,0.042302
1765409454.266566,-9.747727,-0.405906,-0.299498,0.036499,0.036194,0.032376
1765409454.268640,-9.785987,0.077714,0.056193,0.034056,0.042455,0.020006
1765409454.271595,-10.160210,0.531444,0.833333,0.031765,0.043830,0.022449
1765409454.273579,-10.154830,0.580464,0.569106,0.028863,0.037721,0.035583
1765409454.276618,-10.154830,0.580464,0.569106,0.028863,0.027489,0.035583
1765409454.278583,-9.624580,-0.141679,-0.505739,0.026725,0.031307,0.045204
1765409454.281575,-9.701099,-0.418460,-0.290531,0.036499,0.034819,0.042150
1765409454.283595,-10.059779,-0.329986,0.490196,0.034972,0.037568,0.027184
1765409454.286666,-10.112385,0.209230,0.467480,0.027947,0.045815,0.018021
1765409454.288618,-9.683165,0.424438,-0.062171,0.027947,0.041844,0.018021
1765409454.291589,-9.623384,0.470469,-0.298900,0.028711,0.035888,0.039554
1765409454.293628,-10.073528,0.139885,0.444763,0.028405,0.034056,0.044288
1765409454.296597,-10.163795,-0.490794,0.472262,0.030085,0.042150,0.048717
1765409454.298590,-9.897178,-0.612147,-0.069345,0.036499,0.037721,0.038332
1765409454.299579,-9.868484,-0.174558,-0.046628,0.041233,0.035583,0.019700
1765409454.303585,-10.035867,0.302487,0.368843,0.040317,0.043982,0.022297
1765409454.306567,-10.249280,0.589431,0.620516,0.039248,0.042913,0.034819
1765409454.308550,-10.088473,0.227164,0.374223,0.033445,0.034514,0.045204
1765409454.311609,-9.808702,-0.059780,-0.306074,0.029627,0.034514,0.045051
1765409454.313621,-9.771639,-0.420851,-0.347322,0.040623,0.029474,0.039554
1765409454.316645,-9.964130,-0.326399,0.246294,0.041844,0.038790,0.033903
1765409454.317615,-10.145862,0.208034,0.594213,0.039554,0.045357,0.022144
1765409454.321569,-10.145862,0.208034,0.594213,0.039554,0.039859,0.022144
1765409454.323658,-9.893590,0.593018,-0.232544,0.030696,0.032834,0.040623
1765409454.326586,-9.684958,0.078910,-0.362267,0.030849,0.037263,0.052534
1765409454.327602,-9.881634,-0.329986,0.017934,0.034667,0.044135,0.043524
1765409454.329622,-10.124342,-0.293520,0.379603,0.041233,0.048869,0.039554
1765409454.333572,-10.157221,-0.132712,0.466284,0.040317,0.043371,0.031154
1765409454.336630,-10.193088,0.326997,0.540411,0.041386,0.043371,0.023976
1765409454.338645,-9.927068,0.473458,0.098039,0.037415,0.044440,0.038026
1765409454.341634,-9.798540,0.196078,-0.083692,0.033903,0.032987,0.046273
1765409454.343664,-9.974891,-0.010760,0.133907,0.035277,0.032987,0.045357
1765409454.346561,-10.158416,-0.344333,0.364658,0.036499,0.040317,0.045968
1765409454.348586,-9.940218,-0.282759,-0.040053,0.043219,0.042455,0.036499
1765409454.351578,-10.130320,0.148852,0.459110,0.038179,0.042913,0.023060
1765409454.353694,-10.094451,0.309660,0.536824,0.039859,0.047647,0.034819
1765409454.354649,-9.860114,0.166188,0.051411,0.040317,0.035430,0.046120
1765409454.358628,-9.730989,-0.043042,-0.121951,0.033292,0.029322,0.043677
1765409454.361705,-9.880439,-0.074725,-0.150646,0.037263,0.036041,0.042150
1765409454.363632,-9.976685,-0.145863,-0.003587,0.045357,0.039859,0.040164
1765409454.366598,-9.799736,0.047824,0.032281,0.048717,0.052840,0.036805
1765409454.369601,-9.982065,0.254663,0.421449,0.039706,0.052840,0.037568
1765409454.371556,-9.882831,0.137494,0.307867,0.041081,0.047800,0.044440
1765409454.373558,-10.034670,0.011358,0.294118,0.041844,0.035583,0.044746
1765409454.376562,-9.823050,-0.022119,0.045433,0.044288,0.039095,0.039401
1765409454.378616,-9.818267,0.078910,-0.005978,0.040623,0.041692,0.038026
1765409454.381565,-9.717837,-0.017336,-0.176351,0.042608,0.039554,0.046884
1765409454.383644,-9.910329,0.075323,0.078312,0.049786,0.033903,0.043066
1765409454.386659,-10.004184,0.039455,0.329388,0.046426,0.042608,0.038179
1765409454.387568,-9.815877,0.117169,-0.059780,0.049786,0.049938,0.043371
1765409454.391574,-9.815877,0.117169,-0.059780,0.049786,0.041997,0.043371
1765409454.394633,-10.031085,0.302487,0.231946,0.039401,0.041997,0.041081
1765409454.396598,-10.191295,0.106408,0.362267,0.042455,0.046884,0.049786
1765409454.398596,-9.863102,-0.182927,-0.099235,0.048258,0.052993,0.052993
1765409454.401616,-9.988043,-0.076518,0.204448,0.047189,0.052993,0.041233
1765409454.402116,-9.988043,-0.076518,0.204448,0.047189,0.056505,0.041233
1765409454.406631,-10.095646,0.245696,0.438785,0.044899,0.045204,0.043066
1765409454.408630,-9.757890,0.303682,-0.355093,0.038332,0.036805,0.046273
1765409454.411635,-9.849353,0.243902,-0.130918,0.040470,0.054062,0.048106
1765409454.413642,-9.764465,-0.236729,0.014347,0.048869,0.054062,0.058948
1765409454.416601,-9.805116,-0.462697,0.298900,0.050855,0.047037,0.047495
1765409454.418652,-10.027497,0.059182,0.212817,0.048106,0.048869,0.028711
1765409454.421552,-9.863102,0.560736,-0.101626,0.049022,0.047342,0.036805
1765409454.422543,-9.623384,0.392157,-0.375418,0.046731,0.042761,0.049175
1765409454.426542,-9.871471,0.309660,0.107604,0.046120,0.045662,0.051924
1765409454.428599,-9.919296,-0.184720,0.234338,0.044746,0.056810,0.055589
1765409454.431545,-9.863700,-0.331181,0.051411,0.048411,0.047953,0.052382
1765409454.433545,-9.873264,-0.032281,-0.050813,0.051618,0.047953,0.037721
1765409454.436705,-9.873264,-0.032281,-0.050813,0.051618,0.053603,0.037721
1765409454.437638,-9.848158,0.285748,0.041248,0.045968,0.059101,0.049633
1765409454.441550,-9.958152,0.058584,0.292922,0.049786,0.045051,0.051160
1765409454.444572,-9.935436,-0.057987,0.199067,0.047800,0.047800,0.048106
1765409454.446597,-9.801530,0.138690,-0.230751,0.051160,0.051313,0.050091
1765409454.448622,-9.801530,0.138690,-0.230751,0.051160,0.050244,0.050091
1765409454.451580,-9.972500,0.185318,0.212817,0.056047,0.050855,0.043982
1765409454.453721,-10.187708,0.102822,0.555954,0.056352,0.056810,0.048411
1765409454.456635,-9.820060,0.020923,0.049020,0.052840,0.051160,0.048411
1765409454.459633,-9.648493,0.385581,-0.312052,0.044899,0.047342,0.042302
1765409454.460133,-9.862504,0.520086,-0.166188,0.043677,0.047800,0.051465
1765409454.463611,-9.897178,0.019130,-0.114778,0.047037,0.051618,0.068570
1765409454.466568,-9.895982,-0.295313,0.110593,0.051313,0.060170,0.054825
1765409454.468591,-9.806311,-0.156026,0.176949,0.049022,0.056810,0.040470
1765409454.469636,-9.855330,0.383788,0.172764,0.049175,0.056810,0.041844
1765409454.473620,-9.928263,0.512912,0.013152,0.045357,0.047037,0.049022
1765409454.476596,-9.776422,0.327594,-0.144668,0.042455,0.050244,0.058338
1765409454.478622,-9.683763,-0.252272,-0.306671,0.045051,0.051771,0.062308
1765409454.481587,-9.699903,-0.456719,-0.229555,0.052229,0.054978,0.053451
1765409454.484644,-9.930654,0.021521,-0.009565,0.054520,0.054214,0.040928
1765409454.486584,-10.099234,0.371234,0.230153,0.054367,0.060934,0.040470
1765409454.488559,-9.998206,0.388570,0.136298,0.051007,0.066126,0.049938
1765409454.491553,-9.940218,0.074127,0.087279,0.049022,0.052229,0.058032
1765409454.493539,-9.940218,0.074127,0.087279,0.049022,0.052840,0.058032
1765409454.496615,-10.192491,-0.004782,0.190100,0.055131,0.054214,0.050549
1765409454.498553,-10.004781,-0.033477,0.174558,0.056505,0.060934,0.054214
1765409454.501539,-9.986848,0.165591,0.066954,0.058948,0.052229,0.047800
1765409454.503601,-10.095646,0.089072,0.346724,0.053909,0.052229,0.049786
1765409454.506599,-10.045432,0.118364,-0.011956,0.058643,0.053451,0.050702
1765409454.508607,-9.829028,0.106408,-0.191296,0.058643,0.047647,0.052382
1765409454.511584,-9.826636,0.254663,-0.233142,0.059407,0.055589,0.052687
1765409454.513647,-9.973696,0.064562,-0.130918,0.062614,0.062156,0.059559
1765409454.514613,-9.930654,-0.178144,0.127929,0.061392,0.060476,0.059101
1765409454.518604,-10.023911,0.076518,0.366451,0.057727,0.065363,0.049175
1765409454.519626,-9.808105,0.370636,0.043639,0.059407,0.062919,0.049938
1765409454.523586,-9.764465,0.343735,-0.208034,0.053603,0.050091,0.054978
1765409454.526568,-9.851147,0.175753,-0.159015,0.055589,0.060323,0.061850
1765409454.528581,-9.923481,-0.277379,0.180536,0.059559,0.060323,0.062461
1765409454.531595,-9.912720,-0.017336,0.136298,0.061697,0.062156,0.054367
1765409454.533557,-9.970706,0.172764,0.100430,0.056963,0.053298,0.051618
1765409454.537007,-9.970706,0.172764,0.100430,0.056963,0.049786,0.051618
1765409454.538639,-9.882233,0.099833,-0.285748,0.059712,0.051618,0.059865
1765409454.541574,-9.854733,0.066954,0.052606,0.062766,0.063988,0.058338
1765409454.543559,-9.839190,0.338355,0.192492,0.058948,0.067806,0.053145
1765409454.544566,-9.946198,0.247489,0.206839,0.060476,0.062156,0.060170
1765409454.548626,-9.638927,-0.142276,-0.528455,0.063530,0.052993,0.060170
1765409454.551571,-9.888808,-0.044237,-0.173362,0.063225,0.050091,0.056200
1765409454.554673,-10.065758,0.049617,0.376614,0.063072,0.068875,0.050091
1765409454.556617,-10.109993,0.437590,0.466284,0.063683,0.064752,0.055589
1765409454.558608,-9.879243,0.325203,-0.072932,0.059712,0.049786,0.061697
1765409454.561578,-9.996411,0.052606,-0.239120,0.058796,0.042913,0.062614
1765409454.563590,-10.099831,-0.101626,-0.021521,0.068722,0.057421,0.061697
1765409454.566554,-10.008965,-0.070540,0.052606,0.068417,0.059712,0.059559
1765409454.568592,-9.952174,0.204448,0.144668,0.064446,0.066737,0.047342
1765409454.571630,-9.929459,0.397537,-0.037064,0.066890,0.054672,0.053603
1765409454.574600,-9.913916,0.321616,-0.133907,0.067653,0.054672,0.063072
1765409454.575100,-10.040649,0.333572,-0.038857,0.062614,0.055894,0.061239
1765409454.578574,-10.123145,0.185318,0.295911,0.060170,0.068111,0.062614
1765409454.579605,-9.808702,-0.149450,-0.147059,0.068875,0.062919,0.069180
1765409454.583580,-9.909132,-0.101626,-0.259445,0.068570,0.061392,0.055589
1765409454.586632,-10.161406,0.335964,0.154232,0.062461,0.061392,0.042455
1765409454.588656,-10.209229,0.640842,0.483022,0.062461,0.071471,0.042455
1765409454.591609,-9.664036,0.297704,-0.151841,0.065515,0.062003,0.069791
1765409454.593631,-9.846365,0.155428,-0.288140,0.054825,0.050244,0.056352
1765409454.596618,-10.043041,0.020325,-0.172166,0.067653,0.054978,0.059712
1765409454.597604,-9.929459,-0.106408,-0.049020,0.078802,0.060781,0.064752
1765409454.601576,-9.881634,0.334768,0.123147,0.071777,0.070708,0.047495
1765409454.604675,-9.988043,0.472860,0.401722,0.064904,0.050702,0.047647
1765409454.606664,-9.929459,0.524868,-0.210426,0.068417,0.050702,0.061545
1765409454.609580,-9.810495,0.396939,-0.434601,0.068417,0.044899,0.061545
1765409454.611575,-10.026302,0.292324,0.133907,0.060934,0.064294,0.060781
1765409454.612586,-10.054996,0.075323,0.038259,0.067348,0.068722,0.066890
1765409454.616579,-9.864896,-0.053802,-0.221186,0.069791,0.062003,0.057421
1765409454.619575,-10.011955,0.258847,-0.138690,0.063988,0.062003,0.045509
1765409454.621596,-10.011955,0.258847,-0.138690,0.063988,0.075136,0.045509
1765409454.623579,-9.856527,0.235533,0.025108,0.067806,0.071319,0.063988
1765409454.626596,-9.882233,0.392157,-0.023912,0.058338,0.059712,0.056352
1765409454.628581,-9.947989,0.193687,0.013749,0.059254,0.065210,0.059254
1765409454.631556,-9.910927,-0.068149,-0.175155,0.067959,0.060018,0.069791
1765409454.633562,-9.850550,-0.066954,-0.200861,0.067959,0.060934,0.055131
1765409454.636538,-9.992825,0.297107,0.026303,0.059254,0.068722,0.046273
1765409454.638610,-9.966521,0.585844,-0.096844,0.064599,0.068722,0.054978
1765409454.641572,-9.817670,0.398135,-0.095050,0.070708,0.064599,0.069486
1765409454.642552,-9.918698,0.009565,0.248685,0.060170,0.075289,0.065210
1765409454.647390,-9.922284,0.044835,-0.074725,0.060170,0.072998,0.065210
1765409454.648600,-9.826038,-0.026303,-0.229555,0.068111,0.062461,0.056810
1765409454.651568,-9.956957,0.505739,-0.181731,0.072693,0.065515,0.050396
1765409454.653569,-10.003586,0.368245,0.185318,0.066126,0.076053,0.059712
1765409454.656626,-9.898971,0.316236,0.011956,0.064294,0.074831,0.059101
1765409454.657701,-9.853538,0.340746,-0.316834,0.060170,0.063988,0.057421
1765409454.664113,-10.008368,0.209828,-0.045433,0.062003,0.067195,0.063530
1765409454.664613,-9.991630,0.058584,-0.021521,0.072082,0.075900,0.065210
1765409454.666604,-9.787182,0.014347,-0.114778,0.070708,0.077733,0.062766
1765409454.669569,-9.900764,0.194883,-0.145265,0.062461,0.073304,0.050244
1765409454.670069,-9.977880,0.561932,0.064562,0.070097,0.077122,0.057574
1765409454.672642,-9.849353,0.369440,-0.089670,0.069486,0.077122,0.067348
1765409454.676572,-9.868484,0.397537,-0.056193,0.060018,0.074373,0.063683
1765409454.678584,-10.050214,0.166188,0.071736,0.060018,0.077122,0.063683
1765409454.681619,-9.948587,-0.089670,-0.127929,0.069791,0.071319,0.073457
1765409454.683610,-10.052606,0.044237,0.163797,0.069486,0.072846,0.059559
1765409454.686614,-9.995216,0.424438,0.105213,0.061392,0.082925,0.052229
1765409454.688629,-9.886416,0.594213,-0.112386,0.064599,0.077580,0.067348
1765409454.691530,-9.875058,0.274988,-0.129125,0.063835,0.064904,0.071929
1765409454.694519,-9.869080,0.068149,-0.127929,0.063072,0.069639,0.072693
1765409454.696571,-9.801530,-0.168580,-0.225371,0.066737,0.076969,0.066890
1765409454.698539,-9.685556,-0.029292,-0.362267,0.071777,0.075136,0.066890
1765409454.701522,-10.035867,0.325203,0.100430,0.072082,0.068875,0.057879
1765409454.703528,-9.992825,0.467480,0.114778,0.067806,0.074220,0.059559
1765409454.706561,-9.836799,0.425634,-0.377810,0.064599,0.072388,0.067195
1765409454.708530,-9.825441,0.328790,-0.290531,0.066890,0.073304,0.071319
1765409454.711526,-10.033475,0.144668,0.004782,0.067042,0.078954,0.071471
1765409454.714643,-10.233141,0.033477,0.276184,0.071929,0.075595,0.074678
1765409454.716579,-10.005977,-0.050813,-0.041248,0.070402,0.077427,0.067959
1765409454.718561,-9.754900,-0.009565,-0.533835,0.075595,0.074831,0.065210
1765409454.721560,-9.734576,0.305476,-0.426829,0.074220,0.071624,0.060934
1765409454.723609,-10.017335,0.473458,0.074127,0.067806,0.075442,0.064599
1765409454.726550,-9.913916,0.297704,0.021521,0.067042,0.078191,0.072540
1765409454.728517,-9.861309,0.068149,-0.305476,0.070097,0.078496,0.070097
1765409454.731681,-9.833811,-0.058584,-0.294118,0.078649,0.079565,0.074831
1765409454.733519,-9.910927,0.056193,-0.015543,0.078954,0.075136,0.067042
1765409454.736557,-10.208033,0.312052,0.444763,0.076664,0.079412,0.062156
1765409454.738594,-9.992825,0.437590,-0.002989,0.078954,0.077427,0.065668
1765409454.741560,-9.677187,0.386777,-0.631277,0.076053,0.067501,0.070555
1765409454.743524,-9.586321,0.367049,-0.803443,0.076816,0.084452,0.072998
1765409454.746565,-10.140482,0.317432,0.259445,0.076053,0.084452,0.074220
1765409454.748609,-9.974294,0.239120,0.009565,0.077427,0.091630,0.078802
1765409454.749543,-9.968913,0.082496,-0.087877,0.072235,0.078649,0.071319
1765409454.752632,-9.928263,0.252272,-0.156624,0.074067,0.078649,0.064904
1765409454.754603,-9.965326,0.462697,-0.247489,0.084147,0.078954,0.074067
1765409454.758579,-9.936632,0.328192,0.129125,0.073457,0.079412,0.076816
1765409454.761611,-9.936632,0.328192,0.129125,0.073457,0.077580,0.076816
1765409454.762771,-10.001194,-0.081301,-0.308465,0.076816,0.074067,0.082009
1765409454.764638,-9.710065,-0.014347,-0.510521,0.083536,0.079412,0.072693
1765409454.769226,-9.907937,0.374223,-0.114180,0.078649,0.080634,0.064599
1765409454.772238,-9.838593,0.413080,-0.088474,0.074984,0.082009,0.074526
1765409454.773575,-9.838593,0.413080,-0.088474,0.074984,0.073762,0.074526
1765409454.776521,-9.801530,0.273792,-0.315041,0.078191,0.083078,0.083383
1765409454.778525,-9.741151,0.007174,-0.289335,0.077885,0.074373,0.079107
1765409454.781542,-9.762074,0.057389,-0.514108,0.083841,0.071471,0.075747
1765409454.783548,-9.952174,0.093855,-0.217599,0.085216,0.066890,0.076358
1765409454.786559,-9.991630,0.234338,-0.071736,0.086590,0.078191,0.070097
1765409454.788579,-9.809898,0.569106,-0.191296,0.085827,0.080023,0.070402
1765409454.791562,-9.564800,0.477044,-0.463893,0.080176,0.080023,0.079718
1765409454.794562,-9.745336,0.359278,-0.395744,0.083536,0.067348,0.080023
1765409454.796522,-9.951577,-0.035868,-0.255858,0.082009,0.073151,0.086590
1765409454.797520,-9.863700,0.009565,-0.112386,0.086132,0.080023,0.074831
1765409454.801531,-9.922883,0.387374,-0.088474,0.089034,0.071471,0.065821
1765409454.803520,-9.843375,0.558345,-0.180536,0.086437,0.071471,0.074678
1765409454.804601,-9.788378,0.462697,-0.548183,0.086743,0.064752,0.075595
1765409454.808545,-9.715446,0.426829,-0.429818,0.083078,0.084452,0.083536
1765409454.811549,-9.921686,0.324605,0.168580,0.085674,0.084452,0.083383
1765409454.813544,-9.921686,0.324605,0.168580,0.085674,0.076205,0.083383
1765409454.816542,-9.916306,0.082496,-0.337159,0.081398,0.063683,0.082009
1765409454.818389,-9.916306,0.082496,-0.337159,0.081398,0.078954,0.082009
1765409454.821541,-9.765661,0.399928,-0.331181,0.086896,0.076969,0.081092
1765409454.823565,-9.833811,0.469273,-0.228957,0.085979,0.076969,0.078496
1765409454.826544,-9.833811,0.469273,-0.228957,0.085979,0.074678,0.078496
1765409454.827539,-9.884026,0.219990,-0.558345,0.088423,0.081856,0.086590
1765409454.829546,-9.871471,0.162004,-0.334768,0.088728,0.078343,0.084452
1765409454.833562,-10.203251,0.393352,0.340746,0.083841,0.086285,0.074067
1765409454.836573,-10.248685,0.456719,0.085485,0.089186,0.081856,0.081398
1765409454.838566,-9.692730,0.207437,-0.606767,0.084605,0.073457,0.082772
1765409454.841569,-9.622189,0.466882,-0.935557,0.086285,0.084299,0.073151
1765409454.843537,-9.994021,0.417264,0.147059,0.092241,0.084299,0.086437
1765409454.846599,-9.871471,0.081899,-0.142276,0.090103,0.082925,0.090561
1765409454.848624,-10.010161,0.266619,-0.307269,0.088881,0.073304,0.081856
1765409454.851566,-9.916306,0.345528,-0.193687,0.085979,0.081703,0.077274
1765409454.853571,-10.047822,0.673123,0.158417,0.089797,0.080940,0.087506
1765409454.856571,-9.940218,0.412482,-0.210426,0.083841,0.073915,0.085979
1765409454.857556,-9.732184,0.381396,-0.655189,0.076205,0.081551,0.079718
1765409454.861537,-9.799137,0.367049,-0.474653,0.084605,0.081551,0.081703
1765409454.863525,-9.748923,0.292922,-0.261836,0.092699,0.078802,0.092241
1765409454.866587,-9.852343,0.155428,-0.278575,0.087506,0.076205,0.085063
1765409454.868554,-10.119559,0.416069,0.069345,0.085979,0.081551,0.072998
1765409454.871659,-10.119559,0.416069,0.069345,0.085979,0.086132,0.072998
1765409454.873572,-9.818267,0.557150,-0.112386,0.090408,0.073457,0.084452
1765409454.876519,-9.817670,0.536824,-0.431612,0.078954,0.073457,0.078954
1765409454.877521,-9.916904,0.414873,-0.228957,0.086896,0.080176,0.091172
1765409454.881523,-9.629362,0.047824,-0.627092,0.095295,0.080176,0.089797
1765409454.882559,-9.629362,0.047824,-0.475849,0.095295,0.078343,0.089797
1765409454.884615,-9.943208,0.651004,0.022119,0.085979,0.090866,0.068722
1765409454.888521,-9.997607,0.908656,-0.002391,0.090561,0.084605,0.086132
1765409454.891578,-9.728598,0.496174,-0.403515,0.082161,0.065363,0.090561
1765409454.893526,-9.825441,0.567910,-0.417264,0.080634,0.076205,0.078802
1765409454.897335,-9.752509,0.196078,-0.552367,0.085979,0.081092,0.093157
1765409454.898608,-9.540291,-0.059780,-0.760999,0.089492,0.072235,0.087201
1765409454.901547,-9.884026,0.483620,-0.295313,0.089644,0.075442,0.064599
1765409454.903561,-9.983260,0.865614,0.116571,0.091324,0.093462,0.072388
1765409454.906687,-9.583930,0.582855,-0.484218,0.091630,0.077733,0.088423
1765409454.907605,-9.696316,0.644428,-0.546389,0.085063,0.067042,0.081551
1765409454.911531,-10.034670,0.327594,-0.032281,0.082925,0.074678,0.076969
1765409454.913548,-9.738162,0.107604,-0.630081,0.088728,0.079871,0.088117
1765409454.916617,-9.695121,0.393352,-0.700024,0.092393,0.075289,0.088117
1765409454.917117,-10.160808,0.714969,0.237924,0.084299,0.090255,0.067195
1765409454.919578,-10.173959,0.765184,0.116571,0.091019,0.085827,0.089186
1765409454.923609,-9.995216,0.494978,-0.139885,0.086285,0.075900,0.082772
1765409454.924584,-9.753705,0.312052,-0.435198,0.076511,0.080940,0.081398
1765409454.928566,-9.705881,0.222382,-0.746054,0.081856,0.077274,0.085063
1765409454.931592,-9.797942,0.185318,-0.451937,0.086590,0.072082,0.077274
1765409454.933600,-10.034670,0.524868,-0.017336,0.082467,0.088575,0.076358
1765409454.936546,-9.738760,0.539813,-0.456719,0.087048,0.081398,0.085216
1765409454.938549,-9.601864,0.405308,-0.494978,0.084452,0.081398,0.085216
1765409454.941612,-9.811692,0.370636,-0.281564,0.085827,0.083078,0.086132
1765409454.944516,-9.892395,0.078312,-0.066356,0.087659,0.081856,0.093768
1765409454.946602,-9.593494,-0.038259,-0.717360,0.087659,0.086132,0.082620
1765409454.947577,-9.695719,0.216404,-0.693448,0.092852,0.087812,0.075747
1765409454.950129,-9.983260,0.466882,-0.169177,0.097280,0.087812,0.077122
1765409454.952538,-10.071137,0.655189,0.004782,0.094226,0.089644,0.082925
1765409454.956567,-9.769248,0.380201,-0.365854,0.087048,0.092088,0.086590
1765409454.959616,-9.712457,0.446557,-0.494978,0.091324,0.088575,0.083536
1765409454.961517,-10.109993,0.417264,0.040650,0.092699,0.085368,0.087965
1765409454.964684,-9.986250,0.173960,-0.295313,0.092699,0.085368,0.094226
1765409454.966542,-9.988043,0.284553,-0.298900,0.088117,0.085063,0.082161
1765409454.968595,-9.814680,0.563128,-0.375418,0.091783,0.096517,0.081398
1765409454.971655,-9.788378,0.471066,-0.413678,0.091935,0.087812,0.094990
1765409454.973569,-10.137493,0.370636,-0.135103,0.089186,0.082314,0.088270
1765409454.976567,-10.024508,0.270206,-0.202654,0.091477,0.094990,0.089339
1765409454.978514,-9.849353,0.139885,-0.431612,0.099876,0.101404,0.099113
1765409454.981514,-9.766856,0.017934,-0.657580,0.101709,0.082925,0.090103
1765409454.983549,-10.117167,0.486609,-0.151243,0.098655,0.087965,0.082161
1765409454.986565,-10.205045,0.579866,0.126734,0.102167,0.099876,0.093615
1765409454.988506,-9.744739,0.467480,-0.437590,0.099113,0.098197,0.097891
1765409454.989529,-9.717837,0.349115,-0.615734,0.094226,0.080940,0.092088
1765409454.994531,-9.811094,0.374223,-0.523673,0.091019,0.089034,0.086285
1765409454.996506,-9.788378,0.545194,-0.732903,0.103542,0.089034,0.097738
1765409454.998521,-9.788378,0.545194,-0.732903,0.103542,0.089339,0.097738
1765409455.001513,-9.795551,0.441176,-0.532042,0.094531,0.092088,0.084910
1765409455.003530,-9.994021,0.735294,-0.173960,0.101709,0.096822,0.093615
1765409455.004577,-10.014346,0.668938,-0.064562,0.096517,0.094226,0.098502
1765409455.009562,-9.886416,0.703013,-0.384385,0.092393,0.094226,0.099724
1765409455.011608,-9.855330,0.434003,-0.564323,0.090713,0.090561,0.106443
1765409455.013544,-9.924676,0.166188,-0.555954,0.101404,0.085216,0.106138
1765409455.016632,-9.887015,0.205643,-0.566117,0.103542,0.091019,0.099113
1765409455.017555,-9.768650,0.426231,-0.613941,0.097738,0.104153,0.093310
1765409455.019495,-9.898373,0.682688,-0.225968,0.105222,0.104153,0.095295
1765409455.022510,-10.126135,0.750837,0.037064,0.105374,0.099571,0.102778
1765409455.026572,-9.948587,0.315638,-0.248685,0.097280,0.091935,0.108276
1765409455.028608,-9.792562,0.143472,-0.917025,0.101709,0.091935,0.100640
1765409455.031581,-9.890003,0.228360,-0.797465,0.101709,0.098349,0.100640
1765409455.033595,-10.053802,0.408895,-0.218197,0.110414,0.098197,0.097891
1765409455.036521,-10.225369,0.711382,0.133907,0.098502,0.102473,0.088881
1765409455.037522,-10.018531,0.942731,-0.198470,0.098349,0.101709,0.096211
1765409455.041602,-9.667024,0.463295,-0.805834,0.098197,0.095142,0.112246
1765409455.042685,-9.667024,0.463295,-0.805834,0.098197,0.083994,0.112246
1765409455.046591,-10.216402,0.274988,0.004185,0.103236,0.095753,0.100793
1765409455.048589,-9.818267,0.260641,-0.646820,0.108429,0.099571,0.104305
1765409455.051589,-9.929459,0.590029,-0.646222,0.109345,0.087354,0.091172
1765409455.053574,-10.124342,0.921808,-0.199665,0.102625,0.094684,0.093004
1765409455.054594,-10.124342,0.921808,-0.199665,0.102625,0.093768,0.093004
1765409455.058759,-9.997009,0.576279,-0.473458,0.099876,0.093921,0.110108
1765409455.061556,-10.047822,0.355691,-0.410091,0.096975,0.093921,0.104153
1765409455.063649,-10.022716,0.389766,-0.441176,0.105374,0.093310,0.100335
1765409455.066664,-9.962935,0.502152,-0.322214,0.100945,0.093310,0.098349
1765409455.068749,-9.977283,0.761597,-0.327594,0.101098,0.099571,0.094379
1765409455.071539,-9.929459,0.816595,-0.267814,0.097128,0.092699,0.100487
1765409455.073538,-9.598875,0.522477,-0.966643,0.097128,0.080329,0.110414
1765409455.076525,-9.850550,0.539813,-0.779531,0.095448,0.106596,0.098960
1765409455.078484,-10.267216,0.699426,0.097441,0.102778,0.106596,0.100640
1765409455.081504,-10.066953,0.448350,-0.078910,0.106749,0.101098,0.116981
1765409455.082533,-9.962935,0.413080,-0.344333,0.102014,0.084299,0.096364
1765409455.086549,-10.071735,0.686274,-0.399330,0.103084,0.090713,0.098807
1765409455.087517,-9.702294,0.584051,-0.705404,0.103084,0.093615,0.098807
1765409455.091522,-9.726804,0.660569,-0.762793,0.102167,0.088881,0.102014
1765409455.094494,-9.913317,0.538020,-0.504543,0.098960,0.092241,0.099876
1765409455.096523,-10.059779,0.454926,-0.318030,0.113316,0.098044,0.104305
1765409455.098341,-9.846962,0.309660,-0.562530,0.117439,0.094379,0.103694
1765409455.101575,-9.986250,0.691057,-0.156624,0.108734,0.096822,0.089644
1765409455.102598,-9.827832,1.027020,-0.509326,0.104000,0.099724,0.090866
1765409455.106669,-9.732184,0.813606,-0.596604,0.105985,0.094226,0.105222
1765409455.108612,-9.597081,0.565519,-0.880559,0.105680,0.093615,0.099876
1765409455.111551,-10.199663,0.755619,-0.107006,0.105680,0.095600,0.098502
1765409455.112566,-10.005379,0.583453,-0.321616,0.104153,0.105069,0.102625
1765409455.114589,-9.809898,0.720349,-0.530846,0.107665,0.097128,0.100640
1765409455.118590,-9.727402,0.564323,-0.542802,0.103389,0.104153,0.098349
1765409455.121591,-9.738760,0.676710,-0.539813,0.107970,0.093615,0.100029
1765409455.123583,-9.666426,0.763988,-0.915830,0.106138,0.093615,0.094531
1765409455.124560,-9.759683,0.834529,-0.601387,0.101556,0.094531,0.096517
1765409455.127507,-9.802725,0.840507,-0.634864,0.102320,0.108123,0.099266
1765409455.129500,-9.979673,0.509923,-0.279770,0.105069,0.097891,0.109039
1765409455.132608,-9.907937,0.471066,-0.337159,0.099571,0.100487,0.096975
1765409455.136553,-10.062170,0.888929,-0.609756,0.099266,0.096059,0.089034
1765409455.138480,-9.862504,0.958871,-0.570301,0.093462,0.106596,0.097738
1765409455.139540,-9.757292,1.037183,-0.655787,0.096517,0.100793,0.101098
1765409455.142587,-9.757292,1.037183,-0.110593,0.096517,0.100487,0.101098
1765409455.146511,-9.811094,0.397537,-0.507532,0.098960,0.100640,0.104458
1765409455.148545,-9.735771,0.454328,-0.896700,0.102014,0.095142,0.100640
1765409455.149560,-9.832614,0.629483,-0.484218,0.100640,0.096517,0.094226
1765409455.153578,-9.827832,0.845289,-0.467480,0.103847,0.104153,0.095753
1765409455.156651,-9.771639,0.657580,-0.467480,0.101709,0.097280,0.108887
1765409455.158606,-9.805714,0.610952,-0.765782,0.101404,0.093768,0.100640
1765409455.161580,-9.924676,0.522477,-0.523673,0.104000,0.098197,0.104458
1765409455.163815,-9.736967,0.112386,-0.675514,0.102320,0.099418,0.109345
1765409455.166559,-9.789574,0.472262,-0.866810,0.107665,0.095906,0.095295
1765409455.168667,-10.014346,0.679699,-0.313845,0.100029,0.099571,0.092393
1765409455.169610,-10.081299,0.756815,-0.212817,0.104305,0.104611,0.101709
1765409455.173554,-9.704088,0.533238,-0.948111,0.104153,0.098044,0.104611
1765409455.176560,-9.787182,0.393352,-0.735294,0.101556,0.093921,0.100640
1765409455.179574,-9.787182,0.469273,-0.779531,0.111330,0.098197,0.101098
1765409455.181529,-9.809898,0.386777,-0.613343,0.110872,0.098197,0.108123
1765409455.183568,-9.961142,0.511717,-0.639646,0.117133,0.096975,0.098044
1765409455.186512,-9.920491,0.644428,-0.669536,0.113621,0.111177,0.100487
1765409455.189503,-9.794355,0.460306,-0.798661,0.115454,0.108887,0.108887
1765409455.191474,-9.711859,0.729914,-0.842300,0.115301,0.104458,0.101251
1765409455.193567,-10.208632,0.706600,-0.019727,0.107512,0.103694,0.107818
1765409455.196501,-10.118960,0.328790,-0.536824,0.107512,0.112399,0.107818
1765409455.197523,-9.836202,0.212817,-0.895504,0.118661,0.099724,0.109498
1765409455.201498,-9.752509,0.469871,-0.772955,0.111483,0.109956,0.100335
1765409455.203507,-9.872069,0.899091,-0.462697,0.119577,0.113010,0.102778
1765409455.206971,-9.915112,0.693448,-0.376614,0.117286,0.102014,0.119577
1765409455.208506,-9.851745,0.494381,-0.871592,0.115301,0.098807,0.116981
1765409455.209530,-9.809898,0.313845,-0.777140,0.116217,0.114843,0.109345
1765409455.213492,-9.606049,0.170971,-0.893113,0.126755,0.114843,0.119271
1765409455.214497,-9.738760,0.514108,-0.880559,0.126755,0.105832,0.119271
1765409455.218639,-10.212217,0.656384,-0.211621,0.117439,0.111330,0.106291
1765409455.221635,-10.053802,0.668340,-0.347920,0.132100,0.120188,0.121715
1765409455.223612,-9.708273,0.487805,-0.866212,0.129198,0.105374,0.121104
1765409455.226577,-10.010161,0.607365,-0.462697,0.115912,0.104611,0.107818
1765409455.227765,-10.010161,0.607365,-0.462697,0.115912,0.112094,0.107818
1765409455.231533,-9.866092,0.185318,-0.814204,0.125075,0.100945,0.132252
1765409455.233604,-9.818267,0.491392,-0.888331,0.126602,0.097891,0.110261
1765409455.236542,-10.064561,0.698230,-0.325203,0.122784,0.112094,0.104916
1765409455.238530,-9.763867,0.795672,-0.717360,0.128740,0.110719,0.122478
1765409455.241540,-9.671208,0.692252,-1.284074,0.124617,0.092088,0.119730
1765409455.243600,-9.774031,0.509326,-0.785509,0.125686,0.114537,0.120188
1765409455.246518,-9.772835,0.729316,-0.694046,0.132863,0.114537,0.120188
1765409455.247648,-9.694523,0.427427,-0.662960,0.128434,0.107207,0.129045
1765409455.251623,-9.796148,0.661167,-0.723338,0.130267,0.098502,0.116675
1765409455.254527,-10.228358,0.841702,-0.560736,0.125380,0.100487,0.117439
1765409455.256587,-9.905546,0.759206,-0.561932,0.134543,0.106749,0.129962
1765409455.258543,-9.444643,0.891918,-1.092778,0.129656,0.106749,0.122326
1765409455.261619,-9.677784,0.860832,-0.574486,0.122478,0.102931,0.124158
1765409455.263565,-9.568387,0.877571,-1.035390,0.126449,0.089950,0.128587
1765409455.266555,-9.899570,0.804041,-0.769966,0.125838,0.089950,0.130114
1765409455.268564,-9.783595,0.811812,-0.835724,0.122326,0.107207,0.123089
1765409455.271539,-9.808702,0.816595,-0.661167,0.126907,0.109345,0.127518
1765409455.273557,-9.471543,0.675514,-0.918221,0.126907,0.108123,0.127518
1765409455.276557,-9.766856,1.062888,-0.688068,0.119882,0.091630,0.117744
1765409455.277529,-9.996411,1.020445,-0.340746,0.120188,0.102014,0.125380
1765409455.281475,-9.368722,0.853658,-1.337876,0.131489,0.104000,0.140346
1765409455.283518,-9.484097,0.402917,-1.056910,0.118661,0.091324,0.127824
1765409455.286592,-10.086082,0.930177,-0.304878,0.124311,0.103084,0.111483
1765409455.289528,-10.245097,0.932568,-0.277977,0.115454,0.105222,0.122173
1765409455.290028,-9.705284,1.050932,-0.794476,0.122937,0.096517,0.124464
1765409455.294585,-9.518172,0.794476,-1.213534,0.111025,0.097738,0.117133
1765409455.296543,-9.782400,0.732903,-0.579866,0.129198,0.098044,0.130572
1765409455.297527,-9.709468,0.596007,-0.980990,0.129045,0.097738,0.120035
1765409455.301573,-10.146461,0.970229,-0.167384,0.130114,0.097738,0.107512
1765409455.304534,-9.852343,1.305595,-0.636059,0.131183,0.116675,0.110414
1765409455.305034,-9.939023,1.229077,-0.394548,0.126449,0.096669,0.123242
1765409455.309493,-9.766856,1.271520,-0.600789,0.119119,0.099876,0.117133
1765409455.311505,-9.988043,0.905069,-0.534433,0.113468,0.095448,0.122326
1765409455.314467,-9.365135,0.632472,-1.117886,0.120188,0.104763,0.127976
1765409455.316466,-9.434480,0.774749,-1.212338,0.118355,0.087048,0.110108
1765409455.318566,-9.714250,1.195600,-0.533238,0.116370,0.105985,0.102931
1765409455.321490,-9.699903,1.432329,-0.903874,0.117133,0.108734,0.115606
1765409455.323491,-9.636537,0.928981,-0.872788,0.117133,0.099266,0.130420
1765409455.326527,-9.742945,0.823768,-0.601387,0.111483,0.105374,0.114232
1765409455.327591,-10.059779,0.821377,-0.282162,0.117133,0.113163,0.115912
1765409455.331519,-9.399808,0.588235,-1.362386,0.118050,0.110567,0.122326
1765409455.333520,-9.648493,0.798661,-1.302009,0.120340,0.090561,0.104458
1765409455.336501,-9.834408,1.177068,-0.647417,0.120035,0.116523,0.108734
1765409455.338530,-9.968913,1.022836,-0.480631,0.120340,0.115606,0.115454
1765409455.341535,-9.850550,1.003108,-0.475251,0.116675,0.110261,0.118202
1765409455.343527,-9.956957,0.777140,-0.834529,0.105680,0.101556,0.112705
1765409455.346530,-9.917501,0.642037,-0.863821,0.117286,0.105222,0.121562
1765409455.348534,-9.563604,0.612147,-1.453252,0.118813,0.103236,0.115454
1765409455.351545,-10.105211,0.928981,-0.383190,0.113774,0.110108,0.103389
1765409455.354560,-9.906742,1.172884,-0.438187,0.114843,0.126755,0.113926
1765409455.355060,-10.185316,0.838713,-0.383788,0.114995,0.100029,0.121715
1765409455.357509,-9.772835,0.798661,-1.047346,0.112399,0.105680,0.120646
1765409455.361527,-10.072333,0.679101,-0.734098,0.111941,0.102014,0.116981
1765409455.364643,-9.776422,0.479436,-0.893711,0.120035,0.112857,0.122631
1765409455.366562,-9.868484,0.679101,-0.830942,0.114079,0.101556,0.112705
1765409455.368495,-9.868484,0.679101,-0.830942,0.114079,0.118355,0.112705
1765409455.371466,-9.540888,0.964251,-1.293639,0.118661,0.111177,0.123547
1765409455.373516,-9.668818,0.644428,-1.083214,0.114843,0.090408,0.123547
1765409455.376545,-9.896580,0.856647,-0.939742,0.111636,0.100182,0.116675
1765409455.378553,-10.461500,0.652200,-0.143472,0.112552,0.111636,0.125991
1765409455.379556,-10.461500,0.652200,-0.143472,0.112552,0.116675,0.125991
1765409455.383532,-9.638927,0.517097,-1.211143,0.114690,0.109803,0.115759
1765409455.386499,-10.203848,0.994739,-0.325203,0.121104,0.109803,0.115912
1765409455.388581,-10.210424,0.838116,-0.713175,0.129198,0.109192,0.132252
1765409455.391528,-9.592299,0.660569,-1.032998,0.125533,0.107665,0.131031
1765409455.392476,-9.570181,0.607365,-1.107723,0.117439,0.101404,0.124006
1765409455.396549,-10.039454,0.521282,-0.643831,0.124922,0.098197,0.131336
1765409455.397551,-9.660448,0.630081,-1.490913,0.132558,0.098197,0.130725
1765409455.401491,-9.966521,0.720947,-0.926590,0.125227,0.115301,0.127213
1765409455.402528,-9.810495,0.857245,-0.804041,0.134390,0.123547,0.135765
1765409455.406495,-10.126732,0.503348,-0.130320,0.123700,0.104305,0.135918
1765409455.408501,-10.026302,0.707795,-0.655787,0.127671,0.104153,0.130420
1765409455.411567,-9.730989,0.585844,-1.188426,0.131641,0.101404,0.130572
1765409455.413536,-9.312529,0.479436,-1.690578,0.143706,0.108734,0.142942
1765409455.416568,-9.909731,0.561932,-0.731707,0.146913,0.124464,0.129656
1765409455.418557,-10.259443,0.829746,0.007174,0.142484,0.124464,0.127976
1765409455.421531,-10.259443,0.829746,0.007174,0.142484,0.113468,0.127976
1765409455.423527,-9.556431,0.911047,-1.287661,0.131183,0.100182,0.132863
1765409455.424520,-9.441654,0.989957,-1.389287,0.131183,0.106749,0.132863
1765409455.428509,-9.998802,0.365854,-0.561932,0.135612,0.116675,0.149357
1765409455.431519,-9.647297,0.480631,-0.952295,0.148746,0.116675,0.138972
1765409455.433506,-9.874461,0.766380,-0.710186,0.142332,0.107665,0.129045
1765409455.436532,-9.701099,1.016260,-0.824964,0.145997,0.115301,0.134543
1765409455.438536,-9.970109,0.932568,-0.908058,0.144775,0.094837,0.139277
1765409455.441519,-10.053802,1.030009,-0.475849,0.148288,0.107970,0.144164
1765409455.443542,-9.539692,0.604376,-1.352224,0.140499,0.107360,0.141110
1765409455.448256,-9.739358,0.842898,-1.044357,0.150273,0.102167,0.139583
1765409455.448756,-9.647297,0.662362,-1.590746,0.143706,0.101709,0.136681
1765409455.451631,-10.044236,1.139407,-0.365854,0.152411,0.101709,0.135612
1765409455.453573,-9.650286,1.172286,-1.032998,0.137903,0.125533,0.130878
1765409455.454580,-10.065159,1.348637,-0.384983,0.144775,0.102014,0.141568
1765409455.457539,-9.608439,0.973816,-1.374940,0.131947,0.105832,0.144011
1765409455.461552,-9.992825,1.115495,-0.924199,0.143706,0.091783,0.137903
1765409455.462600,-9.565996,0.830942,-1.372549,0.142332,0.125075,0.143859
1765409455.466527,-9.851147,1.044357,-0.585246,0.146913,0.112399,0.136528
1765409455.467525,-9.599473,1.110713,-0.988761,0.141873,0.120951,0.138514
1765409455.471473,-9.744141,1.275705,-0.724534,0.146150,0.095448,0.133779
1765409455.473462,-9.434480,1.455045,-1.659493,0.134696,0.113774,0.135918
1765409455.476490,-9.615016,1.225490,-1.044954,0.140652,0.100945,0.139125
1765409455.478508,-9.615016,1.225490,-1.044954,0.140652,0.127213,0.139125
1765409455.481497,-9.882831,0.854854,-0.612147,0.136070,0.104916,0.138972
1765409455.482510,-9.788378,1.255380,-1.007891,0.130572,0.115148,0.128893
1765409455.486513,-9.680773,1.559660,-1.269727,0.134696,0.119730,0.130878
1765409455.488474,-9.508607,1.488522,-1.043759,0.131489,0.119730,0.139888
1765409455.491486,-9.717837,1.184840,-0.827953,0.131794,0.110719,0.137903
1765409455.493501,-9.774031,1.166308,-0.668340,0.127824,0.113926,0.133627
1765409455.496542,-9.517574,0.988761,-1.512434,0.129351,0.109192,0.133779
1765409455.498528,-9.586919,1.485533,-1.405428,0.136376,0.111330,0.133321
1765409455.501549,-10.043041,1.350430,-0.426829,0.122784,0.120646,0.130572
1765409455.502508,-10.046029,1.452654,-0.474653,0.122937,0.121257,0.140804
1765409455.506518,-9.789574,0.752032,-0.962458,0.119577,0.106749,0.140041
1765409455.508506,-9.594690,1.122668,-1.518412,0.118202,0.105222,0.126755
1765409455.509512,-9.594690,1.122668,-1.518412,0.118202,0.116370,0.126755
1765409455.513500,-9.890003,1.162123,-0.729316,0.127824,0.124158,0.137903
1765409455.516529,-9.837996,0.716164,-0.896700,0.122631,0.103084,0.136376
1765409455.518533,-9.768052,1.153156,-1.169297,0.125686,0.110719,0.121104
1765409455.521483,-9.827234,1.148972,-1.212338,0.123395,0.107512,0.120493
1765409455.522457,-9.567192,1.690578,-1.547106,0.128129,0.114537,0.133016
1765409455.524524,-9.939023,1.138809,-0.791487,0.108734,0.114537,0.130878
1765409455.528503,-9.760281,1.099952,-0.765184,0.117744,0.128893,0.137445
1765409455.531509,-9.809898,0.637255,-1.276901,0.112857,0.106596,0.131794
1765409455.532539,-9.741750,1.105930,-1.385700,0.122173,0.106443,0.124617
1765409455.534543,-10.022716,1.090387,-0.939742,0.118202,0.121104,0.125075
1765409455.539478,-9.969511,1.170492,-0.583453,0.129045,0.127671,0.139583
1765409455.541470,-9.827832,0.674916,-1.111908,0.115301,0.109345,0.134390
1765409455.543503,-10.021520,1.127451,-0.771760,0.124769,0.121562,0.127365
1765409455.546467,-9.827832,0.832735,-1.488522,0.119730,0.121562,0.135459
1765409455.548460,-9.877449,1.034194,-1.041368,0.140804,0.116370,0.147371
1765409455.551454,-9.744739,0.618125,-1.220708,0.122631,0.124006,0.132100
1765409455.553503,-10.192491,0.980392,-0.319823,0.135612,0.113316,0.137903
1765409455.556507,-9.477522,0.679101,-1.686992,0.120340,0.095448,0.136834
1765409455.558460,-9.595288,1.131635,-1.209349,0.129045,0.095448,0.132558
1765409455.559460,-9.597081,0.864419,-1.211143,0.127213,0.122478,0.137597
1765409455.562520,-9.947392,0.734098,-0.622908,0.141263,0.104611,0.151189
1765409455.566451,-9.518172,0.418460,-1.565638,0.129198,0.109956,0.140346
1765409455.568543,-9.803323,0.955882,-1.161525,0.141263,0.093615,0.127824
1765409455.571537,-9.823647,1.104735,-1.182449,0.133169,0.123853,0.141263
1765409455.572600,-10.016738,0.985174,-0.577475,0.148135,0.105374,0.153480
1765409455.576595,-9.835006,0.730512,-0.946915,0.129503,0.117897,0.147524
1765409455.578532,-9.866092,0.657580,-1.270325,0.138514,0.095600,0.143553
1765409455.581498,-9.655068,0.801052,-1.634385,0.138056,0.109803,0.143859
1765409455.582584,-9.806311,0.960067,-1.205763,0.144164,0.104763,0.141721
1765409455.586582,-9.915112,1.126853,-0.633668,0.142332,0.129962,0.147524
1765409455.589490,-9.670013,0.921210,-1.023434,0.146913,0.105374,0.153327
1765409455.591473,-9.683165,1.098756,-1.427546,0.136834,0.105374,0.144317
1765409455.593523,-9.683165,1.098756,-1.427546,0.136834,0.101862,0.144317
1765409455.594621,-9.637732,1.102941,-1.211143,0.156076,0.123089,0.163254
1765409455.598511,-9.591104,0.694046,-1.184840,0.156076,0.115301,0.163254
1765409455.601455,-9.954566,1.067671,-0.748446,0.147829,0.116064,0.146913
1765409455.603449,-10.059779,1.268532,-1.076040,0.143248,0.116064,0.146302
1765409455.606541,-10.059779,1.268532,-1.076040,0.143248,0.119577,0.146302
1765409455.609446,-9.467359,0.896102,-1.370158,0.140194,0.121409,0.166461
1765409455.609946,-9.778215,0.726327,-0.907460,0.146760,0.121562,0.164475
1765409455.612480,-9.762074,0.394548,-1.272716,0.152869,0.118050,0.157603
1765409455.616491,-9.830223,1.250598,-1.463415,0.155771,0.118050,0.145691
1765409455.618549,-10.061573,1.441894,-0.806432,0.156229,0.130267,0.145386
1765409455.621571,-9.905546,1.578192,-0.836920,0.160047,0.119271,0.164628
1765409455.624472,-9.831419,0.770564,-0.803443,0.158520,0.119271,0.169057
1765409455.624972,-9.697512,0.956480,-1.166906,0.148288,0.118966,0.151342
1765409455.627508,-9.927068,1.151363,-1.010282,0.154091,0.119271,0.146760
1765409455.629467,-9.759683,1.376734,-1.083214,0.157603,0.122478,0.152258
1765409455.634440,-9.861907,1.439502,-0.900287,0.157756,0.117897,0.150273
1765409455.634940,-9.836202,1.232664,-1.221903,0.144164,0.117897,0.150273
1765409455.638499,-9.836202,1.232664,-1.221903,0.144164,0.111636,0.150273
1765409455.641446,-9.924078,1.526183,-1.016260,0.151647,0.121409,0.149357
1765409455.643437,-9.970706,1.610473,-0.609756,0.154091,0.132863,0.154702
1765409455.644442,-9.846962,1.043759,-0.888331,0.149967,0.125227,0.159283
1765409455.649511,-9.591701,1.140602,-1.728838,0.156076,0.107665,0.150120
1765409455.651540,-9.591701,1.140602,-1.728838,0.156076,0.110567,0.150120
1765409455.653555,-10.237924,1.774271,-0.512912,0.153174,0.129503,0.147371
1765409455.656490,-9.961142,1.531564,-0.771760,0.151647,0.129503,0.157603
1765409455.658522,-9.369917,1.212338,-1.682807,0.141110,0.101404,0.152258
1765409455.661531,-9.371113,1.209947,-1.834050,0.142637,0.101404,0.143706
1765409455.663568,-9.892395,1.548900,-1.374940,0.142637,0.117897,0.143706
1765409455.668658,-9.890003,1.352821,-0.860832,0.149815,0.123089,0.149509
1765409455.669158,-9.959349,1.502869,-0.948111,0.136223,0.134696,0.140041
1765409455.671499,-9.623982,1.152558,-1.232664,0.145386,0.110567,0.148135
1765409455.672491,-9.589908,1.269727,-1.597322,0.144775,0.110567,0.145233
1765409455.676467,-10.058583,1.542922,-0.808226,0.147677,0.111483,0.140804
1765409455.678505,-9.989238,1.369560,-0.769369,0.135918,0.129809,0.144622
1765409455.681483,-9.619798,1.260162,-1.666667,0.141721,0.109039,0.149051
1765409455.683457,-9.613820,1.012673,-1.643352,0.139583,0.103542,0.142026
1765409455.686500,-10.058583,1.652319,-0.489000,0.149051,0.119424,0.132100
1765409455.688485,-9.880439,1.670253,-0.738881,0.135154,0.131489,0.143706
1765409455.691464,-9.355571,1.541726,-1.500478,0.138361,0.097128,0.153327
1765409455.693451,-9.487086,1.162123,-1.942850,0.120493,0.092699,0.144317
1765409455.696486,-9.809898,1.275705,-1.245815,0.120493,0.105985,0.144317
1765409455.698483,-9.879243,1.006695,-0.713773,0.137292,0.127824,0.154091
1765409455.701447,-9.921686,1.348637,-0.758010,0.135765,0.112552,0.142942
1765409455.702442,-9.953370,1.170492,-1.248206,0.118202,0.104763,0.145539
1765409455.706463,-9.733380,1.463415,-1.798182,0.135765,0.098502,0.147829
1765409455.707446,-9.647297,1.175275,-1.308584,0.136070,0.112857,0.159894
1765409455.711459,-9.730989,1.025825,-0.817790,0.133932,0.124006,0.161574
1765409455.714464,-9.863102,0.530846,-1.040172,0.135459,0.110719,0.155312
1765409455.716433,-9.562408,0.884146,-1.679818,0.145233,0.102625,0.147219
1765409455.718434,-9.637732,1.024032,-1.541128,0.145233,0.107818,0.141415
1765409455.721439,-9.772835,1.522597,-0.973218,0.150120,0.118661,0.151342
1765409455.723587,-10.057985,1.028216,-0.517695,0.137597,0.110719,0.158672
1765409455.724459,-9.662242,1.001913,-1.596126,0.138056,0.102931,0.154702
1765409455.729442,-9.555834,0.940937,-1.819703,0.141415,0.100487,0.150120
1765409455.731458,-9.521759,1.215925,-1.618842,0.149815,0.116523,0.154854
1765409455.734434,-9.933045,1.043759,-0.732903,0.152716,0.113316,0.158825
1765409455.736432,-9.843375,1.071258,-1.098756,0.144164,0.116523,0.154396
1765409455.739526,-9.748923,1.121473,-1.447274,0.151342,0.105832,0.153022
1765409455.741458,-9.495455,1.371353,-1.823290,0.157909,0.115606,0.161421
1765409455.744430,-10.101624,1.293639,-0.424438,0.161727,0.108581,0.167224
1765409455.746448,-10.130320,0.836322,-0.834529,0.148135,0.124617,0.173638
1765409455.747491,-9.777617,0.646820,-1.741989,0.158214,0.093768,0.167072
1765409455.751551,-9.577952,0.999522,-2.058823,0.155007,0.102931,0.151800
1765409455.754464,-9.791965,1.397656,-0.836322,0.165392,0.117897,0.157603
1765409455.756516,-9.927666,1.451458,-0.624103,0.160505,0.134543,0.167530
1765409455.758497,-10.058583,1.199187,-0.854256,0.157145,0.105832,0.170890
1765409455.761501,-9.778812,0.946915,-1.802367,0.151189,0.100793,0.162643
1765409455.763464,-9.516976,1.159732,-1.953610,0.171500,0.099113,0.159741
1765409455.766480,-9.553442,1.280488,-1.180057,0.168599,0.123547,0.162796
