time,acc_x_g,acc_y_g,acc_z_g,gyro_x_rad_s,gyro_y_rad_s,gyro_z_rad_s
1765409761.470110,-8.061932,-5.756814,-1.082616,-0.006567,-0.007789,-0.001069
1765409761.470310,-7.962697,-5.750836,-1.203969,-0.008399,-0.005651,-0.001222
1765409761.470510,-7.851505,-5.766379,-1.334888,-0.007025,-0.004276,-0.000764
1765409761.470710,-7.924438,-5.746054,-1.187231,-0.007789,-0.007636,0.001833
1765409761.470950,-8.039214,-5.716164,-1.162123,-0.006567,-0.007636,-0.000764
1765409761.471200,-7.947154,-5.720348,-1.235055,-0.007330,-0.007025,-0.001833
1765409761.471450,-7.826398,-5.763988,-1.287661,-0.010232,-0.007941,0.000000
1765409761.471700,-7.927426,-5.775944,-1.157341,-0.012217,-0.010232,0.000000
1765409761.471927,-8.060736,-5.741271,-1.079627,-0.006414,-0.011148,-0.001985
1765409761.472177,-7.979434,-5.707794,-1.230273,-0.009163,-0.004276,-0.002596
1765409761.472427,-7.887373,-5.759205,-1.250598,-0.009163,-0.003818,-0.002596
1765409761.472677,-7.949545,-5.779530,-1.148972,-0.009316,-0.009927,0.001069
1765409761.472997,-8.049377,-5.746652,-1.113104,-0.007636,-0.009927,-0.001069
1765409761.473197,-7.954925,-5.731109,-1.266140,-0.007941,-0.004123,0.000764
1765409761.473397,-7.829985,-5.744858,-1.297226,-0.008705,-0.003971,0.001069
1765409761.473597,-7.928622,-5.771760,-1.137613,-0.008858,-0.008094,-0.001069
1765409761.473797,-8.014706,-5.716762,-1.176470,-0.007483,-0.007636,0.000305
1765409761.473965,-7.949545,-5.731109,-1.270325,-2.004401,-1.469131,-0.318872
1765409761.474215,-7.923242,-5.678503,-1.201578,-0.006109,-0.011912,-0.003054
1765409761.474465,-8.031444,-5.529650,-1.003706,-0.009468,-0.012828,-0.005498
1765409761.474715,-8.006336,-5.512912,-1.139407,-0.008399,-0.005651,-0.000458
1765409761.474942,-7.811453,-5.658775,-1.338474,-0.012828,-0.004429,0.004276
1765409761.475192,-7.930415,-5.765183,-1.182449,-0.010537,-0.011759,0.003971
1765409761.475442,-8.237086,-5.726327,-0.887733,-0.014050,-0.009316,0.000000
1765409761.475692,-8.500716,-5.894309,-0.803443,-0.013439,-0.009316,0.000153
1765409761.476071,-8.473217,-6.047943,-1.043759,-0.013134,-0.016799,-0.000611
1765409761.476321,-8.604136,-6.034791,-0.995935,-0.014966,-0.017257,-0.002749
1765409761.476571,-8.758368,-6.268531,-0.893113,-0.012523,-0.030543,0.000153
1765409761.476821,-8.686034,-6.588354,-0.940937,-0.010232,-0.030543,-0.000916
1765409761.477067,-8.477402,-6.364777,-0.920014,-0.007178,-0.036346,-0.008247
1765409761.477317,-8.213772,-5.926589,-0.933764,-0.004123,-0.038943,-0.009927
1765409761.477567,-8.003346,-5.636059,-0.936155,-0.005040,-0.044593,-0.003054
1765409761.477817,-8.036823,-5.817192,-0.601387,-0.003360,-0.051007,0.005345
1765409761.477976,-7.936393,-6.080822,-0.377810,-0.001222,-0.052076,0.012217
1765409761.478226,-7.780965,-6.001912,-0.541607,-0.001374,-0.065210,0.009010
1765409761.478476,-7.715207,-5.694643,-0.564323,-0.001527,-0.069486,0.009774
1765409761.478726,-7.721185,-5.648612,-0.373625,-0.004581,-0.074984,0.018479
1765409761.479894,-7.767814,-5.801052,-0.204448,-0.010232,-0.090866,0.024740
1765409761.480144,-7.703251,-6.028216,-0.284553,-0.010996,-0.090866,0.030238
1765409761.480394,-7.594451,-6.055714,-0.468675,-0.009621,-0.099876,0.030543
1765409761.480644,-7.745695,-5.988761,-0.264228,-0.007483,-0.109345,0.033903
1765409761.479964,-7.751673,-5.828550,-0.010760,-0.016188,-0.107665,0.037721
1765409761.480214,-7.692491,-5.784911,-0.210426,-0.017868,-0.120340,0.046426
1765409761.480464,-7.564561,-5.943328,-0.223577,-0.015119,-0.120340,0.056505
1765409761.480714,-7.438426,-6.117886,-0.169775,-0.010537,-0.130114,0.063072
1765409761.480987,-7.480869,-6.051529,0.038259,-0.018631,-0.139583,0.065363
1765409761.481237,-7.367288,-5.740076,-0.343137,-0.025504,-0.152564,0.071777
1765409761.481487,-7.367288,-5.740076,-0.343137,-0.025504,-0.165392,0.071777
1765409761.481737,-7.316474,-5.839311,-0.226566,-0.026725,-0.160047,0.099113
1765409761.481912,-7.522118,-5.839311,0.281564,-0.026725,-0.151647,0.099113
1765409761.482162,-7.467120,-6.165709,-0.027499,-0.032529,-0.181274,0.111483
1765409761.482412,-7.317072,-5.769966,-0.711382,-0.040317,-0.181274,0.113163
1765409761.482662,-7.317072,-5.769966,-0.711382,-0.040317,-0.169210,0.113163
1765409761.482952,-7.267455,-6.200382,-0.029890,-0.022297,-0.157145,0.145691
1765409761.483202,-7.259683,-5.778335,0.017934,-0.028711,-0.171042,0.145233
1765409761.483452,-7.122190,-5.682687,-0.592420,-0.034972,-0.186314,0.155160
1765409761.483702,-6.892634,-5.543997,-1.047346,-0.018021,-0.186314,0.171959
1765409761.483975,-7.064203,-5.597799,-0.394548,-0.019700,-0.172569,0.177915
1765409761.484225,-7.258488,-5.645623,0.352702,-0.023671,-0.158061,0.187230
1765409761.484475,-7.169415,-5.313844,-0.252272,-0.021686,-0.170279,0.194561
1765409761.484725,-7.302127,-5.289335,-0.414873,-0.028863,-0.173638,0.204945
1765409761.484967,-7.154471,-5.474652,-0.599593,-0.028100,-0.173638,0.214719
1765409761.485217,-7.297942,-5.395743,-0.096844,-0.029474,-0.163559,0.222966
1765409761.485467,-7.155069,-5.390961,-0.367049,-0.031307,-0.175471,0.229533
1765409761.485717,-7.289573,-5.101027,-0.506934,-0.027794,-0.175471,0.237168
1765409761.485936,-7.241749,-5.135102,-0.719751,-0.027184,-0.167988,0.246942
1765409761.486269,-7.630320,-4.952773,-0.071736,-0.022297,-0.157603,0.249997
1765409761.486603,-7.688306,-5.114777,0.175753,-0.035583,-0.153327,0.256869
1765409761.487023,-7.679339,-4.892395,-0.620516,-0.047037,-0.169515,0.254731
1765409761.487273,-7.861070,-4.543280,-0.301291,-0.042761,-0.162643,0.260229
1765409761.487523,-7.861070,-4.543280,-0.301291,-0.042761,-0.137903,0.260229
1765409761.487773,-8.047584,-4.718435,0.115375,-0.031154,-0.150578,0.279165
1765409761.487906,-8.135460,-4.713056,0.125538,-0.048106,-0.146455,0.279929
1765409761.488156,-7.787541,-4.906743,-0.565519,-0.044288,-0.148440,0.289092
1765409761.488406,-7.642275,-5.125537,-0.746054,-0.037568,-0.156840,0.297186
1765409761.488656,-7.642275,-5.125537,-0.746054,-0.037568,-0.163406,0.297186
1765409761.488949,-8.371592,-5.033476,-0.201459,-0.036041,-0.148593,0.289856
1765409761.489199,-7.844332,-5.136298,-1.084409,-0.020159,-0.145233,0.298102
1765409761.489449,-7.840745,-4.994021,-1.007891,-0.020922,-0.143553,0.293979
1765409761.489699,-8.148612,-4.830224,-0.228360,-0.023976,-0.143553,0.298255
1765409761.490009,-8.461261,-4.978478,-0.546987,-0.004581,-0.150273,0.314290
1765409761.490259,-8.377569,-5.076518,-1.048541,0.000458,-0.162185,0.315817
1765409761.490509,-8.424197,-5.094451,-1.215925,0.000916,-0.160658,0.310930
1765409761.490759,-8.844451,-5.037064,-0.789096,0.010385,-0.141263,0.315206
1765409761.490948,-8.675872,-5.050812,-0.801052,0.023213,-0.141263,0.319483
1765409761.491281,-8.458272,-4.826637,-0.931372,0.017104,-0.140957,0.319635
1765409761.491615,-8.947871,-4.571377,-0.627690,0.022755,-0.146913,0.328951
1765409761.491880,-8.324963,-5.157818,-0.936155,0.028863,-0.147982,0.343917
1765409761.492130,-8.274151,-5.108799,-1.249402,0.033598,-0.162796,0.339641
1765409761.492380,-8.177904,-4.774629,-1.513630,0.033903,-0.158367,0.344833
1765409761.492630,-8.516259,-4.952175,-0.919416,0.047953,-0.162796,0.355371
1765409761.492957,-8.788857,-4.966523,-0.770564,0.057727,-0.161879,0.360563
1765409761.493207,-8.203609,-5.376614,-1.083214,0.059559,-0.157451,0.365908
1765409761.493457,-8.173121,-5.601984,-1.292444,0.063377,-0.168752,0.366825
1765409761.493707,-8.373384,-5.642037,-1.469392,0.077122,-0.185092,0.363770
1765409761.494065,-8.795432,-5.364657,-0.668340,0.077427,-0.181427,0.365450
1765409761.494315,-8.354854,-5.174557,-1.373744,0.093921,-0.175624,0.370184
1765409761.494565,-7.789334,-5.591822,-1.410808,0.095448,-0.178220,0.374919
1765409761.494815,-7.630918,-5.181730,-1.594930,0.088575,-0.189674,0.377209
1765409761.494913,-8.366212,-4.796150,-1.187231,0.100182,-0.197004,0.390954
1765409761.495246,-8.287899,-5.526661,-0.646222,0.095142,-0.188146,0.407905
1765409761.495580,-8.463653,-5.405905,-1.050932,0.103389,-0.198684,0.409432
1765409761.495977,-8.155188,-5.472261,-1.218914,0.094684,-0.198684,0.411570
1765409761.496227,-8.148014,-5.198469,-1.215327,0.127671,-0.200364,0.422413
1765409761.496477,-7.478478,-5.682687,-1.639168,0.130572,-0.181122,0.436616
1765409761.496727,-7.599234,-6.093973,-1.177068,0.133474,-0.198378,0.428522
1765409761.497112,-8.032041,-5.475250,-0.844691,0.146455,-0.199906,0.427148
1765409761.497362,-8.304638,-5.450143,-0.598398,0.163406,-0.199906,0.443488
1765409761.497612,-8.751793,-5.340745,-0.330583,0.185703,-0.199600,0.447153
1765409761.497862,-8.307627,-5.084289,-0.310856,0.182954,-0.188299,0.458302
1765409761.497957,-8.268172,-5.071735,-0.587637,0.182954,-0.203571,0.458302
1765409761.498290,-8.359635,-5.217598,-0.637255,0.202502,-0.215941,0.469603
1765409761.498624,-8.229315,-5.151841,-0.429220,0.217315,-0.215941,0.484569
1765409761.498911,-8.497129,-5.277379,-0.601387,0.221897,-0.196851,0.483958
1765409761.499161,-7.513748,-5.642037,-0.838116,0.226478,-0.200364,0.489303
1765409761.499411,-7.982423,-4.788378,-0.926590,0.237321,-0.203876,0.487318
1765409761.499661,-8.011118,-4.521759,-1.133429,0.229838,-0.210443,0.499993
1765409761.499932,-8.206000,-4.157101,-0.796867,0.242361,-0.215788,0.512516
1765409761.500182,-7.694882,-4.820659,-1.067671,0.219148,-0.201127,0.527482
1765409761.500432,-8.079865,-4.759684,-1.164515,0.220217,-0.215483,0.519846
1765409761.500682,-9.017216,-4.494260,0.308465,0.201586,-0.215483,0.518166
1765409761.501065,-9.017216,-4.494260,0.308465,0.201586,-0.208305,0.518166
1765409761.501398,-9.755498,-4.105690,0.254663,0.199295,-0.224340,0.527482
1765409761.501732,-9.263509,-4.491869,-0.197274,0.189368,-0.207694,0.540005
1765409761.501918,-9.047106,-4.443447,-0.686274,0.206625,-0.216094,0.550390
1765409761.502168,-8.904829,-4.451219,-0.037661,0.206167,-0.216094,0.560927
1765409761.502418,-9.215686,-4.794356,-0.240913,0.206931,-0.207694,0.561385
1765409761.502668,-8.957436,-4.653873,-0.167384,0.218690,-0.207541,0.569479
1765409761.502966,-9.308942,-4.923481,-0.364060,0.222050,-0.220217,0.567647
1765409761.503216,-8.829507,-5.010760,-0.369440,0.231671,-0.214108,0.567952
1765409761.503466,-8.328549,-4.444643,-0.925992,0.247248,-0.214108,0.574824
1765409761.503716,-8.256814,-4.618603,-0.543998,0.248928,-0.225104,0.578948
1765409761.503990,-8.409851,-4.091343,-0.500359,0.247248,-0.231823,0.590859
1765409761.504240,-9.064442,-4.488880,-0.245098,0.240681,-0.235489,0.607505
1765409761.504490,-9.809898,-4.475729,0.233740,0.252593,-0.244346,0.608422
1765409761.504740,-8.796030,-4.917503,-0.033477,0.230449,-0.226784,0.609033
1765409761.505035,-8.971185,-3.800812,-0.731707,0.228464,-0.250760,0.607964
1765409761.505368,-8.010521,-4.439263,-1.270923,0.219148,-0.253662,0.627969
1765409761.505702,-8.060736,-4.770444,-1.110713,0.227700,-0.253662,0.631329
1765409761.506061,-8.060736,-4.770444,-1.110713,0.227700,-0.241750,0.631329
1765409761.506311,-9.365135,-4.496054,0.397537,0.224340,-0.244041,0.625526
1765409761.506561,-9.248564,-4.346006,-0.159015,0.237932,-0.237016,0.643241
1765409761.506811,-9.185795,-4.539693,-0.219990,0.249691,-0.242666,0.649502
1765409761.507058,-9.356767,-4.794954,-0.076518,0.248622,-0.243277,0.655153
1765409761.507308,-9.356767,-4.794954,-0.076518,0.248622,-0.253051,0.655153
1765409761.507558,-8.965805,-4.882831,-0.025108,0.260687,-0.247553,0.654389
1765409761.507808,-8.419415,-4.640123,-0.821377,0.271071,-0.254884,0.656527
1765409761.507926,-8.463653,-4.894787,-0.524271,0.285579,-0.253509,0.664010
1765409761.508259,-9.033356,-4.924676,0.180536,0.273515,-0.253051,0.671341
1765409761.508593,-9.832614,-4.215686,0.265423,0.280082,-0.268781,0.673784
1765409761.508962,-9.451219,-3.912003,-0.104017,0.255342,-0.248622,0.687071
1765409761.509212,-9.903154,-4.402199,0.817790,0.244193,-0.249080,0.706160
1765409761.509462,-10.404112,-5.020325,1.104137,0.219301,-0.246790,0.707993
1765409761.509712,-9.865494,-5.387373,0.132114,0.215025,-0.246790,0.707382
1765409761.509967,-9.655666,-4.577952,-0.237924,0.233656,-0.233961,0.698066
1765409761.510217,-8.868961,-4.139167,0.014347,0.234114,-0.225257,0.714560
1765409761.510467,-9.062648,-3.762553,-0.065758,0.232282,-0.239306,0.736245
1765409761.510717,-8.917980,-4.600669,-0.786705,0.230296,-0.241444,0.754266
1765409761.510992,-8.368603,-5.484815,-1.120277,0.243583,-0.240681,0.757931
1765409761.511325,-8.230511,-4.862505,-1.468197,0.253051,-0.230296,0.743270
1765409761.511659,-8.421806,-4.275465,-0.535031,0.257632,-0.234420,0.741285
1765409761.511885,-8.421806,-3.688426,-0.893113,0.264046,-0.232587,0.767552
1765409761.512135,-8.421806,-3.688426,-0.893113,0.264046,-0.247859,0.767552
1765409761.512385,-8.593973,-4.195360,-0.771162,0.280082,-0.252593,0.797026
1765409761.512635,-8.255020,-4.329268,-1.145385,0.274278,-0.249386,0.806495
1765409761.513007,-8.622667,-4.291606,-1.151363,0.266643,-0.253509,0.812451
1765409761.513257,-8.780487,-4.425513,-0.393950,0.253662,-0.253356,0.808633
1765409761.513507,-9.149329,-4.584528,-0.259445,0.237168,-0.245110,0.808633
1765409761.513757,-9.158894,-4.098517,-0.369440,0.251371,-0.245110,0.811687
1765409761.514013,-8.862983,-4.331659,-0.460904,0.232587,-0.244499,0.826501
1765409761.514346,-8.466043,-4.430894,-1.139407,0.241903,-0.265421,0.831693
1765409761.514680,-9.354375,-4.773433,-0.060976,0.244804,-0.265421,0.826043
1765409761.514953,-9.953370,-4.516379,0.445361,0.270613,-0.244346,0.830166
1765409761.515203,-9.473337,-4.404591,0.239120,0.279624,-0.232740,0.834442
1765409761.515453,-9.105690,-3.524629,-0.590626,0.280540,-0.235641,0.837802
1765409761.515703,-8.541367,-3.909612,-0.494381,0.283594,-0.257022,0.858724
1765409761.516012,-8.189860,-4.351387,-1.201578,0.288481,-0.257022,0.873995
1765409761.516262,-8.262792,-4.997011,-1.298422,0.290466,-0.260839,0.863000
1765409761.516512,-8.558105,-4.187589,-0.392157,0.296881,-0.247095,0.846048
1765409761.516762,-8.558105,-4.187589,-0.392157,0.296881,-0.237932,0.846048
1765409761.516956,-9.766856,-3.302247,0.237327,0.289550,-0.257632,0.879188
1765409761.517206,-9.406981,-4.135581,-0.050215,0.256563,-0.233961,0.886671
1765409761.517456,-8.999282,-3.835485,-0.503348,0.263130,-0.245415,0.881020
1765409761.517706,-9.440458,-3.615495,0.370636,0.241597,-0.247095,0.878730
1765409761.517961,-10.262432,-2.854495,0.521282,0.236710,-0.257938,0.895070
1765409761.518294,-10.379602,-3.072094,0.995337,0.232129,-0.247095,0.911106
1765409761.518628,-9.473337,-3.688426,0.334768,0.228158,-0.240681,0.924086
1765409761.518980,-9.244977,-4.213892,-0.230751,0.232434,-0.266032,0.916909
1765409761.519230,-10.128527,-3.835485,0.662362,0.226784,-0.268628,0.909120
1765409761.519480,-10.503346,-3.671688,0.649211,0.248164,-0.249997,0.915840
1765409761.519730,-10.608559,-3.852223,1.160330,0.244804,-0.253967,0.912327
1765409761.520016,-10.083690,-4.099114,0.295313,0.242055,-0.246942,0.909120
1765409761.520266,-10.479434,-3.739837,0.807030,0.260534,-0.245262,0.910037
1765409761.520516,-9.656861,-4.148732,0.182927,0.265879,-0.250760,0.919658
1765409761.520766,-9.250956,-3.466642,-0.386179,0.261145,-0.250760,0.914160
1765409761.520965,-9.453609,-2.911884,0.288140,0.257174,-0.229533,0.923781
1765409761.521215,-8.484576,-3.494141,-1.004304,0.246331,-0.233503,0.949743
1765409761.521465,-8.675274,-4.171449,-0.932568,0.239459,-0.258701,0.950048
1765409761.521715,-8.959229,-4.791367,-0.315638,0.218690,-0.233198,0.927141
1765409761.521944,-9.151720,-3.364419,-0.224175,0.255036,-0.233198,0.936151
1765409761.522277,-9.151720,-3.364419,-0.224175,0.255036,-0.226326,0.936151
1765409761.522611,-8.658535,-4.229435,-0.129125,0.232129,-0.225867,0.954935
1765409761.522982,-8.955045,-4.472740,-0.057389,0.254731,-0.222966,0.951117
1765409761.523232,-9.454804,-3.680057,-0.593615,0.280387,-0.240375,0.950048
1765409761.523482,-9.196555,-2.914873,-0.610952,0.272599,-0.227242,0.962265
1765409761.523732,-9.662840,-3.346484,0.011956,0.281762,-0.215788,0.983035
1765409761.523969,-9.412958,-4.103299,0.475251,0.284358,-0.240070,0.997390
1765409761.524219,-9.808702,-3.877929,0.138092,0.290925,-0.240070,0.985173
1765409761.524469,-9.402199,-4.330463,-0.362267,0.295048,-0.224340,0.981202
1765409761.524719,-9.528933,-3.535389,-0.498565,0.311083,-0.235794,0.992198
1765409761.525010,-9.483500,-3.744619,-0.456719,0.299935,-0.224646,0.997390
1765409761.525343,-8.779888,-4.004065,-0.406504,0.274278,-0.218384,0.985478
1765409761.525677,-8.238880,-3.716523,-1.288857,0.270308,-0.218384,0.994030
1765409761.526029,-8.695600,-3.114538,-0.816595,0.253509,-0.236863,0.990213
1765409761.526279,-9.293997,-3.043998,-0.045433,0.249538,-0.212581,1.011898
1765409761.526529,-8.583213,-4.277857,-0.940339,0.245415,-0.211512,1.028850
1765409761.526779,-8.543160,-4.232424,-0.815997,0.250913,-0.213803,1.015411
1765409761.526956,-8.587995,-4.042922,-0.511119,0.244804,-0.213803,1.005942
1765409761.527206,-8.976564,-2.814442,-1.105332,0.244804,-0.225715,1.005942
1765409761.527456,-9.094930,-3.994499,-0.025108,0.250149,-0.209221,1.030835
1765409761.527706,-9.269487,-3.806791,0.080703,0.267254,-0.209221,1.026101
1765409761.527997,-9.269487,-3.806791,0.080703,0.267254,-0.211818,1.026101
1765409761.528247,-9.412361,-3.081062,-0.184122,0.279776,-0.228769,1.046259
1765409761.528497,-9.922284,-2.864658,0.504543,0.295201,-0.211207,1.046259
1765409761.528747,-9.215087,-4.093735,0.075323,0.298866,-0.210443,1.083828
1765409761.529046,-9.664036,-3.887494,0.086083,0.290008,-0.236099,1.053284
1765409761.529296,-9.578550,-3.592180,0.130918,0.288328,-0.213039,1.047023
1765409761.529546,-9.241988,-3.550932,-0.200861,0.288023,-0.213345,1.056186
1765409761.529796,-9.019607,-3.142635,-0.801650,0.267101,-0.210596,1.046870
1765409761.529968,-9.293399,-3.853419,0.392755,0.255189,-0.205251,1.039845
1765409761.530301,-9.740554,-3.560497,-0.039455,0.271071,-0.204334,1.039845
1765409761.530635,-9.712457,-2.265662,-0.080105,0.284816,-0.214566,1.034958
1765409761.531076,-9.546865,-2.891559,0.086083,0.265421,-0.185092,1.053590
1765409761.531326,-8.892873,-3.405069,-0.343137,0.291383,-0.191659,1.056491
1765409761.531576,-9.193566,-3.752988,0.201459,0.292452,-0.199906,1.044885
1765409761.531826,-9.041127,-2.553802,-0.459110,0.319635,-0.205251,1.036027
1765409761.532018,-9.699903,-2.722979,0.060976,0.312458,-0.195782,1.046718
1765409761.532268,-9.435676,-3.048780,0.438785,0.307876,-0.181732,1.049314
1765409761.532518,-9.625177,-2.812649,-0.185318,0.311999,-0.178678,1.037860
1765409761.532768,-8.727880,-2.795313,-0.526064,0.323911,-0.177762,1.048703
1765409761.533106,-9.481706,-2.042085,-0.029890,0.319024,-0.180816,1.055270
1765409761.533356,-10.120754,-2.479077,0.538618,0.314596,-0.169210,1.080468
1765409761.533606,-9.649688,-3.626255,0.094452,0.286190,-0.174860,1.070236
1765409761.533856,-10.318028,-3.143233,0.395744,0.285274,-0.174860,1.050841
1765409761.534017,-10.318028,-3.143233,0.395744,0.285274,-0.176845,1.050841
1765409761.534267,-10.879961,-2.849713,0.854854,0.270308,-0.180511,1.038013
1765409761.534517,-10.807626,-2.787541,0.847680,0.269850,-0.163406,1.031446
1765409761.534767,-9.880439,-3.185079,0.338355,0.263588,-0.157603,1.028392
1765409761.534977,-9.961142,-2.387613,0.356289,0.285274,-0.173638,1.024421
1765409761.535310,-10.740075,-2.268053,0.762793,0.275195,-0.163559,1.038013
1765409761.535644,-10.380199,-3.366810,0.317432,0.281151,-0.159436,1.049161
1765409761.536009,-10.327594,-3.325562,0.197274,0.286496,-0.153633,1.027781
1765409761.536259,-9.764465,-3.122309,0.107006,0.304058,-0.148593,1.021672
1765409761.536509,-9.955761,-2.398971,0.105213,0.314137,-0.157145,1.018618
1765409761.536759,-9.916306,-2.968675,0.533238,0.309556,-0.154091,1.025643
1765409761.537019,-9.815877,-2.468914,-0.377810,0.314290,-0.152411,1.012509
1765409761.537269,-8.527020,-2.041487,-0.815399,0.318108,-0.158978,1.029308
1765409761.537519,-8.828311,-2.202295,-0.139885,0.299782,-0.165850,1.036333
1765409761.537769,-9.820060,-2.068388,0.419656,0.294284,-0.170584,1.045649
1765409761.537939,-9.713653,-3.670492,-0.612147,0.273668,-0.160352,1.048092
1765409761.538189,-9.840386,-3.277140,-0.439981,0.292604,-0.159436,1.023352
1765409761.538439,-9.401601,-2.952534,0.135103,0.296270,-0.138208,1.020298
1765409761.538689,-9.246173,-2.541846,-0.352702,0.296881,-0.153785,1.018007
1765409761.538934,-8.780487,-3.186274,-0.567910,0.281609,-0.153785,1.011593
1765409761.539184,-9.106885,-3.136059,-0.316236,0.308945,-0.157909,1.001819
1765409761.539434,-9.216881,-2.835963,-0.282162,0.318413,-0.134238,1.001819
1765409761.539684,-10.023911,-1.975729,0.338355,0.320857,-0.148593,0.994336
1765409761.539967,-9.884026,-2.337398,0.682688,0.310930,-0.123700,1.013884
1765409761.540217,-9.864896,-3.479196,-0.139885,0.329715,-0.136223,1.017243
1765409761.540467,-9.864896,-3.479196,-0.139885,0.329715,-0.125838,1.017243
1765409761.540717,-11.082017,-2.061812,0.829746,0.352927,-0.122631,0.978453
1765409761.541040,-10.598994,-2.144907,1.044357,0.343306,-0.109650,1.001361
1765409761.541290,-10.292323,-3.182687,0.172166,0.314748,-0.118508,0.993420
1765409761.541540,-10.224771,-2.518532,1.206360,0.320552,-0.111177,0.984104
1765409761.541790,-9.898971,-2.259684,0.320421,0.301920,-0.109039,0.991892
1765409761.541916,-10.156623,-1.956002,0.539216,0.299629,-0.113163,0.992351
1765409761.542249,-10.237924,-2.020564,0.590626,0.298408,-0.113163,1.012815
1765409761.542583,-9.766856,-3.359038,-0.134505,0.300240,-0.120188,1.013273
1765409761.542979,-9.879841,-3.130679,0.589431,0.302073,-0.113163,0.985478
1765409761.543229,-9.389048,-2.607604,-0.025108,0.310014,-0.107360,0.972039
1765409761.543479,-10.120754,-2.061214,0.249880,0.313527,-0.118050,0.975705
1765409761.543729,-9.826038,-2.429459,-0.278575,0.318566,-0.118050,0.979522
1765409761.544014,-9.519367,-2.873027,0.095648,0.315817,-0.102167,0.962418
1765409761.544264,-9.402199,-2.703252,-0.554758,0.337503,-0.100029,0.961196
1765409761.544514,-9.295790,-2.082735,-0.033477,0.342695,-0.107512,0.950201
1765409761.544764,-10.443566,-1.927307,0.274390,0.350942,-0.097433,0.961807
1765409761.544951,-10.810616,-2.505978,0.662960,0.349568,-0.089339,0.966236
1765409761.545201,-11.181252,-2.862267,0.532042,0.349568,-0.075747,0.966236
1765409761.545451,-10.691652,-2.419894,0.904471,0.337656,-0.066737,0.927599
1765409761.545701,-10.810616,-1.578192,0.888929,0.336892,-0.066737,0.931417
1765409761.545988,-10.810616,-1.578192,0.888929,0.336892,-0.075289,0.931417
1765409761.546238,-11.078430,-2.244141,1.029412,0.319941,-0.070097,0.925155
1765409761.546488,-10.353298,-2.159254,1.036585,0.319941,-0.051465,0.925155
1765409761.546738,-10.010758,-1.838833,0.014347,0.336892,-0.080634,0.925308
1765409761.547006,-10.431609,-1.579985,0.500956,0.336129,-0.080634,0.919658
1765409761.547256,-10.431609,-1.579985,0.500956,0.336129,-0.063988,0.919658
1765409761.547506,-10.291127,-2.268053,0.146461,0.371864,-0.070555,0.935693
1765409761.547756,-10.597797,-2.490435,0.723338,0.363923,-0.073762,0.901484
1765409761.548099,-10.215207,-1.966762,0.561932,0.375988,-0.052687,0.894612
1765409761.548349,-9.078191,-1.951817,-0.512912,0.391259,-0.071929,0.890794
1765409761.548599,-8.794834,-1.770684,-0.878766,0.388816,-0.095142,0.888045
1765409761.548849,-9.201338,-2.272836,-0.272597,0.372170,-0.067806,0.871552
1765409761.549107,-9.188784,-1.823290,-0.290531,0.392634,-0.067806,0.860404
1765409761.549357,-8.887493,-1.799976,-0.749043,0.361938,-0.067195,0.851088
1765409761.549607,-9.212098,-1.090387,-0.280966,0.356287,-0.067195,0.839787
1765409761.549857,-9.394427,-1.123864,0.023912,0.337198,-0.036041,0.853379
1765409761.550094,-8.932328,-1.406026,-0.759206,0.352927,-0.051007,0.858877
1765409761.550344,-9.577952,-2.247130,0.333572,0.311847,-0.030849,0.841009
1765409761.550594,-9.577952,-2.247130,0.333572,0.311847,-0.033750,0.841009
1765409761.550844,-10.099234,-1.617647,0.935557,0.342695,-0.043677,0.805579
1765409761.551082,-9.955164,-0.744859,0.649211,0.341168,-0.037110,0.804968
1765409761.551332,-9.616212,-0.636657,0.524868,0.337350,-0.011148,0.822530
1765409761.551582,-9.927068,-2.259684,0.546389,0.331089,-0.022144,0.830777
1765409761.551832,-9.927068,-2.259684,0.546389,0.331089,-0.040012,0.830777
1765409761.552014,-10.505738,-1.698948,0.639048,0.359342,-0.031154,0.782213
1765409761.552264,-10.216402,-0.795672,0.805834,0.371101,-0.001374,0.782518
1765409761.552514,-10.066953,-0.999522,0.899091,0.363618,-0.024435,0.796263
1765409761.552764,-10.146461,-1.090985,0.766380,0.342848,-0.024435,0.792903
1765409761.553112,-10.071735,-0.994739,-0.344931,0.342848,-0.033445,0.792903
1765409761.553362,-9.298182,-2.205882,-0.349115,0.342543,-0.023213,0.797179
1765409761.553612,-9.582136,-2.303921,0.119560,0.325133,-0.008399,0.769843
1765409761.553862,-10.105211,-1.882472,0.241511,0.331700,-0.009927,0.758236
1765409761.554013,-10.926589,-1.284074,1.107126,0.341626,-0.012370,0.746935
1765409761.554263,-10.688664,-1.413199,1.003108,0.337198,0.006109,0.763276
1765409761.554513,-9.893590,-2.089909,0.523673,0.339030,0.006414,0.755182
1765409761.554763,-9.829626,-2.195122,0.149450,0.349720,-0.000916,0.739452
1765409761.555013,-9.867287,-1.945241,-0.151841,0.370948,0.005040,0.729679
1765409761.555263,-9.389645,-1.858560,-0.634864,0.373544,0.005040,0.723417
1765409761.555513,-8.901840,-1.662482,-0.385581,0.379042,0.022602,0.711200
1765409761.555763,-9.213892,-1.220708,0.401722,0.388663,0.022907,0.714712
1765409761.556013,-9.469750,-1.346843,0.020325,0.399200,0.003818,0.726624
1765409761.556263,-9.624580,-1.820301,-0.749641,0.399200,-0.006109,0.726624
1765409761.556513,-8.761356,-2.450980,-0.235533,0.395535,0.025045,0.710436
1765409761.556763,-9.021997,-2.071377,-0.453730,0.400728,0.013744,0.686307
1765409761.557017,-9.432686,-1.288857,0.125538,0.378431,0.000153,0.667981
1765409761.557267,-8.666904,-0.397537,-0.826160,0.361327,0.003512,0.670425
1765409761.557517,-8.848038,-0.970229,-0.376614,0.359036,0.002138,0.690125
1765409761.557767,-9.466163,-1.786824,0.159015,0.346666,0.010996,0.686918
1765409761.558006,-10.382590,-2.110234,0.669536,0.344223,0.007025,0.666912
1765409761.558256,-10.711381,-1.840626,0.760402,0.354302,0.018784,0.653015
1765409761.558506,-10.478239,-1.769488,0.520086,0.366061,0.019853,0.648739
1765409761.558756,-10.939143,-1.034792,0.840507,0.369115,0.014355,0.643699
1765409761.558979,-10.616928,-1.181851,0.864419,0.367283,0.026878,0.645532
1765409761.559229,-10.420851,-1.564443,0.920612,0.364687,0.032376,0.645837
1765409761.559479,-9.991630,-1.697752,-0.065160,0.389427,0.014050,0.645685
1765409761.559729,-10.522476,-1.346246,0.822573,0.395077,0.014050,0.630718
1765409761.559974,-10.111190,-1.165710,0.664754,0.404393,0.044135,0.629038
1765409761.560224,-9.180415,-1.716284,-0.352702,0.397368,0.040928,0.618043
1765409761.560474,-9.069821,-1.540531,-0.523673,0.388968,0.028253,0.601550
1765409761.560724,-10.285748,-0.909852,0.895504,0.372170,0.028100,0.595288
1765409761.561051,-10.380199,-0.808823,1.138211,0.377667,0.028100,0.597121
1765409761.561301,-9.689740,-0.740076,0.383788,0.352927,0.028863,0.587958
1765409761.561551,-9.085364,-1.125060,-0.357484,0.352011,0.027947,0.585056
1765409761.561801,-8.758965,-1.166906,-0.230751,0.354455,0.021228,0.574213
1765409761.562027,-9.203729,-1.522597,-0.197274,0.349720,0.023671,0.569021
1765409761.562277,-9.146339,-0.853658,0.200861,0.345750,0.029474,0.544128
1765409761.562527,-9.990434,-0.890124,0.707795,0.360105,0.036041,0.542754
1765409761.562777,-9.237206,-1.059302,-0.192492,0.363159,0.042150,0.547183
1765409761.563182,-9.175035,-0.435796,-0.468675,0.371712,0.031460,0.528857
1765409761.563382,-9.175035,-0.435796,-0.468675,0.371712,0.041386,0.528857
1765409761.563582,-10.593018,-0.473458,0.944524,0.370032,0.026114,0.525497
1765409761.563782,-10.412481,-0.584648,0.631277,0.356745,0.031154,0.517708
1765409761.563982,-10.112385,-0.779531,0.463295,0.350484,0.041844,0.505338
1765409761.563989,-9.947392,-0.135103,0.546987,0.364687,0.041844,0.510531
1765409761.564239,-9.947392,-0.135103,0.546987,0.364687,0.041997,0.510531
1765409761.564489,-10.414275,-0.295313,0.889526,0.317650,0.026725,0.484722
1765409761.564739,-10.569702,-1.031803,0.567910,0.302989,0.055283,0.485332
1765409761.565024,-9.919296,-1.294835,0.243305,0.303600,0.042761,0.468381
1765409761.565274,-10.270802,-0.772358,-0.010760,0.268628,0.042761,0.433714
1765409761.565524,-9.732184,0.098039,-0.195481,0.278860,0.045509,0.438907
1765409761.565774,-9.536106,-0.320421,-0.186514,0.268933,0.051160,0.450360
1765409761.565997,-9.729793,-0.390363,-0.089072,0.255189,0.042761,0.447764
1765409761.566247,-10.276181,-0.312052,0.687470,0.261756,0.064294,0.448528
1765409761.566497,-9.460185,-1.225490,-0.032281,0.249691,0.064294,0.446542
1765409761.566747,-9.102103,-1.187231,-0.469871,0.260992,0.047189,0.433103
1765409761.567014,-10.004781,-0.756217,0.314443,0.246179,0.056658,0.415388
1765409761.567264,-10.455523,-0.898493,0.760999,0.251066,0.056658,0.411723
1765409761.567514,-10.455523,-0.898493,0.760999,0.251066,0.059559,0.411723
1765409761.567764,-9.675991,-0.445959,-0.390961,0.233656,0.066432,0.396910
1765409761.568005,-9.345408,-0.564323,-0.157221,0.244804,0.058643,0.401338
1765409761.568255,-10.050812,-0.737087,0.676710,0.236252,0.055436,0.400269
1765409761.568505,-10.349113,-0.932568,1.087398,0.235489,0.056658,0.389732
1765409761.568755,-10.349113,-0.932568,1.087398,0.235489,0.063988,0.389732
1765409761.569037,-9.575562,-0.570899,-0.082496,0.221133,0.051313,0.373544
1765409761.569287,-9.907937,-0.731707,0.662362,0.207389,0.060476,0.374155
1765409761.569537,-10.175752,-0.789694,0.557150,0.209985,0.054214,0.366825
1765409761.569787,-9.884026,-0.500359,0.432807,0.186161,0.065821,0.356287
1765409761.569980,-9.221066,-0.923601,-0.365256,0.184176,0.066126,0.367894
1765409761.570230,-10.243901,-0.490196,0.395744,0.184787,0.046884,0.353996
1765409761.570480,-10.111190,-0.787303,0.689861,0.172264,0.060628,0.357509
1765409761.570730,-9.461381,-0.960067,0.058584,0.166308,0.062156,0.352469
1765409761.571097,-9.542681,-0.883548,-0.161406,0.175166,0.062156,0.350484
1765409761.571347,-9.807508,-1.080822,0.772955,0.165239,0.061697,0.340710
1765409761.571597,-10.615732,-1.048541,1.288857,0.164017,0.059559,0.327118
1765409761.571847,-10.009563,-0.949306,0.166188,0.168752,0.069333,0.319177
1765409761.572007,-9.230630,-0.783118,-0.434003,0.162490,0.064141,0.314290
1765409761.572207,-9.887015,-0.777140,0.282162,0.164781,0.057574,0.310625
1765409761.572407,-9.923481,-0.972621,0.711382,0.154243,0.075136,0.304211
1765409761.572607,-9.606049,-1.162123,0.379005,0.158214,0.072388,0.298560
1765409761.572807,-9.417143,-0.742468,-0.659971,0.157145,0.075900,0.282678
1765409761.573032,-9.982663,-0.151841,0.558943,0.157145,0.067195,0.282678
1765409761.573282,-10.459707,-0.132712,0.991152,0.145997,0.082009,0.295506
1765409761.573532,-9.989837,-0.593018,0.120158,0.142179,0.079718,0.299171
1765409761.573782,-10.101027,-0.920612,-0.070540,0.129962,0.066126,0.284663
1765409761.574044,-10.929579,-0.727523,0.703013,0.134390,0.056658,0.277180
1765409761.574294,-11.214727,-0.473458,1.187231,0.138361,0.073762,0.267559
1765409761.574544,-10.328789,-0.173362,0.069345,0.126755,0.080481,0.261145
1765409761.574794,-9.785987,-0.121951,-0.558943,0.111483,0.067348,0.259618
1765409761.574955,-9.996411,-0.162602,-0.425036,0.114537,0.047953,0.263283
1765409761.575205,-10.419058,-0.263032,0.144668,0.098807,0.052229,0.258701
1765409761.575455,-10.546388,-0.424438,0.019130,0.086743,0.063377,0.250607
1765409761.575705,-10.249879,-0.499761,-0.572692,0.080940,0.060170,0.244041
1765409761.576014,-10.138689,-0.520086,-0.679101,0.078649,0.050396,0.234420
1765409761.576214,-10.558942,-0.166188,-0.319225,0.076358,0.051313,0.226936
1765409761.576414,-10.598994,-0.095050,0.085485,0.068722,0.051313,0.225867
1765409761.576614,-10.807626,-0.260641,0.200861,0.056810,0.040012,0.224035
1765409761.576814,-10.231946,-0.590029,-0.977403,0.056658,0.033903,0.220370
1765409761.577017,-10.520084,-0.508130,-0.386179,0.056658,0.027947,0.220370
1765409761.577267,-10.735890,-0.509326,0.005978,0.057269,0.033139,0.212734
1765409761.577517,-11.028812,-0.508130,0.153037,0.050244,0.015119,0.197462
1765409761.577767,-10.908655,-0.326399,-0.073529,0.048411,0.008552,0.192270
1765409761.577982,-10.430414,-0.473458,-0.762793,0.052993,0.003818,0.196699
1765409761.578232,-10.367048,-0.564921,-0.890722,0.049480,-0.013897,0.184787
1765409761.578482,-10.828549,-0.398733,0.106408,0.033445,-0.013286,0.169362
1765409761.578732,-10.710185,-0.511717,-0.453730,0.032529,-0.013744,0.168904
1765409761.579058,-10.866809,-0.277379,-0.474653,0.036346,-0.032223,0.159589
1765409761.579308,-10.995336,-0.205643,-0.218795,0.030238,-0.031154,0.148288
1765409761.579558,-11.192012,0.092061,-0.022716,0.033292,-0.027794,0.147677
1765409761.579808,-10.581060,-0.283955,-0.913438,0.024587,-0.043219,0.149051
1765409761.579962,-10.753227,-0.123147,-0.752630,0.022907,-0.055894,0.138819
1765409761.580162,-11.018053,-0.148852,-0.388570,0.028558,-0.048717,0.130420
1765409761.580362,-10.828549,-0.179340,-0.139885,0.025045,-0.049938,0.129503
1765409761.580562,-10.634265,-0.017336,-0.567312,0.018937,-0.049938,0.119119
1765409761.580762,-10.312051,-0.471066,-1.160928,0.014966,-0.054520,0.114079
1765409761.580966,-10.461500,-0.283357,-0.823171,0.023671,-0.062003,0.107054
1765409761.581216,-10.769964,-0.225968,-0.105213,0.015577,-0.059559,0.095142
1765409761.581466,-10.689859,0.126734,-0.215208,0.015730,-0.062919,0.086590
1765409761.581716,-10.276780,0.108202,-0.983979,0.007025,-0.062919,0.083689
1765409761.581953,-10.247488,-0.145863,-1.001315,0.007025,-0.074220,0.083689
1765409761.582203,-10.772355,-0.054998,-0.294118,0.016035,-0.073151,0.071471
1765409761.582453,-10.883547,-0.041248,0.206839,0.010232,-0.060170,0.061850
1765409761.582703,-10.439382,0.192492,-0.474653,0.004123,-0.060018,0.052076
1765409761.582958,-10.229554,0.273792,-0.671329,0.002443,-0.069639,0.048411
1765409761.583158,-10.229554,0.273792,-0.671329,0.002443,-0.071777,0.048411
1765409761.583358,-10.511715,0.062171,-0.281564,0.005345,-0.053298,0.043830
1765409761.583558,-10.653992,0.202056,0.198470,-0.000305,-0.053298,0.035888
1765409761.583758,-10.249879,0.113582,-0.344333,-0.000153,-0.059101,0.031460
1765409761.583941,-10.054996,0.175753,-0.619321,-0.004581,-0.069486,0.022144
1765409761.584191,-10.031682,0.162602,-0.593018,0.002749,-0.066584,0.023824
1765409761.584441,-10.276780,0.179938,-0.080105,0.005956,-0.055283,0.020464
1765409761.584691,-10.082495,-0.015543,-0.017934,0.001222,-0.055283,0.012981
1765409761.585033,-9.966521,0.063367,-0.298900,0.001222,-0.057421,0.012981
1765409761.585233,-9.694523,0.057389,-0.332377,0.000153,-0.053909,0.002138
1765409761.585433,-9.607842,0.095648,0.099235,0.001833,-0.053298,-0.004276
1765409761.585633,-9.503824,0.404711,0.211621,-0.003818,-0.049633,-0.013592
1765409761.585833,-9.167861,0.583453,-0.208034,-0.009468,-0.056047,-0.013439
1765409761.585999,-8.752988,0.575084,-0.510521,-0.009774,-0.049022,-0.004581
1765409761.586199,-8.773314,0.392755,-0.157819,-0.011606,-0.032529,-0.000764
1765409761.586399,-8.867167,0.022119,0.404711,-0.016341,-0.032529,0.001985
1765409761.586599,-9.045910,0.015543,0.070540,-0.021686,-0.029780,-0.005345
1765409761.586799,-9.494858,0.010163,0.361071,-0.014050,-0.033750,-0.005498
1765409761.586997,-9.836799,-0.120756,0.598996,-0.014050,-0.025198,-0.005498
1765409761.587247,-9.649688,-0.008369,0.389168,-0.017868,-0.010690,-0.010385
1765409761.587497,-9.726804,-0.025108,0.392157,-0.019853,-0.012828,-0.007178
1765409761.587747,-9.938425,-0.216404,0.679101,-0.018173,-0.017868,-0.005956
1765409761.587942,-10.389167,-0.194883,1.243424,-0.015119,-0.018631,-0.012217
1765409761.588142,-10.075322,-0.115973,0.797465,-0.014355,-0.007330,-0.013592
1765409761.588342,-9.659253,-0.005380,0.309660,-0.018631,-0.014661,-0.013134
1765409761.588542,-9.774031,-0.080105,0.408895,-0.019548,-0.022907,-0.007941
1765409761.588742,-9.851745,-0.273792,0.648015,-0.019853,-0.021075,-0.005498
1765409761.589033,-9.855929,-0.204448,0.541607,-0.020464,-0.010843,-0.011301
1765409761.589283,-9.571974,0.048422,0.219990,-0.020006,-0.006872,-0.006414
1765409761.589533,-9.442849,-0.019130,-0.026303,-0.018326,-0.007636,0.000000
1765409761.589783,-9.725011,-0.215208,0.357484,-0.017715,-0.007330,-0.000458
1765409761.589992,-9.904947,-0.332377,0.644428,-0.017868,-0.001680,-0.000611
1765409761.590192,-9.836202,-0.324008,0.410091,-0.019090,-0.002596,-0.004276
1765409761.590392,-9.710065,-0.222979,0.197274,-0.016493,-0.002596,-0.002596
1765409761.590592,-9.664036,-0.279173,0.145863,-0.015577,-0.002291,0.003818
1765409761.590792,-9.726207,-0.352702,0.272597,-0.012065,-0.002443,-0.000153
1765409761.591046,-9.909132,-0.173362,0.566117,-0.012828,0.002749,-0.001985
1765409761.591246,-9.864299,-0.161406,0.406504,-0.009774,0.001222,0.003665
1765409761.591446,-9.849353,-0.246294,0.304878,-0.010843,-0.001374,0.004276
1765409761.591646,-9.875656,-0.353898,0.417862,-0.010843,0.001374,0.004276
1765409761.591846,-9.881634,-0.313247,0.361071,-0.006720,0.007941,0.001222
1765409761.592013,-10.026302,-0.230751,0.438785,-0.005498,0.007330,0.000764
1765409761.592213,-10.060975,-0.240316,0.383788,-0.003360,0.006414,0.001833
1765409761.592413,-10.054996,-0.191296,0.336561,-0.001069,0.006414,0.002596
1765409761.592613,-10.001194,-0.109995,0.433405,-0.001069,0.006720,0.002596
1765409761.592813,-9.887612,-0.126734,0.219990,-0.001833,0.006720,0.003207
1765409761.593018,-9.860114,-0.134505,0.178742,0.000000,0.002902,0.003054
1765409761.593218,-10.022716,-0.049020,0.349713,0.002443,0.000305,0.000458
1765409761.593418,-10.075920,0.039455,0.503348,0.002902,0.001374,0.004734
1765409761.593618,-10.090864,0.068149,0.391559,-0.001985,0.001985,0.005040
1765409761.593818,-9.943806,-0.008369,0.216404,-0.000458,0.001833,0.007789
1765409761.594030,-9.968913,-0.035868,0.179938,0.000764,0.003818,0.005956
1765409761.594230,-10.016738,-0.044237,0.356887,-0.000153,0.003818,0.003360
1765409761.594430,-10.105211,-0.016141,0.400526,-0.000916,-0.000458,0.006567
1765409761.594630,-10.077114,-0.023912,0.312052,0.000305,0.003054,0.003360
1765409761.594830,-9.945600,-0.001196,0.238522,-0.002902,0.000305,0.002443
1765409761.595003,-9.879243,0.105213,0.120756,0.000305,-0.000458,0.003512
1765409761.595203,-9.966521,0.107604,0.235533,-0.002291,-0.007636,0.002138
1765409761.595403,-10.053802,0.081301,0.341942,-0.001833,-0.007636,0.002138
1765409761.595603,-10.126732,0.121353,0.365854,-0.003054,-0.004734,0.001833
1765409761.595803,-10.011955,0.123745,0.243902,-0.008705,0.000916,0.002291
1765409761.595979,-9.933643,0.078312,0.104017,-0.006261,-0.002902,0.004734
1765409761.596179,-9.964130,0.049617,0.167384,-0.006261,-0.007636,0.001069
1765409761.596379,-10.169774,0.065160,0.420253,-0.007178,-0.005651,0.002443
1765409761.596579,-10.169774,0.065160,0.420253,-0.007178,-0.006109,0.002443
1765409761.596779,-9.970109,0.127929,0.182329,-0.004734,-0.004887,0.002596
1765409761.597039,-9.864896,0.096844,0.109995,-0.009010,-0.004887,0.001374
1765409761.597239,-9.984456,0.070540,0.289335,-0.008399,-0.011912,0.001069
1765409761.597439,-10.161406,-0.015543,0.491392,-0.008552,-0.012217,-0.000611
1765409761.597639,-10.161406,-0.015543,0.491392,-0.008552,-0.006109,-0.000611
1765409761.597839,-9.927068,0.098039,0.253467,-0.010996,-0.010385,-0.004734
1765409761.598019,-9.931850,0.089670,0.271401,-0.010690,-0.010385,-0.002138
1765409761.598219,-10.010758,0.007174,0.371832,-0.009774,-0.013744,-0.001069
1765409761.598419,-10.126732,0.011956,0.559541,-0.011912,-0.012065,-0.004276
1765409761.598619,-10.059779,-0.008369,0.506934,-0.010996,-0.009927,-0.005040
1765409761.598819,-9.820659,0.053802,0.235533,-0.007941,-0.013592,-0.006567
1765409761.599055,-9.758488,0.056193,0.200861,-0.007483,-0.013592,-0.003665
1765409761.599255,-9.762074,0.023912,0.229555,-0.009010,-0.011912,-0.001069
1765409761.599455,-9.850550,-0.075323,0.368245,-0.012523,-0.010385,-0.002138
1765409761.599655,-9.880439,-0.036466,0.420851,-0.010996,-0.012370,-0.004429
1765409761.599855,-9.776422,-0.075921,0.214012,-0.012523,-0.010079,-0.002443
1765409761.600025,-9.670013,-0.054998,0.151841,-0.009316,-0.010079,-0.001833
1765409761.600225,-9.739358,-0.072932,0.236729,-0.011912,-0.010690,-0.003512
1765409761.600425,-9.846962,-0.051411,0.384983,-0.009621,-0.007789,-0.004581
1765409761.600625,-9.934240,-0.059780,0.407700,-0.013592,-0.007789,-0.003818
1765409761.600825,-9.934240,-0.059780,0.407700,-0.013592,-0.007941,-0.003818
1765409761.601053,-9.846962,-0.086083,0.306074,-0.010079,-0.009468,-0.003054
1765409761.601253,-9.884624,-0.018532,0.314443,-0.010079,-0.006261,-0.003054
1765409761.601453,-9.946198,-0.037064,0.424438,-0.010385,-0.008705,-0.002291
1765409761.601653,-10.034073,-0.116571,0.494978,-0.009468,-0.008705,-0.002749
1765409761.601853,-10.034073,-0.116571,0.494978,-0.009468,-0.004276,-0.002749
1765409761.601972,-9.937828,-0.149450,0.365854,-0.010996,-0.004581,-0.001069
1765409761.602172,-9.936033,-0.082496,0.399928,-0.012675,-0.003054,-0.000305
1765409761.602372,-9.955761,-0.074725,0.370038,-0.010690,-0.007330,-0.000764
1765409761.602572,-9.992227,-0.123147,0.494978,-0.009468,-0.007330,0.001222
1765409761.602772,-10.043041,-0.194883,0.474653,-0.008858,-0.006720,0.000611
1765409761.603018,-9.947392,-0.132712,0.327594,-0.007636,-0.003971,-0.002902
1765409761.603218,-9.860711,-0.078312,0.235533,-0.006872,-0.003971,-0.000611
1765409761.603418,-9.776422,-0.104017,0.225968,-0.006567,-0.006109,0.000916
1765409761.603618,-9.831419,-0.111191,0.251674,-0.004429,-0.008858,-0.000916
1765409761.603818,-9.898373,-0.121951,0.319225,-0.004734,-0.009010,-0.000611
1765409761.604053,-9.860114,-0.105213,0.345528,-0.005192,-0.007025,-0.000458
1765409761.604253,-9.868484,-0.019130,0.245098,-0.005956,-0.003207,0.000611
1765409761.604453,-9.776422,-0.005978,0.180536,-0.003207,-0.004734,-0.001833
1765409761.604653,-9.830223,-0.009565,0.216404,-0.004123,-0.004734,0.000764
1765409761.604853,-9.899570,-0.005978,0.291726,-0.008094,-0.006567,0.001680
1765409761.605019,-10.001194,-0.001793,0.370636,-0.006720,-0.003665,0.001069
1765409761.605219,-10.015541,-0.050215,0.335964,-0.005345,-0.005803,0.001985
1765409761.605419,-10.015541,-0.050215,0.335964,-0.005345,-0.004276,0.001985
1765409761.605619,-9.935436,0.041846,0.261836,-0.008094,-0.005498,0.000458
1765409761.605819,-9.942610,0.012554,0.248685,-0.007483,-0.009163,-0.000916
1765409761.605967,-10.087276,-0.007771,0.398733,-0.005956,-0.008399,-0.000611
1765409761.606167,-10.108798,-0.026901,0.422645,-0.008094,-0.006261,0.001069
1765409761.606367,-10.108798,-0.026901,0.422645,-0.008094,-0.003818,0.001069
1765409761.606567,-10.014346,0.019130,0.339550,-0.007789,-0.004276,0.000153
1765409761.606767,-9.913916,0.013749,0.247489,-0.006414,-0.005192,0.001222
1765409761.606934,-9.911524,-0.035868,0.274988,-0.007483,-0.009010,0.000611
1765409761.607134,-10.037660,-0.034075,0.475849,-0.007941,-0.009010,-0.001222
1765409761.607334,-10.052606,0.005978,0.419656,-0.007941,-0.008094,-0.002138
1765409761.607534,-9.916306,0.005978,0.297704,-0.005956,-0.005498,-0.000611
1765409761.607734,-9.822452,-0.000598,0.208034,-0.007789,-0.008399,0.000305
1765409761.608038,-9.819464,0.000000,0.260641,-0.007789,-0.007789,-0.001985
1765409761.608238,-9.894786,0.005380,0.307269,-0.006261,-0.010843,-0.001985
1765409761.608438,-9.934240,-0.029890,0.375418,-0.009010,-0.006872,-0.002749
1765409761.608638,-9.892993,-0.027499,0.326399,-0.009927,-0.007483,-0.002596
1765409761.608838,-9.864896,0.051411,0.296509,-0.006720,-0.007025,-0.000611
1765409761.609033,-9.794355,0.026303,0.270803,-0.006720,-0.007178,-0.000611
1765409761.609233,-9.855330,-0.031086,0.272597,-0.012065,-0.008552,-0.001527
1765409761.609433,-9.973696,-0.047824,0.388570,-0.010079,-0.009468,-0.000611
1765409761.609633,-10.057388,-0.027499,0.506934,-0.011454,-0.006109,-0.001833
1765409761.609833,-9.968913,-0.033477,0.408895,-0.011301,-0.006567,-0.000458
1765409761.610005,-9.863102,-0.022716,0.166188,-0.009010,-0.006567,0.000000
1765409761.610205,-9.886416,-0.031683,0.255858,-0.008552,-0.006872,-0.001374
1765409761.610405,-9.977880,-0.098039,0.426829,-0.010690,-0.012675,-0.001527
1765409761.610605,-10.070539,-0.096844,0.502152,-0.008705,-0.009316,-0.000305
1765409761.610805,-9.980869,-0.071736,0.396939,-0.009468,-0.007178,0.000611
1765409761.611023,-9.878048,-0.089072,0.283357,-0.006720,-0.004429,0.000305
1765409761.611223,-9.848158,-0.053204,0.267217,-0.003512,-0.007025,-0.003207
1765409761.611423,-10.002390,-0.105213,0.375418,-0.008094,-0.009163,0.000153
1765409761.611623,-10.056191,-0.123147,0.479436,-0.008247,-0.005498,0.000611
1765409761.611823,-9.978478,-0.068747,0.341942,-0.010385,-0.005498,-0.001527
1765409761.611941,-9.797942,-0.069345,0.115375,-0.006261,-0.000764,0.001374
1765409761.612141,-9.847560,-0.069943,0.243902,-0.007483,-0.009774,0.000916
1765409761.612341,-9.974891,-0.095050,0.392755,-0.008705,-0.009163,-0.002291
1765409761.612541,-10.056191,-0.079507,0.515304,-0.005956,-0.003818,-0.001069
1765409761.612741,-10.014346,-0.010760,0.327594,-0.007330,-0.003818,-0.001069
1765409761.613052,-9.874461,-0.038259,0.164993,-0.004429,-0.007330,-0.001222
1765409761.613252,-9.939023,-0.064562,0.314443,-0.005192,-0.008247,-0.000764
1765409761.613452,-10.000596,-0.043042,0.450741,-0.005651,-0.006414,-0.000611
1765409761.613652,-9.985652,-0.045433,0.378407,-0.006109,-0.004887,0.000458
1765409761.613852,-9.921089,-0.043639,0.291726,-0.007941,-0.007025,0.001069
1765409761.613947,-9.879243,-0.056791,0.220588,-0.007025,-0.005040,0.000764
1765409761.614147,-9.898373,-0.004185,0.307269,-0.005498,-0.007178,0.001222
1765409761.614347,-9.973696,0.010760,0.358082,-0.008552,-0.005651,0.000916
1765409761.614547,-10.005977,-0.002391,0.418460,-0.007178,-0.005192,-0.002749
1765409761.614747,-9.721423,-0.244500,0.625897,-0.006720,-0.006567,-0.000305
1765409761.616058,-9.417742,-0.153037,0.148254,-0.007025,-0.000153,-0.005040
1765409761.616258,-9.998206,0.361071,0.543998,-0.007636,0.002596,-0.011912
1765409761.616458,-10.114776,0.347920,0.386179,-0.004581,0.002596,0.004123
1765409761.616658,-10.114776,0.347920,0.386179,-0.004581,0.006872,0.004123
1765409761.616858,-10.007172,-0.175753,1.064084,-0.013897,0.007789,0.002443
1765409761.616105,-9.697512,-0.384983,0.359876,-0.013592,0.003360,0.001680
1765409761.616355,-9.690338,-0.288140,-0.444763,-0.006109,-0.000458,-0.004429
1765409761.616605,-9.974891,0.242109,0.268412,0.000153,-0.000458,-0.008705
1765409761.616855,-10.085484,0.449546,0.888929,-0.006261,0.016952,-0.005651
1765409761.617013,-10.356287,0.358680,0.995935,-0.010996,0.010232,0.006261
1765409761.617213,-9.976088,-0.511717,0.238522,-0.011759,-0.002443,0.010996
1765409761.617413,-9.637732,-0.651602,-0.234338,-0.008247,-0.001833,-0.005498
1765409761.617613,-10.023911,0.182927,0.517097,-0.002749,-0.001833,-0.015424
1765409761.617813,-10.113581,0.521282,0.646820,-0.006109,0.012065,-0.008858
1765409761.618013,-10.057388,0.265423,0.390961,-0.009927,0.007483,0.003054
1765409761.618213,-9.861309,-0.203252,0.078910,-0.009316,0.007483,0.007636
1765409761.618413,-9.881634,-0.373027,0.400526,-0.010690,0.009927,0.000611
1765409761.618613,-10.101027,-0.247489,0.648613,-0.012217,0.004276,-0.007483
1765409761.618813,-9.973696,0.041846,0.344333,-0.007178,0.004734,-0.009010
1765409761.618960,-9.757292,0.324605,0.010760,-0.005498,0.007025,-0.005345
1765409761.619160,-9.747727,0.209230,0.205643,-0.011759,0.009621,0.002902
1765409761.619360,-9.747727,0.209230,0.205643,-0.011759,0.002749,0.002902
1765409761.619560,-9.994021,-0.332377,0.334768,-0.012217,0.003054,0.002443
1765409761.619760,-9.887015,-0.195481,0.258250,-0.007483,0.005651,-0.005498
1765409761.619964,-9.720228,0.015543,0.083094,-0.005498,0.006872,-0.007941
1765409761.620164,-9.764465,0.159015,0.308465,-0.009927,0.004581,-0.004429
1765409761.620364,-9.764465,0.159015,0.308465,-0.009927,0.006720,-0.004429
1765409761.620564,-10.026302,-0.153037,0.320421,-0.008858,0.010385,0.004123
1765409761.620764,-9.988043,-0.283357,0.234935,-0.007330,0.007789,0.000153
1765409761.621029,-9.917501,-0.222979,0.301291,-0.007330,0.008094,-0.001680
1765409761.621229,-9.984456,0.008967,0.423242,-0.009927,0.003971,-0.006109
1765409761.621429,-9.998206,0.148254,0.350909,-0.006567,0.005498,-0.001222
1765409761.621629,-9.921686,0.082496,0.295313,-0.006720,0.003054,0.003665
1765409761.621829,-9.873264,-0.062171,0.288140,-0.007330,0.007789,0.003971
1765409761.621982,-9.923481,-0.188905,0.326399,-0.010385,0.002443,0.001680
1765409761.622182,-9.983260,-0.202654,0.212219,-0.008094,0.002443,-0.003665
1765409761.622382,-9.949782,-0.040650,0.241511,-0.006414,0.003971,-0.003512
1765409761.622582,-9.976685,0.083692,0.325801,-0.006567,0.004429,-0.002443
1765409761.622782,-9.964130,0.122549,0.392157,-0.008705,0.006720,0.000458
1765409761.622992,-9.953370,-0.011956,0.125538,-0.007941,0.002138,0.002749
1765409761.623192,-10.082495,-0.068747,0.292922,-0.006872,0.001985,0.002443
1765409761.623392,-10.112385,-0.099235,0.498565,-0.006414,0.006872,-0.000458
1765409761.623592,-10.142276,-0.066356,0.556552,-0.010385,0.006414,-0.002749
1765409761.623792,-10.002987,0.019727,0.276781,-0.011301,0.001833,-0.004276
1765409761.624087,-9.903154,0.064562,0.039455,-0.008552,-0.000458,-0.004276
1765409761.624287,-9.904947,-0.020923,0.162602,-0.005498,-0.000611,0.002443
1765409761.624487,-10.072930,-0.045433,0.425634,-0.009468,0.003665,0.000611
1765409761.624687,-10.160210,-0.053802,0.469871,-0.008858,0.003665,-0.000153
1765409761.624887,-10.045432,-0.038259,0.264228,-0.008858,0.001222,-0.002749
1765409761.625039,-9.945002,-0.059780,0.160210,-0.007941,-0.000916,-0.000764
1765409761.625239,-10.046627,-0.076518,0.388570,-0.007330,-0.006261,-0.001374
1765409761.625439,-10.175752,-0.007771,0.485414,-0.008705,-0.006261,-0.002749
1765409761.625639,-10.083690,0.032281,0.291129,-0.009774,-0.003207,-0.000611
1765409761.625839,-9.931850,0.052009,0.193687,-0.007789,0.001680,0.003512
1765409761.626067,-9.979075,-0.056193,0.325203,-0.010996,-0.002291,0.001985
1765409761.626317,-10.078907,-0.137494,0.471066,-0.009468,-0.006720,0.001833
1765409761.626567,-10.181729,-0.078312,0.446557,-0.011912,-0.006720,-0.003971
1765409761.626817,-9.950979,0.020923,0.138690,-0.010537,-0.005651,-0.003054
1765409761.627002,-9.774628,0.089670,0.071736,-0.008399,-0.005651,-0.000305
1765409761.630019,-9.890003,0.062171,0.206839,-0.008094,-0.006109,0.000153
1765409761.632012,-10.131515,-0.027499,0.554758,-0.008858,-0.007178,-0.000153
1765409761.633056,-10.131515,-0.027499,0.554758,-0.008858,-0.005040,-0.000153
1765409761.637073,-9.881036,-0.131516,0.217599,-0.009927,-0.006414,-0.000611
1765409761.641159,-9.863700,-0.052606,0.184122,-0.009927,-0.005040,-0.003360
1765409761.642111,-10.007771,0.026303,0.357484,-0.006261,-0.005956,-0.002291
1765409761.645138,-10.083690,0.049617,0.475849,-0.009468,-0.009468,0.000000
1765409761.647063,-9.953370,-0.032281,0.324008,-0.010843,-0.003360,-0.000153
1765409761.650065,-9.815279,-0.115973,0.150646,-0.005956,-0.003360,0.000916
1765409761.652056,-9.833811,-0.170971,0.198470,-0.007789,-0.010843,0.000153
1765409761.655032,-10.026302,-0.044835,0.444763,-0.009468,-0.008552,-0.002443
1765409761.657108,-10.087874,0.075323,0.514706,-0.009010,-0.006414,-0.003360
1765409761.660023,-9.868484,0.045433,0.203252,-0.007483,-0.004887,0.000458
1765409761.662068,-9.782400,-0.066954,0.137494,-0.007025,-0.008247,0.000611
1765409761.665049,-9.956957,-0.162602,0.405308,-0.005803,-0.009316,-0.001985
1765409761.667024,-10.096842,-0.160210,0.586442,-0.007941,-0.006567,-0.004276
1765409761.670045,-9.931850,-0.031086,0.335964,-0.007789,-0.002291,-0.003360
1765409761.672042,-9.782997,0.045433,0.124940,-0.005498,-0.002291,-0.001374
1765409761.674985,-9.689142,0.004782,0.119560,-0.007789,-0.006567,0.001069
1765409761.677053,-9.842180,-0.077714,0.312052,-0.006872,-0.011606,0.001222
1765409761.680165,-9.895982,-0.109397,0.375418,-0.009316,-0.008858,0.000305
1765409761.682005,-9.879243,-0.027499,0.288737,-0.004734,-0.002749,-0.000764
1765409761.684998,-9.756096,-0.045433,0.149450,-0.005956,-0.004581,0.000305
1765409761.685498,-9.756096,-0.045433,0.149450,-0.005956,-0.007178,0.000305
1765409761.690037,-10.078907,-0.032281,0.594213,-0.008094,-0.005498,-0.000153
1765409761.692030,-10.015541,-0.053204,0.404113,-0.009468,-0.005498,-0.000611
1765409761.695050,-9.839190,-0.113582,0.238522,-0.007025,-0.002749,0.000000
1765409761.697033,-9.736967,-0.028694,0.166188,-0.009163,-0.000153,-0.001222
1765409761.700054,-9.861309,-0.008369,0.319823,-0.007483,-0.005040,0.000458
1765409761.702071,-9.946198,-0.072932,0.359876,-0.005803,-0.001527,0.000611
1765409761.705021,-9.919893,-0.035868,0.312052,-0.005498,-0.001527,0.000611
1765409761.707005,-9.759085,0.000000,0.145265,-0.007178,-0.001374,0.000611
1765409761.710059,-9.791965,-0.020325,0.306074,-0.012065,-0.005040,-0.000305
1765409761.712076,-9.927068,-0.055595,0.471066,-0.007483,-0.006720,-0.004887
1765409761.713145,-9.947392,-0.019130,0.353898,-0.005651,-0.004734,-0.001680
1765409761.717121,-9.839788,0.003587,0.182927,-0.006109,0.002291,0.001680
1765409761.720022,-9.839788,0.003587,0.182927,-0.006109,-0.002138,0.001680
1765409761.721045,-9.924676,-0.092061,0.410091,-0.009927,-0.004581,-0.003054
1765409761.725136,-10.087874,-0.016738,0.490196,-0.008247,-0.004581,-0.002291
1765409761.727058,-9.898373,-0.004782,0.261239,-0.008399,-0.000916,-0.001527
1765409761.730128,-9.732782,0.050813,0.128527,-0.008705,0.001680,-0.001985
1765409761.732045,-9.827234,0.022716,0.233142,-0.007178,-0.001069,-0.000458
1765409761.737137,-10.021520,-0.058584,0.482425,-0.005651,-0.002138,-0.000153
1765409761.737637,-10.025107,-0.111191,0.468675,-0.009316,-0.002138,-0.001527
1765409761.740104,-9.869080,-0.041248,0.210426,-0.011301,0.002138,-0.002291
1765409761.742067,-9.824244,0.007174,0.160210,-0.007941,-0.001680,-0.001222
1765409761.745131,-9.986848,0.015543,0.407700,-0.007789,-0.003207,-0.001374
1765409761.747057,-10.159613,-0.034672,0.542802,-0.007789,-0.004887,0.000611
1765409761.750037,-10.038258,-0.027499,0.407700,-0.011454,0.001527,-0.000764
1765409761.752079,-9.829626,-0.087877,0.151243,-0.008094,0.001833,-0.002596
1765409761.754112,-9.787182,-0.046628,0.222979,-0.006261,-0.006109,-0.003207
1765409761.757198,-9.974891,0.011358,0.351506,-0.009163,-0.006109,-0.003665
1765409761.760137,-10.004781,0.012554,0.350311,-0.008858,-0.002596,-0.000305
1765409761.762136,-9.925871,0.013152,0.289335,-0.004429,0.002443,0.000153
1765409761.765110,-9.912720,-0.013152,0.228360,-0.006720,0.002596,0.000000
1765409761.767056,-9.985652,-0.092061,0.321616,-0.009316,-0.002902,0.000153
1765409761.770089,-10.062170,-0.164993,0.411286,-0.007178,-0.003054,-0.000916
1765409761.772057,-10.098038,-0.088474,0.468675,-0.010996,-0.003818,-0.002291
1765409761.775034,-9.994618,0.007771,0.253467,-0.009010,-0.003360,-0.002443
1765409761.777057,-9.837397,0.053802,0.132114,-0.006109,0.000305,-0.000611
1765409761.780037,-9.861309,0.012554,0.184122,-0.009774,-0.003512,0.001833
1765409761.782082,-10.008368,-0.078312,0.358680,-0.008247,-0.006109,0.002291
1765409761.785102,-10.051410,-0.106408,0.377212,-0.007636,-0.003971,0.001833
1765409761.787082,-9.960544,-0.063965,0.245098,-0.007025,-0.003971,-0.002596
1765409761.790048,-9.949782,-0.036466,0.226566,-0.007483,-0.005498,-0.000916
1765409761.792011,-9.989837,0.006576,0.307269,-0.007330,-0.007636,-0.001374
1765409761.795020,-10.071735,-0.010163,0.416667,-0.009468,-0.007636,-0.001222
1765409761.797088,-9.992825,-0.009565,0.301889,-0.009468,-0.005651,-0.001222
1765409761.800065,-9.905546,-0.076518,0.199067,-0.007025,-0.000916,-0.000153
1765409761.801111,-9.887612,-0.123147,0.211621,-0.006109,-0.005498,-0.000153
1765409761.805113,-10.019128,-0.029890,0.398135,-0.006872,-0.006567,-0.002291
1765409761.807098,-10.016139,0.028694,0.386777,-0.010537,-0.004581,-0.002443
1765409761.810159,-9.888808,-0.007174,0.225968,-0.008858,-0.006872,-0.002443
1765409761.812066,-9.856527,-0.044237,0.159015,-0.007483,-0.005040,0.000305
1765409761.815156,-10.039454,-0.062769,0.364658,-0.007941,-0.004887,-0.000764
1765409761.817113,-10.164392,-0.087279,0.564323,-0.008399,-0.008552,-0.002443
1765409761.820088,-10.077712,-0.072334,0.383788,-0.007789,-0.005651,-0.004734
1765409761.822065,-9.909731,-0.026303,0.273792,-0.006109,-0.005803,-0.005345
1765409761.825175,-9.890003,0.003587,0.227762,-0.010843,-0.007330,-0.003818
1765409761.827109,-9.979673,-0.001196,0.394548,-0.010385,-0.009468,-0.000611
1765409761.830150,-10.069344,-0.054998,0.473458,-0.010232,-0.004734,-0.002443
1765409761.832099,-9.958152,-0.071736,0.324008,-0.008705,-0.005498,-0.002138
1765409761.833120,-9.815877,-0.104017,0.159015,-0.010690,-0.003971,-0.005498
1765409761.835098,-9.822452,-0.002391,0.212817,-0.009621,-0.008858,-0.006109
1765409761.840104,-10.008965,0.080105,0.446557,-0.010385,-0.008399,-0.004429
1765409761.842123,-10.013150,-0.032879,0.417264,-0.011454,-0.005345,-0.006567
1765409761.845195,-9.903752,-0.064562,0.285151,-0.010079,-0.005345,-0.004429
1765409761.845695,-9.882831,-0.035868,0.211621,-0.012828,-0.008858,-0.007789
1765409761.850073,-9.998802,-0.047226,0.407700,-0.014661,-0.005803,-0.005803
1765409761.852056,-10.019128,-0.037661,0.469871,-0.010996,-0.003971,-0.002443
1765409761.855054,-9.971903,-0.007174,0.365854,-0.015119,-0.009010,-0.006872
1765409761.857100,-9.840983,0.037064,0.211621,-0.014050,-0.003360,-0.005498
1765409761.860073,-9.840983,0.037064,0.211621,-0.014050,-0.005651,-0.005498
1765409761.862120,-9.933045,-0.115973,0.350909,-0.015272,-0.007636,-0.003207
1765409761.865135,-10.057985,-0.077714,0.457915,-0.012981,-0.007636,-0.005040
1765409761.867095,-9.914514,-0.111789,0.293520,-0.011759,-0.002138,-0.007178
1765409761.870097,-9.733380,-0.068149,0.093257,-0.008399,-0.005040,-0.006720
1765409761.872086,-9.733380,-0.068149,0.093257,-0.008399,-0.007941,-0.006720
1765409761.875100,-10.021520,-0.050215,0.422047,-0.006720,-0.004734,-0.008858
1765409761.877133,-9.940218,-0.075323,0.303682,-0.007636,-0.004734,-0.007025
1765409761.880134,-9.812290,-0.009565,0.176949,-0.008399,-0.002749,-0.007330
1765409761.882157,-9.849353,-0.023912,0.255858,-0.008858,-0.005040,-0.006720
1765409761.885187,-9.969511,-0.049617,0.382592,-0.009621,-0.004429,-0.004887
1765409761.887138,-10.010161,-0.026303,0.424438,-0.011606,-0.001527,-0.005803
1765409761.890174,-9.918698,-0.001793,0.295313,-0.010537,-0.001527,-0.007330
1765409761.892157,-9.811692,-0.036466,0.142276,-0.009774,-0.005192,-0.003971
1765409761.895140,-9.894786,-0.069345,0.271999,-0.009621,-0.008552,-0.007025
1765409761.897155,-10.110592,-0.032281,0.485414,-0.012065,-0.003818,-0.006567
1765409761.900145,-10.071735,-0.080105,0.422047,-0.008705,-0.001069,-0.006872
1765409761.902140,-9.946198,-0.134505,0.293520,-0.013439,-0.001069,-0.006872
1765409761.905163,-9.884026,-0.074127,0.242707,-0.011454,-0.006261,-0.006872
1765409761.907164,-9.891200,-0.019727,0.301291,-0.009163,-0.002138,-0.010843
1765409761.910139,-9.959349,-0.005978,0.370636,-0.012675,-0.002138,-0.008552
1765409761.912100,-9.959349,-0.005978,0.370636,-0.012675,-0.000305,-0.008552
1765409761.915106,-9.852941,-0.072932,0.201459,-0.005345,-0.001985,-0.009774
1765409761.917201,-9.874461,-0.067551,0.253467,-0.008247,-0.003818,-0.013439
1765409761.920161,-9.953370,-0.094452,0.310856,-0.009621,-0.004887,-0.007025
1765409761.922188,-10.038857,0.031683,0.393352,-0.010079,-0.004887,-0.010079
1765409761.925150,-10.038857,0.031683,0.393352,-0.010079,-0.004581,-0.010079
1765409761.927123,-9.899570,0.078910,0.244500,-0.016188,-0.000611,-0.004429
1765409761.930104,-9.923481,-0.070540,0.268412,-0.015272,-0.003818,-0.002138
1765409761.932179,-10.112385,-0.162602,0.472262,-0.014966,-0.007483,-0.004887
1765409761.933179,-10.196077,-0.102224,0.530249,-0.011301,-0.005651,-0.007025
1765409761.937252,-10.051410,-0.045433,0.326399,-0.011454,-0.002902,-0.006872
1765409761.940157,-9.906742,-0.038259,0.163797,-0.011148,-0.005345,-0.005651
1765409761.942174,-9.845766,-0.074127,0.182927,-0.008094,-0.005345,-0.008705
1765409761.945125,-9.939621,-0.108202,0.332377,-0.009316,-0.009468,-0.007636
1765409761.947118,-10.010758,-0.108800,0.352702,-0.008705,-0.003054,-0.010537
1765409761.949225,-9.977283,-0.046628,0.327594,-0.010079,-0.004734,-0.012065
1765409761.952129,-9.850550,-0.010163,0.185318,-0.011912,-0.002596,-0.011148
1765409761.955090,-9.845766,0.022716,0.198470,-0.011301,-0.005651,-0.011606
1765409761.957109,-9.892395,-0.014347,0.224773,-0.012675,-0.007178,-0.010079
1765409761.960217,-9.983858,-0.011956,0.321616,-0.011301,-0.008552,-0.010232
1765409761.962124,-10.064561,0.003587,0.361071,-0.012217,-0.004734,-0.009774
1765409761.965204,-9.988641,-0.022716,0.321616,-0.012217,-0.005956,-0.010232
1765409761.967119,-10.002390,-0.037064,0.357484,-0.013134,-0.007025,-0.010996
1765409761.970130,-10.002390,-0.037064,0.357484,-0.013134,-0.008858,-0.010996
1765409761.972114,-10.076518,-0.080105,0.379005,-0.012675,-0.012981,-0.010690
1765409761.975156,-10.099234,-0.047226,0.449546,-0.014203,-0.006720,-0.012828
1765409761.977177,-10.001194,-0.003587,0.361071,-0.013592,-0.006567,-0.013439
1765409761.980133,-9.966521,0.013152,0.313247,-0.013897,-0.006567,-0.011912
1765409761.982155,-9.921089,0.020325,0.319225,-0.015882,-0.011301,-0.011148
1765409761.985307,-10.017933,0.014347,0.337159,-0.014508,-0.008858,-0.011606
1765409761.987175,-9.996411,-0.037064,0.292922,-0.014813,-0.008858,-0.008705
1765409761.988193,-10.031085,-0.133907,0.347920,-0.014355,-0.010690,-0.009468
1765409761.992182,-9.948587,-0.126734,0.300096,-0.011148,-0.007483,-0.014355
1765409761.995180,-9.874461,-0.020325,0.135103,-0.011301,-0.008858,-0.010996
1765409761.997175,-9.814680,-0.016738,0.126136,-0.014355,-0.007636,-0.010996
1765409761.998307,-9.885221,-0.043042,0.319823,-0.013744,-0.011759,-0.011148
1765409762.002161,-10.001792,-0.069345,0.430416,-0.013897,-0.010537,-0.009468
1765409762.005174,-10.019128,-0.117169,0.362865,-0.012828,-0.010537,-0.011606
1765409762.007133,-10.029889,-0.037064,0.417264,-0.014966,-0.007178,-0.011454
1765409762.010208,-9.881634,-0.059780,0.247489,-0.012217,-0.005345,-0.010843
1765409762.012152,-9.870276,-0.007174,0.285748,-0.010690,-0.009010,-0.013286
1765409762.013254,-9.836202,-0.052606,0.277379,-0.013134,-0.012065,-0.013439
1765409762.017166,-9.942610,-0.067551,0.320421,-0.014050,-0.011301,-0.012981
1765409762.020207,-9.819464,-0.150048,0.219990,-0.015424,-0.008858,-0.009163
1765409762.022190,-9.860114,-0.100430,0.273792,-0.014966,-0.010690,-0.013897
1765409762.025229,-9.850550,-0.090866,0.245098,-0.014813,-0.008247,-0.013592
1765409762.027279,-9.824843,-0.016738,0.208034,-0.012981,-0.008858,-0.014813
1765409762.030207,-9.774031,0.062171,0.126734,-0.014813,-0.003512,-0.013897
1765409762.032219,-9.833811,0.098039,0.188905,-0.015882,-0.005651,-0.009468
1765409762.035155,-9.930056,-0.049020,0.430416,-0.017715,-0.011912,-0.008858
1765409762.037188,-9.903154,-0.214012,0.301291,-0.016952,-0.010079,-0.008552
1765409762.040161,-9.858918,-0.212817,0.231946,-0.014355,-0.007789,-0.011301
1765409762.042173,-9.775824,-0.241511,0.178144,-0.014203,-0.001985,-0.014203
1765409762.045224,-9.950979,-0.041846,0.338953,-0.013897,-0.006261,-0.016799
1765409762.047210,-9.967718,-0.023314,0.455524,-0.013439,-0.010232,-0.015730
1765409762.050219,-10.121950,-0.072932,0.561334,-0.015577,-0.010232,-0.014355
1765409762.053359,-10.075920,-0.104017,0.523075,-0.013134,-0.005040,-0.012523
1765409762.055232,-9.949782,-0.057987,0.318627,-0.014050,-0.008705,-0.014966
1765409762.057296,-9.904350,-0.046628,0.298900,-0.017104,-0.009774,-0.014813
1765409762.060194,-9.904947,0.032281,0.230751,-0.014050,-0.012523,-0.016646
1765409762.060694,-10.025704,0.059780,0.376614,-0.017715,-0.012523,-0.012065
1765409762.065214,-9.959349,0.008369,0.357484,-0.018021,-0.013897,-0.013286
1765409762.068185,-9.960544,-0.096844,0.347322,-0.016952,-0.012065,-0.012065
1765409762.070177,-9.806910,-0.311454,0.206839,-0.015272,-0.007636,-0.010385
1765409762.072212,-9.853538,-0.286944,0.248685,-0.013286,-0.010996,-0.015882
1765409762.075230,-9.886416,-0.132712,0.255858,-0.011759,-0.008705,-0.018479
1765409762.077158,-9.996411,0.035868,0.370038,-0.011148,-0.009010,-0.017715
1765409762.080200,-9.995216,0.117169,0.460306,-0.010843,-0.004734,-0.014050
1765409762.082161,-9.980869,0.103419,0.436394,-0.015272,-0.004734,-0.014203
1765409762.083178,-9.980869,0.103419,0.436394,-0.015272,-0.005803,-0.014203
1765409762.086231,-9.699903,-0.119560,0.087877,-0.018173,-0.009774,-0.011301
1765409762.088214,-9.734576,-0.141081,0.214610,-0.015577,-0.011759,-0.013286
1765409762.091199,-9.971903,-0.184122,0.402319,-0.017257,-0.008399,-0.014661
1765409762.095162,-9.894786,-0.156026,0.304878,-0.011759,-0.008399,-0.013592
1765409762.097209,-9.894786,-0.156026,0.304878,-0.011759,-0.008094,-0.013592
1765409762.100194,-9.763269,-0.167384,0.147059,-0.013592,-0.007025,-0.014966
1765409762.102170,-9.745336,-0.247489,0.147059,-0.015119,-0.009774,-0.015424
1765409762.105193,-9.836202,-0.138092,0.190698,-0.013286,-0.009316,-0.020006
1765409762.107220,-9.852343,0.080703,0.181731,-0.013439,-0.009316,-0.018479
1765409762.110164,-9.845766,0.143472,0.308465,-0.017257,-0.008094,-0.017868
1765409762.111160,-9.867287,0.082496,0.332377,-0.017715,-0.010385,-0.015577
1765409762.115203,-9.820659,0.005978,0.156624,-0.012828,-0.005956,-0.014966
1765409762.117216,-9.792562,-0.070540,0.215208,-0.018021,-0.006109,-0.015119
1765409762.120300,-9.934240,-0.148254,0.344333,-0.016493,-0.010690,-0.013286
1765409762.122238,-10.059779,-0.236729,0.376614,-0.019700,-0.011912,-0.016188
1765409762.125399,-10.086082,-0.237924,0.327594,-0.014661,-0.001222,-0.017104
1765409762.127206,-9.950979,-0.162602,0.219990,-0.012523,-0.001222,-0.020922
1765409762.128271,-9.950979,-0.162602,0.219990,-0.012523,-0.005651,-0.020922
1765409762.132213,-9.956957,-0.019130,0.439981,-0.014661,-0.005956,-0.019548
1765409762.133291,-10.119559,-0.041846,0.569106,-0.018021,-0.005345,-0.019090
1765409762.137226,-10.122547,-0.065758,0.438785,-0.017715,-0.010079,-0.020159
1765409762.140223,-10.075322,0.041846,0.451937,-0.019548,-0.009010,-0.023671
1765409762.142353,-10.075322,0.041846,0.451937,-0.019548,-0.005803,-0.023671
1765409762.145296,-9.815877,-0.075323,0.114180,-0.016035,-0.014661,-0.019548
1765409762.147253,-9.954566,-0.129723,0.290531,-0.019548,-0.014661,-0.018631
1765409762.150315,-10.156025,-0.102822,0.505141,-0.016646,-0.013134,-0.019242
1765409762.151291,-9.994618,-0.210426,0.305476,-0.017410,-0.007025,-0.017868
1765409762.153359,-9.994618,-0.210426,0.305476,-0.017410,-0.007483,-0.017868
1765409762.157329,-9.877449,-0.035868,0.138690,-0.017257,-0.006109,-0.024129
1765409762.160350,-10.038258,0.025108,0.364658,-0.017715,-0.010079,-0.022297
1765409762.162292,-10.195478,0.120756,0.634266,-0.014203,0.000611,-0.020617
1765409762.165286,-9.853538,-0.053802,0.219990,-0.016799,0.000611,-0.016952
1765409762.167229,-9.905546,-0.096844,0.251076,-0.021075,-0.006109,-0.022144
1765409762.168198,-10.071137,-0.176949,0.506934,-0.019242,-0.005345,-0.020311
1765409762.172219,-10.199663,-0.088474,0.674318,-0.014355,-0.009468,-0.021228
1765409762.175236,-10.191893,-0.023912,0.597800,-0.019853,-0.006567,-0.023824
1765409762.177278,-9.916306,-0.002391,0.248087,-0.018631,-0.006414,-0.020464
1765409762.180244,-9.807508,-0.189503,0.056791,-0.019242,-0.012981,-0.020159
1765409762.182236,-9.858918,-0.167384,0.319823,-0.021533,-0.014508,-0.023366
1765409762.185325,-9.869080,-0.179340,0.291726,-0.018937,-0.011454,-0.025045
1765409762.187251,-9.809300,-0.026901,0.113582,-0.018937,-0.016646,-0.025045
1765409762.190280,-9.953370,-0.031086,0.283357,-0.020464,-0.009621,-0.026420
1765409762.192318,-9.775226,-0.002391,0.230751,-0.017104,-0.009621,-0.023671
1765409762.195198,-9.670610,0.051411,0.050215,-0.019090,-0.007636,-0.022602
1765409762.197280,-9.613820,-0.049020,0.013749,-0.020769,-0.007025,-0.020159
1765409762.200220,-9.833811,-0.170971,0.264228,-0.019548,-0.009010,-0.021838
1765409762.202249,-10.121950,-0.180536,0.508130,-0.018326,-0.012675,-0.025351
1765409762.205310,-10.173361,-0.057389,0.623505,-0.018937,-0.007178,-0.029322
1765409762.207308,-9.895982,0.081301,0.318030,-0.020617,-0.003207,-0.025504
1765409762.210286,-9.884026,-0.062171,0.179938,-0.020922,-0.012675,-0.023060
1765409762.212305,-10.193686,-0.092061,0.520086,-0.024435,-0.012065,-0.023060
1765409762.215317,-10.271400,-0.178742,0.593615,-0.017104,-0.010690,-0.022602
1765409762.217359,-10.054399,-0.142276,0.370038,-0.020159,-0.005498,-0.026573
1765409762.220287,-9.869678,-0.144070,0.104615,-0.024282,-0.005345,-0.024129
1765409762.221388,-9.797942,-0.175155,0.150646,-0.022907,-0.012217,-0.025656
1765409762.225327,-9.918698,-0.109995,0.294118,-0.023518,-0.009927,-0.025962
1765409762.227316,-9.875656,0.019130,0.306074,-0.021075,-0.007178,-0.024129
1765409762.230309,-9.880439,-0.074127,0.231349,-0.021533,-0.001985,-0.021228
1765409762.232344,-9.818267,-0.191296,0.199665,-0.022449,-0.007483,-0.020769
1765409762.235314,-9.945002,-0.169775,0.517695,-0.020311,-0.005345,-0.026267
1765409762.237346,-9.815877,-0.120158,0.334768,-0.020617,-0.003207,-0.025351
1765409762.240355,-9.985053,-0.044237,0.404711,-0.020769,-0.014966,-0.026267
1765409762.242292,-10.072930,-0.056193,0.534433,-0.022449,-0.013439,-0.025351
1765409762.245334,-9.960544,-0.106408,0.327594,-0.023518,-0.012981,-0.023213
1765409762.247331,-9.802725,-0.190100,0.114778,-0.023824,-0.011759,-0.025351
1765409762.250304,-9.912720,-0.222979,0.270206,-0.021991,-0.013286,-0.027642
1765409762.252305,-10.129124,-0.159015,0.441176,-0.017410,-0.013897,-0.028100
1765409762.255308,-10.093853,-0.056193,0.468675,-0.017104,-0.010996,-0.027031
1765409762.257346,-9.887612,-0.009565,0.328192,-0.018937,-0.007025,-0.025504
1765409762.259815,-9.673599,-0.065758,0.008369,-0.019548,-0.008858,-0.022602
1765409762.262273,-9.850550,-0.119560,0.243902,-0.022602,-0.013897,-0.026878
1765409762.265348,-9.985053,-0.087877,0.308465,-0.023976,-0.006414,-0.025351
1765409762.267302,-9.943806,-0.172764,0.284553,-0.024587,-0.006414,-0.026573
1765409762.270280,-9.943806,-0.172764,0.284553,-0.024587,-0.002596,-0.026573
1765409762.272311,-9.752509,-0.082496,0.210426,-0.022144,-0.005498,-0.029932
1765409762.273390,-9.845766,-0.008369,0.286944,-0.022144,-0.007330,-0.029627
1765409762.277430,-10.100429,-0.020325,0.443568,-0.023518,-0.005040,-0.028405
1765409762.280325,-10.118960,-0.017934,0.503348,-0.022907,-0.005040,-0.026725
1765409762.282244,-10.098636,-0.163797,0.445959,-0.028253,-0.002596,-0.030391
1765409762.285282,-9.984456,-0.095050,0.331181,-0.025045,-0.001374,-0.031460
1765409762.285782,-9.970109,-0.046031,0.254663,-0.024587,-0.009163,-0.033750
1765409762.290353,-10.111190,-0.090866,0.437590,-0.025198,-0.012523,-0.029932
1765409762.292309,-9.991630,-0.019727,0.417264,-0.023671,-0.006567,-0.028405
1765409762.295296,-9.991630,-0.019727,0.417264,-0.023671,-0.005498,-0.028405
1765409762.297312,-9.677187,-0.224175,0.081899,-0.025045,-0.016188,-0.028711
1765409762.300300,-9.824244,-0.214012,0.174558,-0.021838,-0.016188,-0.031612
1765409762.302326,-10.089668,-0.056193,0.493783,-0.024893,-0.012217,-0.032987
1765409762.305372,-10.114776,-0.104017,0.536227,-0.024893,-0.009010,-0.034361
1765409762.307305,-9.869678,-0.108202,0.197872,-0.023518,-0.009468,-0.033750
1765409762.310327,-9.733380,-0.060976,-0.015543,-0.019700,-0.011912,-0.030696
1765409762.312254,-9.876852,-0.100430,0.245098,-0.024740,-0.013439,-0.032834
1765409762.315275,-10.065758,-0.074127,0.402917,-0.024740,-0.012981,-0.032834
1765409762.316325,-10.076518,-0.094452,0.361071,-0.025656,-0.007330,-0.029932
1765409762.320296,-9.895385,-0.157221,0.198470,-0.026114,-0.003818,-0.032529
1765409762.322321,-9.846365,-0.119560,0.206241,-0.025351,-0.003512,-0.032529
1765409762.325376,-9.945002,-0.094452,0.410689,-0.025045,-0.005040,-0.033903
1765409762.328319,-10.051410,-0.028694,0.416069,-0.025809,-0.012065,-0.034208
1765409762.328819,-10.014943,-0.084290,0.467480,-0.023213,-0.003971,-0.033750
1765409762.332319,-9.713055,-0.162004,-0.007174,-0.023976,-0.003971,-0.031765
1765409762.335322,-9.796746,-0.155428,0.176351,-0.026573,-0.010385,-0.031918
1765409762.337398,-9.980869,-0.144668,0.361669,-0.027642,-0.010232,-0.031612
1765409762.340406,-10.212815,-0.094452,0.713773,-0.024435,-0.014355,-0.032987
1765409762.340906,-9.892395,-0.188307,0.332975,-0.028253,-0.007789,-0.033750
1765409762.345412,-9.779410,-0.197274,0.116571,-0.025656,-0.008399,-0.034361
1765409762.347464,-9.674795,-0.196078,-0.017934,-0.023213,-0.014050,-0.032529
1765409762.349434,-10.119559,-0.208632,0.542802,-0.030849,-0.017715,-0.038637
1765409762.352491,-10.172164,-0.197274,0.616930,-0.025198,-0.008094,-0.037415
1765409762.357379,-9.809898,-0.115973,0.020923,-0.023518,-0.009621,-0.039706
1765409762.357879,-9.794355,-0.077714,0.184720,-0.024282,-0.008399,-0.034972
1765409762.360365,-9.707077,0.005978,0.058584,-0.024435,-0.011759,-0.032070
1765409762.362303,-10.049617,-0.154232,0.522477,-0.027947,-0.016188,-0.032529
1765409762.365352,-9.819464,-0.191296,0.128527,-0.029016,-0.007330,-0.033292
1765409762.367341,-9.881634,-0.311454,0.269010,-0.025504,-0.009927,-0.033903
1765409762.370309,-9.628167,-0.187111,0.015543,-0.022602,-0.003665,-0.038179
1765409762.372302,-9.878646,-0.071736,0.332377,-0.024129,-0.011454,-0.038332
1765409762.375322,-9.857722,-0.004782,0.219393,-0.025962,-0.007178,-0.036652
1765409762.377353,-9.959946,-0.060976,0.227164,-0.029474,-0.012828,-0.033292
1765409762.378308,-10.001194,-0.045433,0.480631,-0.028405,-0.006872,-0.032681
1765409762.382319,-10.012553,-0.333572,0.401124,-0.032376,-0.004734,-0.035277
1765409762.383343,-9.922883,-0.286944,0.315638,-0.028711,-0.005956,-0.037110
1765409762.387297,-9.857722,-0.176949,0.129125,-0.029780,-0.010996,-0.041386
1765409762.390289,-10.124342,-0.051411,0.576279,-0.028558,-0.010537,-0.041997
1765409762.392290,-9.915709,-0.173362,0.162602,-0.031612,-0.007330,-0.039248
1765409762.395313,-9.808105,-0.117169,0.197872,-0.026267,-0.008858,-0.037110
1765409762.397314,-9.637732,-0.087279,-0.013152,-0.025504,-0.009010,-0.038637
1765409762.400364,-10.181729,-0.156624,0.773553,-0.026878,-0.015272,-0.037721
1765409762.402299,-10.091461,-0.221186,0.480033,-0.026878,-0.009163,-0.035888
1765409762.405321,-10.043041,-0.102822,0.308465,-0.027184,-0.011759,-0.040928
1765409762.407335,-9.812290,0.000000,0.010760,-0.028405,-0.003818,-0.039706
1765409762.410362,-9.959349,-0.098039,0.267814,-0.029169,-0.014508,-0.035430
1765409762.412332,-10.249879,-0.203252,0.658178,-0.030543,-0.012523,-0.041233
1765409762.413342,-10.234337,-0.176351,0.613343,-0.030849,-0.002749,-0.040623
1765409762.417330,-9.820659,-0.209230,0.138690,-0.027336,-0.001527,-0.041692
1765409762.420346,-9.684361,-0.175753,-0.020325,-0.025656,-0.009927,-0.039554
1765409762.422330,-10.034670,-0.083692,0.481827,-0.031612,-0.015424,-0.041233
1765409762.425412,-10.065758,-0.084888,0.442970,-0.029016,-0.005803,-0.036805
1765409762.427330,-9.916904,-0.199665,0.327594,-0.030391,-0.004123,-0.037263
1765409762.430338,-9.890003,-0.187709,0.210426,-0.029780,-0.005192,-0.037415
1765409762.432352,-10.014346,-0.249880,0.349713,-0.032834,-0.013134,-0.040928
1765409762.435358,-10.143471,-0.150646,0.517695,-0.029169,-0.014355,-0.040928
1765409762.437440,-10.077712,-0.173362,0.358680,-0.029169,-0.016646,-0.039248
1765409762.440385,-10.056191,-0.137494,0.434601,-0.025045,-0.016646,-0.041081
1765409762.442427,-10.047822,-0.169775,0.336561,-0.030085,-0.012217,-0.040317
1765409762.445453,-9.880439,-0.251674,0.131516,-0.028558,-0.013744,-0.038026
1765409762.447347,-9.927068,-0.177547,0.212817,-0.029780,-0.012370,-0.040775
1765409762.450432,-10.104015,-0.115973,0.499761,-0.032681,-0.009163,-0.041997
1765409762.451427,-10.043041,-0.297704,0.459110,-0.033292,-0.004581,-0.040928
1765409762.455356,-9.912720,-0.238522,0.278575,-0.028253,-0.008094,-0.042302
1765409762.457389,-9.854733,-0.204448,0.318030,-0.029322,-0.010843,-0.042455
1765409762.458379,-9.922284,-0.181731,0.182329,-0.027489,-0.010843,-0.041539
1765409762.461415,-10.129124,-0.112386,0.393352,-0.025809,-0.015882,-0.043066
1765409762.464459,-10.088473,-0.173362,0.461502,-0.027794,-0.012065,-0.043066
1765409762.467401,-10.088473,-0.173362,0.461502,-0.027794,-0.011912,-0.043066
1765409762.470380,-9.860711,-0.193089,0.260043,-0.029780,-0.014355,-0.045204
1765409762.472350,-9.997607,-0.163797,0.498565,-0.030238,-0.014355,-0.042913
1765409762.475367,-10.020324,-0.121951,0.291726,-0.030543,-0.010232,-0.043982
1765409762.478431,-9.826636,-0.161406,0.178144,-0.034514,-0.008705,-0.043677
1765409762.480388,-9.860114,-0.229555,0.304878,-0.034514,-0.007789,-0.043677
1765409762.482388,-10.084289,-0.191296,0.582257,-0.028711,-0.016799,-0.044746
1765409762.485422,-10.215804,-0.243305,0.578670,-0.030849,-0.016799,-0.044135
1765409762.487359,-9.843375,-0.208632,0.075323,-0.028253,-0.008858,-0.045509
1765409762.490388,-9.780008,-0.173960,0.159015,-0.033139,-0.011759,-0.047647
1765409762.492371,-10.106407,-0.077714,0.569703,-0.032376,-0.011912,-0.048564
1765409762.495536,-10.216402,-0.188905,0.590626,-0.032376,-0.014050,-0.043830
1765409762.497423,-10.032877,-0.172764,0.282759,-0.032681,-0.014355,-0.045509
1765409762.498420,-9.912720,-0.203252,0.352104,-0.033139,-0.004734,-0.044746
1765409762.502424,-9.794952,-0.346724,0.227164,-0.030849,-0.021228,-0.046884
1765409762.505419,-10.063964,-0.276184,0.442970,-0.030543,-0.021228,-0.050244
1765409762.507448,-10.119559,-0.111191,0.557150,-0.030543,-0.008705,-0.050091
1765409762.510488,-9.629362,-0.186514,-0.078910,-0.028863,-0.013439,-0.043830
1765409762.512372,-9.666426,-0.110593,0.043639,-0.028863,-0.018021,-0.043830
1765409762.515377,-9.884026,-0.084888,0.340746,-0.033903,-0.017868,-0.045204
1765409762.517390,-10.130320,-0.317432,0.506934,-0.036041,-0.017868,-0.045815
1765409762.520445,-10.130320,-0.317432,0.506934,-0.036041,-0.013897,-0.045815
1765409762.521486,-9.919296,-0.145265,0.345528,-0.031001,-0.010232,-0.054367
1765409762.525442,-9.695121,-0.185318,0.111789,-0.029932,-0.011301,-0.048106
1765409762.527540,-9.952174,-0.066356,0.333572,-0.032529,-0.008247,-0.050702
1765409762.530404,-10.141678,-0.145863,0.418460,-0.031612,-0.008247,-0.048869
1765409762.531473,-9.959946,-0.279770,0.340148,-0.034208,-0.008552,-0.047647
1765409762.535459,-9.750119,-0.323410,0.147059,-0.035583,-0.011301,-0.052840
1765409762.537412,-9.654470,-0.236729,0.040650,-0.030696,-0.011301,-0.052993
1765409762.540410,-9.880439,-0.099235,0.352702,-0.034208,-0.013439,-0.055436
1765409762.542422,-10.035269,-0.045433,0.523673,-0.032223,-0.014508,-0.052382
1765409762.545445,-10.061573,-0.098039,0.543400,-0.034972,-0.005956,-0.046578
1765409762.547452,-9.723217,-0.210426,0.113582,-0.034972,-0.008552,-0.046884
1765409762.550407,-9.798540,-0.350909,0.257054,-0.038179,-0.018631,-0.052687
1765409762.551451,-9.798540,-0.350909,0.257054,-0.038179,-0.016341,-0.052687
1765409762.555428,-10.078907,-0.225968,0.384983,-0.034972,-0.017104,-0.058796
1765409762.556490,-10.052606,-0.072932,0.472262,-0.034972,-0.009468,-0.056352
1765409762.560037,-9.690338,-0.144668,0.027499,-0.034361,-0.006567,-0.052993
1765409762.562481,-9.661644,-0.168580,0.161406,-0.035125,-0.011759,-0.052534
1765409762.563518,-9.843375,-0.310856,0.387374,-0.038026,-0.014508,-0.053603
1765409762.567506,-9.991032,-0.274988,0.497967,-0.034819,-0.008705,-0.055894
1765409762.570457,-9.768052,-0.273792,0.066954,-0.035888,-0.008094,-0.053756
1765409762.572392,-9.796148,-0.090866,0.185318,-0.035888,-0.012065,-0.057269
1765409762.575446,-9.840983,-0.142276,0.270206,-0.034667,-0.009774,-0.052993
1765409762.577414,-9.864896,-0.192492,0.368843,-0.034667,-0.015730,-0.052993
1765409762.580434,-9.971304,-0.251076,0.384385,-0.036041,-0.017257,-0.054062
1765409762.582439,-9.979673,-0.289335,0.315638,-0.035583,-0.013897,-0.056810
1765409762.583434,-9.838593,-0.228957,0.159015,-0.033292,-0.010843,-0.057574
1765409762.587417,-9.833213,-0.129125,0.218795,-0.036805,-0.010843,-0.058032
1765409762.590407,-9.923481,-0.121951,0.346724,-0.041233,-0.009621,-0.058032
1765409762.592396,-9.988043,-0.162602,0.333572,-0.040164,-0.011606,-0.056505
1765409762.595438,-9.911524,-0.266619,0.245098,-0.038179,-0.005651,-0.055894
1765409762.597439,-9.874461,-0.292922,0.198470,-0.036957,-0.009774,-0.056047
1765409762.600441,-10.102820,-0.258250,0.549378,-0.040470,-0.011912,-0.059407
1765409762.602430,-10.138689,-0.260043,0.480631,-0.037263,-0.012065,-0.059865
1765409762.605511,-9.977283,-0.191296,0.334768,-0.036805,-0.012828,-0.059407
1765409762.606473,-9.765661,-0.213415,0.081899,-0.039554,-0.010843,-0.057269
1765409762.610466,-9.872069,-0.227762,0.260641,-0.035736,-0.015119,-0.056658
1765409762.612489,-10.086082,-0.200861,0.428025,-0.034514,-0.014966,-0.056963
1765409762.615487,-9.925274,-0.312649,0.225968,-0.035277,-0.010996,-0.053603
1765409762.616495,-9.634145,-0.332975,-0.058584,-0.039554,-0.006872,-0.058185
1765409762.620464,-9.725011,-0.289335,0.091463,-0.035583,-0.004123,-0.058032
1765409762.622441,-10.026302,-0.255858,0.535629,-0.035888,-0.012675,-0.059101
1765409762.623489,-10.211619,-0.160808,0.598996,-0.039401,-0.012675,-0.058796
1765409762.627531,-9.784791,-0.280966,0.108800,-0.040317,-0.005651,-0.057879
1765409762.630502,-9.629362,-0.179938,-0.050215,-0.038790,-0.013592,-0.058185
1765409762.632476,-10.054399,-0.295313,0.460306,-0.043524,-0.014203,-0.054672
1765409762.635526,-10.178144,-0.408895,0.643831,-0.035277,-0.014966,-0.056810
1765409762.636026,-10.090864,-0.297704,0.415471,-0.041233,-0.013286,-0.063683
1765409762.638549,-9.837397,-0.191296,0.102822,-0.041233,-0.011454,-0.063683
1765409762.642486,-9.738162,-0.202056,0.136896,-0.039248,-0.015730,-0.059865
1765409762.645516,-9.950979,-0.288140,0.373027,-0.038943,-0.015730,-0.057269
1765409762.647530,-10.081299,-0.357484,0.545194,-0.038179,-0.007789,-0.060170
1765409762.652868,-10.019128,-0.430416,0.373027,-0.038179,-0.007483,-0.062308
1765409762.653368,-9.943806,-0.282162,0.278575,-0.037721,-0.012675,-0.066432
1765409762.655477,-9.882831,-0.210426,0.274988,-0.040012,-0.017715,-0.062919
1765409762.657461,-9.986848,-0.169775,0.398135,-0.040470,-0.017715,-0.062003
1765409762.660444,-9.928263,-0.269010,0.321616,-0.040775,-0.013134,-0.060323
1765409762.662460,-9.663438,-0.257054,-0.044237,-0.036652,-0.013439,-0.060170
1765409762.665459,-9.739358,-0.221186,0.104017,-0.037721,-0.014966,-0.060628
1765409762.667459,-9.992825,-0.305476,0.466882,-0.038790,-0.014966,-0.058490
1765409762.670473,-10.049019,-0.363462,0.509326,-0.037263,-0.013744,-0.060018
1765409762.672469,-9.830223,-0.350311,0.322214,-0.040164,-0.012370,-0.064294
1765409762.675477,-9.668220,-0.163797,0.009565,-0.036041,-0.015730,-0.062003
1765409762.676464,-9.715446,-0.182927,-0.117169,-0.039248,-0.020464,-0.060628
1765409762.680508,-9.715446,-0.182927,-0.117169,-0.039248,-0.017868,-0.060628
1765409762.682447,-10.112385,-0.404113,0.526064,-0.041386,-0.005803,-0.062156
1765409762.685456,-9.918698,-0.411286,0.459110,-0.040928,-0.003818,-0.064446
1765409762.687490,-9.746531,-0.263032,0.371832,-0.040928,-0.020617,-0.064294
1765409762.688510,-9.916904,-0.233142,0.413678,-0.043524,-0.020617,-0.063072
1765409762.692473,-9.916904,-0.233142,0.413678,-0.043524,-0.020159,-0.063072
1765409762.695537,-9.881634,-0.444763,0.225968,-0.040928,-0.013439,-0.066584
1765409762.697486,-9.729793,-0.290531,0.123147,-0.040470,-0.007941,-0.069791
1765409762.700453,-9.818267,-0.214012,0.349115,-0.044288,-0.020311,-0.068722
1765409762.702533,-9.936632,-0.328790,0.414873,-0.043219,-0.020311,-0.066737
1765409762.705537,-9.936632,-0.328790,0.414873,-0.043219,-0.016799,-0.066737
1765409762.707501,-9.708273,-0.414873,0.098039,-0.042608,-0.013439,-0.067653
1765409762.710486,-9.581538,-0.245696,-0.117169,-0.039248,-0.010996,-0.067653
1765409762.712494,-9.825441,-0.238522,0.228957,-0.039706,-0.007330,-0.065973
1765409762.713481,-9.939621,-0.156026,0.382592,-0.043677,-0.007330,-0.067501
1765409762.717502,-10.075322,-0.302487,0.481827,-0.041386,-0.004734,-0.065057
1765409762.720530,-9.968913,-0.469871,0.491989,-0.040623,-0.010690,-0.066890
1765409762.722503,-10.032280,-0.245098,0.543998,-0.035736,-0.010690,-0.066890
1765409762.725486,-10.004184,-0.280966,0.523673,-0.039095,-0.008247,-0.064141
1765409762.729392,-9.947989,-0.310856,0.362267,-0.039554,-0.017715,-0.064599
1765409762.730503,-10.081299,-0.444763,0.298900,-0.042302,-0.016952,-0.067042
1765409762.733490,-10.036465,-0.425036,0.337159,-0.041539,-0.014355,-0.069639
1765409762.735563,-9.994021,-0.432807,0.379005,-0.038637,-0.009621,-0.071166
1765409762.737520,-9.994021,-0.432807,0.379005,-0.038637,-0.008858,-0.071166
1765409762.740571,-9.933643,-0.205643,0.325203,-0.044135,-0.015424,-0.075595
1765409762.742601,-9.993423,-0.241511,0.368843,-0.041997,-0.014508,-0.069028
1765409762.745554,-9.937828,-0.277379,0.390961,-0.042150,-0.007941,-0.068111
1765409762.747571,-9.789574,-0.299498,0.402917,-0.041997,-0.005651,-0.067806
1765409762.750511,-9.789574,-0.299498,0.402917,-0.041997,-0.010232,-0.067806
1765409762.753586,-10.027497,-0.381396,0.386179,-0.043066,-0.018173,-0.070402
1765409762.754665,-10.192491,-0.344931,0.558345,-0.042913,-0.018784,-0.071166
1765409762.757636,-10.005977,-0.345528,0.333572,-0.043524,-0.010537,-0.068111
1765409762.760516,-9.771639,-0.344333,0.055595,-0.044440,-0.014508,-0.073915
1765409762.762524,-9.785389,-0.303682,0.184122,-0.040470,-0.016188,-0.072082
1765409762.765521,-9.814680,-0.319225,0.141081,-0.040928,-0.012828,-0.070708
1765409762.767542,-9.967119,-0.263630,0.379603,-0.045815,-0.008247,-0.071929
1765409762.768476,-9.887612,-0.315041,0.304280,-0.043677,-0.004581,-0.068875
1765409762.772570,-9.790769,-0.352702,0.144668,-0.045968,-0.012370,-0.070097
1765409762.775493,-9.860114,-0.380201,0.178742,-0.044746,-0.006872,-0.073304
1765409762.777512,-10.122547,-0.371832,0.535629,-0.043524,-0.008705,-0.074220
1765409762.778538,-10.132710,-0.361071,0.665949,-0.043066,-0.008094,-0.071929
1765409762.782511,-10.056191,-0.405308,0.500956,-0.045662,-0.010537,-0.075289
1765409762.785547,-9.883428,-0.486609,0.134505,-0.047647,-0.013897,-0.075442
1765409762.787563,-9.785987,-0.507532,-0.106408,-0.041539,-0.019395,-0.077885
1765409762.790544,-10.112385,-0.379603,0.664156,-0.040775,-0.015882,-0.079718
1765409762.792596,-10.241510,-0.310856,0.716762,-0.038943,-0.003665,-0.079718
1765409762.793596,-10.015541,-0.362267,0.406504,-0.046273,-0.011148,-0.078343
1765409762.797557,-9.726207,-0.303682,0.010760,-0.046884,-0.017104,-0.077580
1765409762.798561,-9.884624,-0.260043,0.087279,-0.043524,-0.021991,-0.076053
1765409762.802601,-9.988043,-0.302487,0.321616,-0.041844,-0.015577,-0.074220
1765409762.805579,-10.143471,-0.365854,0.625897,-0.042761,-0.007941,-0.072388
1765409762.807523,-9.900167,-0.465088,0.356887,-0.041692,-0.003818,-0.075900
1765409762.808563,-9.661046,-0.380799,-0.117169,-0.046426,-0.016341,-0.078802
1765409762.811573,-9.783595,-0.302487,0.037064,-0.044135,-0.016341,-0.074526
1765409762.813577,-10.031682,-0.391559,0.498565,-0.046120,-0.006261,-0.073151
1765409762.816616,-10.150645,-0.576877,0.717360,-0.045968,-0.007636,-0.075747
1765409762.820584,-9.985053,-0.436394,0.294118,-0.046273,-0.013744,-0.080176
1765409762.822565,-9.832614,-0.387374,0.105213,-0.047037,-0.016646,-0.080481
1765409762.825528,-9.662242,-0.320421,0.105213,-0.043219,-0.012828,-0.076816
1765409762.827528,-9.866092,-0.404113,0.456719,-0.041539,-0.013592,-0.076816
1765409762.829251,-10.085484,-0.381396,0.592420,-0.043524,-0.015272,-0.077427
1765409762.831629,-10.312051,-0.423242,0.591822,-0.043830,-0.021075,-0.077427
1765409762.835549,-10.178144,-0.471066,0.350311,-0.040317,-0.014203,-0.077885
1765409762.837537,-9.960544,-0.390363,0.199665,-0.043524,-0.014203,-0.085063
1765409762.840598,-9.897178,-0.276781,0.282162,-0.043830,-0.013286,-0.083994
1765409762.842591,-10.058583,-0.187709,0.373027,-0.047189,-0.015730,-0.078649
1765409762.845577,-10.019128,-0.306074,0.341942,-0.045509,-0.014050,-0.077427
1765409762.847539,-9.836799,-0.302487,0.222382,-0.049327,-0.007789,-0.076205
1765409762.850606,-9.836799,-0.425634,0.401722,-0.046578,-0.005040,-0.074373
1765409762.852550,-9.846962,-0.524868,0.497370,-0.052229,-0.015272,-0.076205
1765409762.857681,-10.094451,-0.484218,0.561334,-0.047800,-0.020006,-0.081245
1765409762.858181,-10.061573,-0.419058,0.426829,-0.047647,-0.019242,-0.079718
1765409762.860573,-9.808702,-0.429220,0.045433,-0.045662,-0.018326,-0.079871
1765409762.862561,-9.758488,-0.481827,0.132114,-0.051007,-0.018326,-0.081703
1765409762.865669,-9.758488,-0.481827,0.132114,-0.051007,-0.018173,-0.081703
1765409762.866169,-9.916306,-0.389168,0.466284,-0.049633,-0.016646,-0.088117
1765409762.870652,-9.925274,-0.325203,0.390961,-0.050702,-0.013439,-0.083230
1765409762.872619,-9.745934,-0.308465,0.183525,-0.051007,-0.018937,-0.081245
1765409762.875754,-9.797942,-0.436394,0.176351,-0.051007,-0.018937,-0.083230
1765409762.876618,-9.733380,-0.384983,0.041248,-0.048258,-0.017257,-0.082467
1765409762.880625,-9.814680,-0.408895,0.125538,-0.050091,-0.012523,-0.081092
1765409762.882600,-9.964728,-0.416069,0.419656,-0.050549,-0.007789,-0.082925
1765409762.885603,-9.866092,-0.435796,0.458513,-0.053603,-0.002596,-0.084147
1765409762.887607,-9.787780,-0.475849,0.276184,-0.049022,-0.013286,-0.081245
1765409762.890591,-9.994021,-0.486609,0.474653,-0.051618,-0.019700,-0.081703
1765409762.892572,-10.197272,-0.393352,0.726925,-0.051313,-0.008705,-0.082620
1765409762.895594,-9.986848,-0.436992,0.422645,-0.051465,-0.008705,-0.085979
1765409762.897660,-9.791965,-0.438785,0.234338,-0.052534,-0.012981,-0.084147
1765409762.900576,-9.845766,-0.584648,0.361669,-0.055436,-0.013744,-0.084605
1765409762.901581,-10.054996,-0.699426,0.530846,-0.054214,-0.018784,-0.087812
1765409762.905597,-10.005977,-0.590626,0.380201,-0.052382,-0.014050,-0.092546
1765409762.907597,-9.714250,-0.527260,0.021521,-0.047647,-0.014050,-0.092546
1765409762.910568,-9.659253,-0.347920,0.065758,-0.044288,-0.011148,-0.089186
1765409762.912675,-9.997607,-0.359278,0.408297,-0.048411,-0.013439,-0.090255
1765409762.915593,-10.127929,-0.283357,0.533238,-0.052993,-0.010232,-0.089492
1765409762.917632,-9.930056,-0.451937,0.170971,-0.055131,-0.004734,-0.086437
1765409762.920564,-9.650884,-0.518890,-0.038259,-0.049327,-0.009927,-0.085521
1765409762.922605,-9.899570,-0.451937,0.456719,-0.049327,-0.008399,-0.085521
1765409762.925637,-10.207435,-0.436992,0.841105,-0.048411,-0.009010,-0.087354
1765409762.927595,-10.008368,-0.569106,0.515901,-0.051771,-0.009010,-0.086590
1765409762.930644,-9.742347,-0.447752,0.098039,-0.047953,-0.013134,-0.084910
1765409762.932636,-9.761477,-0.497370,0.086083,-0.051618,-0.013134,-0.086285
1765409762.935624,-9.884624,-0.624103,0.271999,-0.051924,-0.014508,-0.085521
1765409762.937652,-10.096244,-0.627690,0.420851,-0.052840,-0.002902,-0.095448
1765409762.940686,-10.086679,-0.375418,0.505141,-0.053603,-0.002902,-0.099113
1765409762.942612,-9.979673,-0.369440,0.362267,-0.051313,-0.006261,-0.091477
1765409762.943735,-10.002390,-0.427427,0.472860,-0.054367,-0.012981,-0.093615
1765409762.947606,-10.135101,-0.501554,0.379005,-0.058338,-0.015882,-0.094684
1765409762.948585,-9.990434,-0.480631,0.164993,-0.053909,-0.011148,-0.092699
1765409762.953780,-9.895982,-0.316834,0.409493,-0.049786,-0.004276,-0.090255
1765409762.955683,-9.866092,-0.392755,0.483022,-0.050855,0.001527,-0.083994
1765409762.956183,-9.984456,-0.489598,0.484218,-0.054672,-0.014813,-0.087201
1765409762.960671,-10.040649,-0.596007,0.401124,-0.052687,-0.018479,-0.087354
1765409762.962680,-9.878646,-0.679101,0.111191,-0.045968,-0.014508,-0.087201
1765409762.965670,-9.677784,-0.713175,0.108800,-0.048106,-0.013744,-0.090713
1765409762.967650,-9.771639,-0.621712,0.223577,-0.051313,-0.016646,-0.095753
1765409762.970631,-9.911524,-0.588833,0.200263,-0.047953,-0.020464,-0.097738
1765409762.972636,-10.023911,-0.482425,0.204448,-0.049480,-0.018173,-0.099876
1765409762.975605,-10.072333,-0.367049,0.358680,-0.051465,-0.005040,-0.097128
1765409762.977590,-9.929459,-0.503945,0.403515,-0.051771,-0.001527,-0.093615
1765409762.980644,-10.181729,-0.377810,0.545791,-0.055741,-0.010843,-0.096669
1765409762.982592,-10.345527,-0.447752,0.769369,-0.053298,-0.007025,-0.096517
1765409762.985722,-10.321018,-0.597800,0.746054,-0.054520,-0.004887,-0.092393
1765409762.987617,-10.321018,-0.597800,0.746054,-0.054520,-0.004429,-0.092393
1765409762.990618,-9.764465,-0.379005,0.175753,-0.052229,-0.016952,-0.097280
1765409762.992701,-9.945002,-0.371832,0.229555,-0.052687,-0.021075,-0.092852
1765409762.995634,-10.004184,-0.482425,0.411286,-0.054062,-0.006567,-0.092546
1765409762.997655,-9.924676,-0.678503,0.373027,-0.056352,-0.006567,-0.095142
1765409763.000690,-9.803921,-0.651602,0.160808,-0.054062,-0.011606,-0.099876
1765409763.002667,-10.012553,-0.587637,0.310856,-0.056658,-0.015882,-0.100029
1765409763.005643,-10.285748,-0.510521,0.656384,-0.052076,-0.017715,-0.100335
1765409763.007619,-10.267813,-0.481229,0.652798,-0.052076,-0.008094,-0.102778
1765409763.008625,-9.878048,-0.499761,0.319225,-0.052382,-0.008094,-0.102014
1765409763.012610,-9.725011,-0.418460,0.084888,-0.050091,-0.018326,-0.100640
1765409763.015657,-9.872667,-0.342539,0.285748,-0.051313,-0.021686,-0.097738
1765409763.016626,-9.983260,-0.503348,0.326399,-0.053298,-0.018021,-0.095448
1765409763.020649,-9.811094,-0.546389,0.178742,-0.059865,-0.011454,-0.094379
1765409763.022671,-9.747727,-0.596604,-0.046031,-0.059559,-0.011912,-0.096364
1765409763.025725,-9.857722,-0.601387,0.260641,-0.058643,-0.014355,-0.098197
1765409763.027617,-10.119559,-0.667145,0.535629,-0.058338,-0.010232,-0.099876
1765409763.030708,-10.214011,-0.652798,0.728120,-0.054520,-0.004581,-0.100182
1765409763.032681,-10.052007,-0.584648,0.511717,-0.057727,-0.003360,-0.101556
1765409763.035660,-9.863700,-0.621114,0.235533,-0.056658,-0.011301,-0.103542
1765409763.037682,-9.824843,-0.438785,0.200263,-0.055589,-0.017257,-0.106443
1765409763.040721,-9.942610,-0.451937,0.347920,-0.056658,-0.013592,-0.100335
1765409763.042800,-9.977880,-0.468675,0.462697,-0.055741,-0.012828,-0.100029
1765409763.045750,-9.983260,-0.506337,0.370636,-0.058490,-0.010996,-0.097128
1765409763.047722,-9.812290,-0.546389,0.231946,-0.053756,-0.009774,-0.097280
1765409763.050641,-10.001194,-0.622310,0.555954,-0.054062,-0.013592,-0.095295
1765409763.052690,-10.198468,-0.738283,0.828551,-0.055589,-0.014813,-0.096364
1765409763.055667,-10.087276,-0.752032,0.451937,-0.058338,-0.021228,-0.098960
1765409763.058790,-10.060376,-0.737685,0.237924,-0.062766,-0.023366,-0.105527
1765409763.060667,-9.637732,-0.624103,-0.273195,-0.059712,-0.018021,-0.105832
1765409763.062664,-9.696316,-0.517695,-0.044835,-0.059712,-0.014966,-0.105832
1765409763.065713,-10.042442,-0.610952,0.686274,-0.061545,-0.006261,-0.107207
1765409763.067636,-10.180533,-0.682090,0.749043,-0.060170,-0.006261,-0.105680
1765409763.070657,-10.032877,-0.799856,0.353898,-0.057879,-0.012065,-0.111177
1765409763.072683,-9.970109,-0.555356,0.284553,-0.052993,-0.016341,-0.113774
1765409763.075692,-9.970109,-0.555356,0.284553,-0.052993,-0.011454,-0.113774
1765409763.076715,-9.915112,-0.527857,0.212817,-0.056200,-0.012217,-0.104611
1765409763.080709,-10.156623,-0.577475,0.491989,-0.056963,-0.012217,-0.105832
1765409763.082671,-10.092059,-0.697035,0.538020,-0.053909,-0.001069,-0.104153
1765409763.085693,-9.878048,-0.801052,0.338355,-0.053145,-0.001222,-0.105374
1765409763.087681,-9.788378,-0.728120,0.308465,-0.055131,-0.007025,-0.109498
1765409763.090663,-9.922284,-0.497967,0.346724,-0.057879,-0.014966,-0.111788
1765409763.092788,-10.092059,-0.468675,0.437590,-0.058490,-0.014966,-0.109956
1765409763.095706,-10.153036,-0.658776,0.787900,-0.060628,-0.009316,-0.110108
1765409763.097696,-9.766259,-0.740674,0.200861,-0.057574,-0.020617,-0.109498
1765409763.100655,-9.620397,-0.655189,-0.115973,-0.064294,-0.020617,-0.113926
1765409763.102664,-9.620397,-0.655189,-0.115973,-0.064294,-0.021533,-0.113926
1765409763.105689,-10.203251,-0.478240,0.650406,-0.057574,-0.018173,-0.108429
1765409763.107695,-10.191893,-0.565519,0.791487,-0.056505,-0.010690,-0.106901
1765409763.110731,-9.941415,-0.535629,0.326399,-0.059254,-0.019242,-0.109345
1765409763.112739,-9.744141,-0.607365,-0.029890,-0.059101,-0.019242,-0.103694
1765409763.115757,-9.878048,-0.676710,0.072932,-0.060476,-0.022449,-0.106443
1765409763.117741,-10.205642,-0.784314,0.604376,-0.056810,-0.012523,-0.105222
1765409763.120711,-10.179936,-0.679699,0.497370,-0.057421,-0.007025,-0.107970
1765409763.121750,-10.101624,-0.539813,0.448350,-0.058032,-0.012828,-0.112705
1765409763.125785,-9.879243,-0.444763,0.377810,-0.060934,-0.012828,-0.111330
1765409763.127693,-9.879243,-0.444763,0.377810,-0.060934,-0.016646,-0.111330
1765409763.130712,-9.735771,-0.737685,0.062769,-0.065668,-0.014355,-0.109345
1765409763.132812,-9.997607,-0.604974,0.397537,-0.065973,-0.014355,-0.115606
1765409763.135754,-9.888808,-0.572692,0.298900,-0.065210,-0.008094,-0.110719
1765409763.137793,-9.801530,-0.686274,0.302487,-0.069028,-0.009621,-0.111177
1765409763.140716,-9.979075,-0.606767,0.425634,-0.071319,-0.011454,-0.115148
1765409763.142749,-10.208033,-0.538020,0.589431,-0.064904,-0.013744,-0.113774
1765409763.143800,-10.107603,-0.708393,0.459110,-0.065057,-0.014661,-0.111177
1765409763.147774,-9.838593,-0.688068,0.291726,-0.064904,-0.010537,-0.115301
1765409763.152549,-9.739358,-0.749641,0.256456,-0.071166,-0.010232,-0.119119
1765409763.153049,-9.788378,-0.684481,0.148852,-0.067806,-0.018631,-0.118202
1765409763.155741,-10.010758,-0.642037,0.410689,-0.067959,-0.019242,-0.121715
1765409763.157759,-10.051410,-0.630081,0.735294,-0.065057,-0.010079,-0.117744
1765409763.160677,-9.781204,-0.628886,0.350311,-0.066737,-0.012217,-0.115912
1765409763.161730,-9.885221,-0.598996,0.209230,-0.068417,-0.026114,-0.118202
1765409763.165704,-9.924676,-0.767575,0.203252,-0.068875,-0.029322,-0.115301
1765409763.166708,-10.053802,-0.963654,0.379005,-0.068570,-0.023824,-0.118355
1765409763.170748,-9.891797,-0.619321,0.239120,-0.065973,-0.013592,-0.124464
1765409763.171755,-9.827832,-0.572692,0.115973,-0.073457,-0.010385,-0.120340
1765409763.175752,-9.904350,-0.552367,0.088474,-0.069486,-0.016799,-0.117286
1765409763.176823,-10.118362,-0.689263,0.451937,-0.065668,-0.013592,-0.115454
1765409763.180770,-10.093853,-0.874581,0.834529,-0.068722,-0.001833,-0.117133
1765409763.182691,-10.023911,-0.885940,0.665949,-0.064141,-0.001833,-0.120951
1765409763.185803,-9.867287,-0.946915,0.312052,-0.067042,-0.018173,-0.125075
1765409763.187774,-9.962935,-0.686274,0.157819,-0.063072,-0.027489,-0.124006
1765409763.190803,-10.002390,-0.511119,0.344333,-0.062766,-0.017104,-0.118661
1765409763.192790,-9.609037,-0.530846,0.105213,-0.068417,-0.014203,-0.114843
1765409763.195761,-9.748923,-0.659373,0.211621,-0.068417,-0.014203,-0.111941
1765409763.197788,-9.861309,-0.915830,0.347920,-0.070860,-0.020464,-0.113621
1765409763.200742,-10.026900,-0.948111,0.500359,-0.069486,-0.017868,-0.118050
1765409763.201852,-9.845766,-0.869201,0.350311,-0.070097,-0.005956,-0.120493
1765409763.205829,-9.845766,-0.869201,0.350311,-0.070097,-0.014966,-0.120493
1765409763.207788,-10.095646,-0.799856,0.650406,-0.073151,-0.022144,-0.122326
1765409763.210862,-10.175752,-0.927786,0.600789,-0.068264,-0.021686,-0.117897
1765409763.212741,-9.737565,-0.946317,0.113582,-0.066126,-0.014508,-0.120188
1765409763.215787,-9.635341,-0.745457,0.029890,-0.070402,-0.011912,-0.125227
1765409763.217184,-9.681969,-0.749641,0.084888,-0.071471,-0.018173,-0.121562
1765409763.220743,-10.002390,-0.648613,0.338355,-0.063225,-0.025962,-0.118813
1765409763.221810,-9.991630,-0.700622,0.520086,-0.060323,-0.005651,-0.116828
1765409763.225793,-9.630558,-0.845289,0.232544,-0.060323,-0.015119,-0.114232
1765409763.227785,-9.793160,-0.795074,0.459110,-0.065210,-0.015119,-0.116217
1765409763.230827,-10.087276,-0.961262,0.609756,-0.066279,-0.021991,-0.114079
1765409763.231809,-10.070539,-1.051530,0.280368,-0.067806,-0.020769,-0.120799
1765409763.235819,-9.832614,-0.883548,0.241511,-0.072540,-0.014508,-0.126755
1765409763.237737,-9.635341,-0.868006,0.119560,-0.070860,-0.008094,-0.123395
1765409763.240745,-9.878048,-0.731707,0.444763,-0.067653,-0.019242,-0.125838
1765409763.242719,-10.191295,-0.555356,0.873984,-0.067042,-0.011301,-0.124158
1765409763.245772,-9.790171,-0.685079,0.214610,-0.069028,-0.007941,-0.116217
1765409763.247782,-9.790171,-0.685079,0.214610,-0.069028,-0.015272,-0.116217
1765409763.250736,-9.925274,-0.817193,0.372429,-0.067959,-0.012675,-0.120799
1765409763.252799,-10.101624,-0.967240,0.547585,-0.067348,-0.012675,-0.124922
1765409763.255823,-10.081299,-0.783118,0.555356,-0.065515,-0.009621,-0.126449
1765409763.257839,-9.831419,-0.679101,0.309660,-0.069791,-0.001527,-0.122326
1765409763.263896,-9.723815,-0.668340,0.107604,-0.071471,-0.012828,-0.120799
1765409763.264396,-9.874461,-0.787900,0.371832,-0.069944,-0.013897,-0.120799
1765409763.265971,-10.124342,-0.833333,0.517695,-0.070860,-0.011148,-0.121257
1765409763.267835,-9.943806,-0.783118,0.413080,-0.073151,-0.006567,-0.122937
1765409763.270812,-9.654470,-0.726925,0.082496,-0.069486,-0.004581,-0.120493
1765409763.272794,-9.598277,-0.700622,-0.032281,-0.072540,-0.014508,-0.120493
1765409763.275750,-9.872069,-0.735294,0.346126,-0.068417,-0.012217,-0.116370
1765409763.277827,-9.892395,-1.032998,0.365854,-0.069333,-0.005040,-0.118202
1765409763.280714,-10.053802,-0.948111,0.661167,-0.068722,-0.005040,-0.123700
1765409763.281825,-9.931252,-1.042563,0.601387,-0.070555,-0.020464,-0.123547
1765409763.285854,-9.937230,-1.036585,0.485414,-0.065821,-0.020464,-0.130878
1765409763.287802,-9.937230,-1.036585,0.485414,-0.065821,-0.023824,-0.130878
1765409763.288734,-9.752509,-0.807628,-0.095648,-0.064752,-0.017104,-0.134543
1765409763.292769,-9.672404,-0.579268,0.029890,-0.063835,-0.010996,-0.132558
1765409763.295788,-9.800333,-0.520086,0.380799,-0.065515,-0.003971,-0.124617
1765409763.297825,-9.942610,-0.804639,0.537422,-0.072998,-0.003971,-0.121257
1765409763.298776,-9.942610,-0.804639,0.537422,-0.072998,-0.013286,-0.121257
1765409763.302771,-9.918698,-1.114299,0.162004,-0.070708,-0.016341,-0.127213
1765409763.305833,-9.748325,-0.812410,0.104017,-0.065821,-0.012828,-0.130725
1765409763.307801,-9.948587,-0.890124,0.442372,-0.072235,-0.009468,-0.129198
1765409763.310844,-10.020324,-0.934361,0.609756,-0.068722,-0.009468,-0.129351
1765409763.312893,-10.020324,-0.934361,0.609756,-0.068722,-0.007636,-0.129351
1765409763.315796,-9.774031,-0.882951,0.038857,-0.068570,-0.007789,-0.131641
1765409763.317825,-9.989837,-0.735294,0.203252,-0.065210,-0.007789,-0.131336
1765409763.320762,-10.188903,-0.921808,0.750837,-0.065515,-0.007025,-0.125533
1765409763.322795,-10.370635,-0.895504,0.968436,-0.069944,-0.007330,-0.130878
1765409763.325852,-9.952174,-0.978001,0.297704,-0.078191,-0.006720,-0.132558
1765409763.327847,-9.640720,-0.964849,-0.100430,-0.074067,-0.009774,-0.129809
1765409763.330804,-9.976088,-0.973218,0.490196,-0.066126,-0.012523,-0.127213
1765409763.332830,-10.167382,-1.066475,0.759206,-0.065363,-0.011454,-0.131489
1765409763.335891,-10.013150,-1.053324,0.310258,-0.068570,-0.009468,-0.134390
1765409763.337809,-9.606049,-1.062888,-0.143472,-0.064446,-0.006720,-0.136681
1765409763.340821,-9.857125,-0.749641,0.381396,-0.062156,-0.011301,-0.136070
1765409763.342846,-10.113581,-0.653993,0.854256,-0.062614,-0.010537,-0.131489
1765409763.345828,-10.113581,-0.653993,0.854256,-0.062614,-0.014050,-0.131489
1765409763.347837,-9.640123,-1.034792,-0.161406,-0.065668,-0.017104,-0.124769
1765409763.350848,-9.586321,-1.238642,-0.176949,-0.067195,-0.017104,-0.130725
1765409763.352869,-10.052606,-1.131038,0.528455,-0.064446,-0.012523,-0.133321
1765409763.355822,-10.113581,-0.924199,0.681492,-0.064294,-0.004429,-0.135154
1765409763.357876,-9.837397,-0.946915,0.308465,-0.067653,-0.003818,-0.135154
1765409763.358825,-9.664036,-0.935557,0.022716,-0.070402,-0.013744,-0.134849
1765409763.362902,-9.890003,-0.985174,0.187111,-0.070250,-0.017868,-0.137597
1765409763.365895,-10.164991,-0.727523,0.512912,-0.062614,0.001527,-0.135918
1765409763.367888,-9.948587,-0.972621,0.439383,-0.062766,0.001527,-0.127976
1765409763.370822,-9.712457,-1.225490,0.243902,-0.063072,-0.004276,-0.131031
1765409763.373884,-9.974891,-1.058704,0.535629,-0.062614,-0.014966,-0.137292
1765409763.375866,-10.010758,-0.887135,0.575084,-0.061545,-0.013439,-0.135765
1765409763.377930,-9.921089,-0.820182,0.356887,-0.059254,-0.012828,-0.131794
1765409763.380832,-9.668220,-0.939742,0.181731,-0.065668,-0.007025,-0.130114
1765409763.382851,-9.721423,-1.242229,0.249283,-0.070097,-0.015424,-0.135612
1765409763.385877,-9.799137,-1.204567,0.078910,-0.063225,-0.020922,-0.138514
1765409763.387877,-9.884026,-0.752630,0.101626,-0.064446,-0.014966,-0.145386
1765409763.388878,-9.650286,-0.680894,0.066954,-0.069333,-0.001833,-0.133169
1765409763.392919,-9.717239,-0.777140,0.384983,-0.060934,-0.000153,-0.125991
1765409763.395821,-9.891200,-1.140005,0.613343,-0.064599,-0.004734,-0.124922
1765409763.397884,-9.979673,-1.313367,0.453132,-0.069028,-0.017562,-0.132405
1765409763.400859,-10.053802,-1.000717,0.332377,-0.062461,-0.009316,-0.142942
1765409763.402848,-9.749520,-1.044954,0.312649,-0.059712,-0.000916,-0.136376
1765409763.405872,-9.736967,-1.074844,0.353300,-0.061239,-0.010079,-0.138666
1765409763.407831,-9.848158,-0.994739,0.380799,-0.067959,-0.010385,-0.143706
1765409763.410796,-9.670013,-0.893711,-0.055595,-0.067501,-0.012065,-0.139735
1765409763.412821,-9.935436,-0.737685,0.414873,-0.068570,-0.010690,-0.135154
1765409763.415819,-9.970109,-0.957676,0.723338,-0.068111,0.003207,-0.130420
1765409763.417849,-9.828429,-1.180057,0.447752,-0.073457,-0.010079,-0.132710
1765409763.420811,-9.894786,-1.204567,0.118364,-0.074526,-0.021228,-0.143248
1765409763.422799,-9.982663,-0.982783,0.245098,-0.067348,-0.016341,-0.143248
1765409763.425859,-9.948587,-1.017456,0.257054,-0.067501,-0.007330,-0.143401
1765409763.427928,-9.849951,-0.847680,0.284553,-0.071013,-0.003818,-0.145080
1765409763.430841,-9.955164,-0.939144,0.521282,-0.071777,-0.007178,-0.140499
1765409763.432829,-10.151243,-1.074844,0.508130,-0.071777,-0.013439,-0.141110
1765409763.433898,-10.144667,-0.911047,0.524868,-0.072998,-0.009468,-0.140804
1765409763.437923,-9.824843,-0.963056,0.164993,-0.077885,-0.006414,-0.140652
1765409763.440853,-9.606647,-1.055715,0.017934,-0.073304,-0.015119,-0.136376
1765409763.442880,-9.799137,-1.193209,0.375418,-0.071166,-0.018021,-0.138666
1765409763.445910,-10.022716,-1.085605,0.564323,-0.071624,-0.012675,-0.145997
1765409763.447835,-9.854136,-0.999522,0.023912,-0.072846,-0.012828,-0.141873
1765409763.450879,-9.965924,-0.799259,0.108800,-0.074526,-0.014661,-0.145233
1765409763.452879,-9.931850,-1.018651,0.592420,-0.076511,-0.005956,-0.133932
1765409763.455915,-10.044236,-1.139407,0.663558,-0.070708,-0.013286,-0.136681
1765409763.458085,-9.999999,-1.016858,0.505739,-0.072235,-0.014661,-0.141110
1765409763.460964,-9.624580,-1.075442,-0.209230,-0.065668,-0.016799,-0.133474
1765409763.462989,-9.585126,-1.114299,-0.213415,-0.068722,-0.013134,-0.135765
1765409763.465979,-9.781802,-1.321138,0.516499,-0.077580,-0.002902,-0.140652
1765409763.466947,-9.884026,-1.224294,0.577475,-0.078343,-0.011606,-0.145691
1765409763.470910,-9.842180,-1.116093,0.153037,-0.083383,-0.011606,-0.149051
1765409763.472867,-9.842180,-1.116093,0.153037,-0.083383,-0.015119,-0.149051
1765409763.475866,-9.754900,-1.270923,0.427427,-0.075442,-0.006567,-0.142179
1765409763.477956,-9.882831,-1.158536,0.527260,-0.071929,-0.006567,-0.148135
1765409763.480824,-10.135101,-1.113104,0.760402,-0.071319,-0.005040,-0.146913
1765409763.481945,-10.013150,-1.116690,0.432209,-0.067806,-0.011912,-0.147524
1765409763.485993,-9.907339,-1.226686,0.308465,-0.067348,-0.012217,-0.144622
1765409763.487873,-9.721423,-1.205763,0.238522,-0.068417,-0.013897,-0.149509
1765409763.490896,-9.848158,-1.037183,0.335964,-0.072082,-0.013897,-0.151495
1765409763.491873,-9.880439,-1.053324,0.380201,-0.076053,-0.012675,-0.152258
1765409763.495856,-10.069344,-0.908656,0.579866,-0.071013,-0.007178,-0.147524
1765409763.497858,-9.841581,-1.224294,0.430416,-0.077122,0.001527,-0.144317
1765409763.500867,-9.878048,-1.200382,0.454328,-0.074678,-0.008552,-0.148746
1765409763.502872,-9.923481,-1.156743,0.383788,-0.074220,-0.008552,-0.147371
1765409763.505883,-9.870873,-1.074844,0.294118,-0.071777,-0.013592,-0.147524
1765409763.507857,-9.795551,-1.166906,0.329388,-0.072540,-0.007483,-0.147982
1765409763.510914,-9.787182,-0.922405,0.263630,-0.071777,-0.005498,-0.147371
1765409763.512878,-9.811692,-1.162123,0.295313,-0.068722,-0.003360,-0.140346
1765409763.515910,-10.072930,-1.112506,0.539216,-0.065821,-0.008552,-0.144011
1765409763.516902,-10.273193,-1.315160,0.902678,-0.072540,-0.000764,-0.144011
1765409763.520924,-9.762074,-1.447872,0.048422,-0.069333,-0.005192,-0.149967
1765409763.522905,-9.655666,-1.048541,0.063367,-0.071624,-0.005192,-0.152411
1765409763.523985,-9.612027,-0.895504,0.355093,-0.073762,-0.000916,-0.147524
1765409763.527907,-9.817072,-1.171688,0.402917,-0.072388,-0.006261,-0.142484
1765409763.531026,-9.864896,-1.385700,0.347920,-0.072388,-0.005498,-0.142484
1765409763.532880,-9.802725,-1.412601,0.183525,-0.074831,-0.005651,-0.153174
1765409763.535865,-9.650884,-1.467001,0.028694,-0.070250,-0.005651,-0.152105
1765409763.537903,-9.650884,-1.467001,0.028694,-0.070250,-0.007025,-0.152105
1765409763.538983,-10.002390,-1.146580,0.610952,-0.072082,-0.002902,-0.155465
1765409763.542934,-10.002390,-1.079627,0.456121,-0.073457,-0.007483,-0.155007
1765409763.545954,-9.798540,-1.165710,0.142874,-0.072998,0.000000,-0.149204
1765409763.546894,-9.717837,-1.012673,0.121951,-0.077885,-0.002902,-0.152869
1765409763.550900,-9.854136,-1.166906,0.239120,-0.080787,-0.000916,-0.150120
1765409763.552889,-10.156623,-1.193807,0.618125,-0.080481,0.008094,-0.150426
1765409763.555946,-9.992825,-1.402439,0.474653,-0.076053,0.008094,-0.149509
1765409763.557960,-9.715446,-1.360593,0.168580,-0.075289,-0.001985,-0.155007
1765409763.560988,-9.799137,-1.125657,0.372429,-0.073609,-0.001985,-0.155465
1765409763.562971,-9.873264,-1.084409,0.505141,-0.070402,0.001680,-0.147829
1765409763.565996,-9.829028,-1.140602,0.309660,-0.070097,-0.006872,-0.144164
1765409763.568002,-10.047822,-1.098756,0.485414,-0.073304,-0.005956,-0.149662
1765409763.570956,-9.930654,-1.267336,0.251674,-0.075747,-0.002596,-0.143553
1765409763.572910,-9.586321,-1.372549,-0.169775,-0.072846,-0.006261,-0.142942
1765409763.575935,-9.644905,-1.450263,0.185318,-0.075289,0.000458,-0.148135
1765409763.578084,-9.662840,-1.623625,0.285748,-0.074526,0.003512,-0.147219
1765409763.578942,-10.086082,-1.346246,0.538020,-0.071777,-0.007330,-0.157603
1765409763.583024,-10.226564,-1.107126,0.828551,-0.076969,-0.001833,-0.160658
1765409763.585980,-9.994021,-1.017456,0.339550,-0.071166,-0.000305,-0.151495
1765409763.587894,-9.559420,-1.049737,-0.114778,-0.067653,-0.006261,-0.149509
1765409763.590886,-9.776422,-1.093974,0.155428,-0.072998,-0.015272,-0.149509
1765409763.592878,-9.990434,-1.243424,0.484218,-0.073151,-0.007636,-0.145691
1765409763.595877,-10.215207,-1.357604,0.729316,-0.073151,-0.001069,-0.145691
1765409763.597908,-10.006575,-1.574605,0.572692,-0.080634,0.001833,-0.151036
1765409763.600863,-9.761477,-1.401243,-0.016141,-0.077580,-0.011148,-0.159741
1765409763.602864,-9.745934,-1.229675,0.176949,-0.078496,-0.014966,-0.159283
1765409763.605909,-9.941415,-1.064084,0.348517,-0.076816,-0.010996,-0.158520
1765409763.607867,-10.045432,-0.979794,0.488403,-0.077274,-0.006720,-0.155007
1765409763.610905,-9.885221,-1.166906,0.309063,-0.079565,-0.000611,-0.147829
1765409763.612877,-9.688545,-1.432329,0.175753,-0.071013,-0.003665,-0.145539
1765409763.615939,-9.958152,-1.666667,0.405308,-0.075289,-0.011301,-0.153327
1765409763.617989,-10.147058,-1.448470,0.603778,-0.077427,-0.008399,-0.160199
1765409763.620939,-9.903154,-1.209947,0.230751,-0.075900,-0.003818,-0.161879
1765409763.622889,-9.635341,-0.858441,-0.095648,-0.077580,-0.008705,-0.160199
1765409763.625968,-9.923481,-0.929579,0.578670,-0.084299,-0.007941,-0.152564
1765409763.627900,-9.946198,-1.226088,0.683883,-0.083230,-0.009010,-0.144011
1765409763.630951,-9.807508,-1.505261,0.248087,-0.082314,-0.010690,-0.146150
1765409763.632960,-9.739358,-1.653515,0.051411,-0.084910,-0.008705,-0.153633
1765409763.635959,-9.708273,-1.654711,-0.108800,-0.078802,-0.007178,-0.157145
1765409763.638046,-9.992825,-1.514825,0.480033,-0.078038,-0.008247,-0.163712
1765409763.640974,-10.178144,-1.247011,0.818986,-0.078496,-0.001069,-0.167835
1765409763.642043,-9.838593,-1.142994,0.297107,-0.081398,-0.003054,-0.164781
1765409763.646002,-9.754303,-1.012673,-0.027499,-0.086743,-0.011606,-0.159589
1765409763.647955,-9.919296,-1.189622,0.345528,-0.087201,-0.004734,-0.150120
1765409763.650904,-10.144667,-1.555476,0.793878,-0.086743,-0.000458,-0.151036
1765409763.652971,-10.331779,-1.665471,0.938546,-0.087048,0.000916,-0.158367
1765409763.656044,-9.857722,-1.513630,0.259445,-0.081703,-0.001833,-0.159894
1765409763.657025,-9.647297,-1.323529,-0.042444,-0.080481,-0.011454,-0.161116
1765409763.660958,-9.763867,-1.182449,0.150048,-0.076205,-0.003512,-0.159436
1765409763.662977,-10.010161,-1.203969,0.645624,-0.074526,-0.003512,-0.156382
1765409763.664004,-10.096244,-1.319942,0.901482,-0.075747,0.007483,-0.152564
1765409763.667993,-9.648493,-1.512434,0.185318,-0.079260,-0.008399,-0.151800
1765409763.668996,-9.730989,-1.433524,0.053802,-0.079260,-0.022907,-0.151800
1765409763.673032,-9.604255,-1.634385,-0.156624,-0.081856,-0.006872,-0.154549
1765409763.676102,-9.849951,-1.554878,0.329986,-0.078649,-0.006872,-0.160352
1765409763.678045,-9.927068,-1.399450,0.493783,-0.086132,0.001222,-0.162796
1765409763.679061,-9.835006,-1.248206,0.337159,-0.087201,-0.001374,-0.164323
1765409763.683016,-9.774031,-1.298422,0.205643,-0.087201,-0.005040,-0.164323
1765409763.685985,-9.822452,-1.378527,0.523673,-0.078496,-0.005345,-0.151495
1765409763.688130,-9.649688,-1.652319,0.257054,-0.078038,-0.005345,-0.153327
1765409763.690937,-9.702294,-1.517217,0.219393,-0.077122,-0.014355,-0.161879
1765409763.692964,-9.879841,-1.323529,0.252272,-0.079871,-0.010385,-0.163865
1765409763.695950,-9.956957,-1.373744,0.221186,-0.081398,-0.010996,-0.161116
1765409763.697952,-9.956957,-1.373744,0.221186,-0.081398,-0.003818,-0.161116
1765409763.700956,-9.652678,-1.500478,0.350909,-0.083689,0.003054,-0.164475
1765409763.701989,-9.617407,-1.481349,0.129125,-0.081551,0.000153,-0.167224
1765409763.706099,-10.010758,-1.383309,0.400526,-0.081245,-0.006414,-0.167072
1765409763.707931,-10.107005,-1.372549,0.602582,-0.077580,-0.006414,-0.165697
1765409763.711006,-9.849951,-1.361789,0.304878,-0.074373,-0.003818,-0.163712
1765409763.713044,-9.864896,-1.291846,0.416667,-0.078802,-0.007330,-0.162948
1765409763.715975,-9.928263,-1.397656,0.440579,-0.079565,-0.005345,-0.162948
1765409763.717957,-10.032280,-1.521401,0.401722,-0.079718,0.004887,-0.162948
1765409763.720948,-9.880439,-1.441894,0.361071,-0.080940,0.004887,-0.165392
1765409763.722078,-9.930654,-1.274510,0.527260,-0.082620,0.003207,-0.165544
1765409763.725957,-10.101624,-1.343855,0.760402,-0.078496,-0.006720,-0.161879
1765409763.727989,-10.109993,-1.438307,0.676710,-0.081092,-0.007636,-0.161574
1765409763.729007,-9.684361,-1.642754,0.162602,-0.079871,-0.005192,-0.160505
1765409763.732934,-9.615016,-1.471784,-0.067551,-0.083536,-0.007025,-0.166003
1765409763.735937,-9.884624,-1.612267,0.315638,-0.080787,-0.009927,-0.162337
1765409763.737967,-10.209826,-1.660688,0.747848,-0.078496,0.003512,-0.169057
1765409763.741055,-10.127929,-1.531564,0.674318,-0.087506,0.003512,-0.172111
1765409763.743042,-9.738162,-1.368364,0.126136,-0.082161,0.001374,-0.170431
1765409763.746071,-9.564202,-1.422166,0.025108,-0.083078,-0.007941,-0.165544
1765409763.748058,-9.824244,-1.557867,0.338355,-0.080329,-0.010996,-0.162337
1765409763.751061,-10.051410,-1.619440,0.619321,-0.077580,0.000458,-0.168293
1765409763.752057,-9.782400,-1.709708,0.270803,-0.081245,0.002443,-0.169057
1765409763.756143,-9.782400,-1.709708,0.270803,-0.081245,-0.002138,-0.169057
1765409763.758089,-9.797942,-1.508847,0.412482,-0.077274,-0.001527,-0.169668
1765409763.762025,-10.064561,-1.371353,0.698230,-0.067806,0.000153,-0.169057
1765409763.766146,-9.776422,-1.494500,0.220588,-0.073457,0.003512,-0.165392
1765409763.766646,-9.732184,-1.678622,0.351506,-0.081398,0.001833,-0.168752
1765409763.769067,-9.702892,-1.683405,0.197274,-0.081703,-0.000611,-0.171653
1765409763.770099,-9.821257,-1.510043,0.221186,-0.082925,-0.011912,-0.176845
1765409763.773014,-9.996411,-1.262554,0.468675,-0.080787,-0.004276,-0.178984
1765409763.775990,-9.622189,-1.423960,0.109995,-0.081398,-0.005192,-0.165850
1765409763.777992,-9.855929,-1.480153,0.297107,-0.076664,-0.005192,-0.167530
1765409763.780970,-10.224771,-1.590746,0.960067,-0.074984,0.002749,-0.166919
1765409763.783016,-10.029889,-1.541128,0.456719,-0.072388,-0.002291,-0.164934
1765409763.785977,-9.685556,-1.515423,-0.074127,-0.077427,-0.001833,-0.168446
1765409763.787984,-9.616212,-1.587159,0.342539,-0.083230,-0.001069,-0.168904
1765409763.791004,-9.655068,-1.828670,0.419656,-0.078954,-0.001069,-0.165850
1765409763.792991,-9.906742,-1.802965,0.563128,-0.083841,-0.011912,-0.177915
1765409763.795999,-9.649688,-1.682209,-0.140483,-0.080634,-0.001374,-0.179136
1765409763.798013,-9.345408,-1.464610,-0.454328,-0.073762,0.000305,-0.178678
1765409763.801000,-9.728598,-1.366571,0.517695,-0.077274,0.005956,-0.180053
1765409763.803065,-9.976685,-1.564443,0.839909,-0.082009,0.005803,-0.176082
1765409763.806051,-9.884026,-1.534553,0.111191,-0.081398,-0.004887,-0.180358
1765409763.808095,-9.740554,-1.475968,-0.126734,-0.080940,-0.004581,-0.177151
1765409763.809118,-9.812290,-1.523195,0.175155,-0.074831,0.006720,-0.175624
1765409763.813074,-9.890601,-1.719273,0.560736,-0.081092,0.007178,-0.176387
1765409763.816006,-10.281563,-1.590148,1.015064,-0.088423,0.007330,-0.186467
1765409763.818031,-10.116570,-1.524390,0.582257,-0.081703,0.001374,-0.179594
1765409763.820986,-9.772835,-1.384505,0.034075,-0.079718,-0.003971,-0.178984
1765409763.823026,-9.611428,-1.388092,0.040650,-0.084452,-0.001527,-0.172111
1765409763.826060,-9.699306,-1.617647,0.168580,-0.082620,-0.002443,-0.166766
1765409763.828089,-9.869678,-1.917742,0.379005,-0.079260,-0.008399,-0.167072
1765409763.831060,-9.964130,-1.847202,0.424438,-0.079871,-0.004581,-0.176845
1765409763.833050,-9.850550,-1.682209,0.143472,-0.084299,-0.004276,-0.182343
1765409763.834088,-9.673002,-1.414993,-0.074127,-0.084605,-0.004276,-0.182191
1765409763.838063,-9.998802,-1.464610,0.494381,-0.087659,-0.004123,-0.175776
1765409763.841092,-10.075322,-1.764706,0.701219,-0.087048,0.007025,-0.172111
1765409763.843029,-9.851745,-1.791009,0.411286,-0.087048,0.009468,-0.172111
1765409763.846071,-9.696316,-1.929699,0.224175,-0.085674,-0.011759,-0.176998
1765409763.848006,-9.892395,-1.878886,0.229555,-0.079565,-0.011759,-0.180969
1765409763.851095,-10.074127,-1.823290,0.555954,-0.079565,-0.006109,-0.185856
1765409763.853052,-9.929459,-1.701339,0.347322,-0.077274,0.005498,-0.186619
1765409763.856095,-9.525346,-1.593137,0.101028,-0.077274,0.007330,-0.186619
1765409763.858116,-9.757292,-1.526781,0.380799,-0.083536,-0.008858,-0.180053
1765409763.861102,-10.020324,-1.711501,0.477044,-0.083383,-0.008094,-0.175013
1765409763.863090,-9.795551,-1.855571,-0.071736,-0.076511,-0.013134,-0.176235
1765409763.866147,-9.641318,-2.034911,0.047824,-0.086743,-0.001680,-0.181274
1765409763.868011,-9.598875,-1.904591,0.095648,-0.075747,0.000153,-0.185245
1765409763.871010,-9.843375,-1.383907,0.272597,-0.075442,-0.004887,-0.189063
1765409763.873029,-10.112385,-1.140005,0.651004,-0.074067,-0.001069,-0.181427
1765409763.876095,-9.778812,-1.291846,0.231946,-0.074067,0.007330,-0.169362
1765409763.878100,-9.518172,-1.843615,-0.059780,-0.085063,-0.007636,-0.163406
1765409763.881041,-9.681969,-2.195122,0.050215,-0.081245,-0.007636,-0.168752
1765409763.883047,-9.781204,-2.203491,0.227762,-0.078649,-0.003054,-0.179747
1765409763.886109,-9.874461,-1.767097,0.378407,-0.075136,0.007483,-0.188910
1765409763.887069,-9.842180,-1.501674,0.875179,-0.077733,0.016952,-0.184176
1765409763.891045,-9.722619,-1.467001,0.621114,-0.079260,-0.021686,-0.171195
