time,acc_x_g,acc_y_g,acc_z_g,gyro_x_rad_s,gyro_y_rad_s,gyro_z_rad_s
0.0,-7.829985,1.781444,6.341463,-0.009163,-0.010079,-0.001374
0.0025,-8.215006020786651,1.6043615928486292,6.193823873468415,-0.005167297687723479,-0.016493,-0.008173738784266986
0.005,-9.024226193664122,1.7690949722137406,6.192947760992367,0.01643291755725191,-0.015854712557251908,-0.055042705992366416
0.0075,-8.41301254581506,2.2184466817921833,5.269171808999047,0.007910371248808385,-0.021441239275500477,-0.08175742501429933
0.01,-6.82468665227836,3.001114367206864,5.273162264137274,-0.04085980411820782,0.032431054528122026,-0.09677664217349857
0.0125,-6.495875451096283,2.5267851136320316,5.576216483889418,-0.12278882783603436,0.09069539103908487,-0.08731333346043854
0.015,-6.958758881220209,1.84867217300286,6.647288011172543,-0.17557801742612011,0.17787698817921824,-0.046348387950429004
0.0175,-6.622523669475693,1.7767158241372707,6.244660486634891,-0.21336590825548152,0.2548995744137274,-0.04144890268827443
0.02,-7.1736,2.211262,5.989358,-0.260534,0.32042777377236936,-0.02306
0.0225,-7.456165328198283,1.6494922727550065,6.258467796415631,-0.3209140592183031,0.34355603012392755,-0.04058736453765485
0.025,-6.777259,2.354136,5.71736,-0.403324,0.3783901075309819,-0.059712
0.0275,-6.940553297099236,1.9310888450381685,5.9568984392366415,-0.4570354766412214,0.43631774809160306,-0.1159562279389313
0.03,-7.695728240457155,1.878240571657146,6.191685434742871,-0.5224465967999999,0.48994563611428577,-0.13183624251428572
0.0325,-8.077387707022897,1.1945817846564857,6.67686212477099,-0.5743566255725191,0.5549223570229008,-0.13069084809160314
0.035,-6.892899316720688,0.8533779660629088,5.683942888732134,-0.5872972288274546,0.5928136859485224,-0.14374339851286932
0.0375,-6.8625675384175375,0.9609237237368918,5.356964803241175,-0.6039070064823642,0.6611094434699714,-0.18106233422306955
0.04,-7.395279156905444,1.5266751291690541,5.017662773180516,-0.6054019934670487,0.708846673008596,-0.19102036320916901
0.0425,-7.986660710839692,1.2234618272519149,6.0459659710687,-0.5949593408396945,0.7831488050000001,-0.1936572624427479
0.045,-7.6920288839694635,0.9604000919084019,4.729984098320609,-0.6354109529770992,0.8135491120610685,-0.1821226824427481
0.0475,-7.54479070254257,1.296890473737808,4.666237971003472,-0.6195218443312944,0.8357491833360886,-0.20248496189783435
0.05,-8.181122340133454,0.4715946451858911,5.191082466348901,-0.6171341746425165,0.92070244957102,-0.21845022993326993
0.0525,-7.882959026259549,-0.046640684274807026,4.670835930992371,-0.6378574079389312,0.9589040302290077,-0.21164486106870226
0.055,-8.494203342078169,-0.22256344598665473,4.518541452735938,-0.6665483905815063,0.9765847234318399,-0.1868623892469018
0.0575,-7.794893755114498,0.638883006412213,3.2255941520610643,-0.5998633603053436,1.0013569288549617,-0.17019598320610682
0.06,-8.067358932240229,-0.23477471759771204,2.985373901201154,-0.6058969588179218,1.0258934979218304,-0.15374297285033364
0.0625,-9.231236249045802,-0.20510342843511453,3.6543286288167938,-0.6326709599236641,1.0336696803435115,-0.14289691316793893
0.065,-10.581076018760719,0.3976718885795972,4.317447960800757,-0.62400078257388,1.0371886387797902,-0.13876777029551945
0.0675,-9.743503734451878,-0.4401970405719766,2.7622435605719975,-0.6253147362059106,1.02733021864633,-0.11402419858913303
0.07,-9.246596626113096,-1.2407232115390159,2.060992254345031,-0.5977742968360772,0.9997780662562632,-0.08302203828203354
0.0725,-10.25924326543377,-0.542305298188754,2.415910458188786,-0.6073626722211631,1.0289653765109632,-0.0624712046901815
0.075,-11.31941409475691,-0.06293445414681248,3.411114805338414,-0.608537893231649,0.9934920653956149,-0.04956250829361285
0.0775,-10.044698136106872,-0.676893103358778,2.1027942998473286,-0.5589652826717557,0.9413115163358778,0.007440532671755779
0.08,-9.821310856358435,-1.0573699543946602,1.4303292332507036,-0.5702041072259293,0.8924801476835081,0.03687547851286939
0.0825,-11.12871367115347,-0.2587440083889463,2.11705954978074,-0.6069606913250719,0.8693311774261199,0.027048966787416612
0.085,-11.018035577693054,-0.07205751203050745,1.2410982677979219,-0.572562193212584,0.7919372818303145,0.049025110390848524
0.08750000000000001,-12.671178685459903,-0.3130483246290799,2.4485161091987973,-0.5670516943620175,0.756557,0.10928722017804211
0.09,-10.334295812583413,-0.8705952587988576,0.5308856865586227,-0.5359507769304104,0.6904160435843667,0.13379664331744506
0.0925,-11.464090208500004,-0.48797689675000194,1.6100172595000048,-0.5392628970000001,0.6524136170000001,0.14455364249999997
0.095,-10.122195538684464,-0.21476180507149728,-0.2075378280266883,-0.5025162761868447,0.5633557977883699,0.1638494042707341
0.0975,-11.30992194777687,-0.16319356116411354,0.5410874735004018,-0.4290795530476962,0.4930670957154405,0.1847559200970089
0.1,-10.451682342993312,-0.5542684560534006,-0.3437459004766741,-0.4260435466158246,0.4420407084842705,0.19923896034318403
0.10250000000000001,-10.840505599999988,-0.23708707999998058,0.13390719999998046,-0.3685653599999996,0.37737459999999984,0.18418211999999956
0.105,-10.750541180819829,-0.4453733808960899,0.3517312171973288,-0.31815235256434715,0.31720407813155377,0.2095747062726405
0.1075,-10.84261036194471,-0.3998862523164916,0.033331442745474005,-0.2188178456053385,0.2589697036796951,0.20531960350810297
0.11,-11.000745043053435,-0.4297432437022903,0.6033627625190845,-0.18066848347328243,0.224035,0.1707210864885496
0.1125,-10.295365943980924,-0.525555464362339,-0.08387155375447675,-0.115148,0.17752203146603118,0.123089
0.115,-10.70500095755725,-0.29415521954198665,0.6941124954198385,-0.05712386557251911,0.12183907931297695,0.04797655106870225
0.11750000000000001,-10.735118925343519,-0.1609170047328178,0.9945498908397131,-0.03242357404580133,0.04054212412213722,-0.015994091908397283
0.12,-8.857081584732827,-0.2894976555725174,0.17662668595419803,-0.03714270687022894,-0.014300120610686844,-0.026343666793893245
0.1225,-9.034436796835077,-0.6533998606673024,0.5518078777883648,-0.03544124697807437,-0.0036920253193518287,-0.011104737159199279
0.125,-9.904515512514898,-0.3586115303933254,0.09105057091775924,0.005848151370679381,0.0017216126340882,0.009390352800953516
0.1275,-9.883240362240763,0.1991885000238418,0.20749872667461197,0.01699222398092969,0.002669032038140605,0.0005619045053634579
0.13,-10.174515331871278,0.3658861470321838,0.4738370845292045,-0.007964010631704467,-0.008858,-0.004124479761621072
0.1325,-9.852421789988085,-0.04453488734207352,0.28759082240763784,-0.01844642955899882,-0.011193287199046591,-0.008504304553039445
0.135,-9.893239107240555,-0.2784523830208782,0.3559520267336068,-0.018939287716892173,-0.01310541460846139,-0.005922198449764292
0.1375,-9.86768562365218,-0.33538035443476255,0.3622847123478369,-0.016448831652173816,-0.0110817293913042,-0.00872538643478231
0.14,-9.936849149082239,-0.12317785087008257,0.2356536297973821,-0.005149645005959516,-0.003457267222884366,-0.0001486644100116342
0.14250000000000002,-9.906405440858151,-0.01847502631704317,0.17379434865314403,-0.003942990607866686,-0.0036598671752086174,0.0045758671752086175
0.145,-9.864402372538732,0.11182756510131397,0.2842551127055973,-0.008279348891537378,-0.007841938927294123,-0.0007713480810488296
0.1475,-9.839419050774731,-0.08659858164481368,0.26073030393324886,-0.011811754660309787,-0.004866881287246591,-0.003134126626936806
0.15,-9.820317213110838,-0.0700900057210962,0.22710696376637968,-0.011033909415971458,-0.008399,-0.0024815818831942916
0.1525,-9.839076533349223,-0.017017335828367404,0.23381234169249,-0.006336636758045308,-0.007856199856972527,0.0008666228367103493
0.155,-9.899835453158524,0.0028575743504172,0.2777637096543504,-0.008011551990464855,-0.005547258974970197,-0.0007738468653158378
0.1575,-9.766238834907506,0.022999023373230267,0.13439536848748762,-0.00742443207834604,-0.002669620500544097,-0.0011382474428726962
0.16,-10.117715424553035,-0.11549141182361108,0.5229606842431351,-0.013361404195470689,0.0011413972824787337,0.013670309320619967
0.1625,-9.9593783125149,-0.13949826317044942,0.39064713969010484,-0.009740948033373033,0.0013172512514896995,0.006864281287246676
0.165,-10.087639778021453,-0.21728387547079914,0.45766806984504665,-0.00863683833134667,0.002138,0.0015313473659115447
0.1675,-10.104878717902277,-0.025264843861744227,0.48821762626938614,-0.0071425929916567495,-0.0005449206674614233,0.0024146931108461923
0.17,-10.033004014541111,0.02321976958283503,0.30906319284862377,-0.008535893969010737,0.0010206584028602224,0.004420384266984953
0.17250000000000001,-10.030979030310144,0.021437881307629164,0.4690840105280832,-0.0060386336630343825,-0.007575097602682286,-0.007432719228834907
0.17500000000000002,-10.035406126232711,0.1348794809252165,0.41537791701179844,-0.006481059170118009,-0.0042697701492537396,-0.0009192814878486886
0.1775,-9.944787101798859,0.08197707232320095,0.23609903452371714,-0.00835828634523716,-0.005521801194029846,0.002959720453231212
0.18,-9.917784397737577,-0.18019951362666856,0.2594336097353658,-0.008015015713721466,-0.007566849476261943,0.003133102867525089
0.1825,-9.98710936113753,-0.25893175851173067,0.4030336038202067,-0.00738217578639703,-0.009464540933723039,9.729353029465718e-05
0.185,-10.077963260825541,-0.006985393760547503,0.4303375657833526,-0.008833263188141392,-0.0064341609304447,-0.006867568045610038
0.1875,-9.889828368211058,0.13245502467225795,0.19871488795700676,-0.007538600602556795,-0.005770880384333524,-0.0017998398338897486
0.19,-9.751315333837338,0.08644793317523466,0.11326647805825255,-0.009419763259589367,-0.008995693178417953,0.002452272917396147
0.1925,-9.83611681083877,-0.016312681715741073,0.24296413087378663,-0.007635698729906093,-0.008868856036925036,0.001178060318319272
0.195,-10.02641582253971,-0.09826893873417732,0.5118046476368614,-0.007676445779246953,-0.005638475784890752,-0.0011969515697815038
0.1975,-9.904110418389099,-0.13769008708860775,0.2904420788131896,-0.006513991534306212,-0.005509126330726437,-0.0009382526614528735
0.2,-9.803871885115305,-0.07667060503144581,0.15270508888889062,-0.007007723689727468,-0.006414,-0.0037953547169811315
0.2025,-9.965326,0.039455,0.422645,-0.007789,-0.006949523564544172,-0.003665
0.20500000000000002,-9.963065276318206,0.036280282856451795,0.41441962209397865,-0.007875016287579598,-0.008416820053195767,-0.003284082221326645
0.20750000000000002,-9.939319978263883,0.0029349406464090483,0.32802514073345634,-0.008778480254694937,-0.006996970226485038,0.0007168517546546592
0.21,-9.767975051910716,-0.0460196339418018,0.060248559382960504,-0.007964923533948808,-0.006760550449924033,0.00010023446067547212
0.2125,-9.837898700829875,-0.09866459709543571,0.30226752551867175,-0.008712241493775938,-0.008247,-0.0010508603734439774
0.215,-9.935764836759668,-0.06977649813999055,0.4601539115418506,-0.00672,-0.008344334527655407,-0.0038690349486049866
0.2175,-9.872611361774993,0.03866328343890331,0.2840228082060979,-0.007703455140628692,-0.005097566296383835,-0.004995308971874261
0.22,-9.781439155615075,0.0745591785446788,0.17042153889073244,-0.008754682569329224,-0.0009809617492296792,-0.004133276245555816
0.2225,-9.848942768835718,-0.011155872146028825,0.31870149850024704,-0.007497906334484466,-0.007503100917612237,0.0019702549580661102
0.225,-9.990002917307692,-0.10212799880201769,0.4710381745113494,-0.008962258874527111,-0.00695535761349306,0.0019787305800756574
0.2275,-9.988313596007021,-0.1011869912607723,0.4349824443823805,-0.008172449492499201,-0.0044148240600063735,-0.00013718591445899129
0.23,-9.879277807768814,-0.05535725991571304,0.26078437841300406,-0.007996529122215535,-0.0021195127080072492,-0.0019294708777844647
0.2325,-9.981460796107509,0.01974670932344777,0.41613374732159714,-0.009076271214087129,-0.006414,-0.002542537534754419
0.23500000000000001,-10.092581571244606,-0.007298646429488118,0.5362010311722855,-0.009066046219526417,-0.00549713897118861,-0.000984778098681896
0.23750000000000002,-10.110998498283825,-0.03071321725898192,0.5355469457922104,-0.008817874412951527,-0.004273473654528648,0.00035070820166268956
0.24,-9.989402629829357,-0.02461823225436338,0.3609253195391129,-0.008661880316981866,-0.0024831100432690036,-0.0006612142836307027
0.2425,-9.800732026919157,-0.033821086059723116,0.15109948069919962,-0.007632393823743635,-0.0022559925418790877,-0.00034000745812091254
0.245,-9.957214077277436,-0.04563840823243769,0.4034552619067656,-0.012199865092262875,-0.003512,-0.0010090688993201632
0.2475,-10.099261500883781,-0.04107189200064746,0.583552178501133,-0.008441251379087087,-0.003512,-0.0038596409161540924
0.25,-9.99735511007896,-0.020684680445889454,0.3142757104040873,-0.008237966558290757,-0.0014656072921504877,-0.003952896655829076
0.2525,-9.825094155157146,0.02686894734788671,0.17112860854931092,-0.009601651091500234,-0.002333332748103422,-0.002341638442483355
0.255,-9.860115557413835,0.007246322044211495,0.31230362449251325,-0.009118570763014032,-0.005930300622771574,-0.0007446747516044585
0.2575,-9.953030228880763,-0.06710648455368375,0.42339047255680107,-0.008790189729632508,-0.004186902478268681,2.1080268569026754e-05
0.26,-9.955761,-0.039455,0.38857,-0.006261,-0.0010150078462745017,-0.001374
0.2625,-9.955761,-0.039455,0.38857,-0.006261,0.001245804250980402,-0.001374
0.265,-9.828035237533147,-0.015684073329279066,0.22854321523902324,-0.011117553173579825,-0.006414,-0.0010526864517698567
0.2675,-9.919893,-0.066954,0.390363,-0.007025,-0.006715357594598845,-0.000916
0.27,-9.915651825607036,-0.06292914113834344,0.3785915402589356,-0.0071134663919876304,-0.0072158932301929464,-0.0011813267812067643
0.2725,-9.865631651041445,-0.015460179900659177,0.2397595997198914,-0.008156834091686355,-0.002261177386206295,-0.0043105760605814105
0.275,-9.791373651617409,0.007243734558994376,0.12382876741913226,-0.008332571282289977,0.0005040008843379018,-0.0023361409355364122
0.2775,-9.956178662941412,-0.022312031180550286,0.3825425937983276,-0.0093477799601435,-0.001095055359107245,-0.001076966134715006
0.28,-10.056389205313474,-0.05466247220273928,0.5157500521066521,-0.010519943607974983,-0.003628903689646852,0.00045985908239247264
0.28250000000000003,-9.929257170513212,-0.10594116075325286,0.32160359363452373,-0.008089181954255228,-0.0005514670265901305,-0.001719519085104665
0.28500000000000003,-9.78953825376325,-0.08412786234982265,0.11554434148410117,-0.007658109310954066,4.989793286205922e-05,-0.0019432575441696222
0.28750000000000003,-9.902557487786579,-0.03277316040016615,0.29088813117132356,-0.007963189178824518,-0.006429274247603098,-0.0022473933472279936
0.29,-10.040759576388846,0.00913963457848584,0.43015421861673353,-0.008552,-0.0018778569944223077,-0.0008147450709163521
0.2925,-9.995806997941036,0.036111014543426107,0.36672080148844666,-0.008552,-0.0022605245705179257,0.001354261539442216
0.295,-9.866234761176727,-0.014853697290887521,0.19767121845883412,-0.010385,-0.0010292907310647465,0.001646757181119651
0.2975,-10.055906620915565,-0.11123846594099687,0.44553018718718107,-0.008100480386571738,-0.005747945249236999,-0.0004891149593082239
0.3,-10.015750845048316,-0.08398964224890204,0.3762421124568086,-0.007789,-0.003103551683748185,-0.0025562011947291275
0.3025,-9.935122578606483,-0.05099735605744782,0.26645178280508874,-0.0077519213885925324,-0.0006849148789495272,-0.0038597641657775964
0.305,-9.823313022899594,-0.010539307677307187,0.14467260182936717,-0.007835954878699938,-0.0013827069112013826,-0.003067558806732453
0.3075,-9.907287611300072,0.03965353344724748,0.2543045416393968,-0.009240929971790117,-0.0038923218602401883,0.0003496253211896461
0.31,-10.067506863481325,0.05375343617571064,0.41296731696499883,-0.009739885863284004,-0.0028472810805731767,0.002547564942447735
0.3125,-10.056708279539581,0.001234319552110251,0.4119853289483987,-0.00810926027719051,0.00028752681857332997,0.000792138203742855
0.315,-9.927491654850387,-0.10012513596042472,0.23180909409749043,-0.00865948923262548,-0.0018284187451737518,-0.0009975888416988436
0.3175,-9.99207267601683,-0.06862989543711999,0.32058097624123444,-0.007113048246844325,-0.007025,-0.003525391912108467
0.32,-10.048987730258224,0.02981587471760442,0.4035483159627399,-0.009343591335927357,-0.006845475132649446,-0.006114174304916869
0.3225,-9.98947650763542,0.10965110550762219,0.28111956974375585,-0.0076378008303600465,-0.004624085617904629,-0.004201966097956527
0.325,-9.910927,0.046628,0.223577,-0.009621,-0.0029283874079354044,-0.001985
0.3275,-9.944290289476601,0.00777845174756444,0.272509824565683,-0.008977075242695372,-0.007443852643914801,-0.001719839920817162
0.33,-10.040822803257022,-0.10812253641175502,0.413457122055528,-0.006865574752394859,-0.007592710173729488,-0.0010509291768144267
0.3325,-9.991970125822373,-0.08827637561941859,0.3350897286994637,-0.005175833430751734,-0.005512242773177449,-0.002481037700925485
0.335,-9.983292172322157,0.002306713663428695,0.2922660072641813,-0.004194415430899399,-0.008446530109683464,-0.0051545766280162815
0.3375,-10.066287734942025,0.04012084189909153,0.3909770657160774,-0.0034419118144782134,-0.006062506643685343,-0.003398187182701332
0.34,-10.035608064921101,0.01130408565978809,0.382833171024796,-0.0022460330327726597,-0.006298006412346113,1.013660135255846e-05
0.3425,-9.898651775796704,-0.05591090151161602,0.26968883107863306,-0.001985,-0.005308333227178521,-0.0003416667728214784
0.34500000000000003,-9.954372167401948,-0.09431035717557273,0.2788803127375634,0.0008474251697815104,-0.008678090389576242,-0.0031169710765991255
0.34750000000000003,-9.971105923580154,-0.09032039023684788,0.3331944496168869,-0.00020303858389430723,-0.011148,-0.004927500649879521
0.35000000000000003,-9.958985122327295,-0.020334192947586295,0.3237159851899336,-0.0018822814553614926,-0.010501151338355434,-0.006351383779451812
0.3525,-9.896191571258216,0.08917972987337625,0.2714703792659084,-0.006117594037505977,-0.005111211873697752,-0.004554737291232584
0.355,-9.886369287272725,0.03511581454545659,0.25486709454545176,-0.010164567272727304,-0.008261025454545339,-0.0012409127272728145
0.3575,-10.005474582669297,-0.07080664139381967,0.4154880958053908,-0.009058809362261668,-0.013535618724523336,0.001438953188691659
0.36,-10.039143375384615,-0.09579931294117645,0.46261038262443477,-0.009219341900452493,-0.013277114751131261,-0.00027209321266966145
0.3625,-9.990544613817653,-0.0971298873877518,0.3644287559906164,-0.008698173384030417,-0.007283339390016999,-0.003024223460885045
0.365,-9.86169709472057,-0.08596453224256878,0.2234647954292505,-0.008907626563614752,-0.005624269393579058,-0.0027574245231866716
0.3675,-9.946146017660736,0.024328125314353244,0.35742392216370056,-0.0075211164317912195,-0.008361463000395416,-0.005230116431791219
0.37,-10.057948260037175,0.09224367736059512,0.47700789340148775,-0.007914262657992577,-0.00817850927509293,-0.004596016040892224
0.3725,-9.88566541894876,-0.019381246636631155,0.2450148992635311,-0.0050128156016099,-0.009468,0.0015746307731122715
0.375,-9.78665682625118,-0.08864068106704438,0.16480504981114258,-0.003419883616619452,-0.01009272686496695,0.0011572221435316335
0.3775,-9.941598166464814,-0.08210945062399619,0.42338949318898356,-0.0030004921206353,-0.011866537038843614,-0.002505506458866218
0.38,-10.053821250143587,-0.07536877147400016,0.5702380082290903,-0.004652177749655227,-0.011442355499310454,-0.002137010279873451
0.3825,-10.0075476346459,-0.07587745034801656,0.40344747936724223,-0.0037428504648332906,-0.009623700929666582,-0.003826368547091754
0.385,-9.842523041700332,-0.01362773497850223,0.19551936480895607,-0.00139678901922609,-0.008535510693599422,-0.004134394509613045
0.3875,-9.819131469197696,0.05603745302182233,0.23009761937211015,-0.0016570828912144085,-0.010094722024823565,-0.004264541445607205
0.39,-9.975719339873152,-0.06915042361287382,0.41171938787878853,-0.0034495456142823425,-0.012380070537937469,-1.7322208127803574e-05
0.3925,-10.031282977726837,-0.10001201272206288,0.4132531426552051,-0.0037601584718242697,-0.009927,-0.002338932416427903
0.395,-9.959658641814467,-0.08566805510546649,0.330958163492853,-0.005278482304377415,-0.009106831217963208,-0.003887677496030823
0.3975,-9.86174950235252,-0.08243409061619275,0.21868593065679479,-0.005163951172677331,-0.009762538884642973,-0.0018333935419154405
0.4,-9.929013703678109,-0.04570690984941898,0.27046924581585313,-0.00493402429029871,-0.01352608151073811,-0.0015775076771168597
0.4025,-10.031942981913941,-0.006659008314131071,0.3937252577098513,-0.004488602529978825,-0.01070381418292965,-0.003859423841993875
0.405,-9.961274095284784,0.002177665118961419,0.3111469350829095,-0.003260335371304981,-0.006261,-0.0028378534679163766
0.40750000000000003,-9.771475349139708,-0.020772154392523313,0.12212695461298928,-0.004123708286604379,-0.008439676673855822,-0.002251490649412844
0.41000000000000003,-9.868358810410673,-0.029233714725821223,0.2823616345671006,-0.005448294374910376,-0.009300731041736388,-0.0014189037204187923
0.41250000000000003,-9.981038746263806,-0.039123425166132944,0.4504816990199382,-0.006749677601950584,-0.009453628531816229,-0.0009592086436869472
0.41500000000000004,-10.029089440826288,-0.06806817619002256,0.42973892397428004,-0.005366194580307137,-0.00796195381354922,-0.0018390771710918223
0.4175,-9.92311135391118,-0.06321731055363737,0.24539666639123836,-0.002411105412549134,-0.007104266336468634,-0.0036505830360757103
0.42,-9.845852621239356,-0.047407236471145316,0.18304656798013091,-0.0029695219110690433,-0.007134927095553447,-0.004733188396404928
0.4225,-9.968929687946678,0.018659874378864474,0.38924830574158775,-0.005431057695334453,-0.007828625703043443,-0.0037382272030835957
0.425,-10.104884466496328,0.02145415694666263,0.477913364356436,-0.006155780070265089,-0.007644692175023965,-0.003215692175023965
0.4275,-10.023802347709996,-0.02809616629830707,0.396830408316832,-0.006539242069626316,-0.005215820427978291,-0.0007868204279782905
0.43,-9.875511141271076,-0.07701260261478607,0.19082603344228213,-0.005444314542153069,-0.009494170303501888,-0.0032156869623865044
0.4325,-9.943870290266506,-0.0691981811332533,0.2921922568547418,-0.00399216363985594,-0.014158672720288121,-0.0044400818199279695
0.435,-9.996785491166474,-0.06895852323166474,0.3256112935133877,-0.004343589830034931,-0.01087011376018627,-0.005241851250291035
0.4375,-9.947421577486145,-0.048531170657743386,0.2612884827460002,-0.00216045571473387,-0.008399,-0.005568931349994771
0.44,-9.903832153648436,-0.025589253217609513,0.19377358748719015,-0.0024115525504548783,-0.008399,-0.0052339528202446925
0.4425,-9.898373,-0.022716,0.185318,-0.002443,-0.008885789691652915,-0.005192
0.445,-9.898373,-0.022716,0.185318,-0.002443,-0.009442273610700947,-0.005192
0.4475,-10.06859091772334,-0.07244131972835324,0.4046479615457991,-0.0028933914172528112,-0.011472939768776785,-0.0051310173174872725
0.45,-9.916613538010571,-0.0965970950985102,0.1683848224891876,-0.003296376165305139,-0.012523,-0.0063249765977895205
0.4525,-9.811186552676597,-0.06396493297132771,0.10613202597469132,-0.002654767912862402,-0.012523,-0.005427228925196215
0.455,-9.932233536468868,0.01069974513737611,0.29421139970086235,-0.002875027771094139,-0.013819682688993664,-0.006938489461876102
0.4575,-10.053505075691758,0.022418873266135675,0.40631066910096,-0.004176584877255741,-0.014601298842464645,-0.004464934306616793
0.46,-9.993650930608554,-0.030207142153349766,0.34484474022921635,-0.008177086153349482,-0.007690806088781291,-0.006095122072639224
0.4625,-9.945589927812751,-0.06663394456820049,0.24922544177562464,-0.008952304568200169,-0.009629698434221163,-0.005965636900726392
0.465,-10.021701918533333,-0.07201046112222179,0.39788478602222294,-0.004393993877777769,-0.015667134277777776,-0.007552307766666684
0.4675,-10.041282360557608,-0.032088172107708396,0.4135777377242939,-0.004322017452639107,-0.014979947642082679,-0.008492034905278214
0.47000000000000003,-10.016537527523491,0.0071969323604875535,0.3953749116333023,-0.004283380080071865,-0.014203,-0.008761996934390035
0.47250000000000003,-9.976589000905303,0.05790109514502882,0.30318521320696024,-0.0011433923032927139,-0.014203,-0.006145483245363152
0.47500000000000003,-9.994121393272174,-0.035376256201155774,0.3858287954468254,-0.001352587495752585,-0.01615333775059469,-0.003930992252803242
0.47750000000000004,-10.116361051984008,-0.091594686106948,0.5407762079360332,0.0014540774112943643,-0.018661426016991476,-0.005807152643678303
0.48,-9.93562514688588,-0.105139443547999,0.2911201124163947,-0.001623833038736041,-0.018012068400032083,-0.0068361597433635405
0.4825,-9.836884470738681,-0.05838355371493552,0.1503763815419588,-0.0002527276416053794,-0.018074706228841435,-0.006941052517495065
0.485,-9.785389,0.0,0.075921,0.002596,-0.018394183049060448,-0.007025
0.4875,-9.797374474211487,0.0017328367346917085,0.08699880111315868,0.002327248979592173,-0.01903710871985145,-0.006982830797773708
0.49,-10.05682597136407,-0.0010944244652762516,0.29324004300746165,-0.005674909041515208,-0.02066528543332696,-0.004492505023914297
0.4925,-9.972579800696384,-0.0580579595867609,0.17811384074995248,-0.0062110328907595165,-0.019363342016453036,-0.0030375983011287585
0.495,-9.81177189625827,-0.0462952034946194,0.12516738552730133,0.0010308777042646526,-0.01647010815145477,-0.008165526721402949
0.4975,-9.903211568376245,-0.027307159658828233,0.3460228174348344,-0.002032518899960141,-0.013533761010761262,-0.008804117445994419
0.5,-9.909273245664739,-0.019993173410404623,0.34616949421965315,-0.0032510173410404625,-0.01622092485549133,-0.008397101156069365
0.5025000000000001,-9.827436499503104,-0.018793198260870083,0.19050876149067997,-0.004964706956521701,-0.0127169264596273,-0.006284756521739106
0.505,-9.733584472476531,-0.04172765006150863,0.07246431864033684,-0.003235291188086755,-0.011965793939786345,-0.005303502738750404
0.5075000000000001,-9.769096540537392,-0.0686150192813215,0.1632735800971211,-0.0006435534865651669,-0.015335731861443918,-0.004914826947232104
0.51,-10.033369258069063,-0.05271484105238419,0.5097416640263097,-0.0035593606013624587,-0.014573681559783874,-0.010802943340380535
0.5125,-10.106993727507634,-0.018847749322684813,0.5529351787330664,-0.002681647232010038,-0.011314072508026055,-0.006664799859055747
0.515,-9.931693123958716,-0.03098049861908952,0.2628043604320343,-0.003436002019361537,-0.011156688295063636,-0.006436188747899841
0.5175,-9.861983247853429,-0.029977140833666708,0.21516080525482112,-0.0012581451540123558,-0.01705015689255131,-0.00810229958556682
0.52,-10.055418225788396,-0.0013183846011228725,0.432961900832518,-0.001069,-0.014303451516177887,-0.008637889262857655
0.5225,-10.091814496034116,-0.015196411343283263,0.43779306712153576,-0.0017548732622601163,-0.013744,-0.008293835138592758
0.525,-9.978449461065376,-0.008075377610976469,0.32291843338175946,-0.0013774949152542246,-0.012810978434221158,-0.006315373575464089
0.5275,-9.966813568067796,0.006090977242937674,0.3239306181242938,4.430305084743985e-05,-0.014104137536723148,-0.006832467954802253
0.53,-10.1476763681198,-0.0393075290515815,0.6484990080532439,-0.005322715141430919,-0.019160018103161362,-0.0074084519800332715
0.5325,-10.183436457012915,-0.11430385134616829,0.5814494644925132,-0.0025311650582363027,-0.01586083793043344,-0.006774537481974494
0.535,-9.925437582079848,-0.05619079744660943,0.19685640990714645,-0.002279784382544118,-0.019467988495821764,-0.009097415366759405
0.5375,-9.89185223213866,-0.015980570176263288,0.23108497156286595,-0.002124220528789665,-0.02051312815511163,-0.007240907626321966
0.54,-9.979092124809428,-0.010582362851990147,0.3828800806492758,-0.0013834278561981263,-0.020410187129974694,-0.007645425167728681
0.5425,-10.027028985925634,-0.03524081715055865,0.5038855344327291,-0.000305,-0.015924671469119207,-0.004276
0.545,-9.849122099947976,-0.07926785718609705,0.37061828419957143,-0.000403118306928368,-0.011088855256561924,-0.0045457851974462496
0.5475,-9.735977220408293,-0.14448586269094316,0.1858326955245537,-0.0014130969244108087,-0.016769365107590417,-0.007322813147316136
0.55,-9.866008183225397,-0.11694605608059298,0.3367928455105148,-0.0006036363156632014,-0.02346831289677772,-0.011003276197329524
0.5525,-9.939684333963381,-0.011696088951787378,0.3733794034892459,0.0009331349388342474,-0.01860312817782044,-0.0125392090605261
0.555,-9.878072638830057,0.016861309194673255,0.28572207708940855,-0.002016175821179435,-0.014842427400126928,-0.012248945443880742
0.5575,-9.80851305257768,0.00791815941661384,0.1957902283639824,-0.0010005132720355124,-0.020173409061509186,-0.009964120282181362
0.56,-10.038336553345696,-0.10852959383189126,0.4109787718500213,0.0014482841985991094,-0.02248874840543878,-0.007547653539349015
0.5625,-10.07514094447878,-0.1098208717552534,0.44390932921302023,0.0021908635146271117,-0.02083941223733004,-0.00870229686856201
0.5650000000000001,-9.870752272247712,-0.10305384041071554,0.3003574152799568,0.0012095802952029194,-0.016646,-0.00975218462377673
0.5675,-9.725935060940158,-0.033159428294561075,0.09720990452109701,-0.00020270841328413522,-0.016646,-0.012193198222364837
0.5700000000000001,-9.874772966194412,0.03566310859593352,0.23797804633418226,-6.012898983479676e-05,-0.02184844416137221,-0.008033871010165203
0.5725,-9.96089326586404,0.01923580653748406,0.3121519742630244,0.0007034861562897105,-0.018160274606099095,-0.00879748615628971
0.5750000000000001,-9.889474919999994,-0.06264854632318663,0.23831869367681316,0.00031653470725985825,-0.01101019906323208,-0.008551774613583073
0.5775,-9.78472524298715,-0.11832893219429426,0.2735790657981102,-0.0014131331576820371,-0.016952,-0.007355332456154538
0.58,-9.98153306578546,-0.15961666252758466,0.5098946546149463,0.0005393475645546669,-0.01659358137640773,-0.008919957306336
0.5825,-10.073348550635396,-0.1556471275468631,0.48740808376531547,0.0006856487900673667,-0.014014247774080972,-0.010840104795910105
0.585,-9.970109,-0.09505,0.313247,0.002291,-0.01228340188530297,-0.013134
0.5875,-9.949355992671647,-0.031214705680065596,0.3489739353492237,0.0014182715759516078,-0.016586093394995897,-0.010785191628127563
0.59,-9.933612969781844,0.04527822459024493,0.39968634523735536,0.00036938099844757743,-0.02138,-0.00764742921807339
0.5925,-10.042703770219791,-0.004913601853093107,0.4519275170455108,0.0010239377955715407,-0.02138,-0.006208089664188236
0.595,-9.90833625545079,-0.058222500300724275,0.3449385886922671,0.0029310464170610273,-0.015378657240759604,-0.0053290282777211885
0.5975,-9.793430090020966,-0.11304707629305766,0.2581956683112671,0.004465624484514486,-0.014994855685616721,-0.006480432943149837
0.6,-9.9253978686217,-0.14873591773004777,0.25235691682650274,-0.000240952825552856,-0.026155196132202577,-0.012825783228976765
0.6025,-10.109221543929621,-0.036951250313068076,0.38600236184830183,0.003185597739557788,-0.026536662712213686,-0.014222000776729828
0.605,-10.007454305695367,0.01869475205298063,0.3170269858278173,0.005306904105960297,-0.019242804039735228,-0.010349969006622578
0.6075,-9.884411719899738,-0.04906792114824648,0.2653163766077837,0.004375682196228226,-0.015246676975411823,-0.007653811406063497
0.61,-9.933202047216577,-0.11367459291783318,0.3585212289431147,0.00445808801024084,-0.017477766006880523,-0.0075522202704216305
0.6125,-10.100705750284027,-0.15881059255940555,0.49543342561805187,0.00048660326426107,-0.02234606469317554,-0.008193161196895764
0.615,-10.065584152990809,-0.09347494065048337,0.43085987981616924,0.0047767036530756615,-0.020018627706811235,-0.011660054720716465
0.6175,-9.843421550297535,-0.004802995191723579,0.18069361080350188,0.004128458052506014,-0.01845750253937958,-0.012944598593476492
0.62,-9.947074273059016,0.0992524969198216,0.3378221738067233,0.0064847354150011725,-0.02203151992475901,-0.01087975177992006
0.6225,-10.0667713969823,0.0041276331827648435,0.4994765988820673,0.006208146777903557,-0.019548,-0.008122352889577435
0.625,-10.032572970538787,-0.05694071163237531,0.40532787022656314,0.005192,-0.018983918020975103,-0.005498
0.6275000000000001,-9.929195347712751,-0.09006181168841643,0.19355514098470405,0.005192,-0.013984063200704392,-0.005498
0.63,-9.889115581855865,-0.16752978931700416,0.32035757879729976,0.005646062389700109,-0.02084447581095934,-0.009700007743758836
0.6325000000000001,-10.035846126659512,-0.09874630360227626,0.47454319748616824,0.004530169566438127,-0.021340969206375338,-0.012562030793624663
0.635,-10.140381623836461,0.013264849850249725,0.4911780789446156,0.0024899888566674603,-0.018326,-0.015279915768956494
0.6375000000000001,-9.979461223817443,0.05299791270105486,0.35360201649631195,0.0028713345376753133,-0.018326,-0.012868880548292464
0.64,-9.970653667311707,0.04338761233233498,0.3475447619254108,0.002902,-0.02209038418574553,-0.012199262263570886
0.6425,-10.006658650520183,-0.06817659866677273,0.3911563958838275,0.002902,-0.029603722614675067,-0.008054498623088813
0.645,-10.083766602445014,-0.1399452701497771,0.4226317680367012,0.004015150522196745,-0.019419024282822783,-0.013447641535555277
0.6475,-9.956827481366876,-0.06817920685018394,0.2737252850466721,0.005448364394874211,-0.014170802268628404,-0.01595511439962029
0.65,-9.809482878768234,0.07452428946515537,0.15537394743922375,0.006718536807131292,-0.01372213662884934,-0.01736454888168557
0.6525,-9.93901685400324,0.23148778923824764,0.34941913932252594,0.008016085876823323,-0.021378270956239776,-0.016975369134521884
0.655,-10.09372211680136,0.09693704451517962,0.5648051306157759,0.006697845071467178,-0.022755,-0.005816229031909118
0.6575,-10.02834146289423,-0.1214848280275029,0.4737549019887207,0.004346792338715933,-0.022755,-0.003712271779340206
0.66,-10.03561772746199,-0.19141055276647093,0.3725689804939264,0.004327777437052553,-0.01997795328453064,-0.004521328639691205
0.6625,-10.001832340503581,-0.19241939911511544,0.3685352821333763,0.006131216812806677,-0.0224258396589172,-0.013410310932346474
0.665,-9.974448544493004,0.03559487677879129,0.3213292363761374,0.006376375349865026,-0.027260864188558904,-0.017753170694819572
0.6675,-9.963640437044793,0.11573433684611271,0.3426978359740648,0.00574563714710608,-0.025068241494259753,-0.01501786500743564
0.67,-9.897706492508814,0.0831083409264009,0.2878858647025579,0.003916332433576384,-0.019600729268751452,-0.01010777208088397
0.6725,-9.763015227500803,-0.1197749072181171,0.13110828177963263,0.006008257349823351,-0.019921032026983598,-0.007122636135560518
0.675,-9.87320781242197,-0.1851227894745132,0.34055848930857585,0.0015285873883841145,-0.02282591717107861,-0.013264878419597044
0.6775,-10.06291762408218,-0.026617538983801425,0.461914071715527,0.005830607611220846,-0.02206693209324378,-0.01592215477834847
0.68,-10.000476901465463,-0.09491640007946883,0.41040754521444206,0.007217849475283317,-0.017728534995909838,-0.01082305081687507
0.6825,-9.81229,-0.157819,0.32879,0.004429,-0.020823508957212807,-0.01069
0.685,-9.836448303944886,-0.14784729173850136,0.35469590873578494,0.004415844598622013,-0.023732084156385176,-0.01083445146611123
0.6875,-10.072479552475565,-0.05042179546547028,0.6078015902099023,0.00428731381188912,-0.022834048790257973,-0.012245769908668484
0.6900000000000001,-9.963201649673437,-0.11985953560173383,0.2570083642201413,0.0060792014067136925,-0.02805897813199337,-0.011224432098653099
0.6925,-9.886462627881578,-0.04886757565175262,0.26972139397469275,0.004152613171883515,-0.024424190719864382,-0.01697024244112127
0.6950000000000001,-9.854672159913477,0.011799165825989262,0.28774407686268166,0.004744165390161868,-0.023824,-0.016339223239865308
0.6975,-9.890327272209582,0.005270137888158926,0.2636382538215029,0.006155483832719121,-0.023824,-0.012362329485659334
0.7000000000000001,-10.00608914536703,-0.0835205611552349,0.49150977737665136,0.005032046209386244,-0.027227266089049275,-0.011322521010830366
0.7025,-10.059897539943844,-0.09257288874127563,0.36579001548335277,0.00361880298435619,-0.024914762740473315,-0.0128644703152828
0.705,-9.887583654041961,-0.14258070942657228,0.2631516791049017,0.008388456391608432,-0.025311532027972095,-0.014858174433566266
0.7075,-9.878502632109745,-0.09168011647114405,0.2675790587511838,0.009658357644276274,-0.023522425146641435,-0.015238626035950777
0.71,-9.955216720869634,-0.008457502938264555,0.4335725042459627,0.011830571263081097,-0.022922444017197997,-0.012027903314675088
0.7125,-10.082343057061737,-0.08168259242313686,0.5317152028555213,0.007933818885373537,-0.02461095165084775,-0.013196673837916778
0.715,-10.104477430009645,-0.04016051166827314,0.5014975942140817,0.009406018926390269,-0.025608765155898463,-0.01417350754098361
0.7175,-9.94127067081967,-0.0985930918032793,0.2919467081967191,0.006188835409836032,-0.022520504918032754,-0.013915660983606554
0.72,-9.911252421459158,-0.020007023178475657,0.22122413482750244,0.005181741921305634,-0.02671625968489932,-0.012642318587702957
0.7225,-9.886942097212572,-0.0716657209049049,0.23793679439928922,0.006475412077240058,-0.03499676531954442,-0.016524176252726883
0.725,-9.99226479844295,-0.060161675500770666,0.42126499597762057,0.0057543910631740825,-0.03059426435812186,-0.01566970844213772
0.7275,-9.803161417163244,-0.032711280677965714,0.06644136767171666,0.00926041559322039,-0.024490397252453083,-0.013851643818019599
0.73,-9.890141908330559,-0.1755694926424219,0.2488242032802452,0.008674598326598528,-0.02374967454559863,-0.012672230286031191
0.7325,-10.09625717186911,-0.10405014567466805,0.5299357891133869,0.008420367872593293,-0.020577609599873176,-0.016479040548292592
0.735,-10.097074753958923,-0.0958121482239225,0.4624597511880809,0.01131777335481271,-0.023511309738219903,-0.015115406830447044
0.7375,-9.888269187013822,-0.09055007843137097,0.21456445882352995,0.013780755448408892,-0.023741682288653233,-0.015230841144326617
0.74,-9.84824992969944,-0.02390131993886869,0.2754428558940386,0.013265101069791186,-0.026874130616403473,-0.016686439042282227
0.7425,-9.900426517024309,-0.03560224324406992,0.35976309443352367,0.009883390044141026,-0.02791281555647112,-0.015689370115943728
0.745,-9.997726306534927,-0.022366629572610167,0.37727384124540414,0.01034311203125,-0.029855026838235297,-0.015460085193014703
0.7475,-9.953255508735444,-0.10326719807603021,0.28179358082232797,0.009609217315748608,-0.028288130985259882,-0.014062579674165826
0.75,-9.915541456190205,-0.06811896997253007,0.29760882959174007,0.009607014492753623,-0.029640419153168514,-0.015367583025480722
0.7525000000000001,-9.923854477722838,-0.019727242201381848,0.37984511823434874,0.009758982028985511,-0.031157114759875003,-0.01764312306147585
0.755,-9.9082930609114,0.03436965043188309,0.3259466762305496,0.011969738580501744,-0.03255615525881233,-0.01605542350905049
0.7575000000000001,-10.035691382054624,0.007994584214035545,0.44687506035249586,0.011206365928866287,-0.03522587837091147,-0.013766970489044085
0.76,-9.871082471610315,0.0054867035048703355,0.23211471507621764,0.01399624727564469,-0.028126376362177654,-0.011810346273925503
0.7625000000000001,-9.874027926922768,-0.1400087571096322,0.21943406480070662,0.011624747854679554,-0.028423489229288584,-0.01285484194402124
0.765,-9.878622397126446,-0.14416358947517477,0.27251212779290374,0.010434213747737847,-0.026978704565268716,-0.015551675209693937
0.7675000000000001,-10.014752462409321,-0.08941552978833742,0.4737473025131853,0.014717954869777446,-0.029121400191989992,-0.019205891201510845
0.77,-9.937812887486833,-0.040062235424713356,0.4384575381282907,0.012675156891289657,-0.027260536221471995,-0.014737650136394335
0.7725,-9.882247591013188,-0.05781626730138381,0.34338318355741365,0.011529608411064648,-0.029017535281440986,-0.015347608411064648
0.775,-9.849078004922513,-0.02213984981768543,0.29036316112123384,0.011916707064721983,-0.028755198359161366,-0.014867447265268858
0.7775,-9.826979885714975,-0.06786830617430165,0.16362842352955254,0.01176958209597487,-0.02872114511060076,-0.01503040628550703
0.78,-9.91236475414955,-0.08816875911257181,0.27959237413311544,0.011037893015612166,-0.02742258185702542,-0.0181616631717338
0.7825,-10.000563355955709,-0.05703436107653853,0.41441950972924724,0.011610809048735139,-0.02316103686737254,-0.019347845916107678
0.785,-10.039798358881946,0.018292998773025825,0.5452914907352208,0.01261467629665226,-0.020677805269902327,-0.017303010959474598
0.7875,-9.897221080009611,0.021305366314271955,0.3254004174435387,0.013383934358481491,-0.0237556773185968,-0.016405263286881317
0.79,-9.978027967345778,0.0022734174586918066,0.46248943021514644,0.011883786354451404,-0.029960359153690757,-0.011928166337810497
0.7925,-10.045454042599602,-0.14633522949940117,0.5486997853924167,0.011052559275049875,-0.031958010526147704,-0.011156453735728522
0.795,-9.937391805646458,-0.1672420622480708,0.34765491175336394,0.013759260278817754,-0.03207,-0.013851102678244258
0.7975,-9.858993771786825,-0.33053022960248457,0.23579984409463933,0.010059632218593184,-0.03207,-0.014744058739743483
0.8,-9.95109183668904,-0.04524576957494229,0.4168074228187933,0.01188918657718114,-0.03146209127516781,-0.02310442595078298
0.8025,-10.011190589773092,0.05492021521252761,0.4919319114093957,0.007923096145733475,-0.03274139420901246,-0.022208830118248646
0.805,-9.87577864354884,0.038940307409151775,0.2701381680604004,0.007994977970741016,-0.032341555110901296,-0.013306371835771616
0.8075,-9.743013886297033,-0.08800035388433693,0.12409969370455787,0.011905235892132684,-0.02978,-0.013956700408877577
0.81,-9.769248,-0.104615,0.243902,0.013134,-0.030533422691060807,-0.013286
0.8125,-9.861819791643093,-0.11690737064576093,0.3431513042916027,0.01309515954093591,-0.03357839004283521,-0.01413896694415259
0.8150000000000001,-10.107990066477008,-0.1589858818294707,0.6065921800047096,0.013296977078192595,-0.02951069722907654,-0.01706730277092346
0.8175,-9.891243433071905,-0.20873906196935177,0.3701422061390959,0.01593963580667977,-0.02598715225776031,-0.020590847742239692
0.8200000000000001,-9.768493132195509,-0.07199627235085862,0.21400934725072693,0.015111869533421411,-0.02940713057225902,-0.022097052165918122
0.8225,-9.770811911883753,-0.07067093877516513,0.2292456967482167,0.015535178417965655,-0.03363800314081904,-0.023112661047291948
0.8250000000000001,-10.10448836398555,0.04938376743269646,0.5467683730137799,0.019123066743269832,-0.032536520748522584,-0.018770235128036623
0.8275,-9.907958680151015,-0.03190324861457691,0.22264788576493588,0.018072253138542344,-0.029908195810899527,-0.013250236388706472
0.8300000000000001,-10.012093737587422,-0.2353375403913539,0.46363178807072447,0.014796328386640533,-0.03013618995992149,-0.018342598400000038
0.8325,-9.902242526145383,-0.17622504692495045,0.37742606843221943,0.016935505829469566,-0.03277884868840866,-0.019600889600000008
0.835,-10.143903092861677,-0.10884971267766583,0.6551472305266536,0.01760555670050759,-0.03679178543781736,-0.019863106243654803
0.8375,-9.998231036008882,-0.04869132404822282,0.3846839842322311,0.019129185532994936,-0.029552053458121764,-0.021133905837563464
0.84,-9.980137472082403,0.027720307004152726,0.37409120261577905,0.01955733833918877,-0.031612,-0.022073152018524504
0.8425,-9.911567266218459,-0.02833631143085335,0.26698222856275833,0.018406952341105065,-0.031612,-0.016574909770041463
0.845,-9.958704488759832,-0.08363868758279061,0.3311878400660392,0.01715604416431972,-0.0424119994561523,-0.019995528173254326
0.8475,-9.95809552649121,-0.12990454502476506,0.2843135295212192,0.015834249808682126,-0.039845803942895955,-0.021861620743906015
0.85,-9.935719478397711,-0.05339511444922246,0.2873856117310408,0.01800794821173078,-0.0345644005722463,-0.023346606580829772
0.8525,-9.871719184017211,-0.015991082120086896,0.3585675239702724,0.01747347784079792,-0.03350941159788776,-0.019069351296694632
0.855,-10.018246834662856,-0.006428835018663468,0.48079199032324815,0.018173,-0.034224334975776365,-0.0197
0.8575,-9.984890775153682,-0.09902848081010394,0.29459750509411187,0.018173,-0.03206239128901593,-0.0197
0.86,-10.00442793651768,-0.09121085346412452,0.39647018835851466,0.018547680639189948,-0.034667,-0.01809137275215566
0.8625,-10.087276,-0.109397,0.554758,0.017257,-0.03321522791861772,-0.021533
0.865,-10.0457712741141,-0.11274591035250454,0.5008727626669772,0.016868093186456413,-0.02991817666048236,-0.02111829055194806
0.8675,-9.836023355458998,-0.1220571224743241,0.2500489693569292,0.015407397503555091,-0.03451919261178712,-0.01909
0.87,-9.844416723139034,-0.09069305779264232,0.316387415833731,0.016751262627806976,-0.039795117663640696,-0.019300387477305298
0.8725,-10.03615488889422,-0.0339922860542107,0.5288998449412343,0.01748967603741905,-0.04285980474934035,-0.020058484039337934
0.875,-10.094451,-0.077714,0.587637,0.017715,-0.04157041741214058,-0.018479
0.8775000000000001,-10.094451,-0.077714,0.587637,0.017715,-0.039268072824281096,-0.018479
0.88,-9.811786355822512,-0.09637152922488663,0.10080833229984879,0.01669835989165936,-0.041479306275790655,-0.01754397601848164
0.8825000000000001,-9.770339495336573,-0.17726633171672312,0.1876965489556303,0.014911612449613594,-0.044285142955468884,-0.0174170075233012
0.885,-9.987722512741618,-0.07412179829059805,0.3264693560157798,0.016687668665351745,-0.0434265139907955,-0.023864913885601576
0.8875000000000001,-10.063966603944776,-0.006121196581194768,0.5196519043392556,0.017082349638395805,-0.035266614135437,-0.022812718540433898
0.89,-9.8040973934272,0.010904301401714379,0.22963129354204412,0.016324240645009046,-0.036063265687091985,-0.019637951419806482
0.8925000000000001,-9.850446547634707,-0.06453493928734581,0.3292307546291226,0.016198045311098874,-0.0419837239015183,-0.016866602910406592
0.895,-10.081206736021986,-0.18710658414479334,0.46145760721690654,0.017504747863166907,-0.03753586442149147,-0.021187234644177027
0.8975,-10.034947833342626,-0.1738545865107549,0.4280980403077873,0.020461131014843956,-0.035583,-0.02197680478885186
0.9,-9.91481923985597,-0.13238219018791447,0.34017559954990556,0.02212046524136378,-0.03553246713176549,-0.02227000189040172
0.9025,-9.94900827190134,-0.0923560863410651,0.42891285241751087,0.02008049415877169,-0.035774369402156135,-0.022524581532179042
0.905,-9.911811337926567,-0.08889795369330478,0.41461631789776826,0.017125361468682546,-0.038988795464363,-0.02157180737221024
0.9075,-9.965540140147588,-0.06894422523159165,0.41770740688334124,0.021483720518134658,-0.046723353901711465,-0.023224278621447617
0.91,-9.956759273358243,0.0016729589444159643,0.4175398738346573,0.025276520859411383,-0.04183270752919188,-0.02278259128444629
0.9125,-9.95195217540755,-0.09154962438640041,0.40705623376765077,0.02179472042906492,-0.040064710029695166,-0.019330559141870166
0.915,-9.961853754163474,-0.1297049587029945,0.3579220223823441,0.019752770358027378,-0.04204545928394524,-0.02279010131051577
0.9175,-9.941249379062976,-0.12015808729338467,0.28308697999389193,0.01835388012216724,-0.04560683059312199,-0.023879442250320702
0.92,-9.964728,-0.116571,0.246891,0.018937,-0.045040895954915436,-0.022297
0.9225,-9.964728,-0.116571,0.246891,0.018937,-0.042910257808390743,-0.022297
0.925,-10.013371153108578,-0.09301249559382163,0.6897591322661469,0.02478129368582748,-0.04051488281995304,-0.025838648653892748
0.9275,-9.947996436627053,-0.0007778211658180934,0.5595158031692138,0.025169560973401246,-0.03663051445387665,-0.0232496349066214
0.93,-9.94243601952889,-0.09800728011777905,0.4389688424478751,0.027712173818239635,-0.049938,-0.021124551424478808
0.9325,-10.01177504763648,-0.14489780309088007,0.4309872815374821,0.02465389668947955,-0.049938,-0.023928319815374816
0.935,-9.995834655394917,-0.09137955136812856,0.4682042777489136,0.024424099671649102,-0.047375310120068584,-0.024226960467205776
0.9375,-9.90265073903455,-0.08318741754471944,0.275692987012987,0.024293059789267338,-0.045936440823327616,-0.025404606469002694
0.9400000000000001,-9.736348739000723,-0.009135210088876473,0.10682601307711269,0.024829021590199337,-0.041022049618064,-0.02592909279846267
0.9425,-9.90438192037819,0.03046558142136773,0.3364174583517181,0.02291974239836117,-0.043522882949889694,-0.02590509400567286
0.9450000000000001,-10.104299843685588,-0.011377757216815831,0.589359231512708,0.021311085594870657,-0.04156954187128933,-0.023831490406079257
0.9475,-10.186310848346736,-0.09759469296236745,0.6572528762495977,0.023763253994853652,-0.03721093369893856,-0.022144
0.9500000000000001,-10.11125920963014,-0.12644668639218368,0.5867025406838748,0.023701816050244094,-0.03787386657362202,-0.022828219678995256
0.9525,-10.184359423911156,-0.06126976482858479,0.7509354306132319,0.02325957802028007,-0.049392798338966745,-0.025118227059391606
0.9550000000000001,-10.154961493060677,-0.07595405039656059,0.7151456049077861,0.023721956816053522,-0.050244,-0.02412919650645004
0.9575,-10.108240493523173,-0.09781733593884392,0.654348236582895,0.024104213618729102,-0.050244,-0.02298142411466793
0.96,-9.977144125932353,-0.07246724770164753,0.3851528706331362,0.020235838334778794,-0.050555611725932335,-0.026718492732003486
0.9625,-9.796253811401087,-0.0971790167152884,0.01744108630449881,0.0232659030197903,-0.051818896538673824,-0.025456034676338394
0.965,-9.870896099532867,-0.08931774594157997,0.2865895909219667,0.025246268575777088,-0.05219901534156769,-0.025865462848445826
0.9675,-9.95235639228707,-0.039781230734647954,0.49060676890710286,0.025340181897793128,-0.04798089541415438,-0.025677636204413743
0.97,-9.894186636374224,0.00043981145330117353,0.4251274900810478,0.023630533930285615,-0.04526007806751125,-0.025414931056731472
0.9725,-9.791103752698087,-0.033592498600991845,0.15878638085765662,0.024512529165158562,-0.042109977219293375,-0.023525530600361926
0.975,-9.767061438844765,-0.05605170758122703,0.1474725987003574,0.026103164476534307,-0.04193144433212997,-0.02236244837545126
0.9775,-9.956144128975534,-0.10181386915363082,0.5537985326530342,0.024818627330926577,-0.0414174612306458,-0.022875590260730053
0.98,-10.148727591289804,-0.1866199341524605,0.7607199580443885,0.020480767992923768,-0.04010163331296232,-0.02416011913798648
0.9825,-10.106386571334834,-0.20123726571888093,0.58379763179157,0.020609774207140562,-0.04666914574782899,-0.02557665796075911
0.985,-9.85254737913728,-0.13121010973411568,0.2922720152783348,0.023427448479395912,-0.047740741042654015,-0.028863
0.9875,-9.88628307353201,-0.0380579163306273,0.45138620057836254,0.02805839943770592,-0.049927345023696716,-0.028863
0.99,-9.910426758306343,-0.13061223934219626,0.5121274964929746,0.025827751274651877,-0.05036091781236216,-0.022689585818158896
0.9925,-10.009561489355429,-0.1870910493478683,0.5204217584197595,0.027240299625732496,-0.052580825417428055,-0.025918362147312773
0.995,-9.87391830605229,-0.13544356217965312,0.3318077646337044,0.02670882117007507,-0.051679376469065494,-0.028795450970748124
0.9975,-9.8564741598861,-0.12895273287600298,0.3099018095107425,0.026294195273103796,-0.050332351255500875,-0.029002424618172408
1.0,-10.003528106565176,-0.08094396764985728,0.5021670190294958,0.03140410941960038,-0.05391692959086584,-0.02979080875356803
1.0025,-10.148161257164602,-0.06354834788455477,0.6328831749698672,0.02848419274341903,-0.05645689127814774,-0.028648449552806876
1.0050000000000001,-9.97346109638339,-0.11272286075061413,0.31547074458778634,0.02840310279774652,-0.050163780953741105,-0.029532054761564723
1.0075,-9.756108921771002,-0.09531481850035661,0.09463746072839252,0.027386392592239916,-0.048639547650559355,-0.029913113087360162
1.01,-9.824627879465154,-0.12749090109238248,0.42746355211669446,0.027142657361426265,-0.04853280387034036,-0.027273709688816854
1.0125,-10.017148642382493,-0.11885501949756903,0.6519879762074514,0.02934857575364664,-0.04827278421393842,-0.026754520113452196
1.0150000000000001,-9.950982964556248,-0.29138571138942604,0.3978527909117263,0.030205871932589834,-0.04761355367361779,-0.02848214875121269
1.0175,-9.80468512742725,-0.2579458243671183,0.19949546916585276,0.03253554642337543,-0.04635177908583896,-0.03401552295101859
1.02,-9.876005874922802,-0.07691898841492684,0.480984560704477,0.032970570157498644,-0.047872134685390665,-0.03413675793001783
1.0225,-9.828829310671116,0.01062152823027264,0.5198914569912323,0.032846098027775626,-0.05072929886569939,-0.031278780206377574
1.025,-9.76088306764707,-0.0261101864995158,0.2833981294117937,0.028779448939247543,-0.055108564995178674,-0.029758305689489364
1.0275,-9.738020999767334,-0.09532036907168273,0.1715412524559391,0.03134270640658051,-0.05353910408695654,-0.02613058579318448
1.03,-9.87191349874518,-0.14616454679536522,0.38524573400579937,0.031168964063706502,-0.053379653754826166,-0.027034656554054164
1.0325,-10.024191988391898,-0.08500911735191664,0.579497014712101,0.02719891484320561,-0.050538574338864946,-0.030821160066143025
1.035,-10.010758,-0.062171,0.552965,0.024282,-0.04976767447620614,-0.031765
1.0375,-10.010758,-0.062171,0.552965,0.024282,-0.047931442607912135,-0.031765
1.04,-9.827094287940696,-0.10449608963050226,0.37382160231584627,0.029730770656625084,-0.05168141567427634,-0.02638427874794072
1.0425,-10.054319311219668,-0.14776427154214566,0.7091006082343553,0.029147023840996177,-0.05388927151021711,-0.02840751546296295
1.045,-10.087646786127562,-0.15058715946088808,0.6357899785318986,0.028687190103489673,-0.054672,-0.029843736471720873
1.0475,-9.937789166437218,-0.23607659754833868,0.3089185976092933,0.03215552451825124,-0.054672,-0.0279165101452065
1.05,-9.969807631601078,-0.14568462288942677,0.362738530293675,0.031213837908153182,-0.058003619525655296,-0.030738211602391506
1.0525,-10.015906206853181,-0.02491101769745021,0.48027621283485955,0.030197863718742262,-0.054391008318890835,-0.03292057126021294
1.055,-9.991618100182157,0.03728399839708994,0.545105530309668,0.03040172910746815,-0.051070060728597114,-0.029953873078324398
1.0575,-9.887390245621337,-0.06321209288841349,0.3651533960531027,0.027704176797033707,-0.054978,-0.027062821504604657
1.06,-9.881606932581544,-0.1706127919494394,0.3410830958381788,0.025161142290771255,-0.05432268543109975,-0.027413009901390912
1.0625,-9.92351567656629,-0.24849855587765485,0.38331185848665916,0.02828302946222564,-0.05514828710879725,-0.02992641826894634
1.065,-9.963082553022364,-0.21416629211501695,0.46433096879232877,0.03054170323322689,-0.05757180912460069,-0.02967898589137369
1.0675000000000001,-10.035179690709269,-0.1681051625047902,0.6285503656996881,0.028111217968051005,-0.05514216138019158,-0.03492270341214082
1.07,-10.080849681621183,-0.07424447586629988,0.6638976313708954,0.027669943148716385,-0.05621668097529469,-0.035178578194735945
1.0725,-9.948255527860486,-0.04286677453899553,0.37137997585015237,0.03141860658162443,-0.056345361382205715,-0.033239059693202
1.075,-9.917728548117346,-0.12029165756525606,0.3236343232155147,0.029317327050126952,-0.059119224116424535,-0.029271490690690717
1.0775000000000001,-10.03414491959986,-0.20346313437656716,0.548753184587359,0.032505726652375964,-0.052687,-0.02858725559128258
1.08,-10.101624,-0.276184,0.661765,0.034514,-0.05286130492359936,-0.028253
1.0825,-10.101624,-0.276184,0.661765,0.034514,-0.054285516808149414,-0.028253
1.085,-9.999352462857145,-0.13854054252588077,0.45621326284794206,0.03403887875776406,-0.05817313061881761,-0.03853368773867034
1.0875000000000001,-9.925593633028718,-0.08474693991514148,0.4018937144908603,0.030803691906005376,-0.057455818701044555,-0.037482462140991935
1.09,-9.884680183828175,-0.05461400273881676,0.4084947340358439,0.033317588237807054,-0.06037437141568772,-0.03341802188204573
1.0925,-9.965326,-0.076518,0.549378,0.033445,-0.061774163515919495,-0.031765
1.095,-9.958528296638274,-0.09843729799171516,0.51039505560366,0.03387026257716649,-0.0625356736110026,-0.03180039020082832
1.0975,-9.910525033073377,-0.2532245522544297,0.2351096459857867,0.03687333442213009,-0.060909180401656694,-0.03205030477455653
1.1,-9.94049318938548,-0.2389837508051207,0.3510219731843666,0.036259201248767636,-0.060187717269142106,-0.03536268913900769
1.1025,-10.06254392100559,-0.07470397258626121,0.6074837456983275,0.0354700987052251,-0.054794080778836594,-0.038914512050608
1.105,-10.13995068851826,-0.026303905853772427,0.695683485973683,0.0376249889091334,-0.05484421387526276,-0.03577385741649149
1.1075,-9.992063343966368,-0.034112502648913585,0.5775690701892116,0.03500661062368613,-0.05895915823405735,-0.0330305611772951
1.11,-9.9562499176966,-0.06602921269542505,0.544718629680255,0.032150437630607216,-0.06166960648283455,-0.027954378314086033
1.1125,-9.985797700353523,-0.19800529955220597,0.47626751590855404,0.030515255479613455,-0.06368207499410798,-0.030218920245109634
1.115,-10.055008725670767,-0.180649142711189,0.48384320436321043,0.034164380733450496,-0.063835,-0.03467399732864676
1.1175,-9.992688178856781,-0.1902276811114662,0.4863754290060319,0.03428878548745637,-0.06232296714512555,-0.03371202440774846
1.12,-9.962818142294616,-0.10261380491973257,0.5354951603965962,0.03353613254957515,-0.059900480292729506,-0.03498990877242688
1.1225,-9.977008581046166,-0.08321344283289057,0.4901043103565381,0.03452789735952783,-0.0693170744571106,-0.03526440313687441
1.125,-10.07056792549476,-0.1589699644935972,0.5397508800931315,0.03411960768335274,-0.07000547322467986,-0.033650727008149015
1.1275,-9.946843211306216,-0.2073728835974268,0.5420242199571683,0.03932747888650941,-0.057879,-0.030586589464668315
1.1300000000000001,-9.873618565085197,-0.25017478234731144,0.5286611804097247,0.038327690675856695,-0.06006915734252356,-0.03225231066436926
1.1325,-9.820812333938347,-0.2822790154700372,0.4938572104001523,0.036335135286233916,-0.06244566861956736,-0.034934982845108244
1.135,-9.965290570829932,-0.11734797453061202,0.43837942993197265,0.03365965556462586,-0.07264187194557821,-0.04097449872108842
1.1375,-9.90508913304522,-0.05012330141656783,0.4097838099239701,0.03519706351340534,-0.06789957264505811,-0.03802724068827536
1.1400000000000001,-9.796303752534385,-0.03607360341848144,0.5201253269744807,0.037068291925344436,-0.06395788076620813,-0.03569087442043146
1.1425,-9.808864535439373,-0.1803669314601554,0.37169565563390233,0.03829556713164577,-0.06778153772521295,-0.029649313505029206
1.145,-9.836322884112038,-0.22212192873748002,0.29046780331074157,0.03768353950218916,-0.0729536207353206,-0.03163290774545675
1.1475,-9.853052628500409,-0.2305497275682755,0.2876754658969731,0.03836157738675384,-0.07497313450204422,-0.03407579338675386
1.1500000000000001,-9.837831757557252,-0.1687497447328179,0.39145966809160726,0.04094219572519078,-0.0698090690076333,-0.03585335572519083
1.1525,-9.849920924650863,-0.045850234015263225,0.4705380545150688,0.03991257750743267,-0.06427592429730798,-0.035596372454801115
1.155,-9.717116148182559,-0.09143700018116456,0.33398788737661383,0.035840401932412,-0.060821006456857604,-0.033739568602949736
1.1575,-9.860322767306558,-0.14061557877057682,0.5230673756469175,0.03474762703777335,-0.06527709630536785,-0.0347144360970179
1.16,-10.013959766587794,-0.14219130734152888,0.6137697979127145,0.03585716729295617,-0.061666167292956174,-0.0340905706495338
1.1625,-9.993822145075608,-0.30623105273055506,0.673197594186322,0.036735430823474136,-0.06254443082347413,-0.03434115098331115
1.165,-9.726731317348674,-0.2561453202945885,0.19790028905868157,0.03645215373072493,-0.0698830378918298,-0.04055157669965499
1.1675,-9.688972587539087,-0.12567225752551842,0.17888525264971278,0.0362137620791787,-0.07172430866953804,-0.0431080224320019
1.17,-9.74370937664349,-0.03497412623634614,0.3360010731678194,0.03750738967229375,-0.07052969664349579,-0.04056113044687203
1.1725,-9.920079096233042,-0.01526169575637129,0.5393444645216896,0.04413257815292975,-0.06165098956636841,-0.03565753645812626
1.175,-9.897079390425532,-0.18709254971419645,0.6714917488250203,0.039245750317561105,-0.06223914668148632,-0.03314213677357894
1.1775,-9.852291809148937,-0.27069808818355,0.46994388697681877,0.03810110757383296,-0.06961314335344551,-0.034285947049857095
1.18,-9.996411,-0.365854,0.595409,0.041081,-0.07499236392837082,-0.038332
1.1825,-9.996411,-0.365854,0.595409,0.041081,-0.06907712551192459,-0.038332
1.185,-9.745355634495931,-0.07005686696455385,0.21327670239519797,0.044098948985553006,-0.069791,-0.043371
1.1875,-9.670136634878029,-0.08341840893660693,0.1118304718560038,0.04384646956659036,-0.069791,-0.043371
1.19,-9.955710721381411,-0.07520070074794742,0.7246525415226007,0.048926408479297766,-0.06061112936844122,-0.03388612936844122
1.1925000000000001,-10.081087753858712,-0.138973414276345,0.9515695330346496,0.049938,-0.061536856119689703,-0.032834
1.195,-10.149423405187282,-0.24058545897476855,0.834916998379532,0.042949890795518524,-0.06394733396401499,-0.03568840705216716
1.1975,-10.066977858383604,-0.29305300030835124,0.582755686032425,0.03964406190761701,-0.0695396585402264,-0.03808614354726216
1.2,-9.936243543775667,-0.2877674106535283,0.4023780158864245,0.04050323151472484,-0.07511609407485632,-0.04055837205209415
1.2025000000000001,-9.884922304168867,-0.14404533331413674,0.44931708948909055,0.042101588531222624,-0.07145672180378966,-0.046063547287119
1.205,-9.91254209108059,-0.023161532800754697,0.5136099508247637,0.04364016673624728,-0.06840426417641071,-0.04158408298830715
1.2075,-9.867286199337675,-0.07038489312720743,0.4132600015569325,0.041127139110099645,-0.07280247395432789,-0.036306231254806524
1.21,-9.81922629548387,-0.18383928217092135,0.3252854144014662,0.041286195780461686,-0.06797596676960717,-0.03704198338480358
1.2125000000000001,-9.801975529032257,-0.22121433973398763,0.42782656077052983,0.0426327847423942,-0.06308015404372394,-0.03459407702186197
1.215,-9.947993237467024,-0.27186830511873067,0.8035433905013218,0.042661993034300766,-0.06683039767810063,-0.0374315402638524
1.2175,-10.124411726952909,-0.1826567635755967,0.8832324836491573,0.04189318821140161,-0.0782249738482451,-0.042296724982809675
1.22,-10.090558772664808,-0.17769136828696724,0.5590649068951825,0.0389720495815065,-0.07885083554563571,-0.04299083348585098
1.2225,-9.848718447129542,-0.14771103830051907,0.07638142694302064,0.0459932041450775,-0.07808519535751297,-0.039033911378238466
1.225,-9.873302740495877,-0.1836637219834674,0.49859451841323416,0.048307299768594894,-0.07397387226446255,-0.040304173289256194
1.2275,-10.108495737520665,-0.08005401408264315,0.8078698431338887,0.04407226595702474,-0.06669536827768585,-0.04017158475371901
1.23,-10.126610327020217,-0.15933934289655088,0.7341646265873992,0.045421391476813296,-0.076664,-0.03702234641617122
1.2325,-9.837808264701069,-0.22139136913349886,0.33265837799836984,0.047647,-0.07502508688615904,-0.037415
1.235,-9.70814342471304,-0.17182620166316542,0.15145544282650958,0.04583924557337119,-0.07084322505805604,-0.03843682645582245
1.2375,-9.839284735087281,-0.18082546847963565,0.5106488355173351,0.0401754003035671,-0.07096248393625086,-0.04290857675183402
1.24,-10.01788930878392,-0.1911594973266331,0.7210873819497484,0.04585811236180904,-0.06962994781909547,-0.04089186347738694
1.2425,-10.089782010201596,-0.2133943917800763,0.7955744023505745,0.04708863164055569,-0.07105015923854563,-0.038525051081288855
1.245,-9.90983257038321,-0.2589063198900364,0.5053278117260941,0.04405935020993014,-0.07333909544151973,-0.03917235020993014
1.2475,-10.015315612249253,-0.25264054544151937,0.570079388827059,0.04672708688437194,-0.07907464193935367,-0.041840086884371935
1.25,-10.138971265571525,-0.3205565099247091,0.7703232607802875,0.05045700684462697,-0.076816,-0.0408873189596167
1.2525,-10.097331790793369,-0.16345305587711606,0.5877381449693638,0.05522852394803506,-0.07615851352561488,-0.041644513525614886
1.2550000000000001,-9.949131870845765,-0.09887275276949094,0.4308273649087861,0.05133516497512433,-0.07426870142620233,-0.03938125293532326
1.2575,-9.785776598142617,-0.20777626790492257,0.3595452297054393,0.05032410022269602,-0.07464795421622049,-0.03685234895996203
1.26,-9.994205585845465,-0.19426181797685715,0.7017264717282575,0.05559091567002613,-0.07246947964165733,-0.037415
1.2625,-10.072421874004158,-0.23403870673492172,0.9056253823068273,0.056018107086866095,-0.07067628216285399,-0.037415
1.2650000000000001,-9.959419434827378,-0.34071051364859745,0.651846594310324,0.052229,-0.07579535298047804,-0.040012
1.2675,-9.838713550403742,-0.32270416733655993,0.4171031195638,0.052229,-0.082950591518698,-0.040012
1.27,-10.135559239800417,-0.09820974242661107,0.6956176410844075,0.05116,-0.08673921333555089,-0.049610329636590386
1.2725,-10.125134519567569,-0.07527274192432465,0.6924897890162163,0.05116,-0.08021406222702712,-0.042818347545946045
1.2750000000000001,-9.98009017947935,-0.18498606540957055,0.5805553317963159,0.052120498160164855,-0.07940224724024729,-0.04363250183983514
1.2775,-9.97482688670891,-0.1342607311153507,0.4963322409588491,0.05138723942591035,-0.07830235913886552,-0.04436576057408965
1.28,-9.994247345684467,-0.24571383089269427,0.6249740488519621,0.05276581399128584,-0.08118299846387682,-0.04141129573411695
1.2825,-10.029503140542792,-0.20552894840138136,0.6688203658802522,0.051965043997143204,-0.082009,-0.04379380128079988
1.285,-10.048905006368324,-0.15494685680668555,0.6891471431933144,0.05209891560032028,-0.08084243462515761,-0.04505758719468944
1.2875,-9.90382665643173,-0.1511207730970627,0.6188373822955993,0.055576936576721636,-0.07711768513894497,-0.040167209907370015
1.29,-9.798175814898826,-0.23093439847076852,0.37979472369831496,0.053909,-0.0813526459185796,-0.037721
1.2925,-9.912483430389505,-0.33621803750779744,0.5587772455250727,0.053909,-0.08545117500119968,-0.037721
1.295,-10.071905073594746,-0.19139808053533502,0.8039679331580214,0.05538180037567505,-0.07699618866400562,-0.04438330390232459
1.2975,-9.864598751629297,-0.24948373565782336,0.6074117329077081,0.05492032117544552,-0.07880632756594079,-0.04397638822336657
1.3,-9.653176651653284,-0.25072616804439773,0.28020804057628707,0.054488095984884286,-0.08359312945205484,-0.049247594189891365
1.3025,-9.825413896705312,-0.042028085681159746,0.3960197327874383,0.05308580695652176,-0.0845296494830918,-0.04752572073913046
1.305,-9.969194664654609,-0.029191885144380463,0.624763564027273,0.05029263978179661,-0.08247308065461016,-0.04338163865757491
1.3075,-9.991123674746516,-0.08531572645360454,0.7251172301144424,0.05067252708449453,-0.08133341874651641,-0.041387696628520515
1.31,-9.946645485752265,-0.1780165548423,0.6624121459142012,0.04775652288096683,-0.07756829183806639,-0.04053995067552869
1.3125,-9.914307936521809,-0.338070003257329,0.6785472406451101,0.04967807221736712,-0.0778264086756177,-0.040074150154921745
1.315,-9.876209356009523,-0.40633494742222653,0.5856677504476192,0.05021434181269835,-0.08394495867619042,-0.040910662676190326
1.3175000000000001,-9.911034562257145,-0.2023636137333239,0.5767124120857139,0.053009712276190606,-0.08661383425714297,-0.04777384225714318
1.32,-10.144015143931972,-0.1859345062373047,0.8121518936776593,0.050366573170616574,-0.08328597380048801,-0.049467702136839445
1.3225,-10.045800203955594,-0.20863727879379584,0.6561946861506962,0.05402226526415244,-0.07786435456420752,-0.04265909945043695
1.325,-9.887488926619309,-0.2274477534475558,0.649534356289176,0.05498681119933149,-0.08015608708733792,-0.045056162975344614
1.3275000000000001,-9.906689449253985,-0.18039451721709698,0.6820205498407391,0.05519893455155084,-0.08295986903604362,-0.04810465753562454
1.33,-9.990666760507711,-0.15242129349048447,0.7289122443517722,0.05706135854941063,-0.08410119891205814,-0.04732531927470498
1.3325,-10.005891098472263,-0.18993828011779554,0.6937172363627614,0.05558887875473285,-0.0855625842322255,-0.043538002916040625
1.335,-9.94678660870583,-0.19302826815970578,0.5520541640477336,0.0544013797200551,-0.08516681680128507,-0.044183344378155034
1.3375000000000001,-9.828741261342646,-0.19107665759919673,0.30320658572498266,0.053799524282505756,-0.0798913071624655,-0.047967332418267956
1.34,-9.822093134690991,-0.12691548627042587,0.4987876603836491,0.055869205332701836,-0.076969,-0.04483387655221368
1.3425,-9.970680080612972,-0.2289763747042065,0.8582158761653611,0.05386880103349962,-0.07711215434782609,-0.041915811853171774
1.345,-10.01091624572895,-0.3280385143319967,0.9337092589767457,0.051771923226944676,-0.07793930476984758,-0.04245310587008818
1.3475,-9.999857006312752,-0.3350758299246189,0.7879328094883767,0.05074436919967926,-0.08243464341940643,-0.045534927072975045
1.35,-9.704245000186623,-0.2861636078382536,0.3538458265007756,0.052772453934681204,-0.086811340777605,-0.048463022332814985
1.3525,-9.65745127696423,-0.15845667249766537,0.29681584892068347,0.05339540266251945,-0.0873095366842924,-0.049957610052877154
1.355,-10.030146848101264,-0.01979087999999917,0.7712479812658224,0.053486154936708864,-0.08184325620253162,-0.04780407645569625
1.3575,-10.19086143134725,-0.13653679388534698,0.824819790821574,0.05245389556720151,-0.08442517275820359,-0.041090586158187725
1.36,-10.024535304171835,-0.4109523419952214,0.5597135694510746,0.05400636582338909,-0.08206363417661092,-0.043191188219570714
1.3625,-9.933776338202067,-0.2743137965314216,0.5766684677804299,0.05566223166268897,-0.08040776833731103,-0.0510892928878283
1.365,-9.934140363024076,-0.27202855821190497,0.8696407695804239,0.057535378900478384,-0.082003544779233,-0.05014995758450318
1.3675,-9.813281132564077,-0.24953371327691104,0.7188467181690387,0.059297629395637104,-0.08598130766003087,-0.0485203706043629
1.37,-9.82491109629575,-0.16717094895897222,0.41044815081531444,0.056516887771332076,-0.09308899738002319,-0.04903958755194596
1.3725,-9.82094451278768,-0.2058480413500694,0.40119223630840606,0.055081330711950184,-0.09258246029743697,-0.0480259603986921
1.375,-9.767187651813595,-0.23839007410521257,0.4375386465289455,0.05717220826327168,-0.08342328260869565,-0.045204
1.3775,-9.882235773052624,-0.23031515242105266,0.7835330475789313,0.05551870315789475,-0.08014991621052625,-0.049878793263157584
1.3800000000000001,-9.96023475673731,-0.2067146219221279,0.8175956309019192,0.05673781643173984,-0.08534107679645171,-0.05014287321833408
1.3825,-9.937723993490607,-0.21626088620767336,0.684340836122606,0.05674676531535862,-0.08980105526560751,-0.04919248772909647
1.385,-9.8057233815873,-0.2648923424252673,0.44098043025380684,0.054214,-0.0911549361276287,-0.0501316534461365
1.3875,-9.835016933333334,-0.11084688798646636,0.3727963766497474,0.054214,-0.0867674934010153,-0.05361507851099825
1.3900000000000001,-9.821982640134818,-0.27230695651420833,0.5759269619836476,0.053538419104477784,-0.085521,-0.04625276009629273
1.3925,-9.974894504246514,-0.3769314835307364,0.9234993624843624,0.05700758845771154,-0.085521,-0.04612402303322099
1.395,-10.178915082349576,-0.2737464218134163,0.9549956401763339,0.05942955797926843,-0.08454396969855835,-0.053410416966519665
1.3975,-9.905169683751186,-0.3201605849007867,0.4660405118236285,0.05857585073700789,-0.08724164219842517,-0.048856594072440945
1.4000000000000001,-9.65450035762634,-0.32975114860163474,0.18540003739133865,0.05817297774383094,-0.08688491083431195,-0.050661268037603326
1.4025,-9.955079224012007,-0.18139751071918964,0.7592505925602099,0.05914195517486374,-0.07926,-0.05584678082892546
1.405,-10.13032,-0.128527,1.140005,0.056963,-0.0797351781240569,-0.053451
1.4075,-10.13032,-0.128527,1.140005,0.056963,-0.08316880440314507,-0.053451
1.41,-9.905597523486115,-0.2333829997223392,0.6799745316967853,0.054707848598501606,-0.09067701572498857,-0.051715945513442135
1.4125,-9.96749828276689,-0.368135960054791,0.6300069536169863,0.053145,-0.0998228458351168,-0.05024358560054798
1.415,-10.029646718396158,-0.3656382867803091,0.6729968453685482,0.05422629465546229,-0.0976590461944777,-0.053253462866746794
1.4175,-10.015541,-0.228957,0.708991,0.058948,-0.09076197815668949,-0.057727
1.42,-9.96648669727406,-0.2183033497233751,0.6748050795789061,0.0585592521222982,-0.08718057493560268,-0.05590252885205541
1.4225,-9.802796615263514,-0.20652446040027078,0.6016617135023432,0.05734200100066716,-0.097128,-0.04824258573715809
1.425,-9.948147654781806,-0.3000181465181068,0.7498737251624854,0.057381183101206955,-0.09566082506963773,-0.04913937660167145
1.4275,-10.011152711712558,-0.3703595608501142,0.6995475556061763,0.05576085413256619,-0.09189859311923913,-0.053295698615628474
1.43,-9.954551525525028,-0.36412476154100426,0.6445048485130452,0.05759015176885091,-0.08846251353535381,-0.05502212940568491
1.4325,-9.812646914879025,-0.1957457577872324,0.638024823703348,0.06163677301884497,-0.0881518857434652,-0.051804945570820576
1.435,-9.809055998927048,-0.16028393488726975,0.7299936739044979,0.059896195093074145,-0.091172,-0.05036015085674648
1.4375,-9.97661624394801,-0.17364172981316003,0.7327123423233144,0.0533179953696182,-0.09064622233956134,-0.05032624532900081
1.44,-10.05009845164994,-0.26921654767794284,0.7470967372882112,0.05283721995799292,-0.08956205381563591,-0.04739356362193701
1.4425000000000001,-10.100811029243099,-0.4320823018903226,0.9114258484387474,0.0565739190291717,-0.09093242151691955,-0.04677037259587706
1.445,-10.027918255688101,-0.38971470303215294,0.9669369938745942,0.06163716311897105,-0.0903127716688105,-0.05226850348553062
1.4475,-10.000706697,-0.3327755089999998,0.8102279849999995,0.06112299,-0.09868030700000002,-0.05522879200000001
1.45,-9.81496816040955,-0.42121536459927533,0.3485475744380306,0.060413782864540355,-0.1000142066376367,-0.05572959797575607
1.4525000000000001,-10.094853807536786,-0.19790020144280468,0.6950482947888154,0.06298007787375412,-0.09895229674418529,-0.057735383028001734
1.455,-10.157569568907942,-0.11326078241614218,0.9769269828869261,0.06221402663976459,-0.08561497336023542,-0.05452738349558631
1.4575,-10.052701390587641,-0.14646084068600274,0.936876580694409,0.061406548189995795,-0.08642245181000421,-0.05197007456242116
1.46,-10.06637895370707,-0.16913999497226273,0.9507283458704104,0.062209971953263235,-0.0957890735748848,-0.05212142876903102
1.4625000000000001,-10.150128691089112,-0.266619,1.0130149641648032,0.065821,-0.10053085570105375,-0.052993
1.465,-10.144710002688855,-0.26054871867441365,0.9503676046301116,0.0651010040709909,-0.0971911852866343,-0.05365750933877822
1.4675,-9.851817709602637,-0.21919938316318474,0.5585316999465955,0.06019656033296681,-0.09970598904350561,-0.058183991411968006
1.47,-9.752509,-0.184122,0.285748,0.058948,-0.10132440384602993,-0.056963
1.4725,-9.752509,-0.184122,0.285748,0.058948,-0.10330198879690765,-0.056963
1.475,-10.12543199256994,-0.24824317399482537,0.9107013639313355,0.06419939181754014,-0.0935052181518917,-0.055569235034093646
1.4775,-10.021317483262811,-0.24646851658615543,0.8913585234018586,0.05937685704525019,-0.08631847970272702,-0.055617346864848656
1.48,-9.9990135448997,-0.26675854415416167,0.932581156670352,0.05801461812983728,-0.0887552252440372,-0.05517018895909019
1.4825,-10.031191296483966,-0.31774971349865594,0.9711951210740788,0.06282024640972977,-0.09975856540514895,-0.05542276807771283
1.485,-10.166793420302167,-0.23333212696125682,0.8296659482767185,0.06282803265704871,-0.10817428320799657,-0.05915861402249245
1.4875,-10.021119880826191,-0.13365650931070427,0.6828382665118856,0.061580057049075286,-0.09492616285325428,-0.05930927619886308
1.49,-9.85724712931186,-0.17166794770131744,0.5705394040409948,0.058917401991215236,-0.09335214489019031,-0.05400150945827233
1.4925,-10.029584100400191,-0.24712891485927907,0.8096700010541669,0.056442237234423355,-0.10377308320806872,-0.052438965752399584
1.495,-10.254232665085645,-0.2943113802294562,1.1744678254188154,0.05852254520823508,-0.10323293794750871,-0.05498646303944664
1.4975,-10.124195563290899,-0.40415395964168077,0.8922281786610029,0.05776779460631776,-0.09555689361621861,-0.051211062102781625
1.5,-9.854722202846975,-0.36227779715302494,0.6963813274021352,0.057691960854092526,-0.09895619572953737,-0.058334138790035586
1.5025,-10.02252633466905,-0.21461129105545626,0.8497663331305931,0.06228657534883722,-0.10288715069767443,-0.060433463613595806
1.5050000000000001,-10.06480426505646,-0.20155847272182242,0.7110846138925934,0.06182005374971191,-0.102014,-0.05716264314358166
1.5075,-9.98462817379377,-0.1544600289656281,0.6442019260674563,0.06441907730837522,-0.09989704879457786,-0.058828166354687676
1.51,-9.83897202033849,-0.2156446917698277,0.8158890570116061,0.07031558852030945,-0.09518010715667313,-0.053603571373307485
1.5125,-9.84072171077122,-0.35385180988293385,0.8556460150950056,0.06722258270486503,-0.10249433926701557,-0.05440699078769328
1.5150000000000001,-9.947989,-0.374223,0.852463,0.065515,-0.10908385933756146,-0.060018
1.5175,-9.905665810894472,-0.329975360866277,0.6633800380442665,0.0631983961557381,-0.10888303338652591,-0.058683849502669576
1.52,-9.815670971198406,-0.2465188600696155,0.47461432652411906,0.06171209863749385,-0.10675259462953737,-0.058239859850820544
1.5225,-9.882073369191405,-0.19363813332367846,0.7481061072556078,0.0600284568283853,-0.10029948404537775,-0.06075576951967172
1.5250000000000001,-10.029674177487092,-0.20915401466437608,0.9450663663338957,0.056447336729776414,-0.099266,-0.060643204956970516
1.5275,-10.031085,-0.261836,0.805834,0.05849,-0.09987720656161367,-0.057879
1.53,-10.03444216258988,-0.2619759305240642,0.8360489313039926,0.05913325921513785,-0.10074283997367332,-0.05811135954915674
1.5325,-10.05919563008803,-0.26300768444919786,1.058833589469352,0.06387622165693126,-0.09586788894446735,-0.05982462317400245
1.5350000000000001,-9.92486392877639,-0.38753351217145265,0.7638293623420936,0.06265296226122133,-0.107665,-0.05620294119207476
1.5375,-9.990766061156492,-0.40476950667205885,0.7465925198220779,0.06498416761827748,-0.107665,-0.06241977148402772
1.54,-10.099411555771164,-0.4125318731093923,0.8855691767334255,0.07057381759834036,-0.1065723360089363,-0.05921559044442671
1.5425,-10.024889285387378,-0.49255596729912976,1.0106068239048902,0.0696794365690577,-0.09928928001276635,-0.058959574920609596
1.545,-9.913458494868006,-0.3146833767234861,0.9425965867853443,0.06687927029114514,-0.10020798990797983,-0.06305036581384825
1.5475,-9.790530398225972,-0.3695283780208197,0.6910664726806358,0.060839953398702434,-0.1097502055061099,-0.06292935802383466
1.55,-9.94583193982217,-0.2528826331476012,0.6022012933728538,0.06579594662714872,-0.11629698762299934,-0.06321620324836986
1.5525,-9.951776563926495,-0.35989456890100735,0.7448847031274446,0.06152456887255485,-0.1124998620841731,-0.061792203475992895
1.555,-9.953647388967731,-0.19044746300632373,1.0707688742340105,0.06768373854408594,-0.09841786834628007,-0.05877334543445192
1.5575,-9.792004448335062,-0.3049015445695572,0.7916605654712783,0.06460611298150064,-0.10111089568030762,-0.0553111216433089
1.56,-9.908793944729219,-0.5088996632169762,0.7027047192160535,0.06163502254435842,-0.11395328792299671,-0.057278260688855547
1.5625,-10.046179517449827,-0.446280802611429,0.857806513097445,0.07136047013782541,-0.11188391625695172,-0.061308078584669946
1.565,-9.947147798709056,-0.40292765691786586,0.9799495082201073,0.07130872742940135,-0.1004251120606745,-0.059274256833951815
1.5675000000000001,-9.88544645315475,-0.29166049440696595,0.942523450037113,0.07014627509440047,-0.10107063690172667,-0.06379631486203023
1.57,-9.918099906256257,-0.20826161938651858,0.7716683128575992,0.06471655949302374,-0.109021747355416,-0.06004674361060803
1.5725,-9.909420033349663,-0.3064032626541701,0.7636568527063585,0.06386331413782086,-0.11302999026094367,-0.05484462729577163
1.575,-10.05529443473586,-0.34392807494156075,1.0719431896213194,0.06695030297646876,-0.10618599666510836,-0.05560460261804586
1.5775000000000001,-9.90877076782608,-0.3859323921739152,1.0094257060869534,0.06732450260869567,-0.10269237739130417,-0.052859382608695514
1.58,-9.977833893927631,-0.5383014551833118,0.7611848861634161,0.06864004918284222,-0.11546074544931771,-0.05741929365923843
1.5825,-10.003839074118428,-0.4809786960881877,0.6595010710800557,0.06906764296367689,-0.11988980811035478,-0.061328040260225286
1.585,-10.031256110841404,-0.44587063802077803,0.7738607668899458,0.06935485655268984,-0.11446186207958954,-0.06233357658069776
1.5875000000000001,-10.004388620147488,-0.1857627841832716,1.0399993369213831,0.0722035561587947,-0.10009571743292017,-0.06521869345677045
1.59,-9.860043215682001,-0.18195715197948908,0.9713168694790825,0.06861883364641767,-0.10174081652829005,-0.0595317951594805
1.5925,-9.89520975555057,-0.3442183635839094,0.9482083653726556,0.06784908239140888,-0.1099542977143774,-0.0536284080782176
1.595,-9.977323651185943,-0.37199517114689923,0.7249930391865917,0.06878060075483984,-0.114537,-0.060949285485602724
1.5975000000000001,-10.125697922811137,-0.5305660639531569,1.0431540604587783,0.06213723125427,-0.114537,-0.062251689546120134
1.6,-9.862141501926573,-0.30246382705769254,0.7804560820507324,0.0681281073316921,-0.10546839340682872,-0.06218250221556243
1.6025,-9.766871251257625,-0.3672077554404376,0.7579806641164505,0.06572860450818792,-0.10761088680723539,-0.061411473946269925
1.605,-9.866198694729574,-0.2608868683084007,0.881559012299196,0.06969950962485616,-0.1134982150149597,-0.058826877238204865
1.6075,-9.85078510312087,-0.3150898117411586,0.7234595137711808,0.06889788015491372,-0.115454,-0.056851434629659435
1.61,-9.720826084167548,-0.4730873681473569,0.7226262824873955,0.06923134336735927,-0.11431951582306671,-0.060708486429661285
1.6125,-9.825575263515798,-0.3173080055461778,0.8940578288883546,0.07643366684350138,-0.10879350094043884,-0.06495291584277782
1.615,-9.963392564890897,-0.31587713055939043,1.0006602507339515,0.07833109173371422,-0.10816071823534076,-0.06026886958978021
1.6175,-9.993234091029118,-0.37506513981432843,1.2155255621677326,0.0723589592827106,-0.11527602566373069,-0.06090452146949138
1.62,-10.167050249137928,-0.2152700045785474,1.0471609339463583,0.07052097536398455,-0.11480449655172396,-0.06396921362068948
1.6225,-10.094998313505746,-0.2933248034546632,1.0071329178033197,0.06732536300127707,-0.11058608735632175,-0.059878863275861983
1.625,-10.063717544010588,-0.4540454731965586,0.9906404976836531,0.06866037260092654,-0.11430847518199867,-0.057693117802779616
1.6275,-10.175727285903372,-0.40633734708140407,1.2509593786366588,0.0705149850165453,-0.11722311396426202,-0.06325695504963588
1.6300000000000001,-10.173361,-0.331181,1.184242,0.074526,-0.11358345306122443,-0.06857
1.6325,-10.173361,-0.331181,1.184242,0.074526,-0.11215681904761901,-0.06857
1.635,-9.7454683932844,-0.20549605402467588,0.6323326542433251,0.07076876529126971,-0.11604691508980164,-0.06252176529126972
1.6375,-9.92706953974699,-0.18983291931906945,1.1037095715133447,0.07114378310167108,-0.11217063929408097,-0.06289678310167109
1.6400000000000001,-9.998939297841435,-0.385426587509518,1.0316964860359337,0.07544965834249473,-0.110872,-0.058639781488372164
1.6425,-9.936984085122619,-0.4715672167526452,0.887908008065535,0.07587307909513742,-0.110872,-0.060078525302325624
1.645,-9.890584518486282,-0.43603977955219136,0.9372396710606544,0.07621008457479239,-0.11551358410596028,-0.061161945943445824
1.6475,-9.832927718940399,-0.3803604270198684,1.0166406719646788,0.07663114631346578,-0.11829126887417214,-0.06250890260485649
1.6500000000000001,-9.889469483305895,-0.3627870613067741,1.0014834974980913,0.0748256768001284,-0.11927865925063255,-0.06302903009517692
1.6525,-9.955675765964422,-0.34843856983093,0.9783239525609406,0.07283177801694705,-0.12011453867716158,-0.06347918380145377
1.655,-9.656136882498288,-0.3340291866042491,0.720456225887191,0.0753192596894268,-0.11320953364695144,-0.062591830280886
1.6575,-9.774277353193606,-0.45360277344254313,0.9391279427350812,0.07476297111378787,-0.11984002839476426,-0.060255508272705344
1.6600000000000001,-9.961951385499212,-0.5248636233070886,1.1017676174487958,0.07330322725039382,-0.1224974257889759,-0.06265845159055126
1.6625,-9.95504151735433,-0.5584263118110249,0.6945692280314816,0.07544744132283472,-0.11404937096062961,-0.06404554425196855
1.665,-9.648086090762753,-0.5483836622554963,0.5575459357042686,0.0822647410388394,-0.116064,-0.06700129896116062
1.6675,-9.827033552977097,-0.3477227671246842,1.0815790116641213,0.07946834023409667,-0.11778472624936383,-0.07209761398473283
1.67,-9.99315859824973,-0.1681787238847407,1.0716048879686972,0.07695285424404147,-0.11937947590181433,-0.06989887659907514
1.6725,-10.09350631427962,-0.09161700879402049,0.9682835332526937,0.07002141002253028,-0.11823988156527922,-0.06743006639155688
1.675,-9.733715895840104,-0.39933,0.6426324365791436,0.074678,-0.11719552823611425,-0.06017
1.6775,-9.726490890516232,-0.48609582690083336,0.9712231785843527,0.07708428930282063,-0.11306837716515879,-0.06199285963455738
1.68,-9.846680068403142,-0.5325195645392308,1.1857536498400552,0.07888715227215042,-0.1127047037928404,-0.06577777576034499
1.6825,-9.726749092087381,-0.37782978442174775,0.6464007412538267,0.08115054046069836,-0.12261560274044203,-0.06529214106862963
1.685,-9.719421916614545,-0.37426267582705347,0.5988848313451387,0.08345900893368505,-0.12617845935380564,-0.06609521701582519
1.6875,-9.716764424406556,-0.3730818425489827,0.5669998635079125,0.08572190231725697,-0.1296478670403165,-0.06699997927656368
1.69,-9.874950538673009,-0.32856056639618747,0.8574603360763323,0.0840425789212413,-0.11652576007637203,-0.06502001958949909
1.6925000000000001,-10.026719599640929,-0.490838210953934,0.9646222395212234,0.07486977476002354,-0.12640334589587116,-0.06025595648114892
1.695,-9.977217080757857,-0.5620350151801364,0.7897962075383913,0.07805344808382383,-0.12726943956365724,-0.061860576414525664
1.6975,-9.931031273793598,-0.6232162465929862,0.6272456058408683,0.08173081379838286,-0.12780574296732214,-0.06362300284771065
1.7,-10.123145,-0.445361,1.199187,0.088423,-0.11418971266629045,-0.06353
1.7025000000000001,-10.123145,-0.445361,1.199187,0.088423,-0.11173714556478259,-0.06353
1.705,-10.159590078675237,-0.4493679799292588,1.097165856514456,0.08425584603215441,-0.12123534853376218,-0.067653
1.7075,-9.965591717980706,-0.3919247276591636,0.6225014628424405,0.08670196142765275,-0.1256125632990354,-0.067653
1.71,-9.845331840403189,-0.3755967145804047,0.9987595507829302,0.09111834375058615,-0.113163,-0.06210164933895949
1.7125000000000001,-9.952906498956091,-0.387594781797459,1.133604141360695,0.08529904912406981,-0.1186930034437249,-0.061721595680345895
1.715,-10.061950242296632,-0.44365481771916215,1.1468582790775452,0.0815715621355237,-0.12436264165534659,-0.06667708743642393
1.7175,-9.92432443526457,-0.5198931332585698,0.8458651262486147,0.08460748032854212,-0.12082156522508289,-0.06629780469436108
1.72,-9.862235456353908,-0.5035026777595422,0.8767938623760209,0.0918192559115234,-0.12089231209418479,-0.059371696482340246
1.7225000000000001,-9.891944666968426,-0.5226943259885501,1.1970820601144017,0.08971038958799625,-0.122326,-0.06715888190997281
1.725,-10.129765099954957,-0.403479030914832,1.2127129362775992,0.08874701505182525,-0.1244124529067152,-0.069486
1.7275,-10.173528578002864,-0.3963471125083603,1.1579140470329665,0.09247228823698048,-0.12291666429049203,-0.06721523782130909
1.73,-9.983411148775897,-0.37428172519773856,1.050109047758949,0.09557782704331452,-0.11842387713747642,-0.06334076482109234
1.7325,-9.884107682304588,-0.5241329694091708,0.9796548656440344,0.09499,-0.12279734071192651,-0.061087
1.735,-9.878997946352099,-0.5042097585050211,0.701066302785942,0.08624785754418714,-0.12952281527369022,-0.06755284507046667
1.7375,-9.920161364521404,-0.5219362407943337,0.7778829444693383,0.08426922573106498,-0.12705701158806068,-0.06883379246836592
1.74,-9.957020599899547,-0.5274945007874277,0.9686693476798441,0.08575676594296822,-0.12065400372002597,-0.06888833090732338
1.7425,-9.882880398421907,-0.38733920269280975,1.059566887744651,0.09198332303953323,-0.11118420037589136,-0.07278056618924164
1.745,-9.834946379095472,-0.21269944241206465,1.2695553700502304,0.08385121125628126,-0.11643455557789012,-0.070555
1.7475,-9.734947340141979,-0.31519760004466996,0.7845640875935128,0.08027482856823794,-0.13227234383345332,-0.070555
1.75,-9.749685033440704,-0.41320749171303073,0.6459955544363104,0.08824565423133236,-0.13428983929721816,-0.06781133159590044
1.7525,-9.830081796408782,-0.4102708648128844,0.8985663472538745,0.0914346762916544,-0.12387961361522717,-0.06593586974875554
1.7550000000000001,-9.931365371805569,-0.27262278115394584,1.2969930642992817,0.09130880334658753,-0.11518319929562622,-0.06354777537937197
1.7575,-9.96900791427737,-0.403861133996595,1.3855029875062914,0.08806003018420831,-0.11856216163921132,-0.06471777619086265
1.76,-10.081584717044404,-0.3280738535461918,1.1996434533926539,0.08484548787228473,-0.13371333420919487,-0.06637879937887116
1.7625,-9.955895257228777,-0.46993555851863406,1.031465396771388,0.08718340647305524,-0.1292706278547124,-0.06069233109124002
1.7650000000000001,-9.78894618799741,-0.5677695711989685,0.9232132954245019,0.08979228930654533,-0.1271565083862605,-0.06164382226830889
1.7675,-9.842266073726508,-0.6779643414906058,1.0070016872845131,0.0823977218405701,-0.12676745475048606,-0.06968652930654592
1.77,-10.142726985422758,-0.4633425876785026,1.1242188710420047,0.08947000381217607,-0.12917600381217606,-0.06570567898816429
1.7725,-10.117250434598752,-0.456236692801539,1.1074476107448334,0.09063106883229215,-0.12829415961556948,-0.06395125541566551
1.7750000000000001,-9.97903410900472,-0.42311673364930313,1.123044596777243,0.08988694161137364,-0.12222571327014124,-0.065668
1.7775,-9.870185205331724,-0.5354831417322096,1.105495794784078,0.08606988747406512,-0.123928130706876,-0.06544763625572979
1.78,-9.849321642077884,-0.5935146712650287,1.1177407764536857,0.08499992135500942,-0.130267,-0.06655815728998118
1.7825,-9.902407734708506,-0.6195835788672965,1.0736609407485826,0.08124645535576563,-0.130267,-0.07406508928846872
1.7850000000000001,-9.874060877596754,-0.36984317576730363,1.0203423509147251,0.091080946699515,-0.12659658197886006,-0.07452443032981
1.7875,-9.812786306127313,-0.344436686783755,1.0024083096717789,0.08700847518079935,-0.12125161935945304,-0.0736336032265755
1.79,-9.839607985176793,-0.37863395358927576,1.0467830622843042,0.0869182396296592,-0.1328337961082289,-0.07153105776039571
1.7925,-10.002709299414157,-0.5782575825077806,1.3034418941910748,0.08704545134009099,-0.13091641434112858,-0.05964513202649861
1.795,-9.786721391762054,-0.5863572285423286,0.8387119488756454,0.08953506494300116,-0.13510896842543843,-0.06670156218505863
1.7975,-9.71635193636479,-0.6262578480712937,0.7828512028910343,0.0834193323441928,-0.13260721572131232,-0.07040837937387896
1.8,-9.667183817095228,-0.4775995579460509,0.7271272281670237,0.08670373570810724,-0.13257361626169686,-0.0738225182354329
1.8025,-9.763301222395219,-0.16361383517496375,0.9045762678839343,0.08556998403711567,-0.12816641431155149,-0.07508160100023589
1.805,-9.812511403827553,-0.3785141885110683,1.140064554031764,0.08175534773491905,-0.12744884956106722,-0.0643944409044677
1.8075,-9.9728874972913,-0.4927885441076647,1.2151032483937125,0.08037704581801106,-0.12707309820514825,-0.059131460668179106
1.81,-10.224482288020432,-0.6303362619501598,1.4594848409472252,0.08930040575762278,-0.13068558671103547,-0.07025814479492343
1.8125,-10.188811097964072,-0.522702548742515,1.3747076706586827,0.09153854682634731,-0.131489,-0.07256804862275448
1.815,-9.930654,-0.464491,0.924199,0.087659,-0.13189476189646826,-0.074831
1.8175000000000001,-9.930654,-0.464491,0.924199,0.087659,-0.1344768866376392,-0.074831
1.82,-9.963481927358801,-0.24948516767127962,1.2340875453042726,0.0805640871338177,-0.1307793807733773,-0.06662729244590251
1.8225,-10.001677420135927,-0.4081411630716356,1.2179284493336457,0.08194023562221701,-0.1400364367658777,-0.060623025529255505
1.825,-9.923017434248282,-0.631893488928593,1.005061822781658,0.08708327326078708,-0.135307,-0.0657269392019923
1.8275000000000001,-9.94711293980835,-0.5083646395972004,0.9901299325060898,0.09323871128146856,-0.135307,-0.06702694409615079
1.83,-9.865792177242508,-0.5482637290636665,1.1979629027528054,0.09247625350655429,-0.13009092394194774,-0.06982076447097386
1.8325,-9.828741632823034,-0.40960231662921254,1.0758082169101115,0.0918202798735955,-0.1361818446910113,-0.07253854484550563
1.835,-9.858389128309506,-0.40668311937163304,1.1624944248253346,0.08934383063071479,-0.1338996276764364,-0.07040401171395116
1.8375000000000001,-9.530534687881314,-0.6204926346931647,0.7156900990788206,0.08941704526857237,-0.1346273152051685,-0.0635113402320852
1.84,-9.519965,-0.63845,0.8903897424168788,0.089034,-0.1355799790955729,-0.06353
1.8425,-9.519965,-0.63845,1.0898871540528239,0.089034,-0.13618864329469885,-0.06353
1.845,-10.217018779194413,-0.509796668516882,1.6686227527729929,0.08968615611641441,-0.125075,-0.07287010220256114
1.8475000000000001,-10.020884553998034,-0.4329733978310203,1.4257268394625782,0.08925615823891195,-0.1272517041437362,-0.07271102879896435
1.85,-9.687911658126048,-0.5108395733608778,0.9873435405865112,0.08457228915203055,-0.13351223409361854,-0.07728981484542644
1.8525,-9.8014925304522,-0.34594822654692603,1.145261602835574,0.0853356171469443,-0.13860303182388944,-0.07932563394103158
1.855,-10.003114150676428,-0.3938856060194171,1.3396868905140842,0.0885410457838612,-0.13833077764443738,-0.07026042776062398
1.8575,-9.966185248628225,-0.45908399166625574,1.4330249660957037,0.09381456266993848,-0.13164507866012293,-0.0613951018895708
1.86,-9.840901207263476,-0.5597448629988874,1.1074144533502912,0.083383,-0.1327342387979014,-0.067501
1.8625,-9.832926427476545,-0.5722038933057721,1.0346535496263305,0.083383,-0.1404997702337416,-0.067501
1.865,-9.998981847401044,-0.670300519702845,1.2776234116355183,0.08559015255716769,-0.13746197029831692,-0.07288446593615786
1.8675,-10.035440866593378,-0.40097887738024607,1.4586961943961074,0.0939671552882048,-0.1296283040741324,-0.07391983618658723
1.87,-9.830213446091461,-0.292931731312741,1.2923012417206217,0.0939507637478368,-0.12699959736959285,-0.06753095601483272
1.8725,-9.698708,-0.426829,0.988163,0.093462,-0.13902483581573905,-0.061545
1.875,-9.729684978969262,-0.4817050844310916,1.0345825701409752,0.09404906786842308,-0.13718882990524614,-0.06356437200523843
1.8775,-9.89241903057083,-0.7699903805654356,1.2784425259533112,0.09713316244357131,-0.11337958747400097,-0.07417291418842901
1.8800000000000001,-10.071783291832677,-0.44840936255257685,1.7382835461639752,0.09583149764584468,-0.11366994596396579,-0.07578895738709422
1.8825,-9.91605739663465,-0.30362780769902015,1.60693564891499,0.09074799720295249,-0.12231306189380131,-0.07604363177077546
1.885,-10.050952093254143,-0.35156896809002847,1.1943800899656136,0.08545360658955925,-0.14826630155673648,-0.0741595442825883
1.8875,-10.05487073222882,-0.4534617759924958,1.0038196758362021,0.08995897611753666,-0.1513949848702719,-0.07140699130978435
1.8900000000000001,-9.77131373066244,-0.7494200007606995,0.9325824936038246,0.09991357515055459,-0.13346933103011085,-0.06373301816798776
1.8925,-9.750949587093501,-0.7921357631695733,1.35875385801586,0.09826426979397777,-0.1315666059587955,-0.07248887703328075
1.895,-9.98557840565676,-0.4051610269862573,1.3720678178076064,0.09544294177692556,-0.13301440334931292,-0.08034736425055923
1.8975,-10.084240560210928,-0.36609662803451637,1.407125912483221,0.09736231507190794,-0.13787692740172575,-0.0726707088590605
1.9000000000000001,-9.830873595212555,-0.38166819348331205,0.993243592458581,0.10070605330237756,-0.1357017209670964,-0.06938412852453747
1.9025,-9.85998037261068,-0.45744503950684734,1.1964856761860603,0.09801388835801769,-0.13736889888399653,-0.06553853837482976
1.905,-9.996733420412466,-0.7977495540513276,1.4797750326810226,0.09196910726397814,-0.1364506129101742,-0.07089950757561873
1.9075,-10.001841453695565,-0.6892997572881363,1.2461877165582678,0.10048865783472548,-0.1390147404200795,-0.07420848393804229
1.9100000000000001,-9.943299980294896,-0.6037006870163473,1.2754300989767207,0.1021762581065186,-0.136963988484409,-0.07703143223914281
1.9125,-9.886732131206186,-0.44207922662153964,1.3880605611151438,0.10566052804769974,-0.13683472240754171,-0.07909546508742252
1.915,-10.032288676520945,-0.431604022777785,1.3400568381147562,0.09493989338797792,-0.14102323621129362,-0.07500949372495438
1.9175,-9.863395905498578,-0.5390293291808442,1.1034623630368738,0.09202876974995458,-0.1435482327613974,-0.07519591597747773
1.92,-9.687717648349688,-0.5233901741596858,0.7843011611422213,0.09425632741804241,-0.1395357400047858,-0.07623611505463838
1.9225,-9.590719559135355,-0.5783891855723081,0.7063023958618458,0.1007700945776504,-0.14106883389327599,-0.07189360361489971
1.925,-10.068131491511387,-0.416400708106387,1.6598211189679895,0.09786822334766689,-0.13761991928651052,-0.07596694677496409
1.9275,-10.131024341863354,-0.453338004261825,1.7107344185379836,0.10131170752030576,-0.13417727010033448,-0.07188636793119925
1.93,-9.537669999265548,-0.6043772997175172,0.8357021273446714,0.099876,-0.14292539994350217,-0.07189653067796582
1.9325,-9.567567389794464,-0.5546839839866146,0.7603995631787936,0.09929917088432119,-0.15037495230879547,-0.07294656780592725
1.935,-9.883754221595915,-0.5544905037984162,1.3250755911339542,0.09694350047596804,-0.14945351542697127,-0.070304673373775
1.9375,-10.135025876945091,-0.6100747081023072,1.5656717286710784,0.09329628200083467,-0.14430892046741786,-0.0708970509747809
1.94,-10.080477169336142,-0.6456189127863011,1.3692159266612927,0.09247310857050554,-0.141873,-0.07313613571313192
1.9425000000000001,-9.707371437686948,-0.7175059027006979,0.8994162782942764,0.09402454713616548,-0.141873,-0.07507543392020684
1.945,-9.797199093739632,-0.46676616369754903,1.2819751100579977,0.0994856283797614,-0.14512555914496889,-0.07870183576577584
1.9475,-9.942904897777776,-0.36505933415807634,1.437779086506299,0.10022357392898049,-0.149815,-0.07312713131729666
1.95,-9.790857196349531,-0.5464287685147146,1.1247369074606468,0.091783,-0.15051423604836864,-0.070097
1.9525000000000001,-9.857932893187986,-0.6015413712107854,1.1036927064492121,0.09344953607389557,-0.14866963320629042,-0.07072762904884757
1.955,-9.912411212060043,-0.6578515182336372,1.4294240535653804,0.0956272748836195,-0.14118028378507771,-0.07236857898629542
1.9575,-9.959581147657428,-0.6056267995513076,1.3911012333171096,0.09044491561991808,-0.14717661911330052,-0.07848496801471902
1.96,-9.97674241772242,-0.4474528192313201,1.2574919083131648,0.08867850545195716,-0.14803316728825636,-0.08382209937841058
1.9625000000000001,-9.939271352524196,-0.42435262657814654,1.3727285477878233,0.09718361014481187,-0.142175130426434,-0.07371506445315565
1.965,-9.840599292351142,-0.753192313033656,1.3707963203012463,0.10153994692398204,-0.14216760956460375,-0.06548615466227377
1.9675,-9.84994409768573,-0.7846643999435164,1.3353897083988386,0.09940446147956379,-0.1522173883298032,-0.0744056726414059
1.97,-9.879226738198073,-0.599351712792288,1.3278123552105412,0.09954504143966117,-0.14738909553516824,-0.08485800561750191
1.9725000000000001,-9.766001095906821,-0.334722655868785,1.2055273877252244,0.10515832687425727,-0.1454710362633708,-0.07527742108866163
1.975,-9.742719564194255,-0.2976415781059034,1.2986655641481204,0.10445520327604062,-0.14944546000692133,-0.07360093934709888
1.9775,-9.77134412188707,-0.48618225483256017,1.3286944539134649,0.09740944619897342,-0.15278785838181377,-0.07318910564654114
1.98,-9.838178165770769,-0.5800224134808173,1.1110908361779237,0.10199901889385733,-0.15510256254648153,-0.0702258560131796
1.9825000000000002,-9.83175994352999,-0.6981160809263706,1.1942759170648534,0.10497817275475375,-0.15397111190638707,-0.06991773239395435
1.985,-9.909149995201627,-0.5902507745951828,1.337824362147557,0.10517857837449211,-0.15236481147546085,-0.072912843122851
1.9875,-9.950298982260081,-0.509422085229758,1.6180299936073823,0.10755663991872463,-0.14685888607377295,-0.07591614965614259
1.99,-10.041625997923576,-0.4960009034078342,1.3208960303965391,0.1045549137322759,-0.15241769997596727,-0.06930073240086516
1.9925,-10.065228407959625,-0.6230463480477418,1.397726083479931,0.09968037513738698,-0.1597299278699029,-0.07455999246335002
1.995,-10.128536500096779,-0.43654739496693645,1.7486634143377928,0.10647015840296818,-0.1456465158928858,-0.07806404823358555
1.9975,-9.849447654024836,-0.5836761907081819,1.6677679495466993,0.10556603859009515,-0.14202919087917398,-0.06618108904662018
2.0,-9.615288025454836,-0.8974332917331631,1.127479439514842,0.10216106750718161,-0.16330173467922118,-0.07167940983083307
2.0025,-9.80285946241621,-0.7873913820491565,0.9274032400893755,0.1039499723013086,-0.1681572138748802,-0.08662990134695148
2.005,-10.079025538598506,-0.37811008201852603,1.445055178713074,0.10793852682238879,-0.142637,-0.08308231085941022
2.0075,-9.988628102948615,-0.3165114311878663,1.5393126924178597,0.10444268215669782,-0.1454139334962087,-0.07923376869418697
2.0100000000000002,-9.900859704222723,-0.3765036863191265,1.5175864412240556,0.10070338765202282,-0.14931693227857132,-0.0790598125214918
2.0125,-9.811869269721582,-0.5515180421011245,1.3475159984698988,0.09842991543497105,-0.15436918465178676,-0.07438633434813437
2.015,-9.838281946110763,-0.5939265450289876,1.3834472551384551,0.10040073358016807,-0.15969048931745014,-0.07547950504185487
2.0175,-10.025971479761756,-0.8234915992981391,1.649844132202197,0.11341931439150069,-0.16033445542176433,-0.08347126787508072
2.02,-10.071709628329899,-0.2747082465744388,1.6833430693094713,0.1155792625560723,-0.14969274914228528,-0.08471648637193142
2.0225,-9.930008350392656,-0.20644123911697276,1.5840792738140945,0.11605024830281979,-0.15129521178783775,-0.07689244398657807
2.025,-9.729793,-0.553563,1.088594,0.111483,-0.16241959419445062,-0.06521
2.0275,-9.825196211175173,-0.6569758041288905,1.2429119789289793,0.11111915766739365,-0.16094011795816285,-0.06902945126241761
2.0300000000000002,-10.015939618141173,-0.8725492289897625,1.570236372483934,0.11121467454242984,-0.144317,-0.07853655039695774
2.0325,-9.815286986089834,-0.7066630269328766,1.3556783315806822,0.11679777470881908,-0.144317,-0.08145521570715497
2.035,-9.683102852019275,-0.32589556143755816,1.305414355509455,0.11441139362726949,-0.15832823659133055,-0.08264073836235619
2.0375,-9.732107694413886,-0.38230428006356715,1.4190101771910564,0.11535614665688793,-0.15861953599804415,-0.07693078085808558
2.04,-9.67380979690849,-0.5249047944668865,1.4163528562382868,0.11521473921245623,-0.15662305564707207,-0.07203298706532778
2.0425,-9.472090304712369,-0.6202118523084517,1.129835687755739,0.10983792071105265,-0.156382,-0.07444181835239894
2.045,-9.611013379554166,-0.6738009229056867,1.324856833546369,0.1021396215370225,-0.1571599261855026,-0.07788671691971943
2.0475,-9.760515962076378,-0.781286909823845,1.556928850756029,0.10551010277162882,-0.16165253902416188,-0.0770130398004677
2.05,-9.86678709498511,-0.569741551976176,1.4064219571440042,0.11045321864284027,-0.16690495497061908,-0.08040125723255195
2.0525,-9.84155813528133,-0.5293752164501294,1.4457787966578155,0.10503941645013236,-0.16587351339290018,-0.08839281930934625
2.055,-9.634894358624996,-0.494163875599936,1.4139685003770386,0.11099148640496918,-0.15915397390995922,-0.0755782336482575
2.0575,-9.837312103006573,-0.6889898767769087,1.4922404598331667,0.11418947334555982,-0.166728750967284,-0.07372238137135448
2.06,-10.00873359721918,-0.7694994904207778,1.554886732528365,0.11065260301500174,-0.16735350504207802,-0.08064340715697059
2.0625,-10.17897843166542,-0.5790746466683262,1.7668138923740768,0.107665,-0.15852,-0.08708067994357314
2.065,-9.98326,-0.511717,1.677427,0.107665,-0.15997390700655023,-0.085674
2.0675,-9.98326,-0.511717,1.677427,0.107665,-0.16780905621971398,-0.085674
2.07,-9.978641013577375,-0.3222402161730254,1.6051751380366037,0.1044793090848581,-0.1637474355407659,-0.08014193610649002
2.0725000000000002,-9.891228109141899,-0.6281841354694839,1.6339812762760504,0.1118378683368995,-0.15588124619919108,-0.06707316146105577
2.075,-9.740408113681223,-0.7649141368753287,1.4889940181100414,0.11574712054945908,-0.162185,-0.07525919087392532
2.0775,-9.814637062856244,-0.5308458482639815,1.370227699430009,0.11385145540380506,-0.162185,-0.08878629312070803
2.08,-9.836307095449758,-0.4595982012575159,1.5083994842044786,0.10419927583807648,-0.16752573330921866,-0.08029190598648855
2.0825,-9.787625480708549,-0.5366235520697915,1.4920609086462044,0.10385847051013351,-0.17033640114474177,-0.07722521581786262
2.085,-9.89899343163321,-0.7444192459281269,1.5415093208723658,0.10573104250805454,-0.16759954892688983,-0.08024372938785625
2.0875,-9.819765956943414,-0.8811273960677357,1.600542287269721,0.10374650090045442,-0.1609849877240812,-0.08077299823213546
2.09,-9.683746820578786,-0.6497662626559623,1.2170149548006655,0.11046155184244333,-0.1611858383344051,-0.08580009254340806
2.0925000000000002,-9.508585142455455,-0.5579722173165468,1.07131320633103,0.10400834180954542,-0.16336338216100715,-0.08944025261458119
2.095,-9.763569089486918,-0.44110992486126677,1.5919547079708858,0.10169160376375773,-0.15781417392652267,-0.08718018131762471
2.0975,-9.97637020102931,-0.5047559361091339,1.9568253466687542,0.10405012767632939,-0.15322228553712575,-0.08134645125406881
2.1,-9.886022487334605,-0.6923023060221486,1.764266723359402,0.09726044137186035,-0.16224967534431642,-0.07941373772616846
2.1025,-9.9233584501006,-0.7244547583165666,1.4341925232478103,0.09823555306863509,-0.1708530671182809,-0.08246497190070838
2.105,-9.885444490456964,-0.7267244186854462,1.339966301517996,0.10178242258841938,-0.17307163992175276,-0.08240751838810642
2.1075,-9.877105931859155,-0.7066144047887329,1.4748494404225314,0.10541633738028158,-0.17006457338028177,-0.08127935563380284
2.11,-9.640773116668262,-0.5208661939837355,1.4408078250852812,0.10797865853977412,-0.1608553576279293,-0.08664312895903095
2.1125,-9.61529253599554,-0.6088016528455221,1.5412340924278582,0.09815066142196786,-0.15945123864179828,-0.08281356158138078
2.115,-9.703637999544785,-0.7672293286308881,1.3967072424324887,0.10329463199908023,-0.16696601819979304,-0.0790158582043918
2.1175,-9.80181501451843,-0.7810387772702709,1.6125498160240443,0.10164701310453883,-0.16477844018029386,-0.08446994541515133
2.12,-9.842875016066186,-0.5926339036595666,1.6443308998770592,0.10075981803782534,-0.16029783639243494,-0.08774220883687925
2.1225,-9.721423,-0.471664,1.501674,0.105069,-0.1625596358686511,-0.08491
2.125,-9.77648491945387,-0.4962605867668444,1.5315350038778477,0.10577453150751333,-0.16992896744223623,-0.08376356543868153
2.1275,-10.099577293562765,-0.6405884578671805,1.7067534258264625,0.10991444984003869,-0.1696705931652933,-0.07703651582161913
2.13,-9.845913304009109,-0.9730868282454546,1.4337177143727513,0.10679415463636352,-0.16633151494545434,-0.07963388929999966
2.1325,-9.653626111320152,-0.7843573605889038,1.2366498277342588,0.1075890010532617,-0.169668,-0.08885941747935293
2.1350000000000002,-9.919294451061834,-0.5137787061679833,1.7404727385642305,0.10232474816164751,-0.16375347787321612,-0.09067710447226565
2.1375,-10.028445942125524,-0.5523093853909274,1.9597358025686078,0.09989078951677685,-0.158105398988602,-0.08275821809279102
2.14,-9.789615718183093,-0.7653499741434792,1.6044943884898273,0.10606005172722999,-0.1618997646059463,-0.07414690639452584
2.1425,-9.700757737195579,-0.9171967069372654,1.3413693051660585,0.10751520915129145,-0.16504402715867175,-0.07914857911439142
2.145,-9.931249085026225,-0.7742712578715022,1.6575991445673126,0.10523321159090906,-0.16810572751748248,-0.08752145424825175
2.1475,-10.117965893230176,-0.6679552627768891,2.105012911798842,0.10300437394331848,-0.16353282298881502,-0.08695711518963929
2.15,-9.983857366920159,-0.7245515063371354,1.8741542437262537,0.10228117794676807,-0.16746643586818738,-0.08305858897338403
2.1525,-9.78424667186313,-0.7324963965779463,1.3656920663878616,0.10202700790874525,-0.1730473786311784,-0.08293150395437263
2.1550000000000002,-9.982161417208825,-0.6970212845376038,1.685806036596797,0.10785588130927062,-0.17496886254007352,-0.08423566142809073
2.1575,-9.901356653186856,-0.6562677512207119,1.716371186584466,0.11153547683443589,-0.17039184769420432,-0.08127364873893038
2.16,-9.929400190807849,-0.6114812406758947,1.8870052730736964,0.11617492812359148,-0.17052621943997406,-0.08131689657547488
2.1625,-9.855257396652716,-0.638212841422595,1.7417452669456015,0.10895942928870267,-0.16717664853556474,-0.0837645301255231
2.165,-9.902315884186045,-0.7553025247397588,1.4705654713621277,0.11030067756367662,-0.177767562414175,-0.07638069415282392
2.1675,-9.814057834485052,-0.9273579045340914,1.5707251323777875,0.10966698664135421,-0.17865423204239836,-0.0765075982249644
2.17,-9.68225929732675,-0.871263722338699,1.4182952426254565,0.11623962185120273,-0.1749510664584994,-0.08707567646327877
2.1725,-9.620344534580216,-0.7933705790919268,1.4707232073729464,0.11879048301417862,-0.17137952672932946,-0.0823556645340133
2.1750000000000003,-10.005357707906752,-0.44435995289414193,1.9064115740221539,0.12221415361887913,-0.17035500910526843,-0.08399094731952038
2.1775,-10.110469698202385,-0.5203769305210127,1.9764852258260113,0.11846231442185023,-0.17465788622789113,-0.08051502012272857
2.18,-10.098102521883485,-0.7235153430862511,1.8801545440012313,0.11469064410973959,-0.17803392983884903,-0.07736442857636981
2.1825,-9.86207112238974,-0.9708798700259518,1.467715749717772,0.11129128287713215,-0.17614548740822253,-0.07786806817703013
2.185,-9.709940459884393,-0.883548,1.3559183151445218,0.117286,-0.1775632046620265,-0.085216
2.1875,-9.73062327226178,-0.7320976179694376,1.6943402672213776,0.11669399679974399,-0.1744936566925354,-0.08635088823105848
2.19,-9.741268993018057,-0.4258537181427331,1.5563480675494463,0.11489771962166816,-0.178525,-0.08713199944969922
2.1925,-9.670712032780429,-0.4826922257015531,1.3133149860329971,0.11201829533651228,-0.178525,-0.07887076478699323
2.195,-9.590488132773539,-0.7951463225752732,1.403246114756382,0.11081871999510363,-0.1702065710354959,-0.07840700551285158
2.1975000000000002,-9.889565294936565,-0.7899933805329877,1.9934172192735156,0.11561678425126924,-0.1698117470875638,-0.0831894792100258
2.2,-10.029667407013369,-0.6945000490303037,2.260473195028855,0.11643043147312548,-0.17411555514921287,-0.08734465303570028
2.2025,-9.905620359895506,-0.5019772456803514,1.7290519233245996,0.10996533334599826,-0.18108697114224684,-0.08924625013535986
2.205,-9.586475735399517,-0.47437840182082747,1.1513218015238145,0.11501244445197746,-0.18128590580468118,-0.08050275856012894
2.2075,-9.614302352736079,-0.6221082883486694,1.3273827051428584,0.11707997566101697,-0.18038120221791765,-0.07378137793704595
2.21,-9.95511640230794,-0.8236806102495942,1.9624965502884926,0.11473591090437611,-0.17298879386061594,-0.07339028820745527
2.2125,-10.077029932188003,-0.8704136201944879,1.9777357415235004,0.10798814589951401,-0.16870696690437617,-0.08403070042139346
2.215,-9.735231100608697,-0.7668807514444691,1.5480723523429916,0.10988695981642473,-0.168904,-0.08697682501932374
2.2175000000000002,-9.791769205342982,-0.5009004326835151,1.7439183991143614,0.1150046112442842,-0.1713189240529489,-0.08362061813718345
2.22,-9.94880265547776,-0.5891058751561347,1.9860682652033659,0.1159660790539259,-0.1739875131882676,-0.07627640276253467
2.2225,-9.882715165005079,-0.8066076625695077,1.7151907690894843,0.11462262998983676,-0.1727684965815748,-0.07721922006097948
2.225,-9.77481945993896,-0.8611733766346846,1.6507739540976651,0.11539658666085464,-0.17198540401046158,-0.08081061238012212
2.2275,-9.736554107668505,-0.6627093313867153,1.9311321891366993,0.11495545243683643,-0.1738461181828657,-0.08352238153896803
2.23,-9.739129325582963,-0.5922578870027676,1.8774736853086287,0.11126262336662257,-0.1778343309878474,-0.08276011019612564
2.2325,-9.704653984173714,-0.5643724594468476,1.652425654281152,0.10704740070400003,-0.179710016265143,-0.07940275406628575
2.235,-9.698834262876447,-0.8443552541763191,1.4219276284298492,0.10829360870012812,-0.175471,-0.07852105499356493
2.2375000000000003,-9.685724532528956,-0.8458675585263836,1.603949018597188,0.11988597400257524,-0.175471,-0.07955174987129998
2.24,-9.751605514643485,-0.7520132665739029,1.7838946445913235,0.11671340639999964,-0.17565621460869557,-0.08341815297391346
2.2425,-9.835514251621612,-0.6327568806682401,2.009523332376299,0.1124936823757573,-0.17472783111462445,-0.08831316546824801
2.245,-9.782647537374318,-0.5778981995136027,1.6425536473146833,0.11400822120362511,-0.17671433020215352,-0.08333096184648706
2.2475,-9.49085817980946,-0.8031735169204601,1.421647734973274,0.1209537885121216,-0.18415612548369623,-0.07328457882425816
2.25,-9.52415,-1.023434,1.671449,0.125838,-0.1817646036077975,-0.079107
2.2525,-9.52415,-1.023434,1.671449,0.125838,-0.17701260483677636,-0.079107
2.255,-9.617503635654717,-0.7249065458693672,1.5652131666145521,0.12539841404783814,-0.1796815765133394,-0.08607212300521327
2.2575,-9.38827755854954,-0.6778122677460932,1.1740398158141923,0.12392490913523468,-0.18090909533578647,-0.08263474875191681
2.2600000000000002,-9.644021049852695,-0.6390124069627507,1.8566727924090354,0.11979916700606576,-0.169057,-0.07894228138214877
2.2625,-9.72719725116985,-0.7734515035312054,2.107217942634333,0.11867187965771223,-0.169057,-0.076080618435875
2.265,-9.753765736738176,-0.9457287006695233,1.7475227600514736,0.12021286156223238,-0.17962901320171717,-0.08533159725321963
2.2675,-9.70739416473288,-0.8098543996414443,1.7104175371531052,0.12483191007529587,-0.181732,-0.09105734984582295
2.27,-9.865431503016936,-0.5398306745808454,1.899257917794252,0.12362872711143252,-0.17674400737178325,-0.08729218133429757
2.2725,-10.007476027353473,-0.40257923833083403,2.0868746901033344,0.1224051828918514,-0.1731071828918514,-0.08374012277037157
2.275,-10.116753908290601,-0.49578686698745433,2.268591744624116,0.12139440757276962,-0.17209640757276962,-0.08102418106807614
2.2775,-10.22603178922773,-0.5889944956440746,2.4503087991448975,0.12038363225368784,-0.17108563225368784,-0.0783082393657807
2.2800000000000002,-9.823743351856288,-0.9035693947304752,1.8108261427546006,0.1300992385628751,-0.18747920742514945,-0.08662131377245852
2.2825,-9.826636,-0.767575,2.044476,0.131947,-0.1810215976992737,-0.093921
2.285,-9.770510106417895,-0.7581261910447734,1.9467753470148972,0.1320917826865672,-0.17561647194029867,-0.09049331731343185
2.2875,-9.486972185638127,-0.7103925074626848,1.4532092184739391,0.13282319878160223,-0.17866510365519353,-0.07317728081023392
2.29,-9.410728823396783,-0.9744799607027764,1.274672358828699,0.13366886568082,-0.1841193729136163,-0.08148966532942929
2.2925,-9.678944027670664,-0.7797469415639232,1.710028520248238,0.13529362273893256,-0.18102643713694663,-0.08672369464625569
2.295,-9.916306,-0.663558,2.145504,0.135612,-0.17832502209653234,-0.087201
2.2975,-9.916306,-0.663558,2.145504,0.135612,-0.17035571196461058,-0.087201
2.3000000000000003,-9.814367223361804,-0.8695543392364777,1.9518536951338532,0.13558906270085389,-0.185856,-0.07467899913390443
2.3025,-9.713312470554712,-0.8434669492111718,1.654433167175577,0.13064093736047505,-0.1869172521967772,-0.08540135164715926
2.305,-9.751873354535064,-0.6264327166455123,1.7218671507775385,0.12959819922564214,-0.18752711039035164,-0.08986658932719721
2.3075,-9.70711336885433,-0.6706960347032707,1.8417246121548767,0.12172140013963788,-0.17761705222469015,-0.08186250356394761
2.31,-9.989052818155553,-0.6690413688861907,1.963552954659777,0.12776568293469173,-0.1827537360145974,-0.07779031706530828
2.3125,-9.988100147038697,-0.9063752619174332,2.1346439178894547,0.12825278088648978,-0.18251058564586026,-0.07730321911351022
2.315,-9.607741086564621,-0.9438379638005697,1.7314962439361534,0.12945263406953864,-0.18528601342226092,-0.08198999672862442
2.3175,-9.44119623971573,-0.8879805977301576,1.4265069195364224,0.1275265377651433,-0.19421541881915555,-0.08733032802973956
2.32,-9.619124451339582,-0.8271991177035485,1.745426529763193,0.12503576917288342,-0.19220702368472342,-0.08790511061303921
2.3225000000000002,-9.984270633771285,-0.6236583253528025,2.1267156997891243,0.1273848791240882,-0.18080898699107847,-0.08838733777777673
2.325,-9.878662680922242,-0.7222836781683043,1.9944269046193002,0.13163472962933276,-0.1793763407893685,-0.07959168293971679
2.3275,-9.560000006394988,-1.0484746767432713,1.6300964829332938,0.1265064366311742,-0.18155559248739103,-0.08228384788407667
2.33,-9.561771243403594,-0.8024296894836576,1.5085681662242563,0.13453217168690734,-0.18856399079526742,-0.0871391650489697
2.3325,-9.788676254300714,-0.582891740399591,2.0139484422847325,0.13026573341377418,-0.1832944096121601,-0.08764114729138918
2.335,-9.842079449112395,-0.3804507762621269,2.1743243709968194,0.12520471032357983,-0.183107,-0.08237219946531918
2.3375,-9.690014034318983,-0.6143000975552846,1.7687686505238844,0.11882763781140886,-0.18132956614668225,-0.07339636409778846
2.34,-9.852427939260066,-1.0458602947203264,2.020804944900913,0.12688986898072335,-0.18632261528035188,-0.073457
2.3425000000000002,-9.767618707033842,-0.9437205558757252,2.0459043995705346,0.12963175497746052,-0.18471219445291379,-0.07657214180149252
2.345,-9.716372028823628,-0.7130703895774901,2.078865878511061,0.1250817989162864,-0.18567682615988695,-0.08386474020417797
2.3475,-9.803993259393755,-0.47235739238572527,1.9351268103408117,0.11602801132401394,-0.18630593882205124,-0.08625438018533074
2.35,-9.884149513773812,-0.9197286958897518,1.9880476046534235,0.11990493945683016,-0.19704976846372121,-0.07049342647750334
2.3525,-9.827236328769704,-1.1214644499552966,1.9392676575394068,0.12003508047047762,-0.19990579018583843,-0.0788022758880266
2.355,-9.879488778998478,-0.6647804428333529,2.119435130043394,0.12217910613814949,-0.18658974131582043,-0.09157882321097698
2.3575,-9.561283579158797,-0.8140370553875118,1.6011300014839542,0.12211942590737188,-0.19623006559546186,-0.0756939004914941
2.36,-9.71136591937644,-0.9177565843439917,1.808284369295306,0.1228118130876217,-0.19881573458738983,-0.07687899206536847
2.3625000000000003,-9.988427535563435,-0.9125590318913256,2.2500870246479794,0.12241048888329963,-0.1888298331991916,-0.08358623093561544
2.365,-9.927747184598923,-0.813330578395714,2.192410968128333,0.12104960256684481,-0.18479823058823508,-0.0850901987165776
2.3675,-9.840660555975361,-0.7411790898888244,2.0774397332992,0.12004958091977923,-0.18639830508518013,-0.08667489530192775
2.37,-9.76009102324743,-0.7036495668959013,1.9464291428651925,0.1208467399639699,-0.1941707745468788,-0.0882011504221819
2.3725,-9.662875782204118,-0.6540600613519219,1.7898055460546687,0.1274944834777161,-0.19730656460562393,-0.08142774533719732
2.375,-9.709910721067775,-0.808033667359335,1.9743961910965473,0.1303307290601023,-0.19016268222506394,-0.0736481871803069
2.3775,-9.744980023574168,-0.8320808538554982,2.1211859363650865,0.13071455882992328,-0.19310593583120197,-0.07479967648976979
2.38,-9.851441537695717,-0.970265017938769,2.248252262490197,0.12268799607768348,-0.19194664276420825,-0.08125292174907635
2.3825,-9.524109011104,-0.7621868677744043,1.7780652629546687,0.1262481173369654,-0.19396618058644424,-0.08429140970677788
2.3850000000000002,-9.396344368981927,-0.6701601204091463,1.6363357846432158,0.1242288240057089,-0.1970263211798286,-0.08221928117031378
2.3875,-9.454992125911833,-0.8023669969077163,1.8401130447510452,0.12461044181731687,-0.19550317557881372,-0.0800601058832856
2.39,-9.70708045532542,-0.8927345364275556,2.4239848299572397,0.12790868806650824,-0.19189250174821862,-0.07635939543942988
2.3925,-9.791205017871736,-0.9351688629263669,2.3253433429073604,0.12648215147743463,-0.1936042211211402,-0.07531331011876481
2.395,-9.486179912426293,-0.7464054301116997,1.667656540047608,0.11899199016297385,-0.20271268703167916,-0.0850212226332173
2.3975,-9.528115599092716,-0.8921603919383556,1.8722164903125202,0.12460265946498131,-0.2005558253969354,-0.07567867034196189
2.4,-9.705365840985868,-1.0459694205831074,2.1635879703396403,0.12934976300571072,-0.19690597416290967,-0.07637688260895668
2.4025,-9.855717204525389,-1.0606652431644115,2.3022578127297786,0.13291183272377496,-0.19344034696242882,-0.0860034847562363
