time,acc_x_g,acc_y_g,acc_z_g,gyro_x_rad_s,gyro_y_rad_s,gyro_z_rad_s
1765407931.415926,-0.01472879468695452,-0.030979186605329202,-8.380701965973294,-1.1816709601829074,0.32436150523930907,0.011321232159271085
1765407931.416126,-1.4133383518664917,-0.7601419643390565,-6.814757640004858,-0.9993945441399759,0.27268274494721817,0.009122629048731032
1765407931.416326,-2.7795901553932256,-1.4719218915723054,-5.285984155735115,-0.8213363068946532,0.222137656714581,0.006920075602261456
1765407931.416526,-4.08381306995285,-2.150026187206901,-3.8287576993280727,-0.6515203879642982,0.17379739974346103,0.0047632369703310565
1765407931.416726,-5.29949142284461,-2.7798491734626296,-2.4738398019360375,-0.49354639875468426,0.12861729439150094,0.002700402631489061
1765407931.416921,-6.404480770138314,-3.3491501078215298,-1.2469562319842284,-0.3504226688232582,0.08739281699048349,0.0007771386634778304
1765407931.417171,-7.381873795748164,-3.8485407349146925,-0.1677802763461568,-0.2244482034238109,0.05072894158792682,-0.0009646754688288381
1765407931.417421,-8.220487644579707,-4.2717657084159875,0.7506447920913734,-0.11714730218341002,0.019023799800091785,-0.0024874506179660624
1765407931.417671,-8.914981295859064,-4.6157792847406,1.5020524752105255,-0.0292554457380445,-0.007533855824959494,-0.003758209015673334
1765407931.41787,-9.465638207596152,-4.880636295871482,2.0867086481921175,0.03924881634227877,-0.028954962015904282,-0.004748721216533915
1765407931.41812,-9.877866817653022,-5.069225252147228,2.5108363826436144,0.08907377710890346,-0.04543047715363363,-0.005435549556486765
1765407931.41837,-10.16148147086933,-5.186877605901588,2.7857828108583633,0.12151547412848156,-0.05730431983992124,-0.0058000591160647826
1765407931.41862,-10.329830598559917,-5.240890498199834,2.9270065691792277,0.13833921923944453,-0.06504155937501545,-0.005828422350768847
1765407931.418871,-10.398838726390705,-5.240001010805316,2.9529645115779872,0.14165109605491774,-0.06919436084008654,-0.005511620777198901
1765407931.419121,-10.386025043567045,-5.193848085242876,2.8839718765260107,0.1337679167335089,-0.07036790884579562,-0.0048454429643913464
1765407931.419371,-10.309554534731195,-5.112453985768095,2.7411017584199455,0.11709291097332261,-0.06918817580917556,-0.0038304857262637265
1765407931.419621,-10.187368665252443,-5.005751022626433,2.5451785163011857,0.09400298772644412,-0.06627299973235949,-0.0024721701598758995
1765407931.419902,-10.03643206732821,-4.883172254295499,2.3159068889609804,0.0667518891518055,-0.06220751861339956,-0.0007807734203719525
1765407931.420152,-9.872120484885937,-4.75331817830879,2.0711653437985524,0.03739204517800178,-0.05752459797754867,0.00122854901348145
1765407931.420402,-9.70776411337149,-4.623705578463209,1.8264793036119773,0.0077165152382467714,-0.0526905072505168,0.0035358033154717595
1765407931.420652,-9.554349886933647,-4.500599636200017,1.594677719823675,-0.020778867523722076,-0.04809576836124665,0.006116325887579441
1765407931.420843,-9.420376757972605,-4.38892593916031,1.3857255877100845,-0.046914116126793325,-0.04405083066748994,0.008941142378680687
1765407931.421043,-9.311850208112718,-4.292255294212189,1.2067161748293707,-0.06982631201999982,-0.040786027739068295,0.011977560692114754
1765407931.421243,-9.232396440126053,-4.212851659126358,1.0620002175328234,-0.08895591771578183,-0.03845514008493604,0.015190013552203268
1765407931.421443,-9.183472909858299,-4.151772206832383,0.9534250629164043,-0.10402108976661925,-0.03714181321620449,0.018541130468976246
1765407931.421643,-9.164650131066812,-4.109008252420107,0.8806549315403335,-0.11498310118044623,-0.03686805498771223,0.021992978725378778
1765407931.421844,-9.17394005109776,-4.083655945776419,0.8415442754256337,-0.12200597478979627,-0.03760405590224489,0.02550837473152723
1765407931.422177,-9.208148179960702,-4.074105756761878,0.8325387184119748,-0.12541324214289876,-0.03927863493968327,0.029052140490569003
1765407931.422511,-9.263229162550791,-4.07823971871892,0.849080964037763,-0.12564441516946787,-0.04178970390212065,0.032592176659520355
1765407931.422962,-9.33462831584211,-4.093625479250505,0.8860020160209938,-0.1232133373876767,-0.045014257845800806,0.03610025081626422
1765407931.423212,-9.417595055999927,-4.117696963149552,0.9378816357604458,-0.11867011510109568,-0.048817525586843075,0.039552451530341
1765407931.423462,-9.507457909378452,-4.147913148796821,0.9993661228395748,-0.11256785754271724,-0.05306103482892296,0.0429293183211371
1765407931.423712,-9.599854176857582,-4.181888902203209,1.0654353384507989,-0.10543500835866337,-0.05760945039521508,0.04621570630306628
1765407931.423909,-9.690910009796422,-4.217494549711492,1.131613895569846,-0.0977536466835609,-0.06233613279054241,0.049400472694861905
1765407931.424159,-9.777369148152403,-4.252923475213371,1.1941241086718088,-0.08994378193364881,-0.0671274359798805,0.052476079234663874
1765407931.424409,-9.856671191171392,-4.286729240533507,1.2499811409340609,-0.08235336753022121,-0.07188580470691665,0.05543819307327758
1765407931.424659,-9.92698259744728,-4.317835481218413,1.2970334732278255,-0.07525352224787672,-0.07653174242864146,0.05828534532835809
1765407931.424878,-9.987185179584948,-4.345523142941326,1.3339537278570999,-0.0688382799925386,-0.08100472863270304,0.06101867774850569
1765407931.425128,-10.036827886489274,-4.369400417726845,1.3601861170996328,-0.06322809027319229,-0.08526319069876102,0.06364177637095471
1765407931.425378,-10.076048634711873,-4.389360850542069,1.3758580583382947,-0.05847625633427739,-0.08928366327603053,0.06616055920990854
1765407931.425628,-10.105473838610303,-4.405534512114092,1.3816650514825217,-0.054577514107068084,-0.09305926972363451,0.06858316216260613
1765407931.425867,-10.126103733400955,-4.418236179609519,1.3787391620275768,-0.05147800739884356,-0.0965976434084729,0.07091976463842548
1765407931.426117,-10.139191545943241,-4.427913592993671,1.3685117504033368,-0.04908598611629796,-0.09991840378408902,0.07318231567743769
1765407931.426367,-10.146124247080012,-4.4350983545934435,1.352580358415763,-0.04728263054915754,-0.10305032270076905,0.0753841519545
1765407931.426617,-10.148311895526728,-4.44036182739551,1.3325881269516548,-0.045932481774309156,-0.10602833807354102,0.07753952541755711
1765407931.426911,-10.14709119582652,-4.444278127367089,1.310121948866281,-0.044893044330575414,-0.10889057647456199,0.07966307010625542
1765407931.427161,-10.143647044580108,-4.447395803261759,1.2866329398819227,-0.044023230318019406,-0.11167553783635745,0.08176923589044427
1765407931.427411,-10.13895400728688,-4.450219156359847,1.2633800294616169,-0.043190426091477094,-0.11441957891165908,0.08387170935867413
1765407931.427661,-10.13373803340798,-4.453199463601607,1.2413950402409846,-0.04227606370051271,-0.11715479708083901,0.08598283513483194
1765407931.427879,-10.128457320689852,-4.456735527621164,1.221466250131187,-0.04117965617507543,-0.11990736075480632,0.08811304792023919
1765407931.428129,-10.123300380691996,-4.461181995052927,1.2041374419629263,-0.03982131332161582,-0.12269628221116986,0.0902703302890222
1765407931.428379,-10.118199250163578,-4.466863076309921,1.1897201739394314,-0.03814280662059183,-0.12553261021262094,0.09245972422334
1765407931.428629,-10.112856057176344,-4.474088924809463,1.1783172966979103,-0.03610730556007733,-0.1284190311014936,0.09468293745443322
1765407931.428867,-10.106781170013079,-4.483171866325385,1.1698551994993303,-0.03369795994018878,-0.13134988399666225,0.09693808776702796
1765407931.429117,-10.099340786187257,-4.4944396916817855,1.164121573770982,-0.030915547180509918,-0.13431159607857027,0.09921961760916734
1765407931.429367,-10.089811311210834,-4.508243447361631,1.1608054005992745,-0.027775437341376445,-0.13728352005592698,0.10151839667677258
1765407931.429617,-10.077437348754241,-4.524957877477482,1.1595363189509995,-0.024304149580730947,-0.1402391185750484,0.10382201941709239
1765407931.429812,-10.06148959330834,-4.544973912195851,1.1599208941629449,-0.020535779509996716,-0.1431474119882625,0.1061152941407418
1765407931.430062,-10.041318618970415,-4.568683952067075,1.1615733344578778,-0.01650856143647562,-0.14597459754740502,0.10838090272639961
1765407931.430312,-10.016400726136776,-4.5964616077701015,1.1641382788531283,-0.012261784256925496,-0.14868574733944992,0.11060018754561325
1765407931.430562,-9.98637255057754,-4.628637808559034,1.1673038473948982,-0.007833207977525111,-0.15124648449629502,0.11275400949797162
1765407931.430849,-9.951051949411017,-4.665475141325345,1.1708042386946325,-0.0032570520954821147,-0.15362452868051152,0.11482362684422903
1765407931.431099,-9.910443990657113,-4.707142405704188,1.1744126208324697,0.001437431811223884,-0.15579100729786766,0.11679156191342037
1765407931.431349,-9.86473282618685,-4.753691695209562,1.1779267777035807,0.006226832255507591,-0.15772144673823238,0.11864243852299983
1765407931.431599,-9.814262219604462,-4.805040489279335,1.181151474940592,0.01109395187235617,-0.15939637786692246,0.12036377910586704
1765407931.431825,-9.759508538337071,-4.860961013977985,1.1838818856050415,0.016027751518548253,-0.16080151473054322,0.12194674226081886
1765407931.432025,-9.70104977600162,-4.92107848520667,1.1858913550649028,0.021022930596907383,-0.1619275033195926,0.12338675587723841
1765407931.432225,-9.639533284048325,-4.984878851309855,1.186925197227112,0.026079212424833933,-0.16276928306305388,0.12468396664354593
1765407931.432425,-9.575644197929746,-5.051725351789855,1.1867011584512803,0.031200417039429603,-0.1633251449984579,0.12584340510485847
1765407931.432625,-9.51007633571464,-5.120881715024192,1.1849167263549367,0.03639341242307301,-0.16359560098735473,0.12687477746512688
1765407931.432878,-9.443507322345772,-5.191538525359584,1.1812630377508824,0.04166702802664391,-0.16358219505533542,0.12779184946592873
1765407931.433128,-9.376579413187121,-5.262838903976851,1.1754445026736802,0.04703099935555564,-0.1632863878785519,0.12861147180844504
1765407931.433378,-9.309886884746989,-5.333900592189424,1.1672026934727604,0.05249499517830653,-0.1627086289083092,0.129352374933757
1765407931.433628,-9.243970132059832,-5.403833355240463,1.1563428303174048,0.05806775758687259,-0.16184770018552064,0.13003389612018998
1765407931.433826,-9.179315732653885,-5.471752415074933,1.1427610497115652,0.06375636421250261,-0.160700376029796,0.130674787371927
1765407931.434076,-9.116360622653547,-5.536789801589512,1.1264701446146175,0.0695656089029592,-0.15926140336748526,0.13129220948433723
1765407931.434326,-9.05549768191642,-5.598105958086192,1.1076209410169295,0.0754974907402632,-0.15752377789600314,0.13190096615764327
1765407931.434576,-8.997080168401045,-5.654903596741949,1.0865166883059842,0.08155079806037886,-0.15547927255202584,0.13251298434277436
1765407931.434887,-8.941423542262717,-5.706444746279499,1.0636188730882463,0.08772077554034792,-0.15311916306531875,0.13313701420361257
1765407931.435137,-8.888804491498115,-5.752070575278915,1.0395441005742392,0.09399886970069396,-0.15043508703013622,0.1337785111999557
1765407931.435387,-8.839457678164317,-5.791222480118214,1.0150525371932146,0.10037256208856812,-0.14741996747772637,0.13443967356644007
1765407931.435637,-8.79357061289294,-5.823462503020405,0.9910285308846738,0.10682532029633596,-0.1440689368426242,0.1351196329772556
1765407931.435868,-8.751276392918559,-5.848491499904426,0.9684533787844578,0.1133367188790622,-0.1403802177019105,0.13581481689849192
1765407931.436118,-8.712643443031867,-5.86616433857536,0.9483693553435311,0.11988279504702463,-0.1363559403733242,0.1365194986578983
1765407931.436368,-8.677661482206487,-5.87650206938107,0.9318339725681816,0.12643670042179744,-0.1320028853912607,0.13722652121195525
1765407931.436618,-8.646223885386505,-5.87970078174817,0.9198644256938231,0.13296968381256172,-0.12733312670341126,0.13792813882442756
1765407931.436853,-8.618108289870076,-5.876135932378891,0.9133739814925318,0.13945238720226552,-0.12236453077937971,0.13861689084889442
1765407931.437103,-8.592959458974224,-5.866360297911634,0.9131043274514545,0.14585637048403866,-0.11712105197535957,0.13928641714464726
1765407931.437353,-8.570280283880768,-5.851093915609481,0.9195600669087335,0.1521557279844591,-0.11163275612009604,0.13993214234784757
1765407931.437603,-8.54943693857115,-5.831205061077359,0.9329525386707654,0.15832863974100797,-0.10593549127505057,0.14055178513139224
1765407931.437877,-8.529681935017006,-5.807682067660459,0.9531595786943406,0.16435870827152071,-0.10007011392253695,0.1411456800386218
1765407931.438127,-8.510195372609788,-5.781596673655593,0.9797067241141344,0.17023595573768924,-0.09408120025179878,0.14171692643816466
1765407931.438377,-8.49014160088845,-5.754060625556114,1.011774113320152,0.1759573909586833,-0.08801523626279598,0.1422713927491515
1765407931.438627,-8.468736021133573,-5.726178183291407,1.0482308762347907,0.18152709462231084,-0.08191836478369843,0.14281760066997032
1765407931.438917,-8.445314627675627,-5.698997627544793,1.0876947758318962,0.18695580896254482,-0.07583385202657067,0.14336650232741424
1765407931.439167,-8.419397720732762,-5.673464742493521,1.1286107132833216,0.19226005733484564,-0.0697995082308483,0.14393115655852923
1765407931.439417,-8.390739633974103,-5.6503807510672655,1.1693389404520795,0.19746086129749632,-0.063845326937979,0.1445263155693126
1765407931.439667,-8.359358193679663,-5.630366786533158,1.20824305278575,0.20258215999209297,-0.0579915689330999,0.14516794685542225
1765407931.43982,-8.325540456822974,-5.613837002566391,1.2437693328290405,0.2076490602010438,-0.052247426710757286,0.14587272612153082
1765407931.44007,-8.28982440065262,-5.600982516968807,1.2745122949526198,0.21268605493747972,-0.046610314880826224,0.14665753041351015
1765407931.44032,-8.252958901066645,-5.5917678415809595,1.2992648253574275,0.21771534437638573,-0.04106578231830456,0.14753893478585645
1765407931.44057,-8.215846151403419,-5.585940133929806,1.317053805838495,0.22275537392706962,-0.03558803683236433,0.1485326912976108
1765407931.440883,-8.179471794172231,-5.583050186245896,1.3271633654790107,0.22781967425372524,-0.030141085138328073,0.14965317017504057
1765407931.441133,-8.144828832057783,-5.582483125442048,1.3291483926194512,0.23291605688210804,-0.024680487482678707,0.15091277063653094
1765407931.441383,-8.112842139765476,-5.583496339249575,1.3228410687691217,0.23804619544068586,-0.01915569410857985,0.15232134582384746
1765407931.441633,-8.084301051778933,-5.585262192530963,1.3083529397141895,0.2432056103811981,-0.013512875497835244,0.15388571708507656
1765407931.441813,-8.059807365656354,-5.586913838246908,1.2860740897741323,0.2483840707620857,-0.007698089037093534,0.15560936452573032
1765407931.442063,-8.03974431852807,-5.587593478293784,1.2566693104610562,0.2535664197531361,-0.0016605545789301849,0.15749235957152743
1765407931.442313,-8.024268745925912,-5.586502901191428,1.2210693872424319,0.2587338091690872,0.004644231748430781,0.1595315519857788
1765407931.442563,-8.013325021401624,-5.5829556453793305,1.1804546130290317,0.2638652890410161,0.01125180501452997,0.16172096189596458
1765407931.44284,-8.006676861548065,-5.576429052681249,1.1362278367106402,0.2689396524250162,0.018186660501910742,0.1640522845141333
1765407931.44309,-8.003951898887355,-5.566613031897454,1.0899756400865461,0.27393740178001963,0.02546093647085401,0.16651540197250161
1765407931.44334,-8.004693451350525,-5.5534506170109434,1.0434179919169948,0.27884268798803685,0.03307393496495761,0.16909880821276174
1765407931.44359,-8.008413817787646,-5.537164085715089,0.9983482911790723,0.2836450711693191,0.041012519871778265,0.17178988207048093
1765407931.443883,-8.01464397613334,-5.51826069153033,0.9565667770982705,0.28834096466533576,0.049252352827811416,0.17457498355566312
1765407931.444133,-8.02297576205905,-5.497514232395702,0.9198107313536236,0.29293465516971834,0.0577598179578116,0.17743938675709114
1765407931.444383,-8.033093710692915,-5.475921640391241,0.8896845719097013,0.29743883275464145,0.06649438887828661,0.1803670896231831
1765407931.444633,-8.044794066195609,-5.454636359398284,0.8675919918513527,0.3018745918001217,0.07541113834367043,0.18334056040726063
1765407931.444874,-8.057988339703419,-5.434882276031756,0.8546714639745829,0.30627087098308303,0.08446308726811816,0.1863405057352943
1765407931.445124,-8.07268925183882,-5.417853811131977,0.8517364185977648,0.3106633092027231,0.09360313582780526,0.18934577893644816
1765407931.445374,-8.088978468362566,-5.404609791592665,0.8592220358208237,0.3150925306950528,0.10278540927644313,0.19233357355287062
1765407931.445624,-8.106957965596436,-5.395970723658874,0.8771412166694014,0.319601936075526,0.11196595641164453,0.19528003709388078
1765407931.445897,-8.126689841138852,-5.392430291698771,0.9050529705315188,0.324235138092389,0.1211028270501079,0.19816137176467888
1765407931.446147,-8.148132624059244,-5.394091421258456,0.9420476315819033,0.3290332120224264,0.1301556255788832,0.20095537093683108
1765407931.446397,-8.171084596872463,-5.400634928750342,0.9867543409859255,0.3340319251566962,0.1390847129723226,0.20364321573804517
1765407931.446647,-8.19514493240225,-5.411325285139139,1.0373756790404505,0.33925908750842687,0.14785031153580794,0.20621127303962444
1765407931.446919,-8.219701289660225,-5.425053994110662,1.0917518850673307,0.3447321541940612,0.15641182465622785,0.2086526176644092
1765407931.447252,-8.243948860939934,-5.4404169502392845,1.1474538514036767,0.3504562221648532,0.16472769068375037,0.21096804806228706
1765407931.447586,-8.266941597692256,-5.455818627396341,1.2019010890303135,0.3564225925671341,0.17275604238460376,0.21316646366283573
1765407931.447921,-8.287671742698263,-5.469593839301894,1.252498471471167,0.36260809634391583,0.18045634351950976,0.2152645935863714
1765407931.448171,-8.305169287073035,-5.480137043575982,1.2967838956407731,0.36897538186594064,0.18779202304801296,0.2172861645221704
1765407931.448421,-8.318609502870297,-5.4860289529406625,1.3325781433646136,0.37547431589029934,0.19473394094248547,0.21926063923102912
1765407931.448671,-8.327415164259241,-5.486150184678992,1.3581277056765622,0.3820445429695899,0.20126432751750176,0.22122165348644468
1765407931.448892,-8.331340771316242,-5.479772112035714,1.372230480884991,0.38861909878570144,0.20738067690940573,0.22320525679026407
1765407931.449142,-8.33052877148054,-5.46661628716755,1.374333580231703,0.39512881300423186,0.21309899136269975,0.2252480427740727
1765407931.449392,-8.325531656034643,-5.4468758449039,1.3645933785596445,0.4015071024212399,0.2184558009475496,0.22738524966614568
1765407931.449642,-8.3172977397139,-5.421195359368741,1.3438907208183266,0.4076946723770386,0.2235085070401038,0.22964892317179333
1765407931.449827,-8.307121526985265,-5.390609973636201,1.3137975805401811,0.4136436316292678,0.22833376814568498,0.23206625470742062
1765407931.450077,-8.296561723003814,-5.356449813823125,1.2764945021434564,0.419320592156327,0.2330238413243967,0.23465821568005235
1765407931.450327,-8.287331627036876,-5.320220326333712,1.2346412023016788,0.42470845923549083,0.2376810220767869,0.2374385855181774
1765407931.450577,-8.281168533586067,-5.2834718296868655,1.1912064179464332,0.4298067818263111,0.2424105808255383,0.24041342057533105
1765407931.450848,-8.279691357797757,-5.247671830007295,1.1492673077303337,0.4346306923888317,0.24731282652873884,0.24358095749913858
1765407931.451098,-8.284258586847523,-5.214092036551249,1.1117926387904555,0.43920860772924836,0.25247508793967527,0.24693191652208138
1765407931.451348,-8.295840484630414,-5.183719478232843,1.081426985707597,0.44357898773743376,0.25796446913688265,0.25045017560582394
1765407931.451598,-8.314919094345482,-5.157198587506024,1.0602947992698093,0.4477865420513096,0.26382219658067463,0.25411380396569716
1765407931.451819,-8.341426928359736,-5.134808923950485,1.0498426779599783,0.4518783142055825,0.27006021138142877,0.2578964382816261
1765407931.452069,-8.374731079830257,-5.116480825627533,1.050734784492761,0.45590005107951526,0.2766603779987756,0.2617689356626055
1765407931.452319,-8.413664780634846,-5.101847831709774,1.0628106728945077,0.459893191188083,0.28357634148463695,0.26570115292294705
1765407931.452569,-8.456603811670982,-5.0903298862827535,1.085108487703235,0.46389269446296283,0.29073775641567695,0.2696636203124284
1765407931.452871,-8.501580967350952,-5.081235896146669,1.1159506448488072,0.4679258036959195,0.2980563825503752,0.2736288496699564
1765407931.453121,-8.546428337798053,-5.0738699974424595,1.153083546447535,0.47201168995349707,0.3054334011663158,0.2775720727203089
1765407931.453371,-8.588934933750272,-5.067624648962167,1.1938573670008354,0.47616181822523806,0.31276724671333106,0.2814713339056788
1765407931.453621,-8.62700630635066,-5.062045786703458,1.2354274055068202,0.4803808040779183,0.3199612705405504,0.28530701902540856
1765407931.453862,-8.658813159509862,-5.05685989446773,1.2749568392866253,0.48466752190670137,0.3269306551985676,0.28906103891656915
1765407931.454195,-8.68291732622003,-5.051959166079352,1.3098031234649479,0.48901625347963845,0.3336081616646259,0.29271597941126865
1765407931.454529,-8.698365824245732,-5.047348367881836,1.3376759098606443,0.49341771645584026,0.33994846913605153,0.2962545587714736
1765407931.45486,-8.704747116155477,-5.043064296504103,1.3567610436647144,0.49785987527977915,0.34593099417386625,0.29965968419916894
1765407931.45511,-8.702207998812392,-5.0390840450822045,1.3658107225518994,0.5023284977043063,0.35156112699833236,0.30291527199487744
1765407931.45536,-8.69143378620132,-5.035240368910694,1.3642025885142006,0.5068074701234406,0.35686983167342506,0.3060078305742143
1765407931.45561,-8.673597447620583,-5.031161034878192,1.3519701586384023,0.5112789238351284,0.3619115820083062,0.3089286486127969
1765407931.455813,-8.650284679507893,-5.026244713762709,1.3298052579326314,0.5157232569720439,0.36676068140033435,0.31167630735231755
1765407931.456063,-8.623401646216067,-5.0196799418928295,1.2990316098874812,0.520119167450771,0.3715061293447678,0.3142591570685472
1765407931.456313,-8.595070507294245,-5.01050726208279,1.2615474739407562,0.5244438337793611,0.37624530641971793,0.31669736265670767
1765407931.456563,-8.56751556286998,-4.997718350624844,1.2197341402059352,0.5286733717440789,0.38107683717912666,0.31902412110703543
1765407931.456887,-8.542941387557592,-4.980379536925907,1.1763275909465867,0.5327836424123727,0.3860930849656235,0.321285688120239
1765407931.457137,-8.523404913163306,-4.957761161898467,1.134254035507598,0.5367514023484857,0.3913728459881819,0.3235399543676422
1765407931.457387,-8.510685858830996,-4.929450746316167,1.0964356491709422,0.5405556986225588,0.3969748940733709,0.32585350742871944
1765407931.457637,-8.506162692042155,-4.895429260644012,1.0655786177353053,0.5441793473732687,0.40293301552476085,0.3282973768189479
1765407931.457887,-8.510702887844142,-4.856096534194845,1.0439598622960808,0.5476103117950327,0.4092530428861028,0.3309419142220683
1765407931.458137,-8.524576285194563,-4.812242282692763,1.0332310843417487,0.5508428103178123,0.4159121805955639,0.3338514276268318
1765407931.458387,-8.547399723877097,-4.764970099369218,1.0342591011821454,0.5538780226625767,0.4228606687069068,0.33707921559558646
1765407931.458637,-8.578120804687945,-4.715589694371984,1.047019915200927,0.5567243090757438,0.4300255934527299,0.34066354043114017
1765407931.458918,-8.615048189443533,-4.66549584704376,1.0705604678105105,0.5593969130757243,0.4373164506179024,0.34462489201305874
1765407931.459168,-8.655933783569996,-4.616051528560408,1.1030362305216395,0.5619171746702177,0.44463192252952866,0.34896469688231896
1765407931.459418,-8.698107275783123,-4.568489415795439,1.1418247286140122,0.5643113304561619,0.4518672610248184,0.3536654600265682
1765407931.459668,-8.738656636381576,-4.523841847471754,1.1837063355536592,0.5666090193372577,0.4589216811731504,0.3586921946157992
1765407931.459845,-8.774641568312454,-4.482904217794433,1.2250969383294266,0.5688416528766825,0.46570524690927884,0.363994892449918
1765407931.460178,-8.803322331379828,-4.446230852197523,1.2623138285765907,0.5710408358203211,0.47214482940296354,0.36951171657527476
1765407931.460512,-8.82238402106881,-4.414156445796101,1.2918552005085249,0.5732370061555937,0.4781887896722909,0.3751725642356491
1765407931.460891,-8.830135818899375,-4.386831621832932,1.3106728643107703,0.5754583923136674,0.48381005772723773,0.3809026626182809
1765407931.461141,-8.825666017063982,-4.364259380962932,1.3164169476964627,0.5777302827224405,0.4890072971284587,0.386625930067463
1765407931.461391,-8.808937169556259,-4.3463208740523,1.3076318211051796,0.580074513551348,0.4938039323298017,0.3922679557955481
1765407931.461641,-8.780811304510022,-4.332783831078331,1.2838850047672046,0.5825090343489994,0.498245005677971,0.39775858961109745
1765407931.461846,-8.7430017064922,-4.323293705114996,1.2458148719483522,0.5850474159226833,0.5023920869945824,0.40303423998666754
1765407931.462096,-8.697954339663275,-4.317353917416779,1.1950883920453104,0.5876982160186527,0.5063167305459957,0.40804001672267126
1765407931.462346,-8.648668218531576,-4.31430552985095,1.134268179160761,0.5904642032055054,0.5100932172031477,0.4127318196323687
1765407931.462596,-8.598469933774728,-4.313317346102046,1.0665994370213945,0.593341529356133,0.5137914771767438,0.4170783874352991
1765407931.464244,-8.550762590451361,-4.313395301244628,0.9957395887530959,0.5963190022013589,0.5174710970084044,0.42106321142971703
1765407931.464494,-8.508772553081272,-4.31341622083657,0.9254617418281076,0.5993776272148472,0.5211771411700714,0.42468611934167516
1765407931.464744,-8.47531782943269,-4.312186389039799,0.8593649378098346,0.6024905724833852,0.5249381932188378,0.4279642695371768
1765407931.464994,-8.452619551857051,-4.30852000881072,0.8006205789050455,0.6056236725058901,0.5287666308499104,0.430932274744074
1765407931.464332,-8.442172985825277,-4.30132731952433,0.7517776547421761,0.6087365252736758,0.5326607974059423,0.4336412092266885
1765407931.464582,-8.444687299578229,-4.289698759310816,0.7146400595079049,0.6117841504386148,0.53660849217764,0.4361563570736833
1765407931.464832,-8.460095323953471,-4.272971736202569,0.6902184591143253,0.6147190816375903,0.5405911024678829,0.4385537220842715
1765407931.465082,-8.487627334714915,-4.250770230281965,0.6787498718582365,0.6174936921434981,0.544587742228445,0.44091550271269575
1765407931.464901,-8.525937212796853,-4.2230132009940595,0.6797728659834996,0.6200625224007785,0.5485789090976224,0.44332489539024345
1765407931.465151,-8.57326511410012,-4.189893999468095,0.6922444515540058,0.6223843951823487,0.5525493417219187,0.44586069760090297
1765407931.465401,-8.62761804283253,-4.151838221913977,0.7146839394477428,0.6244241576901867,0.5564898737049587,0.4485922212267401
1765407931.465651,-8.68694879033955,-4.109450446763727,0.7453282594181063,0.6261539656025323,0.5603981400394441,0.45157499247137356
1765407931.465822,-8.74931477896067,-4.063460536369833,0.7822836816020476,0.6275541136322449,0.5642780656125018,0.4548476253292153
1765407931.466072,-8.813001281456117,-4.014678167631058,0.8236614039819212,0.628613504747544,0.5681381930167893,0.4584301366621698
1765407931.466322,-8.876597954554994,-3.9639609471106136,0.8676875591602027,0.6293298980314629,0.5719890568875965,0.46232382355628865
1765407931.466572,-8.939023435358035,-3.912197376542943,0.9127800570097166,0.6297100492106364,0.575839946742307,0.46651263547250615
1765407931.466886,-8.999499705199927,-3.8603011881659164,0.9575864281361333,0.6297697687833128,0.579695520854498,0.4709657666507013
1765407931.467136,-9.057485457835185,-3.809208833757916,1.000981683124827,0.6295338206307022,0.5835528327821026,0.4756410326283672
1765407931.467386,-9.112584534007988,-3.759869042616583,1.0420337113341034,0.6290355164266707,0.5873993516577761,0.48048854138262836
1765407931.467636,-9.164449517284964,-3.7132147208140016,1.0799515937394877,0.6283158517325184,0.5912124306311014,0.4854542452142898
1765407931.467861,-9.212699904055453,-3.6701138273855123,1.1140345537724012,0.6274220847738833,0.5949604068845845,0.49048312935943034
1765407931.468194,-9.25686889864145,-3.6313047776904868,1.1436359453752405,0.6264057634204427,0.5986051908404112,0.49552197563055644
1765407931.468528,-9.29638519408973,-3.597328866165444,1.1681509251382847,0.6253203157628141,0.6021059357601509,0.5005217481142362
1765407931.468852,-9.330588990117203,-3.5684740224597813,1.1870303097244739,0.624218389230606,0.6054232342307785,0.5054396539368131
1765407931.469102,-9.35877689468235,-3.544741211323332,1.1998171874404107,0.6231491456844602,0.6085232625458475,0.5102408771364825
1765407931.469352,-9.380268686387652,-3.5258394354802927,1.2061989403977977,0.6221557231478316,0.6113813609911096,0.5148999287530267
1765407931.469602,-9.394488653130768,-3.511209798068816,1.206066798263593,0.6212730744863696,0.6139846647803447,0.5194015268211026
1765407931.469861,-9.401052814090786,-3.500074234857696,1.1995754053247778,0.6205263688251277,0.6163335331488122,0.5237409031703304
1765407931.470111,-9.399850246098504,-3.4915002972919407,1.187192679689453,0.6199300706760343,0.6184416150862257,0.5279234219557923
1765407931.470361,-9.391104519303433,-3.4844702239304906,1.169726667647634,0.619487712765891,0.6203344615813382,0.5319634208374496
1765407931.470611,-9.375402389323398,-3.4779422350393157,1.1483156038389473,0.6191922899812933,0.6220467182561941,0.5358822917527121
1765407931.470878,-9.353681237718634,-3.470896176839541,1.1243716773555952,0.6190271381530339,0.6236181264326407,0.5397059802468027
1765407931.471128,-9.32717287328073,-3.462363190284095,1.0994761925612693,0.6189671248584508,0.6250887635735805,0.5434622072610679
1765407931.471378,-9.297308373215325,-3.4514456819573733,1.075232339438611,0.6189799889138592,0.6264941108912506,0.5471777363086973
1765407931.471628,-9.265595776960016,-3.437335496452669,1.0530913205798302,0.6190277255827255,0.6278606354949068,0.5508759441780982
1765407931.47186,-9.233487760118711,-3.4193347950127335,1.0341763678481504,0.6190679872562778,0.6292025903142663,0.5545748824016656
1765407931.47211,-9.20225805928852,-3.3968794659667876,1.01913350446562,0.6190555162271654,0.6305206026060785,0.5582859922321717
1765407931.47236,-9.172903364539664,-3.369562579704469,1.0080352943049906,0.6189436486558556,0.6318023175958192,0.5620136338600755
1765407931.47261,-9.146083468917109,-3.337155875681695,1.0003554921232223,0.6186859364233505,0.6330249738293379,0.5657555316921541
1765407931.472826,-9.122108216710956,-3.2996282047022247,0.9950217015043676,0.618237910636672,0.6341594485508198,0.5695040753164796
1765407931.473076,-9.100974901234752,-3.257159053236252,0.9905422455987773,0.6175589421404143,0.6351751045451735,0.5732482045416936
1765407931.473326,-9.082453103154997,-3.2101430014906343,0.9851936174131104,0.6166140654356347,0.6360447045002169,0.5769754667194197
1765407931.473576,-9.066205643392964,-3.159179820825127,0.9772466837339151,0.6153755788761963,0.6367487221739898,0.5806738514483184
1765407931.473834,-9.05192613468486,-3.105047292249443,0.9652034319806987,0.6138242522909356,0.637278527285287,0.584333164544489
1765407931.474084,-9.039468138717494,-3.048659047070988,0.94801222020836,0.6119500491469215,0.6376380798875098,0.5879458956339555
1765407931.474334,-9.028940494547513,-2.9910142741344825,0.9252302890085295,0.6097523618692615,0.6378439169267006,0.5915076593846531
1765407931.474584,-9.020748945607176,-2.9331472067503372,0.8971092930109487,0.6072398302595137,0.6379233968094964,0.5950173258307573
1765407931.474799,-9.015574786535064,-2.876082380481009,0.8645917371246622,0.604429841389105,0.6379114081574269,0.5984769383617531
1765407931.475132,-9.014294321653159,-2.820798987908067,0.8292203666405477,0.601347790580677,0.637845988873051,0.6018914774751318
1765407931.475466,-9.017855059281567,-2.7682052798953043,0.7929757274647895,0.5980261461787302,0.6377634752271284,0.6052684693558329
1765407931.475893,-9.027132394326307,-2.7191213209448213,0.7580672210983684,0.5945033447354592,0.6376938879908922,0.6086173796404705
1765407931.476143,-9.042791945427297,-2.6742654215163837,0.7267084089213584,0.5908225485989604,0.6376572543769725,0.6119487163046302
1765407931.476393,-9.065177734956261,-2.6342379351994607,0.7009065222342832,0.5870302954286031,0.6376614288174665,0.6152728262684665
1765407931.476643,-9.094237328575955,-2.5994980512661914,0.6822889902164625,0.5831750540301993,0.6377016976707872,0.6185985009537068
1765407931.476858,-9.129485900924239,-2.570334850858674,0.6719792604750077,0.5793056992267988,0.6377620935303622,0.6219316403836487
1765407931.477108,-9.170005824715435,-2.5468399762606664,0.6705248450518132,0.575469939929129,0.6378180275147243,0.6252742667730853
1765407931.477358,-9.214477831547132,-2.5288913839311973,0.6778751383188869,0.5717127551336959,0.6378396761354579,0.6286240797083045
1765407931.477608,-9.261241657605382,-2.516154373935739,0.6934049227438341,0.5680748940906466,0.6377955523105315,0.6319745695304485
1765407931.477893,-9.308384968989762,-2.5081003621724904,0.7159796770415392,0.5645914938456993,0.637655792456445,0.6353155802795357
1765407931.478143,-9.353857647559465,-2.504039827130484,0.7440581181557941,0.5612908769993189,0.6373948224491344,0.6386341975515588
1765407931.478393,-9.395605017260173,-2.503164775171682,0.7758238523391062,0.5581936032380469,0.6369931688085251,0.6419158653123568
1765407931.478643,-9.43171012927517,-2.5045960213449705,0.8093326383430096,0.5553118391682449,0.6364382625202569,0.6451456223970543
1765407931.478884,-9.460532712676645,-2.5074297475888527,0.8426579651024317,0.5526490798564427,0.6357241867000324,0.6483093008277604
1765407931.479134,-9.480830545981807,-2.5107768927202883,0.8740173079790718,0.55020020867618,0.6348504621300654,0.6513945180871449
1765407931.479384,-9.491848056935249,-2.513790165233811,0.9018637903070816,0.5479518296591797,0.6338201117522669,0.6543913616631072
1765407931.479634,-9.49335854751534,-2.515677642531975,0.9249323716840128,0.5458827802566335,0.6326373615097902,0.6572927729301065
1765407931.479831,-9.48565209269642,-2.5157070136623134,0.9422370321638872,0.5439647641612352,0.6313054107284976,0.6600947244657497
1765407931.480081,-9.469470526552774,-2.5132072926952036,0.9530260574947614,0.5421631144028511,0.6298247248316727,0.6627963053321737
1765407931.480331,-9.445901384516562,-2.5075737608306374,0.9567134726778107,0.5404377488455072,0.6281922336390423,0.6653997919339741
1765407931.480581,-9.416250458587344,-2.4982785215071783,0.9528106234758,0.5387443823215542,0.6264016431669416,0.6679107388419199
1765407931.480799,-9.381915109810631,-2.4848862099555826,0.9408799343525995,0.5370360237141623,0.6244448181685536,0.6703381008869029
1765407931.481049,-9.344277401489821,-2.4670733515405256,0.9205248687437337,0.5352647335491736,0.6223139393707436,0.6726943649496919
1765407931.481299,-9.304628843197017,-2.4446493673674428,0.8914200229925714,0.5333835612755824,0.6200039654312453,0.6749955971899182
1765407931.481549,-9.264129502998419,-2.4175754410896833,0.8533760352380501,0.5313485334863941,0.6175148891406197,0.6772612346700408
1765407931.481851,-9.223796649593577,-2.385974856105802,0.8064273604514022,0.5291205377152685,0.6148533659532165,0.6795134552638145
1765407931.482184,-9.184514065800137,-2.350128182331823,0.7509274548894761,0.5266669467859572,0.6120334406282689,0.6817760888459441
1765407931.482518,-9.14705241054804,-2.3104511966843,0.6876345663161709,0.5239628543652207,0.6090762244194619,0.6840732140700857
1765407931.482817,-9.11209228724216,-2.2674606039558567,0.6177716173636267,0.520991844114677,0.6060084728638406,0.6864276873437622
1765407931.483067,-9.080244638980965,-2.2217374206268556,0.543046656258868,0.5177462871003083,0.6028601395600695,0.688859812886297
1765407931.483317,-9.052067330881227,-2.1738971533804645,0.4656264092054082,0.5142272227204618,0.5996611566578243,0.6913862390711613
1765407931.483567,-9.028080754162582,-2.124571056653739,0.3880626800750299,0.5104438925145673,0.5964378632156674,0.6940190548031462
1765407931.483929,-9.008787201541507,-2.0743977337845028,0.313177598788987,0.5064129783600826,0.5932096056649008,0.6967650193737093
1765407931.484179,-8.994697768466327,-2.0240217536535443,0.2439186814478929,0.5021575955591984,0.5899860608303581,0.6996248794530785
1765407931.484429,-8.986366878040712,-1.9740952916361145,0.18319834816002736,0.49770611615180466,0.5867657898539744,0.7025927560027673
1765407931.484679,-8.984429440620211,-1.925278271660187,0.13373372618196447,0.49309090660674937,0.5835363945168551,0.705655595479872
1765407931.484843,-8.989631126226419,-1.8782318430537879,0.09790022886295921,0.4883470345841782,0.580276386942867,0.7087927045509125
1765407931.485093,-9.002840024714398,-1.8336009154922195,0.07760770582472407,0.48351096221556583,0.5769585458830077,0.7119754619899379
1765407931.485343,-9.025028748206626,-1.7919849834000696,0.07420324688045013,0.4786192321898057,0.5735542351738042,0.7151673979377404
1765407931.485593,-9.057219641325066,-1.753901171739434,0.08840127206031198,0.47370716414545866,0.5700379975956504,0.7183248669295463
1765407931.485861,-9.100391937651937,-1.7197464073988327,0.12023971939246593,0.4688075936129727,0.5663917268203819,0.7213984625760165
1765407931.486111,-9.15535765532959,-1.6897651950108934,0.16906162660003404,0.4639496995526035,0.5626078274101192,0.7243351656131083
1765407931.486361,-9.222620762179778,-1.6640266997153432,0.23352402583418091,0.4591579785909045,0.5586909465008302,0.7270810803369318
1765407931.486611,-9.302239022871648,-1.6424123587430888,0.3116381128936879,0.4544514218845226,0.554658044676764,0.7295845539335571
1765407931.486804,-9.393708306538304,-1.6246147125537627,0.4008429885974596,0.44984292774647816,0.5505367387331646,0.7317994560049593
1765407931.487054,-9.495885365079072,-1.6101486062388646,0.49811039046946637,0.44533895595430795,0.5463620161845036,0.733688361320539
1765407931.487304,-9.60695908635691,-1.598375048361379,0.6000732891418222,0.44093941185390106,0.542171620470644,0.7352253220470675
1765407931.487554,-9.724473828145143,-1.58853504776648,0.7031689898979425,0.43663772939201395,0.5380006206318206,0.7363978901951673
1765407931.48788,-9.845402590233226,-1.579787576954311,0.8037864230507294,0.43242109804874757,0.533875854312607,0.7372081163571899
1765407931.48813,-9.966263072402606,-1.5712451774404081,0.8984069205352248,0.4282707775363881,0.5298110235260962,0.7376724175542438
1765407931.48838,-10.083266896666615,-1.5620034740802555,0.9837294615755059,0.4241624840863487,0.5258032114600235,0.7378204096667893
1765407931.48863,-10.192491820102699,-1.5511650789381821,1.056776166432887,0.42006688106403645,0.5218314602072844,0.7376929365283211
1765407931.488841,-10.29006768424578,-1.5378612516156729,1.114979546706607,0.4159502235185011,0.5178577831956317,0.7373395541791272
1765407931.489091,-10.37236745934617,-1.521275166960338,1.1562561310918373,0.41177519587581257,0.5138305979329124,0.7368156945349541
1765407931.489341,-10.436194271552175,-1.5006697309350132,1.1790704942121608,0.40750197482636275,0.5096901386742148,0.7361797044727137
1765407931.489591,-10.478954320215186,-1.4754218624138955,1.1824909017571559,0.403089549274972,0.5053750668984908,0.735489939240061
1765407931.489822,-10.498805170889865,-1.4450640708561806,1.166234245742018,0.39849731135697347,0.5008293385646707,0.7348020463102938
1765407931.490155,-10.494770153448584,-1.4093319941787439,1.1306951192609334,0.39368688667331103,0.4960084465462276,0.7341664971705029
1765407931.490489,-10.466813069642118,-1.3682126417399523,1.0769539441153555,0.3886241190614461,0.4908843883425814,0.7336263510635176
1765407931.490815,-10.415871842222868,-1.321983581398735,1.0067625411479688,0.38328108371349806,0.4854489925349181,0.7332152232201986
1765407931.491065,-10.343852364842077,-1.271231214041347,0.9225092206647727,0.37763796566318986,0.4797154443396411,0.7329555049681843
1765407931.491315,-10.25358326126938,-1.21683909132957,0.8271655169429449,0.3716846093589098,0.4737179408915457,0.7328570103246839
1765407931.491565,-10.148730233951527,-1.1599443186140497,0.7242131939390034,0.36542154980043257,0.46750945702230584,0.7329163169577462
1765407931.491832,-10.033668065430893,-1.1018678429122066,0.6175467753701241,0.35886039901988925,0.46115772006501404,0.7331170443686712
1765407931.492082,-9.913310322879619,-1.044029295212719,0.5113464107618048,0.3520235614057006,0.45473969018022486,0.7334311665297583
1765407931.492332,-9.792900508918743,-0.9878580605582965,0.4099182211419035,0.3449433424954093,0.4483350250346085,0.7338212782662301
1765407931.492582,-9.677772546337655,-0.9347107394076983,0.3175033026076107,0.3376605736854985,0.44201910634266434,0.7342436094307879
1765407931.492885,-9.573092457871727,-0.8858028063085762,0.23806208914682658,0.33022290307802965,0.4358562628261592,0.7346515128471053
1765407931.493135,-9.483596475587563,-0.8421595217126904,0.17504739885135845,0.3226829052029181,0.4298938824865517,0.7349990947667921
1765407931.493385,-9.41334306074918,-0.8045874716456156,0.1311855464272808,0.3150961337346448,0.42415810284884886,0.7352445924255675
1765407931.493635,-9.36549692560921,-0.7736635171799913,0.10828821276850686,0.3075191868783901,0.41865161268081097,0.735353076672942
1765407931.493872,-9.342161615331461,-0.7497338865949358,0.10711686757376788,0.30000780376368813,0.41335380958737994,0.7352981338529924
1765407931.494122,-9.344273499342833,-0.7329145486602405,0.12731652372364538,0.2926149881701369,0.40822323706413594,0.7350623755297077
1765407931.494372,-9.371565090845218,-0.7230857980759094,0.167427972490647,0.2853891626637878,0.40320195120157404,0.7346368797981846
1765407931.494622,-9.422600469556777,-0.719878709227354,0.22497887668252925,0.2783723766211158,0.3982212652479298,0.7340198927282764
1765407931.494812,-9.494880180984635,-0.7226571182438614,0.2966449063952618,0.2715986166520226,0.39320821048520144,0.7332152381396762
1765407931.495062,-9.585007121358382,-0.7305036707655531,0.37846423134584056,0.2650922955511426,0.38809206653035005,0.7322308705486686
1765407931.495312,-9.688899680710138,-0.7422203052037843,0.46608530582112445,0.25886701964705,0.3828104367239353,0.7310778857986965
1765407931.495562,-9.802035405436731,-0.756352211105746,0.5550297904897447,0.25292473893976136,0.37731448632569614,0.7297701312079997
1765407931.49589,-9.919707681488081,-0.7712411584606912,0.6409557134547622,0.24725536122426076,0.3715730393407578,0.7283243773786966
1765407931.49614,-10.037277998379297,-0.7851101039362001,0.71990634259057,0.2418368776516227,0.3655752432141959,0.7267608492966546
1765407931.49639,-10.150406723966666,-0.7961757819606088,0.7885286297130567,0.23663603047642487,0.35933152989337763,0.725103780659239
1765407931.49664,-10.255247168172705,-0.802779345647473,0.8442456208465972,0.23160955332929054,0.3528726970256577,0.7233815870445393
1765407931.496811,-10.348591864240726,-0.8035187980033891,0.8853710836924793,0.22670599417577533,0.3462471075268116,0.7216262985143019
1765407931.497061,-10.42796560343886,-0.7973639301444991,0.9111592246536478,0.2218680623075411,0.3395161969231457,0.7198720627058754
1765407931.497311,-10.491665289873385,-0.7837363195334661,0.9217862327613267,0.21703534379656805,0.3327486381820513,0.7181527743091458
1765407931.497561,-10.538750943503281,-0.76254285788229,0.9182648071715285,0.21214716005363957,0.3260136581794716,0.716499128963919
1765407931.497847,-10.56899456420803,-0.7341594092912224,0.9022987299567178,0.20714533527546392,0.31937414198832825,0.7149355761168041
1765407931.498097,-10.582794699737395,-0.6993695729150207,0.8760908371634748,0.2019766794937127,0.3128802524861256,0.7134777117361539
1765407931.498347,-10.581066260641443,-0.6592702869599765,0.8421232616831623,0.19659505837520905,0.30656427264536196,0.7121305920962023
1765407931.498597,-10.565118225628074,-0.6151598993351504,0.8029331360969221,0.19096299170888198,0.30043724064432453,0.7108882922840557
1765407931.498861,-10.536534476477334,-0.5684251586139271,0.7609088216232633,0.18505278395762315,0.29448772817248325,0.7097348288688294
1765407931.499111,-10.497072299749142,-0.5204420234884041,0.7181292628745273,0.17884722876607073,0.2886828433939385,0.7086463518374003
1765407931.499361,-10.448588517214349,-0.47250195582946414,0.6762618710005087,0.17233994851889237,0.2829712588651189,0.7075943021474668
1765407931.499611,-10.392996524165627,-0.42577054183897733,0.6365241896227395,0.1655354415925235,0.27728782845038435,0.706549045606931
1765407931.499844,-10.332250695660065,-0.3812787943627543,0.5997038478776311,0.1584489111146707,0.271559219856207,0.7054833687658715
1765407931.500094,-10.268349059996362,-0.3399401764121472,0.5662221186767329,0.1511059293880559,0.2657099647097441,0.7043752087272633
1765407931.500344,-10.203342239605233,-0.3025802509039419,0.5362213633354008,0.14354195398184186,0.2596683957174057,0.7032091192061606
1765407931.500594,-10.13933717633496,-0.2699630099084009,0.5096575970854287,0.13580166662139917,0.2533720752795993,0.701976233745564
1765407931.500818,-10.078486985016513,-0.2427993725078985,0.48638497439092737,0.12793806139104194,0.2467724854542008,0.7006728051152413
1765407931.501068,-10.02296151290052,-0.22172854085768492,0.4662254303455703,0.12001117060229836,0.23983887608047338,0.6992976879561357
1765407931.501318,-9.974896162666484,-0.20727032550938765,0.44902150589736056,0.11208630293271563,0.23256119219987728,0.6978493235128098
1765407931.501568,-9.936319475293146,-0.19975442017763145,0.4346730228090822,0.10423170175498334,0.2249519352786801,0.6963228559436826
1765407931.501879,-9.909062531829788,-0.19923917530129653,0.42315871145214967,0.09651561606455525,0.2170467432537858,0.694707959632934
1765407931.502129,-9.894655178533254,-0.20543602373432426,0.41454282877278054,0.08900289101255233,0.20890348451687926,0.6929878037158462
1765407931.502379,-9.894216280116709,-0.2176555063682998,0.40896618742882934,0.08175129888979601,0.20059975720889442,0.6911393673555746
1765407931.502629,-9.908348354148124,-0.23478757479120976,0.406622102935208,0.07480791612271562,0.1922288187213193,0.689135101076809
1765407931.502841,-9.937049850993018,-0.25532421600731303,0.4077197405696228,0.06820588865303667,0.18389411101157416,0.6869457364146151
1765407931.503041,-9.979658822774448,-0.2774275615013161,0.4124389929700434,0.06196191577640923,0.17570270304521649,0.684543884488417
1765407931.503241,-10.034838960514875,-0.2990413929727565,0.42088239296113666,0.05607473102914544,0.1677581344887618,0.6819079382090407
1765407931.503441,-10.100614155277638,-0.3180378382058054,0.4330309290608522,0.050524774208362405,0.1601532675301661,0.6790257178755549
1765407931.503641,-10.174452323869904,-0.33238448612580257,0.44871093685701874,0.045275136459667756,0.15296379300141938,0.6758973050267426
1765407931.503816,-10.253393857274439,-0.3403119872357513,0.46757735896845354,0.04027373526176194,0.14624298341971276,0.6725366241230539
1765407931.504066,-10.334215220973768,-0.3404607576057064,0.4891155647800518,0.03545655605029096,0.14001815062550066,0.6689715490852646
1765407931.504316,-10.413614699010266,-0.3319887338803946,0.5126615627883987,0.030751694009364276,0.13428907185128827,0.6652425698101907
1765407931.504566,-10.48840517981945,-0.31462913430905887,0.5374389487433073,0.026083851756845668,0.12902842948213877,0.6614002682810177
1765407931.504854,-10.555698032781264,-0.28869527104596016,0.5626091023703061,0.021378906058224775,0.12418410092482983,0.6575019711473291
1765407931.505104,-10.613062980998766,-0.2550361448785417,0.5873291383414933,0.01656815867073869,0.11968296078456842,0.653607965991723
1765407931.505354,-10.658651895903564,-0.21495079801201206,0.6108112001760888,0.011591937133946063,0.11543573808587562,0.6497776308077696
1765407931.505604,-10.691278703295534,-0.17007178943770151,0.6323767999012374,0.006402304263106089,0.1113424215785204,0.6460657749370655
1765407931.505848,-10.710451516049444,-0.12222982983770812,0.6514998265313803,0.0009647517317922911,0.10729772603940875,0.6425194468763313
1765407931.506098,-10.716356233120155,-0.07331290301332041,0.6678315170818897,-0.00474112958599768,0.10319620917028487,0.6391754208745608
1765407931.506348,-10.709793822728365,-0.025133299868198337,0.6812015952444754,-0.010721910172318784,0.09893675022260973,0.6360585076106435
1765407931.506598,-10.692076786323272,0.020685990055844615,0.6915929261894268,-0.01697135002924486,0.09442625244813224,0.6331807403370808
1765407931.506854,-10.664893702393206,0.06279784023259559,0.6990916919807683,-0.02347199366440756,0.08958257715954436,0.6305413916428462
1765407931.507054,-10.630153986629335,0.10018694336725177,0.7038199043863985,-0.0301971231411897,0.08433681598032357,0.6281277067445304
1765407931.507254,-10.589827716621867,0.13219494468281748,0.7058612836923704,-0.03711287007108871,0.07863504618602192,0.6259162045963597
1765407931.507454,-10.545796729150752,0.15851695227624346,0.7051946045974857,-0.04418030461204394,0.07243970704522838,0.6238743888537084
1765407931.507654,-10.49973220982149,0.17917347178737936,0.7016494153833446,-0.05135734529933185,0.06573069082078002,0.6219627197372658
1765407931.507852,-10.453010401104363,0.19446312835369176,0.6948962504650191,-0.05860037631261949,0.058506155805211194,0.62013672210576
1765407931.508102,-10.406672637573896,0.20490212300260907,0.6844769067426243,-0.06586552055545507,0.05078296267234233,0.6183491337859984
1765407931.508352,-10.36142986108668,0.2111563891181812,0.6698719478622821,-0.0731095831747414,0.04259657257935677,0.6165520159610969
1765407931.508602,-10.317706019421006,0.2139723397539382,0.6505954320049573,-0.08029072774036894,0.034000273302929825,0.6146987528372687
1765407931.508856,-10.275710025819375,0.21411198176442878,0.6263028545568233,-0.08736896617284248,0.025063689529748762,0.6127458729965755
1765407931.509106,-10.235522945837465,0.21229758174587265,0.5968970644309654,-0.0943065442371023,0.01587060644534616,0.6106546328063114
1765407931.509356,-10.197186177459475,0.2091698383119287,0.5626171220124008,-0.10106830014338701,0.006516151449826277,0.6083923057829809
1765407931.509606,-10.160777461041118,0.20526205702004457,0.5240964018524304,-0.10762206591585385,-0.0028966277451033095,0.6059331239690232
1765407931.509809,-10.126464404695598,0.2009915617468505,0.48237965962184737,-0.11393916819397637,-0.012260723713002911,0.6032588320515453
1765407931.510059,-10.094529716881862,0.1966683603475941,0.4388948223731912,-0.119995071198021,-0.02146953651826583,0.6003588500154197
1765407931.510309,-10.06536755357859,0.19251933766177473,0.39538239490768096,-0.12577019089905206,-0.03042144698012341,0.5972300896686579
1765407931.510559,-10.039454558776807,0.188723782307984,0.3537908749374546,-0.13125088526682704,-0.039024354852142715,0.5938765166614697
1765407931.510835,-10.017301444271707,0.18545352943327945,0.3161491269155774,-0.13643057775244127,-0.047199921349590716,0.5903085721716747
1765407931.511085,-9.999392115700735,0.18290949175159482,0.28442721027734763,-0.14131090509098113,-0.05488724666980041,0.5865425551599602
1765407931.511335,-9.986118330529772,0.18134669527436917,0.26039709920406756,-0.14590272359336753,-0.06204572251396656,0.5826000177473322
1765407931.511585,-9.9777182674653,0.1810824025412359,0.24550437115677393,-0.15022678703666315,-0.0686568298624775,0.5785071618116336
1765407931.511863,-9.974226187759946,0.1824858375407286,0.24076082717406996,-0.15431392950031883,-0.0747246930079549,0.5742941814740411
1765407931.512063,-9.975437628664574,0.18595179379018167,0.2466660187018642,-0.15820463848969657,-0.08027525803579152,0.5699945007752083
1765407931.512263,-9.980891622919101,0.19186239314003814,0.263163140376467,-0.16194797505634104,-0.08535406231626687,0.5656438926679902
1765407931.512463,-9.989869514985537,0.20054125077865667,0.28963187765566945,-0.1655998722675306,-0.0900227021349769,0.5612794890793379
1765407931.512663,-10.001409181007528,0.21220364761479135,0.3249176089891894,-0.1692209030615413,-0.09435424888598291,0.5569386769634079
1765407931.512872,-10.01433345072496,0.22690654985820272,0.36739355683808045,-0.17287364428465601,-0.09842796791244007,0.5526578425370633
1765407931.513122,-10.02729205368596,0.24450370391615409,0.41505116146325083,-0.176619780596109,-0.10232374518944794,0.5484709179854088
1765407931.513372,-10.038817026477542,0.26461246754147755,0.46561392733586415,-0.18051710052761963,-0.10611663351507991,0.5444077262661026
1765407931.513622,-10.04739120476059,0.2865991287366453,0.5166695022537041,-0.18461654279150008,-0.10987190312605495,0.5404921987001835
1765407931.513828,-10.051527545115185,0.3095875924422829,0.5658127703979782,-0.1889594521404081,-0.11364093273021399,0.536740621167176
1765407931.514078,-10.049854318642355,0.33249295219293146,0.6107904335882464,-0.19357519701960438,-0.11745821180578273,0.5331601116972673
1765407931.514328,-10.041199262966703,0.3540777544553489,0.6496366399430432,-0.19847928476771978,-0.1213396407513348,0.5297475275798962
1765407931.514578,-10.024665575993138,0.3730257217738916,0.6807900781645063,-0.20367208440157233,-0.1252822112414342,0.5264889512177398
1765407931.514841,-9.999693982479405,0.3880257594323791,0.7031848583787975,-0.209138231463625,-0.1292650357157078,0.5233598331264697
1765407931.515174,-9.966107039422287,0.39785825192063173,0.7163097206352644,-0.21484674592402592,-0.13325158524255343,0.5203257983373573
1765407931.515508,-9.924133459095616,0.4014757826852941,0.7202323923130294,-0.22075185202467024,-0.1371928966845253,0.5173440597710606
1765407931.515816,-9.87441117943684,0.39807117771984324,0.7155882389879356,-0.22679445984798638,-0.14103143586032504,0.5143653315497178
1765407931.516066,-9.817968442445597,0.38712705718108686,0.7035346194262152,-0.23290425345651272,-0.14470527187151908,0.5113360956019687
1765407931.516316,-9.756182828843372,0.3684431196624062,0.6856744829976742,-0.2390023169515748,-0.1481522330196474,0.508201046577404
1765407931.516566,-9.69071952904131,0.34214023873404126,0.6639548146253053,-0.24500420332067588,-0.15131376156838766,0.5049055289535728
1765407931.516842,-9.623451970210157,0.30864344204371835,0.6405473447942815,-0.2508233112125729,-0.15413824943818238,0.5013977936095226
1765407931.517092,-9.556369512340968,0.2686480306557627,0.617719816504042,-0.25637439777805604,-0.1565837137796275,0.49763093734178987
1765407931.517342,-9.491477657528863,0.22307412343789465,0.5977056236703672,-0.26157703839189506,-0.15861974591525335,0.4935644376126723
1765407931.517592,-9.430696169446836,0.17301495923586183,0.5825783273358335,-0.26635885042723695,-0.16022871793420845,0.48916524884482576
1765407931.517938,-9.375760225288207,0.11968353497167097,0.5741363968065,-0.27065832202361606,-0.16140625218066781,0.4844084817055401
1765407931.518188,-9.328129726002139,0.06436071983481197,0.5738031059994225,-0.2744271195425575,-0.16216096628491328,0.4792777334533984
1765407931.518438,-9.288912270685616,0.008346161138653312,0.5825468208417884,-0.2776317807834899,-0.1625135206210592,0.4737651613131856
1765407931.518688,-9.258805584571714,-0.04708839787986927,0.600827407012151,-0.28025473049969235,-0.1624950217477885,0.4678713804240525
1765407931.518958,-9.238064598491265,-0.10074470506987633,0.6285741475405332,-0.2822945832038032,-0.16214486696468255,0.46160522225385964
1765407931.519208,-9.226496553727918,-0.1515435207003658,0.6651984555089626,-0.2837657291787698,-0.16150814984651837,0.4549833272913404
1765407931.519458,-9.223484940602868,-0.1985696210917535,0.7096410863765308,-0.2846972312530561,-0.16063279372503736,0.44802949935927605
1765407931.519708,-9.228040523749845,-0.24111372726850339,0.76044991055377,-0.2851310913408047,-0.1595666349941203,0.4407737421544219
1765407931.519864,-9.238875329032224,-0.27870700986875485,0.8158814604866463,-0.2851199796799595,-0.1583547113554289,0.43325093888351385
1765407931.520114,-9.254493150908651,-0.3111433454103609,0.8740171685678148,-0.2847245547802553,-0.15703699909076313,0.425499214377542
1765407931.520364,-9.273288423559686,-0.3384857815488626,0.9328835591985474,-0.2840105289215904,-0.15564679253236438,0.4175581071403087
1765407931.520614,-9.29364505443514,-0.36105612857968883,0.9905656408173025,-0.28304564105268387,-0.15420983579207145,0.4094667367778215
1765407931.520884,-9.314027992640094,-0.37940905048819046,1.045304792475334,-0.2818966830467401,-0.15274420351440537,0.40126215618941447
1765407931.521134,-9.333061964469476,-0.3942935729624302,1.095575606158709,-0.2806266977697881,-0.15126080839530373,0.392978033018496
1765407931.521384,-9.349593378440886,-0.40660536726257296,1.1401391318967253,-0.27929244528219266,-0.14976433565950356,0.38464373585010975
1765407931.521634,-9.362732947093805,-0.41733296355614036,1.1780722089642794,-0.27794222370433025,-0.14825439294943735,0.37628383546186733
1765407931.521851,-9.371878036969807,-0.4275008382527064,1.2087741334843995,-0.2766141274957921,-0.14672669679455394,0.36791798687466615
1765407931.522101,-9.376714863487202,-0.4381123752918672,1.2319530362031172,-0.27533481884928207,-0.14517416123370977,0.35956113370908277
1765407931.522351,-9.377201649427818,-0.4500958334933251,1.2475953816699377,-0.2741188729451191,-0.143587803908865,0.3512239629499187
1765407931.522601,-9.37353558575816,-0.4642563692249689,1.2559234596742326,-0.2729687329139219,-0.14195744696615084,0.34291352758802357
1765407931.522898,-9.366108901953062,-0.48123674086906276,1.2573474428038842,-0.271875275054756,-0.14027224956734427,0.33463394473612584
1765407931.523231,-9.355461007236295,-0.5014886475851573,1.2524191224600063,-0.27081894457026234,-0.13852113700815966,0.32638707214878265
1765407931.523565,-9.342232900519456,-0.5252558791995594,1.2417926233995915,-0.26977138658479877,-0.13669318471023897,0.3181730733259563
1765407931.523855,-9.327127207350317,-0.5525695735612285,1.2261939713686252,-0.26869747185716436,-0.1347779982667588,0.3099908038592812
1765407931.524105,-9.310874169867398,-0.5832548179431858,1.2063982463170833,-0.26755759978001203,-0.13276612097535567,0.3018379881044664
1765407931.524355,-9.294202229446068,-0.6169467836150881,1.18321139851982,-0.26631014923880325,-0.13064949204041787,0.2937112013813868
1765407931.524605,-9.2778118138471,-0.6531140201552462,1.1574538249955033,-0.2649139363902147,-0.12842195937642295,0.2856057214025978
1765407931.524907,-9.262351923681184,-0.6910867045756189,1.1299440894687427,-0.263330524335095,-0.1260798204290141,0.27751535188586357
1765407931.525157,-9.248400027575475,-0.7300882167660386,1.1014826112155236,-0.261526219615991,-0.12362233694320192,0.26943233818472695
1765407931.525407,-9.2364459046221,-0.7692689009372625,1.0728355399837377,-0.2594736014117228,-0.12105216199850005,0.2613474827148576
1765407931.525657,-9.226879718644591,-0.8077411710198938,1.0447185223316102,-0.25715247159470905,-0.11837563046376369,0.25325053113561624
1765407931.525862,-9.219984554267315,-0.8446153937643873,1.0177800338415506,-0.25455017856583173,-0.11560287610575985,0.24513084738365798
1765407931.526112,-9.215933947507864,-0.8790360987330034,0.9925850078014085,-0.25166133599815793,-0.11274773250725244,0.23697833390794557
1765407931.526362,-9.214794910620174,-0.910217566586323,0.9696005724083081,-0.24848701462838416,-0.10982736660720012,0.22878449413666083
1765407931.526612,-9.216536284572198,-0.9374767448127708,0.9491856428952016,-0.24503352289483074,-0.10686161691002799,0.22054349907061427
1765407931.526928,-9.22104148006121,-0.9602606453469488,0.93158514300407,-0.24131090723635137,-0.1038720676560568,0.21225312712496186
1765407931.527178,-9.22812434639114,-0.9781658857408626,0.9169288379691343,-0.23733130035014538,-0.10088095068492937,0.20391548659964978
1765407931.527428,-9.237546984143954,-0.9909497066779146,0.9052346104176833,-0.2331072386772345,-0.0979099965999076,0.1955374689748653
1765407931.527678,-9.249038398936248,-0.9985333587319052,0.8964160082247132,-0.2286500681037822,-0.09497935528623719,0.18713089352657544
1765407931.52793,-9.26231274112304,-1.0009990790922976,0.8902934597943496,-0.2239685557104841,-0.0921066845319021,0.17871230176522765
1765407931.528263,-9.277085549422802,-0.9985810798242962,0.8866077744950461,-0.21906781637837694,-0.08930647119471916,0.17030237949331675
1765407931.528597,-9.293086241390252,-0.9916501202132559,0.8850340838227684,-0.2139486445767847,-0.08658961127939584,0.16192504044562334
1765407931.528872,-9.310065468054662,-0.9806912923646697,0.885194741262227,-0.2086073171080132,-0.08396324610186896,0.15360627304100394
1765407931.529122,-9.327796884812773,-0.9662756662532014,0.8866706281995997,-0.2030358995069855,-0.0814308340639078,0.1453728913837538
1765407931.529372,-9.346073898296412,-0.9490276572280423,0.8890111100078181,-0.19722304317446437,-0.07899242197842875,0.13725132763653283
1765407931.529622,-9.364702595585134,-0.9295905518973685,0.8917433112947557,-0.1911552106204619,-0.076645059301183,0.12926656850953552
1765407931.529849,-9.383492313152798,-0.9085923348780753,0.8943816586564325,-0.18481823033823125,-0.07438327942046094,0.12144129750201636
1765407931.530099,-9.402245200905613,-0.8866132685714164,0.896438600280412,-0.17819906993537935,-0.07219956952175564,0.11379527415332803
1765407931.530349,-9.420745669584688,-0.8641562371436513,0.8974365484234278,-0.17128771844170318,-0.07008477421429028,0.10634496632955713
1765407931.530599,-9.43875013639599,-0.8416209645803703,0.8969197482820743,-0.16407907052540496,-0.068028420255634,0.09910344529692973
1765407931.530896,-9.455977677103801,-0.8192836628776806,0.8944642489939606,-0.1565746975276081,-0.06601898528315693,0.09208054670282155
1765407931.531146,-9.47210313628637,-0.7972840147245651,0.8896850565959805,-0.14878437890000207,-0.0640441393692127,0.08528328630369897
1765407931.531396,-9.486755120891672,-0.7756212650881792,0.8822410146423152,-0.14072726887607784,-0.0620909675859741,0.07871649524532438
1765407931.531646,-9.499521365736618,-0.7541605085485615,0.8718389347913037,-0.13243259690596493,-0.060146163015308556,0.07238361157636877
1765407931.531896,-9.509963285933084,-0.7326492430409114,0.8582388411585007,-0.12393984179149299,-0.05819618620833376,0.06628754168789561
1765407931.532146,-9.517640445773909,-0.7107431915541961,0.8412619542385157,-0.1152983660006822,-0.05622741299920535,0.06043149229389395
1765407931.532396,-9.522144199236918,-0.688039392311823,0.8208019085273122,-0.10656653716306758,-0.05422631321121187,0.05481967130924763
1765407931.532646,-9.523138109947876,-0.6641137159615581,0.7968379279754232,-0.09781039252100913,-0.052179704004268565,0.049457767261140935
1765407931.532893,-9.520401685314033,-0.6385594992835828,0.7694475772871933,-0.08910192063550415,-0.05007510656537849,0.044353144296940795
1765407931.533143,-9.513873867224266,-0.6110240796439972,0.7388171231805215,-0.08051704838845547,-0.047901208254966694,0.039514729392819005
1765407931.533393,-9.503692982643393,-0.5812406001413286,0.7052486376544144,-0.07213343116605946,-0.045648399187062136,0.034952608927227145
1765407931.533643,-9.490229685929602,-0.5490532270029046,0.6691633822191859,-0.06402814474837767,-0.043309330178131954,0.030677382711529734
1765407931.533803,-9.4741089775455,-0.514434624616319,0.6311005903460717,-0.05627536643414522,-0.04087944640152372,0.026699342720100612
1765407931.534003,-9.456217347626746,-0.4774951339411113,0.591710369535553,-0.04894411720018072,-0.038357480002754754,0.023027556222490784
1765407931.534203,-9.437691653542078,-0.43848362885116826,0.551739545011435,-0.04209612775014076,-0.035745907451150825,0.01966894106914562
1765407931.534403,-9.419887226426434,-0.3977804083468876,0.5120096861232316,-0.035783894925369056,-0.03305137927049549,0.01662741937193998
1765407931.534603,-9.4043238904078,-0.35588265942132297,0.4733871550979978,-0.030049006380967882,-0.030285117822163494,0.01390322049962769
1765407931.534788,-9.392610281206466,-0.31338313095815457,0.4367458293471908,-0.02492082083430599,-0.027463258939981007,0.011492380085610002
1765407931.535038,-9.38634899275953,-0.2709428998939875,0.40292402906815467,-0.020415590731861992,-0.024607085650764058,0.009386458211207486
1765407931.535288,-9.38702740092129,-0.22925949760603856,0.37267797588707324,-0.01653609884945025,-0.021743076514089507,0.007572483028193314
1765407931.535538,-9.395901478299916,-0.18903202461464333,0.3466349413590312,-0.013271847943146281,-0.018902682956671225,0.006033117717204408
1765407931.535867,-9.413882445051655,-0.15092512187835322,0.3252501383623205,-0.010599797725929705,-0.016121762497435743,0.004747048381644359
1765407931.536067,-9.441438077734595,-0.11553390672828695,0.30877195226316295,-0.008485598778725553,-0.013439618997294013,0.0036895928163695334
1765407931.536267,-9.478520995066894,-0.08335238001567763,0.29721990808890325,-0.006885241450285946,-0.010897633317255451,0.0028335243804534617
1765407931.536467,-9.52453462064892,-0.0547482573124439,0.29037883829123895,-0.0057470233039421705,-0.008537513056283978,0.0021500825483438076
1765407931.536667,-9.578343703831111,-0.029947193155958774,0.2878112056197257,-0.005013735840033813,-0.006399247863896482,0.001610104101059374
1765407931.536817,-9.638330798205315,-0.009028443791079956,0.2888875390748101,-0.0046249718070688955,-0.004518914022057479,0.0011851721730611745
1765407931.537017,-9.702494124052858,0.008067840096052577,0.2928327094258703,-0.004519452149761014,-0.0029265123214666463,0.0008486661175345436
1765407931.537217,-9.768577143507292,0.021523534433219384,0.29878375096779997,-0.00463726515413878,-0.0016440376167448651,0.0005766154432297284
1765407931.537417,-9.83421684047918,0.031618712443928804,0.30585351446533765,-0.004921905206439706,-0.0006839663548949629,0.00034830785115929383
1765407931.537617,-9.897096411121588,0.0387040119537747,0.31319389548057475,-0.005322003544829378,-4.8315349383601234e-05,0.00014665029361850726
1765407931.537845,-9.955088821537254,0.04317135354287208,0.32005289148733873,-0.00579266204725908,0.0002716236677006982,-4.16905299896162e-05
1765407931.538045,-10.00638006220668,0.04542468930455481,0.32582102221030373,-0.006296329740668606,0.0002948341037897482,-0.00022633993246384368
1765407931.538245,-10.049563997366993,0.045852720025627174,0.3300640217442095,-0.006803195594752904,4.944892403500478e-05,-0.0004134379914120862
1765407931.538445,-10.083703696195133,0.04480594568715012,0.3325398743444481,-0.007291108199433912,-0.00042893356762215343,-0.0006060095250535592
1765407931.538645,-10.108357019597369,0.042580184108019885,0.33319954163670773,-0.007745070062304609,-0.0010993247110634707,-0.0008044435571635018
1765407931.538882,-10.123567244159798,0.03940763740977827,0.3321722824444653,-0.008156385248596038,-0.0019176276142578266,-0.0010070327346646854
1765407931.539082,-10.129822347458797,0.03545531242368604,0.32973790109330586,-0.008521558814950826,-0.0028389486173850407,-0.001210526424406252
1765407931.539282,-10.127988706940652,0.030829828699182136,0.3262892117965343,-0.008841054991800958,-0.003819773038911746,-0.001410667396990918
1765407931.539482,-10.119226234943259,0.025587554233024893,0.32228854851822575,-0.009118021058388678,-0.004819861390990582,-0.0016026955618265056
1765407931.539682,-10.104892610758897,0.019749134429379905,0.31822243007578654,-0.009357076395243505,-0.00580375795138572,-0.0017818009310875329
1765407931.539841,-10.08644438172468,0.013317196038990235,0.3145584103028859,-0.009563251018414484,-0.00674184777836952,-0.0019434969376561034
1765407931.540041,-10.065342215395141,0.006295195127148114,0.3117075793060883,-0.009741136169019844,-0.007610940334237922,-0.0020838825049058892
1765407931.540241,-10.042966536101284,-0.0012953344274166747,0.3099952758985206,-0.009894284112584275,-0.008394394767978538,-0.002199779624820467
1765407931.540441,-10.020548376194654,-0.009401694508641362,0.3096416179030408,-0.010024868262747368,-0.009081833885415422,-0.00228876575738104
1765407931.540641,-9.999118692301463,-0.01793249628794256,0.31075259985910064,-0.01013359080878198,-0.009668518359906524,-0.0023491446832039227
1765407931.540789,-9.979477709658367,-0.02675570973661041,0.31332165757553926,-0.010219805421215662,-0.01015446787739913,-0.002379898016771715
1765407931.540989,-9.96218411341607,-0.035701552173485404,0.3172406534561906,-0.010281808502722811,-0.010543422754300336,-0.0023806374996382753
1765407931.541189,-9.94756225744469,-0.044569453627548765,0.32231832590616616,-0.010317243920298893,-0.01084173957261786,-0.0023515578266939366
1765407931.541389,-9.935724253144256,-0.053138450144207615,0.3283036474291509,-0.010323562812005117,-0.011057308657345933,-0.0022933869241926726
1765407931.541589,-9.92660299485393,-0.06118010950943275,0.3349113453627601,-0.010298481575394272,-0.01119857133796895,-0.002207340153341575
1765407931.541829,-9.919991851993359,-0.06847259818192175,0.3418469274870962,-0.01024038764150045,-0.011273701322372405,-0.0020950910935337557
1765407931.542029,-9.915586821515964,-0.07481422624545774,0.3488288439478069,-0.01014865443904215,-0.011289995953899321,-0.001958766312065587
1765407931.542229,-9.913027349420753,-0.08003503472662148,0.35560594533502005,-0.010023843012889527,-0.011253499676157628,-0.0018009593041175209
1765407931.542429,-9.911932757824633,-0.08400558449553111,0.36196913118701696,-0.009867784847263092,-0.01116885673022141,-0.0016247483171465042
1765407931.542629,-9.911932168197119,-0.08664272817670216,0.3677569206473697,-0.009683554741131509,-0.011039367677806704,-0.0014336993527132463
1765407931.542855,-9.912686903878155,-0.08791251132607625,0.37285555570388745,-0.009475351752094364,-0.01086720912831341,-0.001231839546243028
1765407931.543055,-9.913905438538118,-0.08783038453905415,0.3771950163092648,-0.009248310216987183,-0.01065376940342005,-0.0010235938436057041
1765407931.543255,-9.915351751023584,-0.08645879723261807,0.3807426776089522,-0.009008263424803473,-0.010400052509247717,-0.0008136844627238686
1765407931.543455,-9.916848252888212,-0.08390226958249537,0.38349613901466656,-0.008761481264011238,-0.010107106045401435,-0.000606995488478923
1765407931.543655,-9.9182744124223,-0.08030029778046222,0.3854762503321546,-0.008514400146505795,-0.009776433894137536,-0.0004084063349198519
1765407931.543849,-9.919562109845199,-0.07581875121261403,0.3867208631965411,-0.00827335868146027,-0.009410359274827054,-0.00022260194172984662
1765407931.544049,-9.920688735374085,-0.07064052881617426,0.38727945242411804,-0.008044347627164484,-0.009012307327273462,-5.387473894077159e-05
1765407931.544249,-9.92166900330679,-0.06495613403679172,0.3872085249679732,-0.007832780007473285,-0.008586982617723296,9.406164898327621e-05
1765407931.544449,-9.922546325512506,-0.058954679229579254,0.3865677218255895,-0.007643287737543699,-0.008140428140158753,0.00021822917768672773
1765407931.544649,-9.923384342990927,-0.05281578358307165,0.38541661968790186,-0.00747955338983132,-0.007679964226224674,0.0003165021859232616
1765407931.544806,-9.92425887954587,-0.04670284763713669,0.3838122436207561,-0.007344188062150885,-0.0072140140831817925,0.0003876794748388938
1765407931.545006,-9.925250305323589,-0.04075812486100987,0.3818071891878785,-0.007238667077345334,-0.006751829197557158,0.0004315079497141763
1765407931.545206,-9.926436258127028,-0.035099798709437476,0.37944819970716276,-0.007163332600395214,-0.006303134808137692,0.00044865418529276924
1765407931.545406,-9.927884839779004,-0.029821023848550305,0.37677514120870653,-0.007117465789521672,-0.005877721203227277,0.00044062348566023676
1765407931.545606,-9.92964859122374,-0.024990753460256854,0.3738205011294527,-0.007099423647594081,-0.0054850091043711045,0.0004096314470759936
1765407931.545841,-9.931759645527402,-0.020656136945031378,0.3706097097649276,-0.00710683004089066,-0.005133618295001352,0.00035843743768615004
1765407931.546091,-9.934226443794753,-0.01684619260314068,0.3671625977254936,-0.007136805079556988,-0.004830968672552042,0.0002901520052329833
1765407931.546341,-9.937032232830742,-0.01357628176952074,0.3634960328014525,-0.007186210414342058,-0.004582940699895439,0.00020803237029112434
1765407931.546591,-9.940135297658335,-0.01085273719750306,0.3596273747076985,-0.007251882657851627,-0.004393618054583727,0.00011528222202711886
1765407931.546837,-9.943470726794462,-0.008676967106033695,0.3555781846060636,-0.0073308271264248175,-0.004265130895994484,1.4872990720019892e-05
1765407931.547037,-9.946953556833835,-0.007048518772531334,0.35137773008271556,-0.007420350061481298,-0.004197612470687361,-9.059720138936498e-05
1765407931.547237,-9.950483216366806,-0.0059668813514379224,0.3470660222774156,-0.007518117731715417,-0.004189271927338451,-0.00019899372557101992
1765407931.547437,-9.953949114530463,-0.00543209096256089,0.3426962211337515,-0.007622143014351224,-0.0042365734230095905,-0.00030867651214052375
1765407931.547637,-9.957237059182871,-0.005444334849209959,0.33833623263676055,-0.007730710887605861,-0.0043345004485002454,-0.0004184703920611959
1765407931.54785,-9.960236075202147,-0.006002735172153969,0.33406923487053936,-0.007842261272184077,-0.004476877291116504,-0.0005275806872212169
1765407931.54805,-9.962845135047445,-0.007103454341820744,0.3299927767627068,-0.007955251149943615,-0.004656716724731102,-0.0006354670393421188
1765407931.54825,-9.964979268036808,-0.008737302260379132,0.32621612473865347,-0.008068019098127094,-0.004866564594991702,-0.0007416936270589581
1765407931.54845,-9.96657448050863,-0.01088712883921671,0.3228557378804957,-0.008178674533332772,-0.00509881770689736,-0.0008457763298367657
1765407931.54865,-9.967590927326077,-0.013525380669398025,0.32002902594770455,-0.00828503104093409,-0.0053459997065058735,-0.000947046700418859
1765407931.548829,-9.968013880505136,-0.016612215402831268,0.31784678515546533,-0.008384598409661725,-0.005600988806066396,-0.0010445498965401814
1765407931.549029,-9.967852285519026,-0.02009446385915224,0.316404896114573,-0.008474641016928224,-0.005857199078125952,-0.001136990391792316
1765407931.549229,-9.967135035807647,-0.023905555786162398,0.3157759784729984,-0.008552300356463127,-0.006108720437682739,-0.0012227344718707394
1765407931.549429,-9.965905437287791,-0.027966390181245148,0.3160017179808577,-0.008614767832055255,-0.006350420321749361,-0.0012998704973437342
1765407931.549629,-9.964214629685312,-0.032187089704954944,0.3170865973619877,-0.008659483937955393,-0.006578005286886528,-0.0013663180349599599
1765407931.550427,-9.96211493522239,-0.0364695804287348,0.3189937908690106,-0.008684335448579293,-0.006788036609125931,-0.001419969588554907
1765407931.550627,-9.959654117245057,-0.0407109125360499,0.32164387424864566,-0.00868782482727592,-0.006977892800671476,-0.0014588470442703735
1765407931.550827,-9.956871321982232,-0.04480716380457143,0.3249166790545779,-0.008669193953788575,-0.0071456762559968775,-0.0014812581931799634
1765407931.551027,-9.953795177882393,-0.04865765598387591,0.32865623886950085,-0.008628493615633228,-0.007290071141937308,-0.0014859427606883839
1765407931.551227,-9.950444272002125,-0.052169107570636884,0.3326785106365662,-0.008566598439432908,-0.007410170546311236,-0.0014721989763291047
1765407931.551359,-9.946829993866922,-0.05525932970401677,0.33678140747808066,-0.008485174046507445,-0.007505297939077411,-0.0014399810604084724
1765407931.551559,-9.942961463707476,-0.05786017509271075,0.34075655718453124,-0.008386608358964848,-0.00757485004158196,-0.0013899576836781525
1765407931.551759,-9.938851949246121,-0.05991958148883121,0.34440203323338203,-0.00827391883612982,-0.007618185439595387,-0.0013235238204573631
1765407931.551959,-9.93452587777147,-0.06140263143421476,0.34753509265319577,-0.008150641343961592,-0.007634576153899925,-0.0012427638815694236
1765407931.552159,-9.93002535062789,-0.062291627987484686,0.35000381095060235,-0.008020699932478751,-0.007623230746172077,-0.0011503707649101508
1765407931.551851,-9.925415083181994,-0.06258531910132549,0.3516965785906002,-0.007888256120419341,-0.0075833905845655155,-0.0010495307744136538
1765407931.552051,-9.920784955417696,-0.06229753250413421,0.35254870969688984,-0.0077575413416050365,-0.007514494928133689,-0.0009437865434239167
1765407931.552251,-9.916249719810502,-0.06145552310159661,0.35254574115836385,-0.007632682575245381,-0.007416402637409008,-0.0008368891181900493
1765407931.552451,-9.911945719414739,-0.0600982755376743,0.35172324685453615,-0.007517535143635397,-0.007289648421425234,-0.0007326473036069803
1765407931.552651,-9.908024735414555,-0.05827487758272509,0.3501631887660262,-0.007415536704663557,-0.007135702429022205,-0.0006347789296406798
1765407931.552876,-9.904645393600244,-0.05604293893914099,0.3479870625504379,-0.00732959287844271,-0.0069571967211573505,-0.0005467664513906366
1765407931.553076,-9.901962898216784,-0.053466959587686116,0.3453464079710544,-0.007261999416748255,-0.00675808308726468,-0.0004717189479894935
1765407931.553276,-9.900118128258848,-0.050616592313303864,0.342411584601897,-0.007214400244146084,-0.006543694335664588,-0.0004122439460982032
1765407931.553476,-9.899227218091857,-0.047564831084140204,0.33935990627478113,-0.007187776252444003,-0.006320692036053486,-0.00037033502632431584
1765407931.553676,-9.899372595375564,-0.04438620248023471,0.3363641607799047,-0.007182457284083361,-0.006096892922681124,-0.0003472838019624329
1765407931.553886,-9.900596140542104,-0.041155019550458916,0.3335822731017435,-0.007198149986161625,-0.005880973949659936,-0.0003436257117140288
1765407931.554086,-9.902894846564235,-0.037943708953864994,0.3311485910543906,-0.007233976632244449,-0.005682066432451046,-0.0003591265780456025
1765407931.554286,-9.906219196457922,-0.034821196336831665,0.3291671173947514,-0.007288522773943657,-0.0055092638191996494,-0.0003928111449679142
1765407931.554486,-9.910474366784733,-0.03185136649617407,0.32770697458627956,-0.007359893349790437,-0.005371081204447609,-0.00044302769211355703
1765407931.554686,-9.915524191768746,-0.029091669113457806,0.3268003407064235,-0.007445777308357567,-0.005274912637307884,-0.000507537501886702
1765407931.55482,-9.921197560598852,-0.02659195715702596,0.32644290588110947,-0.007543519606175726,-0.005226532936482019,-0.0005836175155692926
1765407931.55502,-9.927296665099897,-0.024393630891991275,0.32659660850185224,-0.007650197508287901,-0.00522968621685197,-0.0006681691312232443
1765407931.55522,-9.933606412139275,-0.022529147878399415,0.32719420879913264,-0.007762698502212759,-0.0052857960104104275,-0.0007578321452551144
1765407931.55542,-9.939904398916672,-0.02102191773482524,0.328145210062986,-0.007877801271106804,-0.005393821299234677,-0.0008491060355991498
1765407931.55562,-9.945970974401543,-0.01988650865283618,0.32934263125166213,-0.007992265570733102,-0.00555026798795106,-0.0009384795723284614
1765407931.555883,-9.951598960729667,-0.019129022852524147,0.33067014953316365,-0.008102936940185367,-0.005749349295991586,-0.0010225656213740087
1765407931.556083,-9.956602658176807,-0.018747521879978458,0.33200927558243337,-0.008206867577347562,-0.005983276772965082,-0.001098233845579428
1765407931.556283,-9.960825858038701,-0.018732473795786964,0.33324640906044356,-0.008301448299382709,-0.0062426578828451325,-0.0011627319997477464
1765407931.556483,-9.964148593587975,-0.0190672800005731,0.334279564793625,-0.008384540607923947,-0.006516973569541743,-0.0012137871446474696
1765407931.556683,-9.966492189993398,-0.01972896339999984,0.33502426173303534,-0.008454593607870434,-0.006795107976328911,-0.001249680690126263
1765407931.556882,-9.96782203650658,-0.020689039573948506,0.33541790972530044,-0.008510728940912643,-0.0070659023461657556,-0.0012692943975240747
1765407931.557082,-9.968147620916923,-0.02191449202217298,0.33542224117741887,-0.00855277881882174,-0.007318704156638521,-0.0012721263830572337
1765407931.557282,-9.967519698298638,-0.023368723142928538,0.3350237175248102,-0.008581267691864283,-0.007543879184938386,-0.001258275863626961
1765407931.557482,-9.966024871678918,-0.025012399394344045,0.33423216286958846,-0.008597336156091413,-0.007733252036463442,-0.0012283951935312843
1765407931.557682,-9.963778269017544,-0.026804204125135962,0.33307812937917414,-0.008602614254955024,-0.007880445164219891,-0.0011836113429258934
1765407931.557877,-9.960915280128411,-0.028701573253470357,0.3316096442957032,-0.008599058014120364,-0.007981097539536592,-0.0011254265283502788
1765407931.558077,-9.95758327830671,-0.030661481694909832,0.3298888858105598,-0.008588767874790758,-0.008032957481467535,-0.0010556146103196625
1765407931.558277,-9.95393392686248,-0.032641296031285474,0.3279890320587971,-0.008573812095728408,-0.008035857448962019,-0.0009761307841768808
1765407931.558477,-9.950116366302206,-0.03459964551869128,0.32599127512998255,-0.008556080399949116,-0.007991590993988365,-0.0008890454080239883
1765407931.558677,-9.946271499138424,-0.036497205621621086,0.32398190685069245,-0.00853718865640589,-0.007903718982588608,-0.0007965020021904991
1765407931.558781,-9.942527633074041,-0.038297268139405566,0.32204939917850306,-0.008518443626432637,-0.007777328778702763,-0.0007006905598619755
1765407931.558981,-9.938997742475085,-0.03996604022248267,0.32028150692563345,-0.008500862992478151,-0.007618759302928519,-0.000603824079237998
1765407931.559181,-9.93577851268889,-0.041472755581955414,0.31876259203748003,-0.00848523541291266,-0.007435295055489294,-0.0005081078387299336
1765407931.559381,-9.932951081774421,-0.04278978332387996,0.31757138257906226,-0.00847219972543501,-0.0072348273924223785,-0.0004156949059793474
1765407931.559581,-9.930582947032677,-0.04389289789165044,0.31677907561430013,-0.008462320753608183,-0.007025480869595227,-0.00032862671104010006
1765407931.559813,-9.928730078053832,-0.04476176882061751,0.3164473426188463,-0.008456140815780977,-0.006815207507617768,-0.0002487637464353093
1765407931.560013,-9.927438228993358,-0.04538063293246739,0.31662581668852574,-0.00845419150791957,-0.006611363820897093,-0.00017771660830131537
1765407931.560213,-9.926742799585565,-0.045739056120721315,0.3173490059988992,-0.00845695983679591,-0.006420299950602321,-0.00011678899791391863
1765407931.560413,-9.92666703733893,-0.04583266561863786,0.3186328839476427,-0.008464814051982506,-0.006247000155642556,-6.694090138140419e-05
1765407931.560613,-9.927218728231798,-0.045663740104925014,0.3204714970002949,-0.008477903857547759,-0.006094816272911682,-2.8773534384415245e-05
1765407931.56085,-9.928385916409415,-0.045241581238778424,0.3228340304450355,-0.008496054999047572,-0.0059653303579253235,-2.5312057374722776e-06
1765407931.56105,-9.93013262361788,-0.044582614699016004,0.3256629406696068,-0.008518679455860947,-0.005858368786799754,1.1887708711876484e-05
1765407931.56125,-9.932395703132038,-0.043710159765481656,0.3288737202986988,-0.00854472041996753,-0.005772169505902176,1.4917028602591905e-05
1765407931.56145,-9.935083706504077,-0.04265381034420911,0.33235652722971654,-0.00857264711819878,-0.005703684245077176,7.308504613826603e-06
1765407931.56165,-9.938078231707065,-0.04144842125758189,0.33597961366753865,-0.008600508607624917,-0.005648984898618529,-9.88495686550018e-06
1765407931.561823,-9.941237944127721,-0.040132748248759044,0.3395944508353964,-0.00862604714047456,-0.005603736219140285,-3.533352249864939e-05
1765407931.562023,-9.94440525481601,-0.03874781491497045,0.3430424532275979,-0.008646861700462779,-0.00556369051809887,-6.746841578736703e-05
1765407931.562223,-9.947415338821859,-0.03733511471327005,0.3461630510392741,-0.008660604243144493,-0.005525155590732266,-0.00010453956749006935
1765407931.562423,-9.950106834910878,-0.035934822230788394,0.34880262785524646,-0.008665186621708027,-0.005485389763615524,-0.0001446968298963598
1765407931.562623,-9.952333319754642,-0.034584225836765736,0.3508236778358381,-0.008658974246883857,-0.005442888095824294,-0.00018609554991371285
1765407931.562846,-9.953974491957492,-0.03331655409178133,0.35211344877546197,-0.008640943542563258,-0.00539753721056031,-0.00022702342061117626
1765407931.563046,-9.954945911568592,-0.03216027748231112,0.3525913250131774,-0.008610785963698443,-0.005350630459204934,-0.00026604079816845895
1765407931.563246,-9.9552062071189,-0.031138871329217697,0.3522143213106633,-0.008568950670236827,-0.005304749681376762,-0.00030212141506701204
1765407931.563446,-9.954760934755503,-0.030270949874595793,0.3509802834361525,-0.00851662668770186,-0.005263533155402887,-0.0003347756814685585
1765407931.563646,-9.953662643578927,-0.029570651554689485,0.3489286089748115,-0.008455670833982206,-0.005231358914708723,-0.00036413573752915794
1765407931.563847,-9.952007042244396,-0.029048175430584928,0.3461384395492696,-0.008388489994849762,-0.00521297733916385,-0.00039098171178713904
1765407931.564047,-9.949925457874363,-0.02871038439067706,0.3427243637982352,-0.008317886190727425,-0.005213127076283629,-0.0004166946223979795
1765407931.564247,-9.947574048979286,-0.028561350644970406,0.3388297906014256,-0.008246872123664165,-0.00523616448398924,-0.0004431336635477541
1765407931.564447,-9.94512047374929,-0.028602654120025956,0.3346183476049453,-0.00817846693907784,-0.005285730595242744,-0.0004724500186531735
1765407931.564647,-9.9427289250925,-0.028833241540142,0.33026388049072847,-0.008115487661540709,-0.0053644734264521226,-0.0005068592556895826
1765407931.564782,-9.940544631564316,-0.029248768067255446,0.3259397966983892,-0.008060357246043296,-0.0054738374956570576,-0.0005483974797319514
1765407931.564982,-9.93867907538148,-0.029840538368625335,0.32180861735923316,-0.008014950714765249,-0.005613925048251924,-0.0005986859686128512
1765407931.565182,-9.937197248747045,-0.030594325333043734,0.31801267833917557,-0.007980495125323783,-0.0057834249788365245,-0.0006587281588163113
1765407931.565382,-9.936108165300668,-0.03148937245647204,0.3146668256381555,-0.00795752930570273,-0.005979598798657202,-0.0007287609934202906
1765407931.565582,-9.935359502289012,-0.032497792270832764,0.31185357261032726,-0.007945919335518534,-0.006198311354326462,-0.0008081775320047111
1765407931.565853,-9.934836790125804,-0.033584468207290885,0.3096207091302342,-0.007944919433262431,-0.006434098511562775,-0.0008955286933085998
1765407931.566053,-9.934367228067556,-0.034707539662962306,0.30798110836661985,-0.00795326633520406,-0.006680272098107512,-0.00098860106178031
1765407931.566253,-9.933728045066175,-0.03581957667341627,0.3069145066519798,-0.007969296080844897,-0.006929067385984914,-0.0010845583045063561
1765407931.566453,-9.932659154848723,-0.03686954011280181,0.30637107111131806,-0.007991072521858648,-0.007171835289952565,-0.0011801283575034122
1765407931.566653,-9.930879570436902,-0.03780553095908281,0.3062765201363512,-0.008016516930979706,-0.0073992739681465495,-0.0012718172002826418
1765407931.566841,-9.928106785026468,-0.038578194176432136,0.3065386018389572,-0.008043530023795164,-0.007601690958517187,-0.0013561312995802825
1765407931.567041,-9.924078169493935,-0.03914451337345797,0.3070548398086034,-0.008070102005688078,-0.007769289113847256,-0.0014297930778529378
1765407931.567241,-9.918573224417466,-0.0394716360419526,0.30772128508184826,-0.008094410355043095,-0.00789247241855224,-0.0014899359248133777
1765407931.567441,-9.911435201439676,-0.03954031051651478,0.30844152520529694,-0.00811490668074472,-0.007962169484088375,-0.0015342670478159454
1765407931.567641,-9.902590419283813,-0.039347499106782126,0.3091348686435058,-0.00813039368928367,-0.007970175160869447,-0.001561188639908264
1765407931.567774,-9.892063696555832,-0.038907772074391465,0.3097427500547941,-0.00814009218699942,-0.007909511732105459,-0.001569871681262226
1765407931.567974,-9.879988497176472,-0.0382532105127264,0.31023271905717803,-0.008143695825764468,-0.007774804930101298,-0.0015602823910469824
1765407931.568174,-9.866610460143765,-0.03743174777666725,0.3105995862734973,-0.00814140801901737,-0.00756265776097346,-0.001533167172467172
1765407931.568374,-9.852283150735678,-0.036504077559894196,0.31086349996596446,-0.008133952793172682,-0.007271993724372738,-0.0014900054250601023
1765407931.568574,-9.837455323090438,-0.035539357889789756,0.3110650304748848,-0.008122551156505635,-0.00690433304634457,-0.0014329401229867286
1765407931.568825,-9.822649619782075,-0.03460995408584066,0.3112576501699199,-0.008108857239413065,-0.006463960612619603,-0.0013646948705951633
1765407931.569025,-9.808433339531327,-0.03378548607507405,0.31149831643303477,-0.008094852686435216,-0.005957946861168126,-0.0012884839230934506
1765407931.569225,-9.795382769605679,-0.033126530012923754,0.31183732618552795,-0.008082702170219148,-0.0053959966423206196,-0.0012079170743664654
1765407931.569425,-9.78404358983221,-0.032678440492492654,0.3123090618273221,-0.008074578144608774,-0.004790119301397137,-0.0011268939566936003
1765407931.569625,-9.774890771216048,-0.03246585992503972,0.3129252943454066,-0.008072470797431707,-0.0041541270298115635,-0.001049475243090714
1765407931.569849,-9.768292097674337,-0.03248855876192683,0.3136722737782353,-0.008078007488841897,-0.0035029801287793033,-0.0009797156974123674
1765407931.570049,-9.764479918319967,-0.03271934017538888,0.3145122746454152,-0.008092307736861398,-0.0028520148452586356,-0.000921448873766116
1765407931.570249,-9.76353553992558,-0.03310481032714012,0.31538972835343326,-0.008115891272181033,-0.0022161091624572186,-0.0008780285002312185
1765407931.570449,-9.7653890485701,-0.033569598057883114,0.3162411950901972,-0.008148643699128879,-0.0016088530398585552,-0.0008520571276895473
1765407931.570649,-9.769834340068936,-0.0340238278915545,0.3170070866179526,-0.00818983485822071,-0.001041788207919156,-0.0008451558072202161
1765407931.570864,-9.776556024278467,-0.03437253070578978,0.3176421704115211,-0.008238180163827572,-0.0005237751082392097,-0.0008578283795988679
1765407931.571114,-9.78516314222141,-0.0345249606261968,0.3181225674828942,-0.008291934077919954,-6.0534300225547155e-05,-0.0008894445214718327
1765407931.571364,-9.795224660113904,-0.03440212164848564,0.3184487824970881,-0.008349009636946255,0.0003456054785546214,-0.0009383260635459009
1765407931.571614,-9.80630265095085,-0.033942156508778826,0.3186454726293309,-0.00840712518916672,0.0006957359895169191,-0.0010018971092214135
1765407931.571791,-9.817980096255454,-0.03310465565063599,0.31875828897121283,-0.008463977380532058,0.0009941669884301126,-0.0010768633372387054
1765407931.571991,-9.829881323998597,-0.03187504627862601,0.31884748597135276,-0.008517424220274152,0.0012479939222872305,-0.0011594121645290402
1765407931.572191,-9.841684527480728,-0.03026874576433665,0.3189786278586808,-0.008565648240129018,0.001466461208586212,-0.0012454452676177604
1765407931.572391,-9.853127277263985,-0.02833328007969464,0.31921217497933024,-0.008607272573880241,0.0016601779958874741,-0.0013308424636752094
1765407931.572591,-9.864006768643668,-0.026146836069618023,0.31959435187572444,-0.008641418430841149,0.001840258941159192,-0.0014117220833490714
1765407931.572839,-9.874176553922041,-0.023813446999722276,0.3201509660397758,-0.008667705892997079,0.0020174564296135734,-0.0014846500663174382
1765407931.573039,-9.883541123098794,-0.021456221524927953,0.3208847122548328,-0.00868620535792923,0.002201340091581034,-0.0015467791392500966
1765407931.573239,-9.892049364531244,-0.01920956390477884,0.32177578799927237,-0.008697349785762691,0.002399577514565849,-0.0015959404285004058
1765407931.573439,-9.899687725482686,-0.01721015165467329,0.32278527778896227,-0.00870182246412125,0.0026173720791246575,-0.0016307183348258552
1765407931.573639,-9.90647364661681,-0.015586197064997814,0.32386044396395613,-0.008700439135569093,0.0028571091593989633,-0.0016505104071858295
1765407931.573868,-9.912449510269882,-0.014445631904546272,0.32494085171592135,-0.008694043458065329,0.003118244024647356,-0.001655542857771379
1765407931.574068,-9.917677047271955,-0.013865256867632044,0.3259643073484659,-0.008683429725378507,0.0033974337005404603,-0.0016468112418655733
1765407931.574268,-9.922232022262804,-0.013883301684806256,0.32687183967587297,-0.008669297910545335,0.0036888807476797092,-0.0016259423287402078
1765407931.574468,-9.926199057297872,-0.014496864912335327,0.32761127735968815,-0.00865223717854148,0.0039848358444807596,-0.0015950015108674737
1765407931.574668,-9.929666602806726,-0.015664067179515715,0.32813935473951916,-0.008632729666521679,0.004276204646740667,-0.0015562797789344602
1765407931.574806,-9.932722319836921,-0.017309631876788606,0.32842270697991666,-0.008611167550603949,0.004553210689947076,-0.0015120850720458945
1765407931.575006,-9.935449412860457,-0.019332592936220142,0.32843840317209305,-0.008587878711505239,0.004806066823825564,-0.0014645491022114343
1765407931.575206,-9.937924469439546,-0.021615450820705377,0.32817455673847673,-0.008563155155464037,0.005025605535019116,-0.0014154572121977834
1765407931.575406,-9.940216945125272,-0.02403442252703646,0.3276310988261382,-0.008537275409204141,0.005203822804969158,-0.0013661185625255074
1765407931.575606,-9.942389857015494,-0.026470017346489662,0.326820410177136,-0.008510512750045995,0.005334301535406315,-0.0013173053553864494
1765407931.575819,-9.944500981060736,-0.02881644113956164,0.32576745341299196,-0.00848312719421464,0.005412495350551627,-0.0012692851057920851
1765407931.576019,-9.946603965238863,-0.030988181188701364,0.3245091931216747,-0.00845534767278522,0.005435870736331129,-0.0012219429906337917
1765407931.576219,-9.948748999228208,-0.03292304101042535,0.3230932453859619,-0.008427357452693235,0.00540392154623706,-0.0011749589192949848
1765407931.576419,-9.950982863249232,-0.03458232128833564,0.32157586824438134,-0.008399296283318662,0.0053180773382491475,-0.001127992960436998
1765407931.576619,-9.953348320317552,-0.03594958070480499,0.3200195197436672,-0.008371284484266897,0.005181523184283171,-0.0010808508756710964
1765407931.576806,-9.955882844257221,-0.03702886237712771,0.3184900817552955,-0.008343461384860045,0.004998940199910823,-0.0010336266379755202
1765407931.577006,-9.958616566048914,-0.037842129322200053,0.3170535969313605,-0.008316022987865681,0.00477617220352834,-0.0009868224183133204
1765407931.577206,-9.961569302522499,-0.038425167026346664,0.3157723944175394,-0.008289246748462552,0.00451982899597729,-0.000941425768961294
1765407931.577406,-9.964746800887877,-0.03882187976050568,0.31470083489717554,-0.008263499729173094,0.004236849387423856,-0.0008989047831984912
1765407931.577606,-9.968136737158245,-0.03907803670321473,0.31388117373061686,-0.008239232106726087,0.0039340609855152775,-0.0008610913934859027
1765407931.577877,-9.971705270358365,-0.039236033942395034,0.3133399949673724,-0.008216959814080542,0.0036177799309995103,-0.0008299605591177106
1765407931.578077,-9.975394992824981,-0.03933172099857778,0.31308551990805916,-0.00819724151057243,0.0032934877129532805,-0.0008073539360601047
1765407931.578277,-9.979124943276577,-0.03939330829774045,0.31310601644094743,-0.00818065721182731,0.002965608403632262,-0.000794714570870568
1765407931.578477,-9.982792959197772,-0.039441636680199704,0.31336945173336933,-0.008167796516912235,0.0026373956677602176,-0.0007928870375564051
1765407931.578677,-9.986280165217686,-0.039491043489094026,0.3138244384136663,-0.0081592612083842,0.002310927752474741,-0.0008020079779115885
1765407931.578901,-9.989457097140217,-0.039550491167683326,0.31440256259951105,-0.008155680121253513,0.0019871999742326093,-0.0008214844934616636
1765407931.579101,-9.99219097921846,-0.03962503990648895,0.31502230590706726,-0.00815772635725805,0.0016662980717266807,-0.0008500448421512252
1765407931.579301,-9.99435384141486,-0.03971780002297885,0.3155947320117717,-0.008166122218863467,0.001347631749353362,-0.0008858472676960698
1765407931.579501,-9.995831219952663,-0.03983221629402514,0.31603077647855304,-0.008181618320276344,0.0010302039536229577,-0.0009266378094981769
1765407931.579701,-9.99653100767929,-0.039974213466877066,0.3162494800645758,-0.008204940416129168,0.0007128882126453051,-0.000969945842464642
1765407931.579828,-9.996391692958438,-0.04015364845695811,0.31618607586364667,-0.008236708684326917,0.0003946868861822156,-0.0010132968383669923
1765407931.580028,-9.995388984104048,-0.04038469956202109,0.3157987235146562,-0.00827734489843918,7.494787629081569e-05,-0.0010544147155844114
1765407931.580228,-9.993539900789473,-0.04068509306040866,0.3150730078338552,-0.008326986972748057,-0.0002464775644157999,-0.0010913884725025978
1765407931.580428,-9.99090382184513,-0.04107427064118442,0.3140239050969968,-0.008385425573079369,-0.0005691497503220118,-0.0011227878177641165
1765407931.580628,-9.98758043861843,-0.041570749934588966,0.31269536443050655,-0.0084520685229702,-0.0008920377284297886,-0.0011477229725887442
1765407931.580879,-9.983704846993284,-0.042189062505525135,0.3111577512980526,-0.008525931904638748,-0.0012136008371687861,-0.001165850347381164
1765407931.581079,-9.979440131638809,-0.04293669560600064,0.30950332193198904,-0.008605653925740633,-0.0015319454826839655,-0.0011773298551639123
1765407931.581279,-9.974967837741138,-0.043811364699575465,0.3078398578952145,-0.008689526923117117,-0.001845032877737923,-0.0011827430864271716
1765407931.581479,-9.970476746875786,-0.0447988369250695,0.30628266551012623,-0.008775543189900354,-0.002150899613256888,-0.0011829824961724713
1765407931.581679,-9.9661505266093,-0.045871584042678465,0.3049454277292668,-0.008861452501589307,-0.002447849806351051,-0.0011791192464764668
1765407931.581872,-9.962155203940826,-0.046988705807026986,0.30393087430304533,-0.008944832732261905,-0.0027345891134408157,-0.0011722561185621705
1765407931.582205,-9.958627738278027,-0.048097561367473625,0.30332251521254416,-0.009023176130861092,-0.0030102894632179815,-0.0011633764845058931
1765407931.582539,-9.95566684286798,-0.04913721414071654,0.30317838701721533,-0.009093989863217179,-0.003274588625249334,-0.0011532077288316867
1765407931.582852,-9.953326743724174,-0.05004327307612251,0.30352717797879336,-0.009154902546920111,-0.003527537104271243,-0.0011421204260642877
1765407931.585853,-9.951614291845504,-0.050753312372544816,0.3043668198720413,-0.009203764306464607,-0.0037695070142275203,-0.001130079803542656
1765407931.589801,-9.9504898896463,-0.05121200212627649,0.3056656935681822,-0.009238729819149132,-0.0040010746505813165,-0.001116656757997013
1765407931.591845,-9.949872623525154,-0.051375379939250475,0.30736653745116704,-0.009258320128647704,-0.004222884545402869,-0.0011010973635222797
1765407931.593879,-9.949649482127093,-0.05121410840600396,0.3093927912920447,-0.00926146477250203,-0.0044355035995241555,-0.001082445173826383
1765407931.594871,-9.949687762390234,-0.050715785300822054,0.3116566673247572,-0.00924752746221057,-0.004639279003314324,-0.001059707651074012
1765407931.599864,-9.949849100204336,-0.04988625670654648,0.31406789961169684,-0.009216316727799738,-0.004834216181694188,-0.0010320519732697569
1765407931.601817,-9.950003232699368,-0.04874962767876061,0.316541955631548,-0.009168081330056366,-0.005019889329740969,-0.0009990045641648457
1765407931.604873,-9.950039666855206,-0.047346656116016586,0.31900659482752863,-0.009103491507629721,-0.00519539059229665,-0.0009606185139520939
1765407931.605373,-9.949875851407356,-0.04573158804412304,0.3214060176347054,-0.00902360991761204,-0.005359317675043829,-0.000917573024469813
1765407931.609828,-9.949461070355945,-0.043967953121225194,0.32370228095494835,-0.008929857824722161,-0.005509793357257252,-0.0008711834144023127
1765407931.610328,-9.948775932190605,-0.04212401094077413,0.3258740470703104,-0.008823982284033267,-0.005644505991855516,-0.0008233232437203129
1765407931.614849,-9.947827961108747,-0.04026835984407132,0.3279131236594064,-0.008708029007839992,-0.0057607623217383755,-0.0007762801505170395
1765407931.615349,-9.946644345369952,-0.03846592606718968,0.3298195899186582,-0.008584322376324617,-0.005855551951237131,-0.0007325754678102051
1765407931.619869,-9.945263208573792,-0.03677438519791802,0.33159641095794956,-0.008455449086144162,-0.0059256286696533125,-0.0006947740285182472
1765407931.621808,-9.9437247903179,-0.035241092660572265,0.3332443358786007,-0.008324238381481287,-0.0059676123967760284,-0.0006653003749377554
1765407931.624839,-9.942063812464719,-0.033900713965730696,0.3347577703360692,-0.008193731874287286,-0.005978110162757757,-0.0006462679289015491
1765407931.625339,-9.940304153956154,-0.03277379521172637,0.3361222373352382,-0.00806713878234639,-0.00595385125798098,-0.000639323646878883
1765407931.62888,-9.93845662442468,-0.03186640980397819,0.3373138038705131,-0.00794777620919053,-0.005891832304665966,-0.0006455134597840529
1765407931.631824,-9.936520052998057,-0.031170801436967224,0.33830046856391055,-0.00783899683655701,-0.005789469887395815,-0.0006651796596160283
1765407931.633927,-9.934485284996542,-0.030666761864877504,0.3390452070019297,-0.007744105682723876,-0.005644758116416568,-0.0006979040170405954
1765407931.636826,-9.93234118990688,-0.030323458121377326,0.33951020138338467,-0.007666263618505367,-0.005456425505717191,-0.0007425067965467991
1765407931.639824,-9.930081443422003,-0.030101545142342045,0.3396615890184123,-0.007608372499407356,-0.005224082822219329,-0.0007971049381421542
1765407931.641852,-9.92771068906304,-0.029955533081762208,0.33947387929083145,-0.0075729393664846125,-0.004948354193895382,-0.0008592263340592857
1765407931.642779,-9.92524883083054,-0.029836398652948702,0.3389332157781558,-0.007561924913453922,-0.004630986850111084,-0.0009259717660733417
1765407931.646846,-9.922732644290873,-0.02969433085233132,0.3380389305176731,-0.00757659000358639,-0.00427493609403609,-0.0009942115895418546
1765407931.649847,-9.920214434593515,-0.029481393158811254,0.3368031929009935,-0.007617359093698259,-0.0038844189726522115,-0.001060802045749674
1765407931.651811,-9.917757993490634,-0.02915388645651343,0.3352489263336574,-0.007683719950025876,-0.0034649250460017447,-0.001122805917215593
1765407931.653861,-9.915432594260839,-0.028674328384891763,0.33340655160655575,-0.00777417720394156,-0.003023169729012058,-0.0011777020046459402
1765407931.654829,-9.913306102225873,-0.028013121910481133,0.33131036067648645,-0.007886274981578721,-0.002566976622372596,-0.0012235675310344795
1765407931.659858,-9.91143830839436,-0.027150032778747373,0.32899523434735706,-0.008016699749709017,-0.0021050804861871887,-0.0012592194252750383
1765407931.661781,-9.909875358241898,-0.02607549314836987,0.3264940782550567,-0.008161465836991597,-0.0016468524893636263,-0.001284305393027102
1765407931.664865,-9.908645846890199,-0.024791598153004402,0.32383604238012786,-0.008316172558117927,-0.0012019619313732857,-0.0012993412310901937
1765407931.66698,-9.907758866258677,-0.023312607758685728,0.32104542772069095,-0.008476307136655502,-0.0007799979961672295,-0.0013056939204105506
1765407931.669879,-9.907204000414858,-0.021664851826022978,0.318141130886743,-0.008637557386401559,-0.000390076811502302,-0.001305510987597881
1765407931.671824,-9.906953067795396,-0.019886062574702164,0.31513657092589764,-0.008796097083591395,-4.04543481832317e-05,-0.0013015987445005994
1765407931.673897,-9.906963414536623,-0.018024193674820544,0.312040285811803,-0.00894881542933225,0.0002618411122345991,-0.0012972570333946453
1765407931.676846,-9.907182639930891,-0.016135714311411534,0.3088575233874367,-0.009093474872317547,0.0005113481657386221,-0.001296083797831754
1765407931.679856,-9.907554527156,-0.014283307717479512,0.30559292558053075,-0.009228792502923164,0.0007044738660597934,-0.00130176526730769
1765407931.681826,-9.908025646106896,-0.01253296343204064,0.30225395731278204,-0.009354446535742269,0.0008397407939449746,-0.00131786498912005
1765407931.684908,-9.908551828150298,-0.01095060492757752,0.29885443453991994,-0.009471012241034997,0.0009179527332155462,-0.0013476195186161585
1765407931.686873,-9.90910364975808,-0.00959852615045679,0.2954174986159377,-0.009579833471883858,0.0009422491646220888,-0.001393744724393932
1765407931.687838,-9.909670197699855,-0.008531950219010829,0.291977566700726,-0.009682838593781959,0.0009180265633709329,-0.0014582570910959172
1765407931.689836,-9.910260705483037,-0.00779598881340673,0.2885810995463849,-0.009782313907869367,0.0008527167752292945,-0.001542317875787056
1765407931.694873,-9.910904096452807,-0.007423220887257433,0.2852863937677396,-0.009880652615440069,0.0007554239778237839,-0.0016461110279550112
1765407931.695373,-9.911646824847642,-0.007432046250420878,0.28216277375258303,-0.009980100941064255,0.0006364345443202836,-0.0017687659333294747
1765407931.699829,-9.912549462831562,-0.007825910592691642,0.2792893649279059,-0.010082523781268142,0.0005066307873546348,-0.0019083331696024177
1765407931.701843,-9.913682326004878,-0.008593458512699092,0.27675331658829677,-0.010189209960974293,0.00037685416729942814,-0.0020618173098621065
1765407931.704823,-9.91512032748605,-0.009709638688223164,0.2746472755376369,-0.010300731983310954,0.0002572698904412735,-0.002225267979550053
1765407931.706869,-9.916937283586808,-0.011137709251275352,0.27306608851477465,-0.010416867820022678,0.00015678402063925182,-0.002393930106446432
1765407931.709899,-9.919199942572991,-0.012831952356860557,0.2721028507892839,-0.010536585209259736,8.255895957211882e-05,-0.0025624542477863913
1765407931.711892,-9.921962037757533,-0.014740769212426244,0.27184443423890337,-0.010658084634440729,3.966240660200364e-05,-0.002725164053887849
1765407931.714852,-9.925258762088626,-0.016809782440325535,0.2723666624499114,-0.010778896046835955,3.086892807514759e-05,-0.0028763692189001464
1765407931.716913,-9.929102176103113,-0.01898465222839225,0.27372936145426413,-0.010896025034683792,5.6616459547514545e-05,-0.003010701521558489
1765407931.717913,-9.933478015543326,-0.02121345999334624,0.27597147899749824,-0.011006144552073896,0.00011510596037571121,-0.0031234434470887446
1765407931.721874,-9.938344133198047,-0.02344863371871577,0.2791063917651774,-0.011105826429752821,0.00020252184348997182,-0.0032108176046119824
1765407931.724894,-9.943630553454522,-0.025648424451233165,0.28311756980172276,-0.01119180159113048,0.00031334564768421803,-0.0032702118496595956
1765407931.726817,-9.949240947651386,-0.027777907287796874,0.28795489256520507,-0.011261230662101022,0.0004407375373033316,-0.0033003260429797458
1765407931.729794,-9.95505526565562,-0.02980943737741319,0.2935319799876971,-0.01131196117242021,0.000576966263018892,-0.0033012354765843328
1765407931.731797,-9.96093332493696,-0.031722510411482364,0.29972497154685973,-0.011342746580108884,0.0007138721853090208,-0.003274369745015389
1765407931.73284,-9.966719365755251,-0.03350307554132857,0.3063733251915551,-0.011353405344332759,0.0008433480671059368,-0.0032224071271844583
1765407931.736785,-9.972247754960865,-0.035142465758869784,0.31328324448388495,-0.011344902894786374,0.0009578203318632646,-0.003149089359615823
1765407931.739774,-9.977349954931272,-0.036636154091147004,0.3202340957222132,-0.011319344836415968,0.0010507092937354766,-0.003058971657691461
1765407931.741889,-9.981862578654544,-0.03798248025433077,0.32698775606434594,-0.011279877391359456,0.0011168401686048877,-0.002957132917831027
1765407931.742844,-9.985635984740473,-0.03918137999264024,0.3333004357093893,-0.011230501918033299,0.001152772167527961,-0.002848875210272429
1765407931.7469,-9.988542526214635,-0.040233082208996705,0.3389361344673577,-0.011175823017333091,0.0011570169771303637,-0.002739438543686101
1765407931.747921,-9.99048335750326,-0.041136773938970986,0.3436805084143412,-0.011120760203878212,0.0011301295421927296,-0.002633749237494794
1765407931.751803,-9.991392847812975,-0.0418893606201493,0.347353774351394,-0.01107025623978899,0.0010746660402609913,-0.0025362122528394438
1765407931.754874,-9.991240262795063,-0.042484597831045426,0.3498215885489459,-0.01102900868149816,0.0009950122844923812,-0.0024505527883599033
1765407931.756852,-9.990029180986449,-0.04291292537645126,0.3510033902673195,-0.011001239037515284,0.000897092379950717,-0.002379710621448592
1765407931.758816,-9.987795611627025,-0.043162198089403574,0.3508780417398113,-0.010990504272551866,0.0007879738209118902,-0.002325789550658222
1765407931.761786,-9.9846057492403,-0.04321920963911867,0.349486573668288,-0.010999552586880354,0.0006753906443767202,-0.002290061647116582
1765407931.762831,-9.9805538969849,-0.04307162810178808,0.3469316933100548,-0.011030226137847113,0.000567212414556871,-0.002273021442742526
1765407931.766838,-9.975760537849442,-0.04270989280046154,0.34337363166319707,-0.011083412066132262,0.00047089703572541624,-0.0022744791955104974
1765407931.769865,-9.970369974908207,-0.04212877583546647,0.3390219288813907,-0.011159039204436984,0.00039297696042876117,-0.00229367700354062
1765407931.771847,-9.964546639867125,-0.04132852261527505,0.3341230025120066,-0.011256115216516652,0.00033863203052405876,-0.002329410487596709
1765407931.774788,-9.95846935669649,-0.040315573832116314,0.32894398263759667,-0.011372800556502407,0.0003113931047108078,-0.0023801434453858323
1765407931.777894,-9.952323479392218,-0.03910281464644053,0.3237541714902645,-0.011506519789414285,0.00031300412379439577,-0.0024441095177120237
1765407931.779893,-9.946291467516039,-0.037709244612045736,0.3188061085427273,-0.011654112932175465,0.000343453337495719,-0.0025193982798019034
1765407931.781871,-9.94054280128569,-0.03615907895390638,0.3143183107617563,-0.011812026687983819,0.00040116777282682366,-0.0026040225026133083
1765407931.784859,-9.93522423169369,-0.034480571667258444,0.3104614571356933,-0.011976538053624567,0.000483347940788342,-0.0026959628919919986
1765407931.786794,-9.930451352868147,-0.03270507517318413,0.30734930604848637,-0.012143992312563657,0.0005864062666961461,-0.002793190853451008
1765407931.78786,-9.926302347657831,-0.030866767713353338,0.3050350135423854,-0.012311026969715906,0.0007064667019577681,-0.002893678342660011
1765407931.791812,-9.922814482780502,-0.029003059595908452,0.3035128498005113,-0.012474749078492718,0.0008398814546510221,-0.0029954107820239512
1765407931.794857,-9.919983645184372,-0.02715519818364401,0.30272477880019094,-0.012632840756637021,0.0009837178978937197,-0.0030964178847756067
1765407931.796845,-9.917766969843653,-0.02536836934194628,0.3025709750646546,-0.012783583812004923,0.0011361642764817267,-0.0031948280174203697
1765407931.797852,-9.916088314343432,-0.023690763259704258,0.3029229485945902,-0.012925811756845911,0.001296801994142289,-0.003288941998463609
1765407931.801827,-9.914846007226506,-0.022171471479970003,0.30363761984474075,-0.01305881152265499,0.001466699030274978,-0.0033773188073015097
1765407931.804895,-9.913922142456993,-0.02085744091735844,0.3045707404732428,-0.013182206878028723,0.001648295038086113,-0.003458867121492539
1765407931.806846,-9.913192768408184,-0.019789875635355808,0.3055885126898433,-0.013295859139690608,0.001845075281301102,-0.003532936101180962
1765407931.809822,-9.912538395203802,-0.019000484393271542,0.3065767444591506,-0.013399815688500391,0.002061065162074962,-0.0035993927666278978
1765407931.810322,-9.911854154324086,-0.01850795884027193,0.3074471519575593,-0.013494322986075868,0.002300209124239302,-0.0036586654838631624
1765407931.813909,-9.91105881808546,-0.018315120494393385,0.30814062377080825,-0.01357990182121513,0.002565715608837677,-0.0037117312470288403
1765407931.816819,-9.91010187388735,-0.01840725517855861,0.3086275008198112,-0.013657463680232428,0.0028594509491332537,-0.0037600330536433713
1765407931.817823,-9.908967916857069,-0.018752145368983883,0.3089050959812084,-0.01372843303682219,0.0031814543470282163,-0.0038053302005065684
1765407931.821816,-9.907677789016082,-0.01930211643111926,0.3089928212233804,-0.013794834200864251,0.003529627356860817,-0.0038495019465485986
1765407931.822899,-9.906286315725156,-0.019998025778226895,0.3089256389065851,-0.013859304897067602,0.003899627620952545,-0.003894336951526509
1765407931.826827,-9.904877138853017,-0.0207746667441298,0.30874701667644616,-0.013925011607475533,0.00428497336247634,-0.003941343304590424
1765407931.829831,-9.903555635180263,-0.02156674210415231,0.308502652711802,-0.013995461051274527,0.004677346475442384,-0.003991606828421859
1765407931.831913,-9.902440913387087,-0.022314544266561185,0.30823570591360705,-0.014074223267320718,0.005067066007917296,-0.004045712194728589
1765407931.834872,-9.90165751838875,-0.022968731409306116,0.30798346756921685,-0.014164599458919363,0.005443687601261238,-0.004103727466905001
1765407931.836772,-9.90132709147575,-0.023493911456632016,0.3077748532917041,-0.014269278018890398,0.005796672440091039,-0.004165242840644737
1765407931.839808,-9.901560043874456,-0.023870936477722097,0.30762796058645775,-0.014390023276898627,0.0061160685830968856,-0.004229451011133938
1765407931.841807,-9.902447331296077,-0.02409782620609967,0.30754719396740227,-0.014527435292213738,0.006393156180800971,-0.00429525826606448
1765407931.844841,-9.904052670213488,-0.024189200566303398,0.30752006779017277,-0.014680809754841324,0.00662101603980693,-0.0043614170899643825
1765407931.847866,-9.906405903506153,-0.024174159257352324,0.30751454328193867,-0.014848116831717913,0.006794983404317876,-0.004426668037827651
1765407931.849891,-9.90949842275127,-0.02409277468914776,0.30747817205023203,-0.015026104305188472,0.006912950025487761,-0.004489871782126882
1765407931.85199,-9.913281430825936,-0.023991710557680387,0.30734014269287463,-0.015210512594720995,0.006975482402332604,-0.004550109015995726
1765407931.854891,-9.917667544733257,-0.023919750830188425,0.30701680370980816,-0.015396372429350455,0.006985733488427536,-0.004606733115369864
1765407931.856808,-9.922535939206389,-0.02392399022172352,0.30642063094734695,-0.015578347211961347,0.006949139901340005,-0.0046593755727263675
1765407931.859791,-9.927740772572744,-0.024047045522918812,0.3054718141058514,-0.015751083943572688,0.0068729167369282924,-0.004707916697454291
1765407931.860291,-9.933121944483633,-0.02432513862790754,0.30411066313897867,-0.015909545793891543,0.006765383282013729,-0.004752436287243093
1765407931.86387,-9.93851664754036,-0.024786642111513973,0.30230843102533306,-0.0160493100896993,0.0066351712222781885,-0.004793152980114372
1765407931.864833,-9.943770068752594,-0.0254508472406381,0.3000744000222969,-0.016166822431749234,0.006490384870726834,-0.004830354911767649
1765407931.869884,-9.948743920676474,-0.026327122130122272,0.2974579508081828,-0.016259599538296865,0.0063378036194168515,-0.004864324731448526
1765407931.871803,-9.953321976832235,-0.027414845211436344,0.294545308501841,-0.016326372847821645,0.006182232291777221,-0.004895269103285576
1765407931.874832,-9.957412411711285,-0.028704265559620006,0.2914516087613862,-0.016367165136293407,0.006026099518933668,-0.004923269779620397
1765407931.875332,-9.960947517935447,-0.030177944827552552,0.2883098688479077,-0.016383294969044143,0.005869371509164969,-0.00494827204039577
1765407931.879871,-9.96388198617671,-0.03181212950811364,0.2852590269352623,-0.016377308035445678,0.005709799221438776,-0.004970115060363323
1765407931.881858,-9.966190976598163,-0.033577567957193674,0.28243300891873135,-0.01635283763381129,0.005543465792899849,-0.0049885943759681375
1765407931.884851,-9.967868708656562,-0.03543978579383879,0.27995197209201567,-0.016314396799278763,0.005365556397606026,-0.005003538616956267
1765407931.886819,-9.968927690689709,-0.03735924925336244,0.2779160979299446,-0.016267104199749274,0.00517124077947319,-0.005014885174706294
1765407931.889766,-9.969398316665401,-0.03929187332921898,0.2764019073103248,-0.016216350446303245,0.004956547029018921,-0.005022747258919163
1765407931.891814,-9.969328356324954,-0.04119004720447394,0.2754608836380669,-0.016167422653919912,0.004719115039965368,-0.005027468560646866
1765407931.894793,-9.968781814722835,-0.043004076378845665,0.27512003130839974,-0.016125117461674245,0.004458741938832993,-0.0050296586541574324
1765407931.897857,-9.96783679524168,-0.044683873724707605,0.27538390908122046,-0.01609337913455986,0.004177662359635505,-0.005030198764866487
1765407931.898357,-9.966582281907593,-0.04618078274550008,0.27623763233491805,-0.016074998708377964,0.0038805421057663846,-0.005030210756110925
1765407931.901873,-9.965113940495103,-0.04744942424380346,0.27765021440562454,-0.016071406648720137,0.0035742030329909565,-0.0050309916021533275
1765407931.904836,-9.963529103279933,-0.048449422085085646,0.2795775325242895,-0.016082587602466617,0.003267133748900203,-0.005033924860789754
1765407931.905336,-9.961921257014469,-0.049146888231241366,0.28196443593992226,-0.01610713867720304,0.00296886688152021,-0.005040385248280721
1765407931.90781,-9.960374636161463,-0.04951564798121493,0.28474603784324176,-0.016142477959935668,0.002689312921531601,-0.0050516518222842
1765407931.911814,-9.958959667766747,-0.049538290260984025,0.28784867281877163,-0.016185187671675653,0.002438129384034898,-0.0050688397309120005
1765407931.914814,-9.957729824814303,-0.04920718522848467,0.2911910792167219,-0.01623145280104855,0.0022241749394933705,-0.005092852101254704
1765407931.916863,-9.956720048540936,-0.04852558373000847,0.29468612583100257,-0.016277540348438358,0.00205506425377943,-0.005124348383998983
1765407931.919827,-9.955946522900495,-0.04750874078682803,0.29824301053044033,-0.016320261532915294,0.0019368176276507345,-0.005163726990633747
1765407931.920327,-9.955407343617756,-0.046184719881676446,0.3017694988789802,-0.016357367056790646,0.0018735971915693444,-0.005211124543372569
1765407931.924795,-9.95508362162524,-0.0445943281265508,0.30517370935088656,-0.016387837140792002,0.0018675306895913012,-0.00526643595282475
1765407931.926835,-9.954940853460144,-0.0427897054444664,0.3083653045361669,-0.016412038566225928,0.0019186326852089432,-0.005329358059269155
1765407931.92987,-9.954930777778095,-0.04083144457531733,0.31125641353243316,-0.01643172990734844,0.002024835822223875,-0.00539945699957959
1765407931.931812,-9.954994077748783,-0.0387845401742761,0.313762795225746,-0.01644990655304406,0.0021821417172414206,-0.005476256572040905
1765407931.934831,-9.955064099539547,-0.03671373446591901,0.31580563419094965,-0.016470492578096022,0.002384892318352655,-0.005559340288946159
1765407931.93684,-9.95507143446277,-0.03467889324237997,0.3173141362455286,-0.016497907239175363,0.0026261493048696273,-0.005648453707971626
1765407931.937871,-9.95494891242189,-0.03273097915042695,0.3182288040174859,-0.016536554742357414,0.002898156284119727,-0.005743589665274258
1765407931.941906,-9.954636318702157,-0.030909042107798195,0.31850493255529794,-0.016590299868756462,0.0031928503450381097,-0.005845040204437398
1765407931.946562,-9.954084099945042,-0.029238430257798338,0.3181156853041824,-0.016661995727178452,0.003502384403598517,-0.005953404071722332
1765407931.947062,-9.953255622928618,-0.027730179307248207,0.3170542782349454,-0.0167531247004211,0.003819617198661135,-0.006069544608856951
1765407931.949847,-9.952128072918592,-0.026381383525291895,0.3153351233675019,-0.016863600902744896,0.004138525903750737,-0.0061944985000641824
1765407931.951865,-9.950692473144342,-0.025176405520180068,0.31299393767317063,-0.016991760982261933,0.004454499913006425,-0.006329342052689939
1765407931.954802,-9.94895340126391,-0.02408898075679552,0.31008685908805417,-0.017134540418932028,0.004764483399930035,-0.006475029604678814
1765407931.956802,-9.946928881483453,-0.02308537167837423,0.30668878486571827,-0.01728780119984659,0.00506695002450721,-0.006632226544435468
1765407931.959771,-9.944650709175404,-0.022128562232236408,0.30289135367977044,-0.017446753838149344,0.005361717195184981,-0.006801162481989896
1765407931.961815,-9.942165089212478,-0.021183170182632428,0.29880090654012226,-0.017606408454654075,0.005649632966006997,-0.006981525150978774
1765407931.96477,-9.939533086026874,-0.02022055266433565,0.29453643348338454,-0.01776199499528193,0.005932183257588497,-0.007172405102052866
1765407931.965842,-9.936830249465274,-0.01922360582970441,0.2902272681727291,-0.0179093058262034,0.006211065303413327,-0.007372291033323529
1765407931.969772,-9.934144904465075,-0.0181908645152112,0.2860101791848859,-0.018044930414875617,0.006487762318085741,-0.007579109791200403
1765407931.971775,-9.931574778485471,-0.017139483632963443,0.2820253827047889,-0.01816637081317993,0.006763145005561416,-0.007790303380947657
