time,acc_x_g,acc_y_g,acc_z_g,gyro_x_rad_s,gyro_y_rad_s,gyro_z_rad_s
1765408447.62782,-7.381824196688327,6.484517359673009,0.06274531372159682,-0.009807801495966138,-0.006914663673249354,-0.0005821430805786928
1765408447.62802,-7.344879604507544,6.451181123345721,0.07787514198137291,-0.009424656017551408,-0.0068183416152923886,-0.0008230404028222231
1765408447.62822,-7.306033642645615,6.418000885812438,0.09349264659468974,-0.008812641236527972,-0.006703495493932065,-0.0010709142000911455
1765408447.62842,-7.264702452116092,6.3858301641156725,0.10940976123641728,-0.007861052110250656,-0.0065140856841931,-0.001387020150021337
1765408447.628616,-7.220582687674763,6.355613292264157,0.12545497231515895,-0.006472995828651485,-0.006192471206066797,-0.0018320367409531634
1765408447.628816,-7.173712976207111,6.32837023315956,0.14147457603365785,-0.004571801829212903,-0.005681572168395112,-0.0024634106706403454
1765408447.629016,-7.124509196270296,6.3051717605162905,0.1573285865820246,-0.0021067415135877657,-0.004927058913263287,-0.0033329850692857517
1765408447.629216,-7.073769894701693,6.287104895732305,0.17288232860058333,0.0009422737658164419,-0.003879486064425824,-0.004485042069817188
1765408447.629416,-7.0226505553092355,6.275229800554444,0.18799551407832432,0.004561332408935383,-0.002496277501832336,-0.0059548604215798155
1765408447.629561,-6.972608041969826,6.27053072488236,0.202511137749943,0.0087007808992131,-0.0007434618062220674,-0.007767844606508796
1765408447.629811,-6.925319208531365,6.273864790525146,0.2162467758111439,0.013275320381056731,0.0014029361937343,-0.009939229489720652
1765408447.630061,-6.882579940430573,6.285913068615451,0.22899059004979122,0.018166072114372243,0.003955923389270038,-0.012474311252869654
1765408447.630311,-6.846192321948967,6.3071384187550485,0.24050343411126898,0.023224626962983063,0.006917034240654249,-0.015369109991288992
1765408447.630612,-6.817848179667732,6.3377538816242245,0.25052722335354677,0.028278953845411948,0.010276311883515587,-0.0186113401180642
1765408447.630862,-6.799017255344515,6.37770420368854,0.2587986352632047,0.03314088550619626,0.01401276239341106,-0.022181557520930914
1765408447.631112,-6.790847941567245,6.42666164913356,0.26506657640816234,0.03761474764525247,0.018095246533329865,-0.026054369773257945
1765408447.631362,-6.794087797702041,6.484035960603534,0.26911170073035307,0.041506575728424616,0.022483755548133935,-0.03019963426192337
1765408447.631621,-6.809029754304781,6.548997322300452,0.27076631533748197,0.04463329331506277,0.027131001692740582,-0.03458361761779858
1765408447.631821,-6.835487897729731,6.620510451739506,0.26993289390036496,0.04683121783464574,0.03198423810622801,-0.039170132465036825
1765408447.632021,-6.872804034479543,6.697377493986638,0.26659902610245184,0.04796331776015498,0.03698720954454763,-0.043921691758648816
1765408447.632221,-6.919883184160287,6.778287220881145,0.2608463073157563,0.047924761469490186,0.04208213017071051,-0.048800722694257864
1765408447.632421,-6.9752534572059055,6.861868044445316,0.2528509379733093,0.04664645350853893,0.04721158859437724,-0.05377086282042754
1765408447.632893,-7.0371441496400715,6.946742317881783,0.24287479894503533,0.04409642653363957,0.05232029364232413,-0.058798323053735675
1765408447.633143,-7.103575375774734,7.031579167878005,0.23124708896393822,0.040279129685578244,0.05735659886640438,-0.06385325143430173
1765408447.633393,-7.1724526627505725,7.115142774805995,0.2183378969637635,0.03523281023998628,0.062273777910086814,-0.0689109838828907
1765408447.633643,-7.241660460826,7.196332902371297,0.20452649211049453,0.02902530679772126,0.0670310542444318,-0.07395304994413
1765408447.636314,-7.309149720108161,7.274214889217267,0.19016862559237066,0.02174864651960084,0.07159440320826088,-0.07896783026205025
1765408447.636564,-7.373016337442082,7.348037375938227,0.1755678528905475,0.013512867795593,0.0759371416795809,-0.08395082719678786
1765408447.636814,-7.431568515994904,7.417237612749621,0.16095491365812278,0.004439487320645583,0.08004031283274854,-0.08890457458063006
1765408447.637064,-7.483381429495647,7.4814358858608365,0.14647696274459104,-0.0053449888541055686,0.08389286754748644,-0.09383824548574174
1765408447.636407,-7.527337626331807,7.540421868222786,0.13219627677397885,-0.01571514408047703,0.0874916405875186,-0.09876701267910136
1765408447.636657,-7.562652180057533,7.594136102601872,0.11809682760384121,-0.026552006990058833,0.09084112241172981,-0.10371119071149669
1765408447.636907,-7.588882736203112,7.642649311703778,0.10409673405143996,-0.03774744655074575,0.09395304124519858,-0.10869516165926643
1765408447.637157,-7.605925708823898,7.68614113585513,0.0900647301253636,-0.04920745330569072,0.09684579045293504,-0.1137460759539499
1765408447.636583,-7.614000488162785,7.724878724861572,0.07583927207485576,-0.0608542359517362,0.09954375246316077,-0.11889233644462235
1765408447.636833,-7.6136236280620375,7.759194848197114,0.061249477280958094,-0.07262713768892644,0.10207657428283376,-0.12416191595608463
1765408447.637083,-7.605574801184809,7.789465140767758,0.04613723007495351,-0.08448244617598764,0.10447843671058331,-0.12958061064981585
1765408447.637333,-7.590856133445106,7.816084709666754,0.030379424735609287,-0.09639223214972444,0.10678732967690807,-0.13517037235260249
1765408447.637597,-7.5706466308674685,7.839445178044069,0.013909059835862665,-0.10834240003905134,0.10904430800475662,-0.14094787477018642
1765408447.637847,-7.546253706006328,7.859913803330353,-0.0032659534436517176,-0.12033016707865149,0.1112926689142254,-0.14692344315805655
1765408447.638097,-7.519063759912537,7.877816238368935,-0.021047470008036945,-0.13236120603947304,0.11357697578422037,-0.15310042432498938
1765408447.638347,-7.490493065811521,7.8934238857604075,-0.03923714962793688,-0.14444669055756076,0.11594186018534745,-0.15947502263132937
1765408447.6386,-7.461939314468676,7.906946097266443,-0.05753424393778785,-0.15660046908485298,0.11843057313473389,-0.1660366066641586
1765408447.63885,-7.434733862466296,7.9185272103336075,-0.07554296386129819,-0.1688365635284503,0.12108332293279345,-0.17276850009186587
1765408447.6391,-7.410095124899909,7.928248745494925,-0.09278983683555699,-0.18116714690963814,0.12393550754044594,-0.1796492753054042
1765408447.63935,-7.389084276986335,7.936137646786257,-0.10875004783837756,-0.19360110681577175,0.12701599573036754,-0.18665453402300697
1765408447.639555,-7.372565091571143,7.942181593808174,-0.12288077886103639,-0.20614324864196398,0.13034562121649196,-0.19375907799270653
1765408447.639805,-7.3611701368959075,7.946351682059604,-0.13465890948738335,-0.2187941346433767,0.1339360350663955,-0.20093927012286483
1765408447.640055,-7.355275583683925,7.948631179793732,-0.14362004279068008,-0.23155049846796052,0.13778902716011693,-0.20817530289833958
1765408447.640305,-7.35498665710286,7.9490471405519845,-0.1493956634657039,-0.2444061295246327,0.14189638671741503,-0.2154530653123845
1765408447.64053,-7.3601356916416405,7.947700114777404,-0.15174500440721073,-0.2573530910142268,0.1462403320430058,-0.2227653491707983
1765408447.640863,-7.370294824538248,7.94478665327605,-0.15057768735354965,-0.2703831188924144,0.1507945053306844,-0.23011224685142292
1765408447.641197,-7.384804858101937,7.940609981461609,-0.14596318754526444,-0.2834890471126241,0.1555254958486332,-0.23750073098106622
1765408447.641503,-7.402820010424154,7.935576068475769,-0.13812488856848595,-0.29666611838649143,0.16039481599275004,-0.24494353867016835
1765408447.641753,-7.423365603037939,7.930174971594442,-0.12741979704697237,-0.30991306340559815,0.16536121399462056,-0.25245758483295255
1765408447.642003,-7.445403649967486,7.924950199095386,-0.11430790136531306,-0.32323285292402965,0.1703831825152472,-0.2600621754113636
1765408447.642253,-7.4679007674691436,7.920461062125002,-0.09931598572667526,-0.33663304366254504,0.17542151890513008,-0.26777725585709783
1765408447.642479,-7.489893315590625,7.917243716919455,-0.0830000011500639,-0.3501256640653986,0.18044178786116055,-0.27562181582859446
1765408447.642729,-7.51054509945726,7.915775483517534,-0.06590960804897747,-0.36372662967232083,0.1854165118353259,-0.2836124348443591
1765408447.642979,-7.52919307027405,7.916444683772129,-0.048558656488314,-0.3774547267934155,0.19032689082324777,-0.29176187983074536
1765408447.643229,-7.545377026017472,7.91952601078199,-0.0314050249589135,-0.39133023185891186,0.1951638721725246,-0.3000776977071908
1765408447.643521,-7.558850878111868,7.925160449353687,-0.01484179991866226,-0.40537323853795404,0.1999284591715912,-0.30856085018776075
1765408447.643771,-7.569575372717807,7.933339136980939,0.0008000708260106137,-0.4196017721347079,0.20463123180095436,-0.3172045385031323
1765408447.644021,-7.577694569195008,7.943891591012234,0.015239128700399588,-0.4340298029695396,0.20929112903505057,-0.32599341200958576
1765408447.644271,-7.583500217465023,7.9564797431820695,0.028223654184520962,-0.44866531601998483,0.2139336120811539,-0.3349033423925971
1765408447.644517,-7.587389037371648,7.97059990921357,0.03950899572573648,-0.46350862710227064,0.21858839441653924,-0.3439018898619046
1765408447.64485,-7.589817960532615,7.985594958394085,0.04883702280168986,-0.47855114291480916,0.2232869709344899,-0.3529495011328294
1765408447.645184,-7.591262102744717,8.00067827732679,0.05592282129068032,-0.49377473491534857,0.22806018752078913,-0.362001372363626
1765408447.64556,-7.592179563491255,8.014969610972837,0.0604527331801435,-0.5091518241491623,0.23293606523796032,-0.3710098031551698
1765408447.64581,-7.592985689037018,8.027540837152662,0.06209567953258209,-0.5246461659950084,0.23793804269765556,-0.37992678766841864
1765408447.64606,-7.594037319282229,8.037467744369991,0.06052684091637214,-0.5402142243209144,0.24308373331628008,-0.38870656318835717
1765408447.64631,-7.595625660157511,8.043882572679301,0.05546015471253114,-0.5558069757893184,0.24838421766116117,-0.3973078766623486
1765408447.646512,-7.5979755382457865,8.04602194179205,0.0466847283827965,-0.5713719884237748,0.25384382904421976,-0.405695819577131
1765408447.646762,-7.601248733745071,8.043265882672355,0.034100392617059654,-0.5868556445474196,0.25946036935787636,-0.4138431844614633
1765408447.647012,-7.605549140535956,8.035165497293724,0.01774833067342553,-0.6022054019941154,0.2652256999892702,-0.4217313757200773
1765408447.647262,-7.6109274420806114,8.021458540003803,-0.0021669483960651144,-0.6173720027752727,0.2711266431178577,-0.42935094440913035
1765408447.647486,-7.617383419173907,8.0020734821461,-0.02526773706122866,-0.632311547614376,0.27714608132364854,-0.4367018186606802
1765408447.647819,-7.6248655341542975,7.977123431333363,-0.05100736887360499,-0.6469873608505687,0.2832640963768754,-0.44379329366398174
1765408447.648153,-7.633269675039259,7.946891923404551,-0.07868788050262669,-0.6613715747638875,0.28945899266381275,-0.4506438429367692
1765408447.648552,-7.642440603669755,7.911813321731508,-0.10748793237373715,-0.6754463643675832,0.29570810869343195,-0.45728080724388714
1765408447.648802,-7.652179777134527,7.872451281208379,-0.1364968997444246,-0.6892047628526405,0.3019883833742984,-0.4637399901642244
1765408447.649052,-7.66226192743047,7.8294789882037765,-0.16475134003238256,-0.7026509895287757,0.30827667241053575,-0.470065134352619
1765408447.649302,-7.672460671777764,7.783664094355928,-0.19127061289288227,-0.7158002349256527,0.3145498153999838,-0.47630718398036576
1765408447.649991,-7.682580833064289,7.735859314633926,-0.21508929649114222,-0.7286778781420107,0.3207844722750448,-0.48252318362738417
1765408447.650241,-7.69249261481857,7.686997110212597,-0.23528565143645602,-0.7413181587821068,0.326956786375254,-0.48877465272180864
1765408447.650491,-7.702161399317551,7.638084577948585,-0.25100730683323336,-0.7537623786035538,0.3330419634240002,-0.4951253250908472
1765408447.650741,-7.711667607069265,7.590193324281431,-0.26149647983875984,-0.7660567523717332,0.33901385806363343,-0.5016382432085644
1765408447.650594,-7.72121353437772,7.544439050889299,-0.2661166624731301,-0.7782500576482869,0.34484464395545983,-0.508372313021262
1765408447.650927,-7.731117049453983,7.5019468376243195,-0.26438110708532697,-0.7903912450097922,0.3505046436859016,-0.5153785304378816
1765408447.651261,-7.7417939104048035,7.4638004617269065,-0.25598181595099034,-0.802527152299541,0.355962424126614,-0.5226961720059436
1765408447.651565,-7.75373062950676,7.430977043063412,-0.24081706632523656,-0.8147004184892818,0.36118529219450246,-0.5303492896110689
1765408447.651815,-7.767449063135215,7.404271147243866,-0.21901550169123737,-0.8269476403922353,0.3661403125655356,-0.5383438552603358
1765408447.652065,-7.783463630649698,7.384214769532051,-0.19095468503953547,-0.8392977886856309,0.3707958972239004,-0.546665879225888
1765408447.652315,-7.802232860785475,7.371001404419911,-0.1572716760762364,-0.8517709033472537,0.37512390620601194,-0.5552807944095501
1765408447.6527,-7.824108366622534,7.364423708028049,-0.11886322500350228,-0.8643771070177536,0.3791020855089633,-0.5641343543025827
1765408447.65295,-7.849285426232112,7.363834668558804,-0.07687391785312479,-0.8771159921183977,0.38271658230784156,-0.5731551877515666
1765408447.6532,-7.877759436666607,7.3681411417435285,-0.03267173315601901,-0.8899764443406561,0.3859642367674222,-0.5822589646398071
1765408447.65345,-7.909291807078346,7.375835877566766,0.012188919848618885,-0.9029369538521729,0.38885436299275816,-0.5913538927678843
1765408447.653577,-7.943388213772176,7.385070071986669,0.05601701308380618,-0.9159664314586394,0.3914097952955658,-0.6003470642020656
1765408447.65391,-7.979291945137921,7.393763621022742,0.09704838721730262,-0.9290254965582398,0.39366706511699345,-0.6091510406939014
1765408447.654244,-8.015994613581634,7.399745279806012,0.13352267596543277,-0.9420681549941229,0.3956756550619045,-0.6176900076744137
1765408447.654574,-8.052265050176594,7.400910549026924,0.16377042379668408,-0.9550437531205106,0.3974963313881279,-0.6259048362403227
1765408447.654824,-8.086695233707365,7.395382134032836,0.18630381872210672,-0.9678990823714793,0.39919859614132447,-0.633756499771634
1765408447.655074,-8.117760765922595,7.3816568422265405,0.1999025952625384,-0.9805805104674706,0.40085735691917,-0.6412275012789891
1765408447.655324,-8.143892769866543,7.358723886850849,0.20368635409655986,-0.9930360235520389,0.40254900239795316,-0.6483212274941156
1765408447.655522,-8.16355736471708,7.326142483221799,0.19716515797486292,-1.0052170743587583,0.4043471686525655,-0.6550593877731683
1765408447.655772,-8.175338014906956,7.284071031650389,0.18026233300346445,-1.0170801469570634,0.40631854072594503,-0.6614778927574267
1765408447.656022,-8.178015971867334,7.2332456145669894,0.15330761658026984,-1.0285879730075556,0.40851903698074565,-0.6676216859442402
1765408447.656272,-8.170645128201407,7.174911085906928,0.11700389843371471,-1.0397103719490208,0.41099068194538757,-0.6735391497553521
1765408447.65653,-8.152619004677158,7.1107125084498595,0.0723744069195044,-1.0504247365182984,0.4137594073345506,-0.6792767290655757
1765408447.656863,-8.123728115548289,7.042557436213587,0.020698218839412637,-1.0607162286592293,0.4168339436756173,-0.6848743361855069
1765408447.657197,-8.084205600479228,6.972460887105572,-0.03655866486971329,-1.0705777640853003,0.42020587628569056,-0.6903619625832333
1765408447.657535,-8.034758895388,6.90238550859723,-0.09781026452350826,-1.0800098349093967,0.423850834991603,-0.6957577764701258
1765408447.657785,-7.976586023281498,6.834089527896691,-0.16140968716117365,-1.089020161980686,0.42773067444303864,-0.7010678361922442
1765408447.658035,-7.911376169160454,6.768994160303609,-0.2256950580854043,-1.097623113174091,0.43179640335875985,-0.7062873665783143
1765408447.658285,-7.841294553047428,6.708080050932581,-0.2890183672672709,-1.1058388029482713,0.4359915600317876,-0.711403341835584
1765408447.658562,-7.768951069507019,6.651819613902512,-0.3497554857128802,-1.1136918163665956,0.4402557183125791,-0.7163979779826501
1765408447.658812,-7.697351209359498,6.600149737727488,-0.40629887368552214,-1.1212095668680295,0.44452783930252926,-0.7212527281906529
1765408447.659062,-7.629826741087385,6.552487753098292,-0.4570387479089555,-1.1284203723108128,0.4487492447923713,-0.7259524533904828
1765408447.659312,-7.569942606909214,6.5077923656640495,-0.5003428737417454,-1.1353513883260182,0.45286605440376754,-0.7304894861663227
1765408447.65952,-7.521375962465498,6.464669189814586,-0.5345480640927421,-1.1420265626620734,0.4568309768141061,-0.7348672418300761
1765408447.659853,-7.487764310376475,6.421516436673133,-0.557976396581379,-1.14846478154986,0.4606043775100404,-0.7391028998273863
1765408447.660187,-7.472523185221522,6.37670027846737,-0.5689858204295309,-1.154678378740755,0.4641545863149852,-0.7432285996687609
1765408447.660911,-7.478639691767826,6.328742967535765,-0.5660589984548494,-1.1606721623902434,0.4674574841631692,-0.7472906643356858
1765408447.661161,-7.508454883649097,6.276502085750699,-0.5479269047873861,-1.1664430768088307,0.4704955273833188,-0.7513465983159187
1765408447.661411,-7.563453456984713,6.21931803152354,-0.5137159670204064,-1.1719805635235137,0.4732565050507268,-0.7554599587813073
1765408447.661661,-7.6440819942064495,6.1571097454099855,-0.4631010123061437,-1.1772676312340415,0.4757324284716784,-0.7596935906017224
1765408447.662829,-7.749616524367571,6.090405464103946,-0.3964426109571664,-1.1822825854682655,0.4779189666050107,-0.7641020653024369
1765408447.663079,-7.87809693404989,6.0203047417740985,-0.3148871899390789,-1.1870012973305508,0.47981574487370426,-0.768724383023513
1765408447.663329,-8.02634062160545,5.948378038472355,-0.22041104824362184,-1.1913998112724227,0.4814276360575718,-0.7735780058653496
1765408447.663579,-8.190041341273174,5.876518459550656,-0.11579478015542438,-1.1954570282258723,0.48276692306294855,-0.7786550596559803
1765408447.662908,-8.36395190243986,5.8067647503579405,-0.00452240821521558,-1.1991571795657303,0.4838559396510165,-0.7839211312867105
1765408447.663241,-8.542141914464613,5.7411147186257105,0.10939126267631488,-1.2024918337626256,0.4847295641383616,-0.78931664831906
1765408447.663575,-8.718314554538747,5.681345076207509,0.22163266043813415,-1.2054612314267692,0.4854368492986327,-0.7947605055886994
1765408447.663753,-8.886159687884533,5.628849775319159,0.32786117632935796,-1.2080748127007699,0.48604117242837,-0.8001554581367217
1765408447.664003,-9.03971575751053,5.584506404724844,0.4239960673130211,-1.2103508923820054,0.4866185405004652,-0.8053947897891777
1765408447.664253,-9.17371171402473,5.54857956974966,0.506492029101026,-1.2123155508777845,0.4872539951529568,-0.8103698136982693
1765408447.664503,-9.283863680970233,5.5206702937648116,0.5725783211322776,-1.2140009092719612,0.48803636848892573,-0.8149777989536219
1765408447.664567,-9.367107049538996,5.4997196522240905,0.6204406762670265,-1.2154430124484572,0.48905191312898755,-0.8191299038577313
1765408447.664817,-9.421750048413733,5.484071793256543,0.6493311821678633,-1.2166795576664422,0.49037752382138355,-0.8227586252997882
1765408447.665067,-9.447538420482298,5.471596035083081,0.6595972788031178,-1.2177476947330113,0.49207432915049865,-0.8258241853442133
1765408447.665317,-9.445624505001305,5.459860875421333,0.6526266033996981,-1.2186820923445814,0.4941823565357604,-0.8283192315145826
1765408447.665577,-9.418439959943479,5.446345957471245,0.630710915849576,-1.2195134111962478,0.49671682204233514,-0.8302712641216988
1765408447.66591,-9.369479831389562,5.4286724732248395,0.5968407856275689,-1.220267258713116,0.49966642832841685,-0.8317423326501805
1765408447.666244,-9.303015473410484,5.404829025967848,0.5544517354328113,-1.2209636418790866,0.5029938719482498,-0.8328257663595108
1765408447.666535,-9.223763113593652,5.3733694210173315,0.5071488877802278,-1.2216168881410552,0.5066385398010609,-0.8336400117938724
1765408447.666785,-9.136541073166939,5.333561642733429,0.4584383574585876,-1.2222359560685327,0.5105211268892119,-0.8343199993697531
1765408447.667035,-9.04594912674492,5.285472912751001,0.4114895861941683,-1.2228250082233068,0.5145496922147121,-0.8350067799720631
1765408447.667285,-8.956097426554493,5.2299827294079195,0.3689452661781823,-1.223384099779304,0.5186265382587845,-0.8358363856244719
1765408447.66754,-8.870402146945642,5.168722577076485,0.3327866584320439,-1.2239098680798226,0.5226552646637318,-0.8369289371318015
1765408447.66779,-8.791454967395607,5.103946952479194,0.3042544383010612,-1.2243961654272797,0.5265474015191259,-0.8383789648402269
1765408447.66804,-8.720967132641949,5.038345850968518,0.28382126525081786,-1.2248346203085696,0.5302281671870948,-0.8402477781681691
1765408447.66829,-8.659785656324836,4.974814183610885,0.27121280551613375,-1.2252151305629269,0.5336410946760882,-0.8425585498142872
1765408447.668541,-8.60797578821582,4.916198228533256,0.2654762644002963,-1.2255263014287208,0.5367514530331197,-0.8452945697428863
1765408447.668791,-8.564958000793485,4.86504220156237,0.2650956613312977,-1.225755853611945,0.5395484614547859,-0.8484008641196549
1765408447.669041,-8.529681396700852,4.823358756306576,0.26814958063764505,-1.225891036993287,0.542046228983202,-0.8517890816469217
1765408447.669291,-8.500812329445845,4.792445622714978,0.27250167285889904,-1.2259190869291514,0.5442832427513167,-0.8553452565369694
1765408447.669502,-8.476918661029964,4.772766846722765,0.2760093839566276,-1.2258277522483394,0.5463202079192038,-0.8589397878954118
1765408447.669835,-8.45663478489483,4.76391141217768,0.2767335224369147,-1.2256059098171057,0.5482361619912997,-0.8624387454021681
1765408447.670169,-8.438797806600244,4.764634643414108,0.27313019570782293,-1.2252442648807818,0.5501229754676334,-0.8657154495190207
1765408447.670506,-8.422549682594855,4.772979240282675,0.2642069967140892,-1.2247361246902932,0.5520785259392573,-0.8686612285706474
1765408447.670756,-8.40740317013733,4.786464222283483,0.24962717612024726,-1.2240782187900863,0.5541989840093374,-0.8711943573099642
1765408447.671006,-8.39327091525157,4.802322729517586,0.2297493239271808,-1.223271512544523,0.5565708021607159,-0.8732664088536873
1765408447.671256,-8.38045731362396,4.817764183298627,0.20559618139829533,-1.2223219309884872,0.5592631367058785,-0.8748655409818801
1765408447.671611,-8.369613356624212,4.830233127291106,0.1787542199116315,-1.221240896198874,0.5623214961461969,-0.8760165405105809
1765408447.671861,-8.361656998351103,4.8376371178653965,0.15121421658441728,-1.2200455813803364,0.5657633372784919,-0.8767777464099005
1765408447.672111,-8.35766551224705,4.838520143979018,0.125170717241787,-1.2187587890742229,0.5695761184755366,-0.8772352402515685
1765408447.672361,-8.358750052437626,4.832165522148663,0.1028037177098259,-1.21740837610258,0.5737180247844914,-0.8774948969137816
1765408447.672518,-8.365924822744049,4.818621054219331,0.08606779724889232,-1.2160261864079356,0.5781212727898701,-0.8776730163477419
1765408447.672768,-8.379984255860428,4.7986476894038335,0.07651164216700629,-1.2146465106700204,0.5826976287328453,-0.8778863295603729
1765408447.673018,-8.401402024683582,4.773600117544165,0.07514537035120604,-1.2133041506431002,0.5873455569872373,-0.8782422097899762
1765408447.673268,-8.430264596167467,4.74525334664625,0.0823660714862637,-1.2120322144705533,0.5919582816711247,-0.8788299115119356
1765408447.673492,-8.46624795305123,4.715593334941486,0.09794457416183341,-1.2108598070179974,0.596432008827275,-0.8797135742228506
1765408447.673825,-8.508639578250923,4.686592189569051,0.12106939712587908,-1.2098098056443918,0.6006736186996066,-0.880927555082004
1765408447.674159,-8.556401468469707,4.6599893163381765,0.15043874222344053,-1.2088969178107354,0.6046072679342601,-0.882474424843013
1765408447.674497,-8.608265978845086,4.637099191488449,0.18438956674066745,-1.2081261982950051,0.6081794842273348,-0.8843257262020809
1765408447.674747,-8.662854322040177,4.618664254872301,0.22105311108916587,-1.20749216932538,0.6113624393777097,-0.8864253898447031
1765408447.674997,-8.718805741785307,4.604768092118547,0.2585260497268674,-1.2069786475163955,0.6141551522253159,-0.8886955297879631
1765408447.675247,-8.774903067777217,4.594819631236073,0.2950445139974478,-1.2065593367390293,0.6165824605971777,-0.8910441612953794
1765408447.675532,-8.830178673663816,4.587612959493222,0.32914561676610976,-1.20619918738946,0.6186917593403397,-0.8933741776492573
1765408447.675782,-8.88398545558324,4.581458984570529,0.35979893293287923,-1.2058564527245343,0.6205477066124587,-0.8955927226217925
1765408447.676032,-8.93602119116576,4.574375254312428,0.38648943204783304,-1.20548531221046,0.6222253019788817,-0.8976199882428721
1765408447.676282,-8.98630116126487,4.564311305210051,0.4092354990250466,-1.2050388897061717,0.6238019284120807,-0.8993965122419165
1765408447.676499,-9.035081897549663,4.549381784974961,0.4285333771609155,-1.2044724560077293,0.625349136608512,-0.9008882368287866
1765408447.676749,-9.082746770619101,4.528079549018492,0.44523258923427517,-1.203746568187765,0.6269250976704573,-0.9020888719939706
1765408447.676999,-9.129670524641533,4.499445113221808,0.46036164076641806,-1.202829889823131,0.628568674263598,-0.9030194363133488
1765408447.677249,-9.176083706752166,4.463175466910357,0.47493387963933315,-1.2017014708248772,0.6302958928044774,-0.9037251790677509
1765408447.677537,-9.221958223682542,4.419662914674851,0.4897660744281855,-1.200352318860381,0.6320992474392925,-0.904270361209866
1765408447.67787,-9.266931523535003,4.369962528427214,0.5053373196498984,-1.1987861435104659,0.633949819448513,-0.9047315487072635
1765408447.678204,-9.310280065145028,4.315694187463349,0.521706193518327,-1.1970192088109466,0.6358017761290579,-0.9051901521891315
1765408447.678551,-9.350944955038099,4.258891190948022,0.5384926911984024,-1.195079303863126,0.6375985146193401,-0.905724952529141
1765408447.678801,-9.38760597424117,4.201811639194334,0.5549207643023434,-1.1930039189561406,0.6392795824205115,-0.9064052920559298
1765408447.679051,-9.418795584399827,4.146731495900114,0.5699099210968477,-1.1908377615698218,0.6407875497544246,-0.9072854897999896
1765408447.679301,-9.443041610641925,4.095739616353795,0.582202092600567,-1.18862975337666,0.642074195032571,-0.9084008697062474
1765408447.679505,-9.459025197028835,4.0505543587023425,0.5905114073725959,-1.1864296491319795,0.6431055826580143,-0.9097655969762969
1765408447.679755,-9.46573839970099,4.0123781140061805,0.5936852066808539,-1.1842844478871177,0.6438657335317897,-0.9113723407206403
1765408447.680005,-9.462623625730915,3.981801113928957,0.5908617902896653,-1.1822348253974342,0.6443585921395971,-0.9131936639938103
1765408447.680255,-9.44967679693046,3.958760977026875,0.5816064591732425,-1.180311874448564,0.6446079962005533,-0.9151849837391177
1765408447.680616,-9.42749935082351,3.942560456728989,0.5660069151641867,-1.1785344695794968,0.6446554824151599,-0.917288889970502
1765408447.680866,-9.397290768711173,3.9319422092536462,0.5447130349682905,-1.1769075618805576,0.6445560223458643,-0.9194405211063642
1765408447.681116,-9.36078135210366,3.925215273310544,0.5189122491723309,-1.1754216540835039,0.6443720881620568,-0.9215735700397679
1765408447.681366,-9.320112552565424,3.920423112711295,0.49023889300042894,-1.1740535980586246,0.6441667239919332,-0.9236263804752255
1765408447.681564,-9.277678180583722,3.9155379817881153,0.4606244967665362,-1.1727686961347183,0.6439965052775822,-0.9255475174669511
1765408447.681897,-9.235943739960977,3.9086620515988626,0.4321057717936198,-1.1715239103037849,0.6439053522746271,-0.9273001979719441
1765408447.682231,-9.197262694771059,3.898213570078534,0.4066152535509145,-1.1702718463906827,0.6439200641948665,-0.9288650839875108
1765408447.682571,-9.163707621635286,3.8830774214314276,0.38578282080123566,-1.1689651107100825,0.6440481519908058,-0.9302411593129531
1765408447.682821,-9.136931346983877,3.862703771287529,0.37077375482014463,-1.1675606206661784,0.6442781445107708,-0.9314446632083739
1765408447.683071,-9.118069287083534,3.8371448275027684,0.36218248542532644,-1.1660234722707765,0.644582139634642,-0.9325062823072668
1765408447.683321,-9.107690016752677,3.8070265998346486,0.35999257612619506,-1.1643300289807033,0.6449200654944797,-0.9334669928312628
1765408447.683565,-9.105796473634266,3.773459153020458,0.36360377412635353,-1.1624699909880554,0.645244952611119,-0.9343730987399166
1765408447.683815,-9.111875195699938,3.73789550487149,0.3719181307986189,-1.160447298624473,0.6455084993402741,-0.9352711072802771
1765408447.684065,-9.124986617559568,3.701956081497185,0.38347242142530036,-1.158279793389369,0.6456663138657385,-0.9362030783502019
1765408447.684315,-9.143886430728692,3.6672407187339076,0.3966035787838661,-1.155997626508499,0.6456823653945191,-0.9372029477343895
1765408447.684518,-9.16716556392841,3.635150879190691,0.4096333997250408,-1.1536405037207753,0.6455322786866978,-0.9382940952036988
1765408447.684851,-9.193393805281731,3.6067406924330805,0.4210550353035814,-1.1512539787385474,0.6452051318182195,-0.9394882151550454
1765408447.685185,-9.22125076761142,3.5826097175727623,0.42969921900988817,-1.1488851116341885,0.6447034651883842,-0.9407854319806243
1765408447.685561,-9.249629598012884,3.5628461147924892,0.43485799303477796,-1.1465778705711696,0.644041399659608,-0.9421755576151863
1765408447.685811,-9.277703444294552,3.547025997206023,0.43634918619295454,-1.144368696420036,0.643241080087956,-0.943640328954551
1765408447.686061,-9.304950596558543,3.534270718445516,0.4345132720111567,-1.1422826813522855,0.642327974145137,-0.945156355641389
1765408447.686311,-9.331140121208033,3.52335752881704,0.430143276707727,-1.1403308025424346,0.6413257638343544,-0.9466983985805052
1765408447.686545,-9.356284955844984,3.512871489800467,0.42435794040115404,-1.1385085660241978,0.6402516584973984,-0.948242547160231
1765408447.686795,-9.380573079317173,3.5013799364834894,0.41843741120341493,-1.1367962625621144,0.6391129296278895,-0.9497689000688508
1765408447.687045,-9.404288990229198,3.487607182778491,0.41364662003604186,-1.1351608528750128,0.6379052781406129,-0.9512634708184268
1765408447.687295,-9.427737412923566,3.470587730353661,0.4110722142012252,-1.1335593099490107,0.6366132955103881,-0.9527191844299758
1765408447.687526,-9.451179284733735,3.4497805438033615,0.4114951395760293,-1.131943070148341,0.635212872111283,-0.9541359489404179
1765408447.687776,-9.474787020921925,3.4251332100806637,0.4153142242653642,-1.1302631105200238,0.6336750680266287,-0.9555198580664109
1765408447.688026,-9.498622307977845,3.39709102465204,0.4225274190398209,-1.1284751052546176,0.6319707628904214,-0.9568816420811551
1765408447.688276,-9.522635941870275,3.3665512304153475,0.43276802639940604,-1.1265441228112432,0.6300753539059104,-0.9582345704335921
1765408447.688551,-9.546686145798397,3.334767130490524,0.4453856987022889,-1.1244483860172156,0.6279728539406925,-0.9595921106588723
1765408447.688884,-9.57056972881832,3.3032113316124785,0.4595579234716378,-1.12218171605449,0.6256588919258362,-0.9609657041135384
1765408447.689218,-9.59405935151275,3.2734116547127683,0.4744162655888622,-1.1197544189471236,0.6231422622511888,-0.9623629899407334
1765408447.689491,-9.616939842797786,3.246776215595985,0.48917066593952174,-1.1171925394954387,0.6204447954199355,-0.9637867185937415
1765408447.689741,-9.63903693503439,3.224425440721966,0.5032144289522763,-1.114535569891783,0.6175994774680853,-0.9652344914870495
1765408447.689991,-9.660232960617412,3.2070486963207956,0.5161939662510006,-1.1118328362664902,0.6146469588764336,-0.9666993597446323
1765408447.690241,-9.680465848066458,3.1948017719835,0.5280316387954073,-1.1091389033112915,0.6116308235654283,-0.9681712115261537
1765408447.690575,-9.69971020626267,3.187258258979659,0.5388962600960042,-1.1065084389855118,0.6085921735497022,-0.9696387855541296
1765408447.690825,-9.717942487236874,3.1834230560352204,0.5491234979014099,-1.103991042294994,0.6055642124409415,-0.9710920777634722
1765408447.691075,-9.735095736496387,3.18181060647029,0.5590975564735705,-1.101626534209542,0.6025675918838708,-0.9725248446465546
1765408447.691325,-9.751012566066397,3.1805842892614886,0.5691148443384064,-1.099441160615742,0.5996072742814128,-0.9739368349205881
1765408447.69158,-9.765407269460006,3.1777461060229455,0.5792567392374023,-1.0974450803819225,0.5966714829251857,-0.9753353203310825
1765408447.691913,-9.777848621830096,3.171357574611388,0.5892987699715917,-1.0956314003982213,0.5937329561604536,-0.9767355048982465
1765408447.692247,-9.787772346756443,3.159765638470224,0.5986764017331659,-1.0939768573382695,0.5907523068984989,-0.9781595256170393
1765408447.692579,-9.794525999534578,3.141804352897162,0.6065151972752532,-1.0924440645248528,0.5876829386261502,-0.9796340184104253
1765408447.692829,-9.7974412961845,3.1169456444116497,0.611719575536604,-1.0909850967398533,0.5844767464419196,-0.9811865386851787
1765408447.693079,-9.795923163280975,3.0853798144049938,0.6131040414371977,-1.0895460867669269,0.5810897602895109,-0.9828413828636223
1765408447.693329,-9.789542880852629,3.048016496504777,0.6095465789064968,-1.0880724218745608,0.5774869817111852,-0.9846154671459849
1765408447.693517,-9.778123942232321,3.0064070019841274,0.6001456832814599,-1.0865140476687423,0.573645892769916,-0.9865148677932821
1765408447.693767,-9.761811590085474,2.9625974540170916,0.5843662628350867,-1.0848303480643486,0.569558376320379,-0.9885324690192612
1765408447.694017,-9.741118911730762,2.918928156508409,0.562160916743924,-1.0829941035618587,0.5652309828773822,-0.9906469775478165
1765408447.694267,-9.716944114210166,2.877798935659305,0.5340519583024119,-1.0809941235230143,0.5606836031883756,-0.9928233983134169
1765408447.694506,-9.690556062491224,2.841423453085464,0.5011601633082831,-1.078836276203317,0.5559467227048258,-0.9950149337765087
1765408447.694756,-9.663547926313395,2.8115971486773446,0.4651708919689457,-1.0765427960553169,0.5510575776367206,-0.9971661534370162
1765408447.695006,-9.63776036172254,2.789502219575616,0.42823484102865833,-1.0741499292882002,0.5460556609187398,-0.9992171694322107
1765408447.695256,-9.615175949335182,2.775568772841055,0.3928070852054126,-1.0717041607215454,0.540978101832084,-1.001108465717153
1765408447.695542,-9.597787539682079,2.769405613744653,0.36143535238910074,-1.0692574102267105,0.5358554826611597,-1.002785986028881
1765408447.695875,-9.58744632195679,2.7698085660862537,0.33651767471654237,-1.0668616811159335,0.5307086681542983,-1.00420608298344
1765408447.696209,-9.58570011528025,2.774848692307853,0.3200578546735463,-1.0645636955702558,0.5255471506829177,-1.0053399362882454
1765408447.696536,-9.59363636105649,2.7820362675211436,0.31345010874095447,-1.0624000666519486,0.5203691938716699,-1.006177043480007
1765408447.696786,-9.61174601699281,2.788548376456724,0.3173203557004723,-1.0603935178905592,0.5151637172070963,-1.0067273858247274
1765408447.697036,-9.639823787428101,2.79149939243785,0.33144280076476135,-1.058550557543956,0.5099135136312571,-1.007021915801532
1765408447.697286,-9.676917126377106,2.788226396811026,0.3547388897617337,-1.0568608539157127,0.5045991438032752,-1.007111139990826
1765408447.697514,-9.721331827673714,2.77655811974624,0.3853535046335926,-1.0552983643857483,0.49920277368572635,-1.0070617838016542
1765408447.697764,-9.770697239575583,2.7550376719520426,0.420794488771874,-1.0538240673498458,0.4937113412673623,-1.0069517738844564
1765408447.698014,-9.82209056502795,2.7230758681175025,0.45811992034513177,-1.0523899591073673,0.48811871208534724,-1.0068639844568301
1765408447.698264,-9.872216706092157,2.681020973763199,0.4941610233239913,-1.0509438479202695,0.4824267832355792,-1.006879311123218
1765408447.69849,-9.917635462332141,2.6301391960485447,0.5257702421982269,-1.0494344374549365,0.47664567031365,-1.0070696719245573
1765408447.69874,-9.955020801612516,2.5725070874702296,0.5500797183331866,-1.0478162235594162,0.47079310634508076,-1.0074915496218932
1765408447.69899,-9.981429803790755,2.510823942324161,0.5647486717845708,-1.0460537781339387,0.4648930820304743,-1.00818070781146
1765408447.69924,-9.994555174543434,2.4481609125005463,0.5681750697850774,-1.0441250385746188,0.4589737012204493,-1.0091486841879178
1765408447.699524,-9.992936002950794,2.387672496993694,0.5596489971107164,-1.0420232891298975,0.4530642814454365,-1.0103815136446759
1765408447.699857,-9.976105329075896,2.3323016447968645,0.5394298481892932,-1.0397576382380038,0.44719186393107524,-1.011840859122316
1765408447.700191,-9.944658961471859,2.284509772704783,0.5087357359121638,-1.0373519474949575,0.4413774511311117,-1.0134674110681967
1765408447.700528,-9.9002377624141,2.246058305084977,0.46964277885368455,-1.034842320263171,0.4356324290998827,-1.015186152461904
1765408447.700778,-9.845424636165397,2.217861032754342,0.4249040378239567,-1.032273398222207,0.42995572537885013,-1.0169129225342448
1765408447.701028,-9.783565913317116,2.1999184457660097,0.37770914660105154,-1.0296938396857152,0.4243322421755346,-1.0185616469491199
1765408447.701278,-9.718533265468032,2.191337315597339,0.33141228087324265,-1.0271514472342254,0.41873294211731343,-1.0200516104050668
1765408447.701516,-9.654446522925722,2.1904317665194974,0.28925742000403387,-1.0246884527784121,0.4131166742468742,-1.0213141972636282
1765408447.701766,-9.595380165374753,2.194895880711561,0.2541273177727859,-1.022337450985761,0.4074335069897652,-1.0222985874136625
1765408447.702016,-9.545076775075941,2.20203203058506,0.22833700085258635,-1.0201184034807518,0.40162908562364785,-1.0229759526281934
1765408447.702266,-9.50668909946418,2.2090134681462916,0.21348447897084807,-1.0180370206404286,0.39564941699063677,-1.0233417692537419
1765408447.702535,-9.482568961503404,2.213155362334792,0.210362918138588,-1.0160846748791332,0.3894455267226853,-1.0234159929953892
1765408447.702785,-9.474117278949679,2.2121674272727376,0.21893305722624298,-1.0142398312584184,0.3829776115238644,-1.0232410545535304
1765408447.703035,-9.481705546376482,2.2043644640412667,0.23835325211160494,-1.0124708201798787,0.3762185319692232,-1.0228778769009066
1765408447.703285,-9.504674362543618,2.1888173109802533,0.26706471810361915,-1.0107396373694268,0.3691566358621315,-1.022400292174159
1765408447.703492,-9.541407653943015,2.165433381359806,0.30292758674238457,-1.0090063522374895,0.36179789595711853,-1.0218883103462115
1765408447.703825,-9.589472759368308,2.1349614619442883,0.3433980958142735,-1.0072336478556385,0.3541672194151651,-1.0214207091561893
1765408447.704159,-9.64580939309282,2.098920026147945,0.38573102638270845,-1.0053910044521785,0.3463086461517382,-1.0210674443434369
1765408447.704505,-9.70694748102157,2.0594534136392864,0.4271879667692624,-1.0034580722005464,0.3382841118766112,-1.0208824451323943
1765408447.704755,-9.769235055221541,2.019126457614926,0.46523258751031676,-1.0014268653860654,0.3301705593899355,-1.020897427797037
1765408447.705005,-9.829060482646724,1.9806746326075717,0.4976973534971239,-0.9993025487214219,0.32205540098460506,-1.0211173758776981
1765408447.705255,-9.883056181858619,1.9467324429326964,0.5229097064277989,-0.9971027505959533,0.3140305853534784,-1.0215182636251943
1765408447.705517,-9.928273265392242,1.9195668960782186,0.5397693154603185,-0.9948554906399626,0.30618574718195,-1.0220474221813531
1765408447.705767,-9.962318710427494,1.900844426541261,0.5477725225427915,-0.9925959370305718,0.2986010914357474,-1.0226266667655912
1765408447.706017,-9.983448937424559,1.8914571222358258,0.5469854918855532,-0.990362319083223,0.2913407609013333,-1.0231579640663802
1765408447.706267,-9.990616379059366,1.8914273801324584,0.5379725412171192,-0.9881914101090643,0.2844474252289021,-1.0235311089531498
1765408447.706474,-9.983469588547448,1.8999008757444238,0.5216904473255685,-0.9861140491815817,0.2779387073246086,-1.0236326666518607
1765408447.706724,-9.962313029560136,1.9152280255758718,0.49936384454638033,-0.9841511815847118,0.2718058496491774,-1.0233553328013871
1765408447.706974,-9.928038405411966,1.935124837410904,0.4723602646955263,-0.9823108693065057,0.2660147476123753,-1.0226068499568868
1765408447.707224,-9.882042284068094,1.9568953421969189,0.4420830566061825,-0.9805866491545192,0.26050917787700506,-1.0213176819620695
1765408447.707631,-9.826142781693624,1.9776905743710769,0.4098944602800243,-0.9789574855648144,0.2552157829648891,-1.0194467888397587
1765408447.707964,-9.762501797247689,1.9947751494704873,0.3770709602148783,-0.9773893861175725,0.2500502004680867,-1.0169850620149525
1765408447.708298,-9.69355179578095,2.005773266890691,0.34478295305297907,-0.975838548114737,0.2449236825809158,-1.0139562369727697
1765408447.708525,-9.62192116365449,2.0088709907232247,0.3140853450689868,-0.9742557110200548,0.2397496407017357,-1.0104153267237526
1765408447.708775,-9.55035208734567,2.0029587175996104,0.2859074485250184,-0.9725912283375371,0.23444973066450212,-1.006444761508624
1765408447.709025,-9.48160918211699,1.9877044448060697,0.26103796867851264,-0.9708002776533216,0.2289592858176451,-1.0021484982055813
1765408447.709275,-9.41838228313322,1.9635539340350792,0.24010876980214116,-0.9688476194726343,0.22323201233689438,-0.9976444488818809
1765408447.709568,-9.363189018778149,1.9316588683153786,0.2235843491725824,-0.9667113799501537,0.21724383241120554,-0.9930557183786798
1765408447.709818,-9.318280848775094,1.8937396021939765,0.21176156737500254,-0.9643854417173919,0.21099563277330408,-0.9885013147423815
1765408447.710068,-9.285552691023438,1.8518951892379363,0.20477942532738944,-0.9618801677990851,0.20451455471028587,-0.9840871404145062
1765408447.710318,-9.266454879991269,1.8083792216401797,0.2026352341017982,-0.9592213504847885,0.1978534531535413,-0.9798981232374442
1765408447.710588,-9.26190855249375,1.7653643339529264,0.20520239612723357,-0.956447455825795,0.1910882920772699,-0.9759922584700659
1765408447.710838,-9.27222993662595,1.7247196067762476,0.2122452024871351,-0.9536054114964345,0.1843134799324151,-0.9723970965325779
1765408447.711088,-9.297072592099994,1.6878229568767404,0.22342705915183492,-0.9507453514775226,0.17763540116455034,-0.9691088898747522
1765408447.711338,-9.33539771599725,1.6554260008429882,0.2383106816391759,-0.9479148613500042,0.17116462450734152,-0.9660943209344784
1765408447.711496,-9.385480911993744,1.6275838375045422,0.2563515275396875,-0.9451533286380368,0.16500745720830168,-0.9632945341307688
1765408447.711746,-9.444959953227999,1.603657486890378,0.2768877388782977,-0.9424869842450267,0.15925764521478142,-0.9606310474244723
1765408447.711996,-9.510923417566334,1.582390992100695,0.29913061122761586,-0.9399251457983959,0.15398905039639935,-0.95801295962782
1765408447.712246,-9.58003629451167,1.5620569186499953,0.322159893241012,-0.9374580597678512,0.14925004417466953,-0.9553447118952247
1765408447.7126,-9.648696713394768,1.5406542151277118,0.34492910817700795,-0.935056585877985,0.14506016370111616,-0.9525335903824107
1765408447.712933,-9.71321752962514,1.5161345635395738,0.36628767309529997,-0.932673782964914,0.1414093267742065,-0.9494962382013888
1765408447.713267,-9.770026445063921,1.4866302511315355,0.3850275579323958,-0.9302482689635424,0.13825962785204138,-0.9461636594457026
1765408447.713612,-9.815877274480444,1.4506582888910042,0.3999604799172876,-0.9277090614545103,0.135549452931005,-0.9424844597962986
1765408447.713862,-9.848062007671128,1.4072801299101254,0.41002585151688076,-0.9249814619399548,0.13319937625314157,-0.938426293766514
1765408447.714112,-9.864608633407071,1.3562021191470948,0.4144207833715865,-0.9219934329143652,0.1311190859005984,-0.9339756441100086
1765408447.714362,-9.864444916608504,1.2978078307206933,0.41273427633764165,-0.918681854063527,0.12921448183901005,-0.929136153302586
1765408447.71457,-9.847506123979574,1.233119438066627,0.4050614389878354,-0.9149980496049315,0.12739411713285612,-0.9239257888743494
1765408447.71482,-9.814767494387107,1.16369140835189,0.3920722527046003,-0.910912045895988,0.1255742984217369,-0.9183731845001963
1765408447.71507,-9.76819060808411,1.0914465160264646,0.3750142046105278,-0.9064151299484258,0.12368241176752492,-0.9125135647095703
1765408447.71532,-9.710584562394638,1.0184710489642816,0.35563868543535115,-0.9015204303557333,0.12165837053088795,-0.9063847016323776
1765408447.71556,-9.645394123911894,0.9467915246723527,0.3360546022930203,-0.8962614319743758,0.11945442628645245,-0.9000233280424839
1765408447.71581,-9.576434748738773,0.8781576386637486,0.31852494760429584,-0.890688545364928,0.1170338473647798,-0.8934623380022741
1765408447.71606,-9.507598258599305,0.8138552669470603,0.3052304502285519,-0.8848640453946801,0.11436908953248412,-0.8867289737189525
1765408447.71631,-9.44255473181652,0.7545698648653202,0.29802907047163685,-0.8788558443165164,0.11144006207946723,-0.8798440550725745
1765408447.716513,-9.384476768914045,0.7003150630426865,0.2982416584011793,-0.872730670367028,0.10823296970937453,-0.872822173916711
1765408447.716763,-9.335810634970132,0.650433780506326,0.3064915313607573,-0.866547288722781,0.1047400160491474,-0.8656726619752789
1765408447.717013,-9.298113613003613,0.6036704724431428,0.3226177750071405,-0.8603504196318056,0.10096000751683382,-0.8584010668436748
1765408447.717263,-9.271969182329634,0.558305026914875,0.34567042237690654,-0.8541659570913405,0.09689964401325386,-0.8510108474934137
1765408447.717568,-9.256983957339013,0.512333077151763,0.3739847319514702,-0.8479979577430002,0.09257510779930148,-0.8435050183598901
1765408447.717818,-9.25186415218955,0.4636742630735907,0.40532459423170586,-0.8418276743843838,0.08801352310636759,-0.8358875076240615
1765408447.718068,-9.254563844866215,0.4103882304462732,0.437080653082027,-0.8356146995654972,0.0832539329189476,-0.8281640490600622
1765408447.718318,-9.262491250691113,0.3508775829609933,0.46650443211295683,-0.8293000979378533,0.07834754322198977,-0.8203425120024198
1765408447.718545,-9.272753109387946,0.284058481467678,0.4909553902364869,-0.8228112433656982,0.07335706486243933,-0.8124326789953171
1765408447.718795,-9.282413150501542,0.20948358333542075,0.5081357898391593,-0.8160679324521262,0.06835505606815478,-0.8044455641946685
1765408447.719045,-9.288739972021732,0.12740754934637305,0.5162903701350791,-0.8089892359842574,0.06342127028171118,-0.7963924049829328
1765408447.719295,-9.289422597650598,0.0387910201308542,0.5143534383086659,-0.8015004987682769,0.058639133994984646,-0.7882834724426065
1765408447.71952,-9.282737430359454,-0.054755768878717345,0.5020331463275876,-0.7935399085082808,0.05409157531859244,-0.7801268545632201
1765408447.71977,-9.267656726306972,-0.15108367924285449,0.47982954638519504,-0.7850641046314949,0.04985648255539805,-0.7719273619040283
1765408447.72002,-9.243894547211607,-0.24765934097603973,0.44898820802041267,-0.7760523736410893,0.046002116773638906,-0.7636856721006771
1765408447.72027,-9.211891013051819,-0.3417502742245757,0.4113948371246648,-0.76650908406527,0.042582843614444546,-0.7553977746113542
1765408447.720551,-9.172740528653504,-0.4306249931375591,0.3694202692478681,-0.7564641580027748,0.039635566322603746,-0.7470547301482972
1765408447.720801,-9.128074952900723,-0.5117519061486306,0.3257305393388127,-0.7459715487325085,0.0371772169597788,-0.738642741821459
1765408447.721051,-9.079916850989443,-0.5829813606357893,0.28308149469907984,-0.7351058751435626,0.03520359341583392,-0.7301435419981483
1765408447.721301,-9.03051899157609,-0.6426970010258568,0.2441184396773601,-0.7239575291352438,0.033689708104267246,-0.7215351061391028
1765408447.721539,-8.982204200114182,-0.6899255812173387,0.2111981230613115,-0.7126266930311461,0.032591643160453786,-0.7127926898638649
1765408447.721872,-8.937216411875303,-0.7243983034282334,0.18624542251915502,-0.7012167620563059,0.031849732894893824,-0.7038901465833547
1765408447.722206,-8.897590502989058,-0.7465613764163014,0.1706522741408212,-0.6898276695959765,0.03139277496257713,-0.6948014428319652
1765408447.72254,-8.86504525724309,-0.7575381782214429,0.1652218338290333,-0.678549583343952,0.03114291505832085,-0.6855022728789252
1765408447.72279,-8.84090095516074,-0.7590492686948187,0.1701564990016395,-0.6674573910297802,0.031020820224559258,-0.6759716866572149
1765408447.72304,-8.826021321495084,-0.7532987367258542,0.18508490435779545,-0.6566063206436222,0.03095073521712053,-0.6661936652889274
1765408447.72329,-8.820779042542654,-0.7428357478185468,0.20912076718574105,-0.6460289400398188,0.030865027064400447,-0.6561585833558797
1765408447.723619,-8.82504422614668,-0.730399383630497,0.24094543823910086,-0.6357336704856983,0.030707885507938452,-0.6458644757374787
1765408447.723869,-8.838195772647405,-0.7187543716094995,0.27890612209572424,-0.6257048500535135,0.030437945669007007,-0.6353179863036749
1765408447.724119,-8.859156571081979,-0.7105260804303541,0.3211227808516176,-0.6159043015282105,0.03002970591817846,-0.6245348435655611
1765408447.724369,-8.886454058838227,-0.7080447159447498,0.3655982159268803,-0.6062742842325165,0.029473724362885968,-0.6135397201463484
1765408447.724587,-8.91830688661001,-0.713209448723342,0.41032710744421447,-0.5967416314491735,0.02877569891042493,-0.6023654025345576
1765408447.724837,-8.952735583873057,-0.727382107769753,0.45340032520044987,-0.5872228027919366,0.027954650388374143,-0.5910513006622188
1765408447.725087,-8.98769066394402,-0.7513172551467541,0.4931003171486273,-0.5776295273606488,0.0270404937716033,-0.5796414190374146
1765408447.725337,-9.021187085929617,-0.7851319667808037,0.5279823536213971,-0.5678746819073335,0.026071276164983666,-0.5681819618263511
1765408447.725639,-9.051431430612187,-0.82831550693205,0.5569361676025191,-0.5578780337556102,0.02509030437761885,-0.5567187530753993
1765408447.725889,-9.07692887686908,-0.8797768095102608,0.579223929590081,-0.547571481581736,0.024143321854221075,-0.5452946416982595
1765408447.726139,-9.096560866015862,-0.937926267676314,0.5944930646779346,-0.536903456177022,0.023275843251696852,-0.5339470537764871
1765408447.726389,-9.109629716314828,-1.0007872636356774,0.6027651788018719,-0.525842200956968,0.022530710086054,-0.5227058664457455
1765408447.726563,-9.115871515459954,-1.0661311629485812,0.6044047217536045,-0.5143777311117327,0.021945898550506306,-0.5115918031306393
1765408447.726813,-9.115441800824488,-1.1316265290042744,0.6000724844024761,-0.5025223629500782,0.02155261146719559,-0.5006155580942198
1765408447.727063,-9.108879200871806,-1.1949899649695912,0.5906690585267464,-0.49030980850638756,0.021373717017561925,-0.48977780681804944
1765408447.727313,-9.097051201525804,-1.2541243725048241,0.5772721706042135,-0.4777929387965968,0.0214226196051591,-0.4790701355139664
1765408447.727578,-9.081085282937632,-1.307232031739165,0.5610704806123943,-0.465040416473943,0.021702635660519224,-0.46847676598088034
1765408447.727828,-9.062288935056271,-1.3528943931495636,0.5432960512782007,-0.4521324693803665,0.022206912983551725,-0.4579768185744461
1765408447.728078,-9.0420631296547,-1.3901161028109994,0.5251582371052198,-0.43915611648802866,0.02291890112344661,-0.44754678594775604
1765408447.728328,-9.021814678045672,-1.4183357260288956,0.5077824156124591,-0.4262001731725922,0.023813351159515515,-0.4371628967335891
1765408447.7288,-9.002872940093233,-1.4374088263587144,0.4921570384291495,-0.4133503623564783,0.024857779978028766,-0.426803124549701
1765408447.729133,-8.986415584123092,-1.4475703995629952,0.47909166479912124,-0.4006848454264746,0.02601427922704356,-0.41644871938170097
1765408447.729467,-8.973406830209212,-1.4493835454661579,0.46918712175819743,-0.38827045506773444,0.027241508376735418,-0.4060852661605375
1765408447.729613,-8.964550290757007,-1.4436799675994454,0.46281722773314005,-0.3761598504839792,0.028496709620255425,-0.39570336556188546
1765408447.729863,-8.960257710238512,-1.431495807228633,0.4601204891430109,-0.36438972651676327,0.02973762365462125,-0.38529905619292404
1765408447.730113,-8.960634909462103,-1.4140044723732776,0.4610006176316987,-0.35298011128922624,0.030924250957982725,-0.3748740579324848
1765408447.730363,-8.965486617099478,-1.392447645211973,0.46513640627962194,-0.341934701023142,0.032020459600710684,-0.36443584664684453
1765408447.730556,-8.974341544129167,-1.3680666007779214,0.47200295548314164,-0.33124211234352385,0.032995455156751854,-0.3539975149811608
1765408447.730806,-8.986497260172445,-1.342037254092959,0.48090584787851776,-0.3208778832563142,0.033825094542925094,-0.3435773600145572
1765408447.731056,-9.001081558809892,-1.3154128736792845,0.4910275016793435,-0.31080702770281743,0.03449297609154829,-0.33319816339709263
1765408447.731306,-9.017124400434204,-1.2890779775348327,0.501482147586128,-0.3009869463259387,0.034991214614306335,-0.3228861684114377
1765408447.731511,-9.033633465259717,-1.2637161282529643,0.5113745113643414,-0.2913705116553838,0.03532082124249484,-0.31266979036245457
1765408447.731761,-9.049667031340567,-1.239793606384959,0.519857710749109,-0.28190916836850943,0.03549163373842496,-0.3025781236012088
1765408447.732011,-9.064399303021558,-1.2175601057267473,0.526186770342821,-0.272555906856517,0.035521773415559586,-0.2926393397648326
1765408447.732261,-9.07717439768541,-1.1970663502797476,0.5297643952263683,-0.2632679741425042,0.03543664203428292,-0.2828791000329464
1765408447.735878,-9.087546059036477,-1.178196962382495,0.5301758407029101,-0.25400918650080795,0.03526750920288804,-0.2733191156200027
1765408447.736128,-9.095301392374529,-1.1607152826818397,0.5272108358425113,-0.24475172004894336,0.03504977032322028,-0.2639759875653071
1765408447.736378,-9.100468133822,-1.144315221074541,0.5208719250614287,-0.2354772897454414,0.0348209830544181,-0.25486044564010707
1765408447.736628,-9.103305431618317,-1.1286737385182675,0.5113692634180675,-0.2261776758944523,0.03461881580614503,-0.24597707566265262
1765408447.735922,-9.104278298160054,-1.1134968936380443,0.4991023941772962,-0.2168546041377421,0.03447904657296903,-0.23732455880556932
1765408447.736255,-9.104016802921848,-1.0985534558891303,0.4846306592824001,-0.20751902229620187,0.03443372979636135,-0.22889635587785187
1765408447.736589,-9.103262597839146,-1.0836931271787615,0.468634826345501,-0.19818984880154097,0.03450962567713014,-0.22068169221939155
1765408447.736556,-9.10280670935658,-1.0688503784718668,0.45187242660725846,-0.1888922957016715,0.03472697772016886,-0.2126666706214937
1765408447.736806,-9.103423680600965,-1.054037915192766,0.4351292640904655,-0.17965588909086458,0.03509872007084826,-0.20483536762342308
1765408447.737056,-9.105808359076935,-1.039334490401232,0.4191706854313484,-0.17051231675459083,0.035630178119492276,-0.1971708286411934
1765408447.737306,-9.110522142155148,-1.0248704732520226,0.4046973074557409,-0.16149323221050702,0.03631928923683178,-0.18965593206558615
1765408447.737571,-9.117954220789459,-1.0108127429405582,0.3923091631000406,-0.1526281429707683,0.03715732285343825,-0.18227411535963195
1765408447.737821,-9.128300567493415,-0.997349384759194,0.38247997994727734,-0.1439425072207876,0.03813003047106725,-0.17500994823809524
1765408447.738071,-9.141560641712369,-0.9846745989651469,0.3755413754749607,-0.1354561534820429,0.03921911395424447,-0.16784952345732732
1765408447.738321,-9.15755016808278,-0.9729747778809688,0.37167595485249555,-0.12718212134856516,0.040403868245680735,-0.16078064285435642
1765408447.738574,-9.175927732030944,-0.9624172055704281,0.3709180685897435,-0.11912599667130654,0.041662836086516844,-0.15379281522952729
1765408447.738824,-9.196232594294178,-0.9531426811186832,0.3731607744153527,-0.11128578335144829,0.04297531345193558,-0.1468771359183917
1765408447.739074,-9.217930654956712,-0.9452623364550676,0.3781673669559785,-0.10365232514581157,0.044322567182172576,-0.1400261544402457
1765408447.739324,-9.24046502246591,-0.9388574122495698,0.38558583623931075,-0.0962102694922309,0.04568866219445751,-0.13323383560572352
1765408447.739489,-9.263307454953642,-0.9339796184300777,0.39496481968013364,-0.08893954259570712,0.047060832707980484,-0.12649567997053654
1765408447.739739,-9.286007150647128,-0.9306496401473329,0.40577000331022495,-0.08181726997393966,0.048429367617115075,-0.11980900781098443
1765408447.739989,-9.308233798382465,-0.9288523496019466,0.41740041039012327,-0.07482003129541533,0.049787022836492535,-0.11317335186157498
1765408447.740239,-9.329812179328783,-0.9285287071434708,0.4292043753308778,-0.06792629450160324,0.05112802727382433,-0.10659086664706587
1765408447.740525,-9.350745880817316,-0.9295655222919055,0.4404951223547096,-0.06111884257876956,0.05244680177024559,-0.10006665214613578
1765408447.740775,-9.371228105785109,-0.9317848984173627,0.4505659527937976,-0.054386993645161155,0.053736545007323375,-0.09360890771573267
1765408447.741025,-9.391638340263286,-0.9349352382064696,0.4587053190040025,-0.047728426058223514,0.05498785422102632,-0.08722887469158742
1765408447.741275,-9.412524565544059,-0.9386852046802519,0.464212301202191,-0.04115045659462099,0.056187545760962784,-0.08094057416463557
1765408447.741526,-9.43457144778772,-0.9426213218721369,0.4664128221414152,-0.03467067529953889,0.05731781771087481,-0.07476037640540259
1765408447.741776,-9.458555592157708,-0.9462494153325166,0.46467659400863565,-0.028316899932977636,0.05835585437177711,-0.06870644405921816
1765408447.742026,-9.48528987299906,-0.9490000238292627,0.458435048279376,-0.022126460301991845,0.05927392547661154,-0.06279808553235491
1765408447.742276,-9.515560081700432,-0.9502380085777389,0.4472013671001024,-0.016144856394227615,0.060039990827735916,-0.05705505182154378
1765408447.742581,-9.550058210749276,-0.9492765478916849,0.43059402617358905,-0.010423864773673316,0.060618773075507414,-0.051496810734105884
1765408447.742781,-9.589317186456338,-0.9453956021763577,0.40836398808066243,-0.005019199874597202,0.06097320383088231,-0.046141829245290845
1765408447.742981,-9.63365189528339,-0.937865014016835,0.38042358488911526,1.2137065543036831e-05,0.061066106785498536,-0.04100688658869381
1765408447.743181,-9.683111341378256,-0.9259725870835587,0.34687393227905294,0.004614675100188745,0.0608619833623069,-0.036106440325316604
1765408447.743381,-9.737446718563186,-0.9090572684846405,0.30802800313647877,0.008737305643304237,0.06032880207713765,-0.031452084959409564
1765408447.743516,-9.796099542881638,-0.8865465711409939,0.2644271830008007,0.012335976784440284,0.05943972408783041,-0.027052165578438352
1765408447.743766,-9.858212430616225,-0.8579959219987504,0.2168492520079076,0.015376099638287642,0.058174699579355164,-0.022911612328019453
1765408447.744016,-9.922662918427747,-0.8231265194052529,0.1663056209724841,0.017834529356322036,0.056521852752471125,-0.019032034127041048
1765408447.744266,-9.988118425023933,-0.7818580604766358,0.11402604027130354,0.019701009153893084,0.05447856302605193,-0.015412065236146515
1765408447.744613,-10.053108317100236,-0.7343331658256088,0.061429851659372516,0.020978999814607067,0.05205215756137448,-0.012047918823868636
1765408447.744863,-10.11610724600811,-0.6809309655272555,0.01008365266336947,0.021685853755937925,0.049260147417660174,-0.00893408007006896
1765408447.745113,-10.175622792751447,-0.6222678927512786,-0.0383540524106986,0.021852331159429677,0.046129960534440864,-0.00606406476067954
1765408447.745363,-10.230280197657542,-0.5591844485832058,-0.08219970208954988,0.021521497845107634,0.042698154819770115,-0.003431168827535685
1765408447.745555,-10.278897357674975,-0.4927177745664146,-0.11982036297351215,0.02074708722907121,0.03900913735350451,-0.001029136691231574
1765408447.745755,-10.320544064637076,-0.4240611830261597,-0.14971460585370666,0.019591441641139563,0.035113463062089234,0.001147314269468034
1765408447.745955,-10.354580675359843,-0.3545129638354467,-0.17059426654474158,0.018123162212569866,0.031065827739982118,0.0031021567590027396
1765408447.746155,-10.380673255593535,-0.28541756358258896,-0.18146220521482506,0.01641459179902565,0.026922901934351057,0.004837924233401183
1765408447.746355,-10.398784664369119,-0.21810270900285864,-0.1816805549012632,0.014539241229320014,0.02274117235964811,0.006355788453704872
1765408447.746581,-10.409143667274549,-0.15381638744743345,-0.17102358379655783,0.012569254837653691,0.018574960433946817,0.007655826610390695
1765408447.746781,-10.412196574341047,-0.09366776813447418,-0.14970961758289922,0.010573000445002608,0.014474764926788525,0.008737446386440747
1765408447.746981,-10.408547792069472,-0.03857599811230545,-0.11840762149992409,0.008612862097536455,0.010486026243084983,0.009599925605513069
1765408447.747181,-10.398896790933005,0.01076972065372854,-0.07821588203057632,0.0067433103316028595,0.006648347203810278,0.010243016597867916
1765408447.747381,-10.383979031069426,0.05393620255505192,-0.030612566464776326,0.005009321101613723,0.0029951510303958566,0.010667565774967216
1765408447.7475,-10.364517214348144,0.09075691075177483,0.022619436216535848,0.0034452050550609027,-0.0004462775467881265,0.010876106299833637
1765408447.7477,-10.3411870450694,0.12132647666535,0.07948843878571263,0.0020738912744641476,-0.003654443934362908,0.010873393009044897
1765408447.7479,-10.314599013823328,0.1459792017452866,0.1379036182725242,0.0009066880088830462,-0.006613080724422957,0.010666855065773927
1765408447.7481,-10.285295161628145,0.16525250828559368,0.19579003818337784,-5.647738790804936e-05,-0.009310470909928927,0.01026693601693311
1765408447.7483,-10.25375776276619,0.17983757115845206,0.25120011883027704,-0.0008263547182648836,-0.011738750997037764,0.00968727974656995
1765408447.748514,-10.220425640820753,0.19052086967222992,0.3024130629729959,-0.0014232346727548536,-0.013893269336789993,0.008944721477692099
1765408447.748714,-10.185713529297182,0.19812156767910555,0.34801517321773845,-0.001875426073085507,-0.015772054311680998,0.00805906347889925
1765408447.748914,-10.150030395851399,0.20342998898246942,0.38695616184424436,-0.0022174074952591508,-0.01737542616173668,0.007052645055444508
1765408447.749114,-10.113793586667212,0.2071520230304955,0.41857888200393045,-0.0024877302151122193,-0.01870576253978891,0.0059497392527254975
1765408447.749314,-10.07743667688615,0.20986346433314967,0.4426220157860746,-0.0027267654447718135,-0.019767403665195547,0.004775817349019143
1765408447.749509,-10.041410048524558,0.21197745075610416,0.4591972626128918,-0.0029744014720307493,-0.020566663726422352,0.0035567223982657394
1765408447.749709,-10.006174584213888,0.213727384576827,0.4687447009296604,-0.0032678035102393127,-0.021111902029521873,0.0023177967072435884
1765408447.749909,-9.972190206692918,0.2151666675819881,0.4719719240105755,-0.0036393514072696675,-0.02141359969138033,0.001083021529388838
1765408447.750109,-9.9399017428106,0.21618491617218538,0.46978356625927303,-0.0041148684704713084,-0.021484389659462998,-0.00012575737553293065
1765408447.750309,-9.909724481801259,0.2165382265640453,0.4632076527668068,-0.00471224591796463,-0.021339003267854553,-0.0012894437883406208
1765408447.750507,-9.882031150323737,0.21588926937762795,0.45332425707223767,-0.005440547177942775,-0.020994119493485588,-0.00239209268196833
1765408447.750757,-9.857141341297664,0.2138521861166368,0.4412008420452115,-0.006299643361193003,-0.020468122318646104,-0.003421085599792546
1765408447.751007,-9.835313903003218,0.21003750380664796,0.42783759239876706,-0.007280391884636036,-0.01978078320867411,-0.0043671015914352115
1765408447.751257,-9.816742310302631,0.20409312082982037,0.41412488925516777,-0.008365333788754039,-0.018952894801585515,-0.005223924933524013
1765408447.751507,-9.80155253813022,0.19573836861674715,0.40081376062114427,-0.009529856094105942,-0.018005891590047424,-0.00598813371578342
1765408447.751707,-9.789802605838489,0.18478905812710927,0.388498868115096,-0.010743739818070799,-0.016961497613608535,-0.0066587095546366895
1765408447.751907,-9.781482980558101,0.1711723714750266,0.3776126541983653,-0.011972986883188387,-0.015841431642433436,-0.007236605844348401
1765408447.752107,-9.776517430280062,0.15493153372173893,0.3684288120093345,-0.013181793173284847,-0.01466717768053172,-0.0077243091417823475
1765408447.752307,-9.774764483678755,0.1362212653578927,0.3610731819156388,-0.014334522029222403,-0.013459804015578716,-0.00812542119380427
1765408447.752588,-9.77602011880399,0.11529580398982019,0.3555403625057429,-0.015397541555154083,-0.012239800019812603,-0.008444277570354201
1765408447.752788,-9.780022486579231,0.09249162966653844,0.3517145838925956,-0.016340817464374668,-0.011026900559592689,-0.008685608011304089
1765408447.752988,-9.786459282986508,0.06820700762139698,0.34939354907716563,-0.017139189840112527,-0.009839877759623031,-0.008854238904696379
1765408447.753188,-9.794977832799686,0.04288028618491906,0.34831384854657893,-0.01777329763319925,-0.008696291676116448,-0.008954840317981133
1765408447.753388,-9.805197246877388,0.016968684514578825,0.3481762591835366,-0.018230144307992874,-0.0076122028054581405,-0.008991724042803542
1765408447.753608,-9.81672151205731,-0.009070980752346075,0.3486691079057734,-0.018503318699788104,-0.006601861113251831,-0.008968699687683285
1765408447.753858,-9.829152313099547,-0.03479864968959619,0.3494882329425692,-0.01859289502558311,-0.005677396735358546,-0.008888991893027625
1765408447.754108,-9.842100725937218,-0.05980404647799664,0.35035281514133254,-0.018505038958356743,-0.004848542370403856,-0.008755217784849082
1765408447.754358,-9.855197400239529,-0.08371639428777009,0.3510170504622373,-0.018251351510057603,-0.004122414712328204,-0.008569423537916633
1765408447.754512,-9.868101222115486,-0.10621095993303832,0.35127798417913736,-0.01784799366127483,-0.00350337473168187,-0.008333178763101365
1765408447.754712,-9.880506636832632,-0.12701256007302236,0.35097991090007546,-0.017314647904752036,-0.0029929783757160554,-0.008047721521251825
1765408447.754912,-9.892149880284776,-0.1458962767122713,0.35001584021780735,-0.01667338216353963,-0.002590022562834498,-0.00771413743826101
1765408447.755112,-9.902814389713209,-0.16268592550591796,0.34832671806793525,-0.015947485753660024,-0.0022906865950156714,-0.007333552483440108
1765408447.755312,-9.912335619864866,-0.17725108787818433,0.34589919144748665,-0.015160347023458554,-0.002088765785453738,-0.006907323637561837
1765408447.755519,-9.920605307508929,-0.18950353551466542,0.3427625608937912,-0.014334437076865839,-0.0019759907288009475,-0.0064372183132057675
1765408447.755719,-9.92757490647615,-0.19939363810101002,0.33898527721806254,-0.013490452621711469,-0.001942421670750287,-0.005925574814271826
1765408447.755919,-9.933257577285461,-0.2069070402662469,0.3346710584331501,-0.012646654981058426,-0.0019769048536861255,-0.005375433120758736
1765408447.756119,-9.937727904395961,-0.21206169871440103,0.32995443377162764,-0.01181842446598966,-0.002067577323580952,-0.004790623847697778
1765408447.756319,-9.941118504465878,-0.2149053065588769,0.3249952662372475,-0.01101803134054679,-0.0022024045298986187,-0.004175806403487654
1765408447.756485,-9.943612914632759,-0.2155131091204974,0.31997176334115734,-0.010254607543428915,-0.002369727497589448,-0.003536453169623259
1765408447.756685,-9.94543464823317,-0.21398606723032434,0.31507187664780584,-0.009534289635665145,-0.0025587868264965547,-0.002878782073966564
1765408447.756885,-9.946833001260332,-0.21044925005346285,0.3104836743815563,-0.00886049596027839,-0.002760186216276595,-0.0022096440937264864
1765408447.757085,-9.948066794592942,-0.2050502515374951,0.30638575180819677,-0.008234299494044812,-0.0029662608210538808,-0.0015363752336580575
1765408447.757285,-9.949387446728796,-0.19795732389393353,0.30293866860995744,-0.007654859440052747,-0.0031713232996765407,-0.0008666254825927898
1765408447.757558,-9.951022597299302,-0.18935683124495412,0.3002779267530932,-0.007119877735198878,-0.003371771637715371,-0.00020817997732109833
1765408447.757758,-9.953161198919979,-0.17944960026881898,0.2985085289937594,-0.00662605209876643,-0.003566056527300306,0.000431213252726649
1765408447.757958,-9.955940737194268,-0.16844583299728327,0.29770087618858365,-0.006169504948266342,-0.0037545181232618726,0.0010440012348745707
1765408447.758158,-9.959437040358283,-0.15655847454948107,0.29788765896243824,-0.00574617535852546,-0.003939108474585165,0.0016229703173105264
1765408447.758358,-9.963657069401016,-0.14399528487703528,0.29906154183896644,-0.005352167638839863,-0.004123018906728885,0.0021613811414992793
1765408447.758527,-9.968535251578782,-0.1309502731127693,0.301173872600545,-0.004984055424971336,-0.0043102366858932765,0.002653097328080006
1765408447.758727,-9.973934198516973,-0.11759547339791132,0.3041351110907061,-0.004639144610674851,-0.004505063229025861,0.0030927085979768746
1765408447.758927,-9.979650633976023,-0.10407415226752224,0.30781775610039525,-0.004315699695740726,-0.004711631225795462,0.003475648059026599
1765408447.759127,-9.985426825450121,-0.0904964355137342,0.312062185994865,-0.004013133548422169,-0.004933455696127849,0.0037983019720314415
1765408447.759327,-9.99096698877539,-0.07693810857684763,0.3166853000232823,-0.0037321516786386474,-0.005173046187550658,0.0040581067998974926
1765408447.75951,-9.995957377869448,-0.06344304885758226,0.3214913623729688,-0.0034748344166511138,-0.0054315993657261105,0.004253623767936878
1765408447.75971,-10.000088242810145,-0.050029405221884704,0.3262840032742974,-0.0032446376984735263,-0.005708786148371497,0.004384578666644877
1765408447.75991,-10.003075577658196,-0.03669922717175829,0.33087799423507974,-0.0030462947367085706,-0.006002644343872934,0.0044518569246769935
1765408447.76011,-10.004680672791228,-0.023450754099533698,0.3351094493811044,-0.0028856051681475153,-0.006309584153892657,0.00445744997593022
1765408447.76031,-10.004725945148547,-0.010292067056961755,0.33884360087746046,-0.002769106115854031,-0.006624508615635203,0.004404354176378885
1765408447.76057,-10.003106129820484,0.0027455726157288316,0.3419799269164626,-0.002703631988349066,-0.006941043715924327,0.004296425753888077
1765408447.76077,-9.999794427219912,0.015596478530780299,0.34445477931825663,-0.002695785227565235,-0.007251863694391743,0.004138197188623063
1765408447.76097,-9.99484358296053,0.028152969795460808,0.3462417453076406,-0.0027513552970092983,-0.007549087837084583,0.003934665134917141
1765408447.76117,-9.988382233267725,0.04026264420616783,0.34735001221844364,-0.0028747349712965145,-0.007824718595365024,0.0036910666820610077
1765408447.76137,-9.980607138408914,0.05173113305050592,0.3478210292121007,-0.003068389328898987,-0.008071088217261057,0.0034126659548385637
1765408447.76157,-9.971772022633631,0.06233036399260586,0.3477236671104538,-0.003332432424559426,-0.008281281857713093,0.0031045736238881076
1765408447.76177,-9.962173718142123,0.07181169185703772,0.3471479707559614,-0.0036643593577332626,-0.00844950911489588,0.0027716164452134357
1765408447.76197,-9.952136417797854,0.07992265104050372,0.34619773610749116,-0.004058968390336607,-0.008571402090219433,0.0024182643722928583
1765408447.76217,-9.9419951055924,0.08642565979640654,0.3449824986951243,-0.004508489861837953,-0.008644224195063553,0.0020486140881699044
1765408447.76237,-9.93207938347249,0.09111679030638853,0.34360975333871285,-0.005002916892365707,-0.008666979768788795,0.0016664235472895798
1765408447.762545,-9.922698759435525,0.09384269863506238,0.34217814544193614,-0.005530510045770299,-0.008640422331432925,0.0012751903515808407
1765408447.762745,-9.91413011999555,0.09451401996446934,0.3407721105007014,-0.006078428980233368,-0.00856696873813403,0.0008782630552313112
1765408447.762945,-9.906607763308237,0.09311398026902598,0.33945813866532853,-0.006633432436584731,-0.00845053329221723,0.00047896806720777165
1765408447.763145,-9.900316076756463,0.08970155923712556,0.3382825325560439,-0.007182584539971954,-0.008296297434991775,8.072927219943052e-05
1765408447.763345,-9.89538476425844,0.08440913856219165,0.3372703259789515,-0.007713909578471284,-0.008110429926825887,-0.00031284350591756016
1765408447.763462,-9.891886562279213,0.07743509975571952,0.33642512458347484,-0.008216947977216409,-0.007899773426036674,-0.0006979157291808439
1765408447.763662,-9.889837568129195,0.06903222603089876,0.3357299409887688,-0.00868318048871058,-0.007671516106519388,-0.0010704461768643245
1765408447.763862,-9.889200404911927,0.05949297593804266,0.33514931060820724,-0.009106302235905495,-0.0074328689762835545,-0.0014262551317289027
1765408447.764062,-9.88989032303702,0.049132781470932835,0.33463294213282846,-0.009482341221446316,-0.007190769401241543,-0.0017611262765285661
1765408447.764262,-9.891784037061047,0.03827256721125582,0.3341209716692144,-0.009809626683908104,-0.006951629179278987,-0.0020709240835063403
1765408447.764588,-9.89473067980384,0.027221706865169268,0.3335505908962537,-0.010088620314379307,-0.006721141740977655,-0.002351713313389907
1765408447.764788,-9.898563759995573,0.016262581900501095,0.33286339325405323,-0.010321627030338057,-0.006504157347058794,-0.0025998743007436854
1765408447.764988,-9.903112617144075,0.005637753512541939,0.3320124170041641,-0.01051240325898292,-0.006304627171629725,-0.0028122136027006095
1765408447.765188,-9.908211857208299,-0.004459496947587919,0.33096782989878976,-0.010665683707232265,-0.006125607587180204,-0.002986072812647214
1765408447.765388,-9.913707689538226,-0.013890837562784558,0.329720479089241,-0.010786655721152958,-0.005969306593153891,-0.0031194383169379208
1765408447.7655,-9.919460727975773,-0.02257466481152713,0.32828287100827325,-0.010880421544734828,-0.005837148526434695,-0.0032110515617969396
1765408447.7657,-9.925345408656183,-0.030484095837543804,0.3266874472359397,-0.010951496674047323,-0.005729835621423667,-0.0032605135384286645
1765408447.7659,-9.931246672188015,-0.03764138695434423,0.32498238012675873,-0.011003392483965507,-0.005647396985685438,-0.0032683696784512654
1765408447.7661,-9.93705501366832,-0.04410913431851342,0.32322553247706187,-0.011038323368844869,-0.005589230619078263,-0.003236154943490386
1765408447.7663,-9.942661353927573,-0.049978843932779814,0.3214775430168232,-0.011057064430305342,-0.005554152347772391,-0.0031663785494272147
1765408447.766555,-9.947953257262498,-0.05535768514642095,0.3197950880540209,-0.01105896728531966,-0.005540463715517131,-0.00306243690121553
1765408447.766755,-9.952813719606402,-0.060354368222062416,0.318225262839883,-0.011042122946652915,-0.005546044576623192,-0.002928459230454955
1765408447.766955,-9.957123139799869,-0.06506513855739784,0.3168018064149497,-0.011003647041301322,-0.005568471387555533,-0.002769104999717298
1765408447.767155,-9.96076431942832,-0.06956094581785688,0.315543571341117,-0.010940056207300784,-0.005605158479942854,-0.002589337709885323
1765408447.767355,-9.963629601198763,-0.0738769399155218,0.31445520700238944,-0.010847703431613665,-0.0056535134197011495,-0.0023941952581193536
1765408447.767525,-9.965628775901362,-0.07800546269063714,0.3135296027311378,-0.010723240341685977,-0.005711089678557919,-0.0021885689630848117
1765408447.767775,-9.966696363133567,-0.08189348695106229,0.3127514504026641,-0.010564073317397088,-0.005775715069878151,-0.001976999398814217
1765408447.768025,-9.96679729917877,-0.0854449374253808,0.3121013931377592,-0.010368778412017887,-0.005845575580422299,-0.0017634981381955067
1765408447.768275,-9.965930640856257,-0.08852766533749529,0.31156037515975793,-0.010137440639886686,-0.005919240875143075,-0.0015514054200171253
1765408447.768546,-9.96413122863428,-0.09098432434971286,0.3111137472973334,-0.009871888627140108,-0.0059956294825669575,-0.0013432917854007786
1765408447.768746,-9.961469265442053,-0.09264613218722219,0.31075452002033876,-0.00957580490302505,-0.0060739270702795545,-0.001140909562829011
1765408447.768946,-9.958047711972274,-0.09334835820325858,0.31048517793572533,-0.00925470177257693,-0.006153483762701709,-0.0009452007291106248
1765408447.769146,-9.953997473118864,-0.09294621410179997,0.3103177229103441,-0.00891576089349796,-0.006233718505003587,-0.0007563694531010057
1765408447.769346,-9.949470525585866,-0.09132971479610794,0.3102719173558205,-0.008567542861534896,-0.006314050166660816,-0.0005740262323271641
1765408447.769529,-9.944631374098376,-0.08843614367797564,0.31037196705987347,-0.008219582872096834,-0.006393863577281051,-0.00039740372366116946
1765408447.769729,-9.939647531516314,-0.08425898154833196,0.3106421411824343,-0.00788189833348785,-0.006472508743361111,-0.0002256326860313076
1765408447.769929,-9.934679972697488,-0.07885245868461113,0.31110201106333996,-0.00756444131541091,-0.006549322615871969,-5.8052058557132734e-05
1765408447.770129,-9.929874524152856,-0.0723312635908515,0.3117620007379984,-0.00727653266587722,-0.0066236560001855255,0.00010548569951769466
1765408447.770329,-9.925354933102444,-0.06486540887109989,0.31261984228741874,-0.00702631776026338,-0.006694888223600228,0.000264359064152162
1765408447.770541,-9.92121808692468,-0.05667074251746894,0.3136584262208892,-0.006820286783955913,-0.006762419779200758,0.0004170132568914396
1765408447.770741,-9.917531612901385,-0.04799599908732636,0.3148453780475837,-0.006662902286302355,-0.0068256419029657164,0.0005609164926454258
1765408447.770941,-9.914333864134361,-0.039107590244088504,0.31613440882533916,-0.006556370162871836,-0.0068838866401569245,0.0006926477978007723
1765408447.771141,-9.911636132788209,-0.030273551860435274,0.3174682113341704,-0.0065005764928525184,-0.006936363767527991,0.0008081088542265377
1765408447.771341,-9.909426865368944,-0.02174813252999373,0.318782558926959,-0.006493193402329477,-0.006982096321284944,0.000902836660289524
1765408447.771495,-9.907677570324614,-0.01375835389438147,0.3200112273975869,-0.006529936261781233,-0.0070198735064419485,0.0009723828804438372
1765408447.771695,-9.906349874492022,-0.006493551122275795,0.32109124211786794,-0.006604938098669929,-0.007048243591766494,0.0010127201426363586
1765408447.771895,-9.905402920590586,-9.853636753101955e-05,0.3219678349410019,-0.006711199607446357,-0.007065565917552178,0.0010206343641492373
1765408447.772095,-9.904800256163554,0.005329335918927919,0.3225985856978234,-0.006841073860818356,-0.007070128797902297,0.0009940629794656724
1765408447.772295,-9.904515558270985,0.009739307582508102,0.32295648235098845,-0.006986749690040985,-0.007060321948958614,0.0009323412690091393
1765408447.772515,-9.904536744490107,0.013123048388934829,0.3230318180647072,-0.007140703517172157,-0.0070348370330647935,0.0008363269584716427
1765408447.772715,-9.904868148061151,0.015507979057831599,0.32283289578372737,-0.007296094441952708,-0.006992866307600439,0.0007083902713602322
1765408447.772915,-9.905530594910935,0.01694906168913445,0.32238558373940207,-0.00744708032742186,-0.00693427598755429,0.0005522786489213751
1765408447.773115,-9.906559432424332,0.01752004967774768,0.32173187188573643,-0.007589034916494434,-0.00685973880181497,0.00037288333592603765
1765408447.773315,-9.908000695613131,0.017305051123084923,0.32092757448084674,-0.00771865235534968,-0.006770813527598847,0.00017594299287072282
1765408447.773569,-9.909905637146474,0.016391055999727257,0.32003921539253993,-0.007833937752176681,-0.0066699604814151265,-3.228199060427095e-05
1765408447.773769,-9.912323920254837,0.014861923000132412,0.31914008653321474,-0.00793409572717866,-0.006560485938354923,-0.0002453373560671015
1765408447.773969,-9.915295910201216,0.012794213124096777,0.31830553905135744,-0.00801933794943746,-0.006446415935459453,-0.00045688505910690706
1765408447.774169,-9.91884461263698,0.01025507791548092,0.3176076896209484,-0.008090635431585549,-0.006332308544333303,-0.0006609811009112077
1765408447.774369,-9.92296789517285,0.00730213097913699,0.3171099187581178,-0.008149443914314462,-0.006223021937633221,-0.0008523106176310106
1765408447.774514,-9.927631756420608,0.003984985599170835,0.3168618192468333,-0.008197430792161613,-0.006123461285163766,-0.0010263731836534242
1765408447.774714,-9.932765470131494,0.0003480375651548404,0.31689542362993867,-0.008236228938467961,-0.006038326689585924,-0.0011796138683664837
1765408447.774914,-9.938259221705438,-0.003565949696791253,0.3172233572383437,-0.008267237357309118,-0.005971876488470828,-0.0013094964843329052
1765408447.775114,-9.943964404019162,-0.007711943782441614,0.31783909342964123,-0.008291482299268599,-0.0059277112700138485,-0.001414515700584091
1765408447.775314,-9.949696353245528,-0.012038968940540393,0.3187190508947735,-0.008309545947590402,-0.005908579564012523,-0.00149414694843571
1765408447.775578,-9.9552391712278,-0.016487204229795174,0.31982604545580195,-0.00832156264948165,-0.005916205652342868,-0.001548738744222998
1765408447.775778,-9.96035229829402,-0.02098631479511294,0.3211135211561426,-0.008327274891580968,-0.005951139899360492,-0.001579359513804802
1765408447.775978,-9.964778543540913,-0.025455311183092383,0.32252999474389116,-0.008326134570912634,-0.006012632357854421,-0.0015876169509629755
1765408447.776178,-9.968253372524993,-0.02980402529317768,0.32402331037326193,-0.008317432039458592,-0.006098533345838734,-0.0015754701559287949
1765408447.776378,-9.970515404312701,-0.033936117863146986,0.32554455046639996,-0.008300436172709974,-0.0062052301186927,-0.0015450529393708802
1765408447.77653,-9.97131816499101,-0.03775342749558555,0.327051594576346,-0.008274531368069066,-0.006327633363705607,-0.0014985218741803764
1765408447.77673,-9.970443079595276,-0.0411613799508518,0.32851231065875464,-0.008239340532323874,-0.0064592272638112035,-0.0014379372135521758
1765408447.77693,-9.967713473532887,-0.044075032401898924,0.32990731579594373,-0.008194826827176411,-0.006592191411768741,-0.0013651807867712086
1765408447.77713,-9.9630090647233,-0.04642516506390363,0.3312322120041233,-0.008141370490226545,-0.006717594907887022,-0.00128191236208622
1765408447.77733,-9.956280121777155,-0.04816376028745083,0.33249915765846005,-0.008079818423027418,-0.006825656836615529,-0.0011895628221260963
1765408447.777579,-9.947560217704968,-0.04926827927866692,0.3337375970542593,-0.008011503138663105,-0.006906064759651304,-0.0010893581834273763
1765408447.777779,-9.936976370356096,-0.04974430560838292,0.3349939626186166,-0.007938226609759689,-0.006948341974557626,-0.000982365105210018
1765408447.777979,-9.924755286879607,-0.04962628781828314,0.33633010694900156,-0.007862205456300293,-0.006942251934324788,-0.0008695484311943312
1765408447.778179,-9.911224381931191,-0.04897623664338509,0.3378200885804942,-0.007785976118671338,-0.006878224226845166,-0.0007518341620665792
1765408447.778379,-9.896806328791046,-0.04788032046936433,0.3395449195436031,-0.007712261906159902,-0.006747784598109992,-0.0006301744998656947
1765408447.778567,-9.882006291098694,-0.046443403001383596,0.3415851982741361,-0.007643809747973262,-0.00654397394858163,-0.0005056133627677797
1765408447.778767,-9.867391642947736,-0.0447817421464679,0.3440121250868783,-0.007583212960450209,-0.006261744127884794,-0.0003793513651656372
1765408447.778967,-9.853564695037324,-0.04301432277258803,0.3468779026736513,-0.007532742645661731,-0.005898315732170161,-0.0002528094978710997
1765408447.779167,-9.841129539343934,-0.04125353408034105,0.35020668650815356,-0.007494209300457839,-0.005453474676940216,-0.0001276900296387382
1765408447.779367,-9.830654656338485,-0.03959600306264501,0.3539870833183493,-0.007468868641147124,-0.004929775866168507,-6.030834179678588e-06
1765408447.77956,-9.822633574989036,-0.03811432693339306,0.35816697504995915,-0.0074573773992570765,-0.004332619493325138,0.00010975367711327997
1765408447.77976,-9.817446736317521,-0.0368503061368429,0.3626514164972919,-0.0074597996918120335,-0.0036701695822926633,0.00021685533531120066
1765408447.77996,-9.815328657979409,-0.03581022530771267,0.3673044518238244,-0.007475661139165657,-0.0029530931037349936,0.0003120951178728318
1765408447.78016,-9.81634513372292,-0.03496288451505832,0.37195562479038285,-0.007504043475568132,-0.0021941107751528638,0.00039201095574223534
1765408447.78036,-9.82038494843169,-0.03424140164461566,0.3764114924568362,-0.007543706663625472,-0.0014073717339764464,0.00045303682907716736
1765408447.780497,-9.82716896742741,-0.033549920803601876,0.38047149585744683,-0.00759322053748082,-0.0006076974545733199,0.0004917805365559557
1765408447.780697,-9.836276499594936,-0.032775701668265274,0.3839461158289745,-0.007651085791820337,0.00019022259185259564,0.0005053668561724447
1765408447.780897,-9.847185283124794,-0.03180548201677326,0.38667381873120105,-0.007715824789188289,0.0009725816561084124,0.0004917756914055062
1765408447.781097,-9.859318563846893,-0.030543251117586705,0.38853296560644646,-0.0077860266763662995,0.0017270654724235047,0.0004501042154930482
1765408447.781297,-9.872091789754972,-0.028925781106219257,0.3894464737713467,-0.007860342611407521,0.002443272494964408,0.00038071993240944963
1765408447.781581,-9.884952865507444,-0.026932927694344497,0.3893799038654232,-0.007937446114286782,0.003112932842625019,0.0002853136239928432
1765408447.781781,-9.897412697202608,-0.024591360693768227,0.3883357031910835,-0.00801598844623268,0.003729936703974047,0.00016687487372289266
1765408447.781981,-9.909065162461653,-0.021972099107130414,0.3863460886196152,-0.008094573502405712,0.004290201940647441,2.959589808232683e-05
1765408447.782181,-9.919596837463908,-0.019183216814858395,0.38346534994107706,-0.008171752958866227,0.004791435843115582,-0.00012131618039699887
1765408447.782381,-9.928787456332042,-0.01635914000729902,0.3797613979947299,-0.008246022486757733,0.005232865224182191,-0.00027994342320332704
1765408447.78257,-9.93650301480365,-0.013647658792552649,0.37530710742620754,-0.008315802114864676,0.005615001208186137,-0.00044007079497740615
1765408447.78282,-9.94268447084322,-0.01119593509571254,0.3701732063693031,-0.008379403912004821,0.0059394686895252085,-0.0005956532592933926
1765408447.78307,-9.947335309763892,-0.009137379361880782,0.3644245752566659,-0.008435008629939886,0.006208888136594243,-0.0007412562385856166
1765408447.78332,-9.95051049624564,-0.007581321897433876,0.3581207077724485,-0.008480675997878452,0.006426773313519036,-0.0008724138783896034
1765408447.783574,-9.95230800216862,-0.006606299031455301,0.35131976857789105,-0.008514402720034486,0.006597408432460334,-0.0009858932931783063
1765408447.783774,-9.952862826182537,-0.006256243096231803,0.34408487648834146,-0.008534228654210706,0.0067256823343942755,-0.001079868847946513
1765408447.783974,-9.952342538036941,-0.006538285302715249,0.33649092758721544,-0.008538382975045684,0.00681687452086822,-0.0011539903784557027
1765408447.784174,-9.95094300576762,-0.007421713140447902,0.3286303123040842,-0.008525457674134596,0.006876403127038833,-0.0012093099091726788
1765408447.784374,-9.948883133328435,-0.008838929478235684,0.32061629092759336,-0.008494590682368188,0.006909555151841001,-0.0012480472270819216
1765408447.784569,-9.94639798252471,-0.010689711667769927,0.31258341307279197,-0.008445634092611507,0.00692122123758999,-0.0012732207218369852
1765408447.784769,-9.943730257883303,-0.012849208433952304,0.30468489173214486,-0.008379278730451627,0.00691565173352722,-0.0012882119774251701
1765408447.784969,-9.941120615201866,-0.01517866405647192,0.2970872229472922,-0.008297109053609576,0.006896243274966641,-0.0012963414719250413
1765408447.785169,-9.938797625319655,-0.017536991539176896,0.2899627293396468,-0.008201572043056217,0.006865361207371979,-0.001300507929203566
1765408447.785369,-9.936968450273321,-0.019791602415803945,0.283481037681315,-0.008095856905966982,0.006824204825183328,-0.0013029102939307135
1765408447.785566,-9.935811219900433,-0.021827862029645165,0.2778005408805132,-0.007983695272628063,0.006772727822134356,-0.0013048552568633851
1765408447.785766,-9.935469712545798,-0.023557142573832988,0.2730606569024133,-0.007869102188422232,0.006709630983129284,-0.0013066601252220888
1765408447.785966,-9.936050462334192,-0.024923130059643805,0.2693754413080651,-0.007756086606518156,0.006632443497924714,-0.0013076730121124372
1765408447.786166,-9.937622027761023,-0.025905307114239298,0.2668288939993262,-0.007648365643774775,0.006537702582520881,-0.0013064267680066588
1765408447.786366,-9.94021584637219,-0.02651842540715288,0.26547194594329926,-0.007549116336973709,0.006421230327222264,-0.0013009130597371728
1765408447.786534,-9.943827874812191,-0.026807737539953327,0.26532068836236034,-0.007460789896906135,0.006278493080410862,-0.0012889259869732126
1765408447.786734,-9.948420244843193,-0.02684113151349707,0.26635529451491485,-0.007384999474305382,0.006105013738812252,-0.0012684081850614579
1765408447.786934,-9.953922515675245,-0.02670006981197326,0.2685194050278688,-0.0073224786071895386,0.005896795529301951,-0.001237748342918287
1765408447.787134,-9.96023254432272,-0.026470941593164585,0.27172017369863444,-0.007273097833682318,0.005650711758489974,-0.001196011211557651
1765408447.787334,-9.967217281403146,-0.02623749842070526,0.27582940778918097,-0.007235924371965222,0.0053648194645156905,-0.0011431017117493679
1765408447.787536,-9.974713920091208,-0.02607424848404098,0.2806862867332503,-0.007209315369494841,0.005038563291255031,-0.0010798619188644987
1765408447.787736,-9.982531898450581,-0.026040569354399735,0.2861020389902118,-0.007191045049186236,0.004672849312251971,-0.0010080856698775865
1765408447.787936,-9.990456311513732,-0.02617577555694926,0.29186666433830066,-0.0071784722354200315,0.004269987952524064,-0.0009304309472501382
1765408447.788136,-9.998253262124239,-0.026495853205618064,0.2977574276582071,-0.007168752026561163,0.00383352619360139,-0.000850225275465577
1765408447.788336,-10.005677509260833,-0.026992529666955457,0.30354864120109154,-0.00715908547096116,0.0033680032631830657,-0.0007711868609272432
1765408447.788573,-10.012482447819927,-0.02763479689065842,0.3090221913413897,-0.00714698935994297,0.0028786666569623467,-0.000697106822139387
1765408447.788773,-10.018432014575522,-0.02837241230455275,0.31397817412733847,-0.007130558882670704,0.0023711805151814657,-0.0006315423687875486
1765408447.788973,-10.023313673282999,-0.02914070256303603,0.318244892819378,-0.007108691259055122,0.001851352489935346,-0.0005775567439470011
1765408447.789173,-10.026951315319844,-0.029866233148770717,0.3216875011543454,-0.00708124002551376,0.0013248997393921203,-0.0005375206844289269
1765408447.789373,-10.029216754055923,-0.030473218490353886,0.32421470576062167,-0.007049077593864387,0.0007972663708718254,-0.0005129771035186363
1765408447.789495,-10.030038457213115,-0.03089054232870758,0.3257829838304607,-0.007014056162358106,0.0002734925866846099,-0.0005045710843451718
1765408447.789695,-10.0294062949348,-0.03105889628109182,0.32639777209667503,-0.006978869890546693,-0.0002418747971295159,-0.0005120517130559373
1765408447.789895,-10.027371499538143,-0.03093713653577385,0.326111295464636,-0.006946830522228176,-0.0007448429282644849,-0.0005343484871231056
1765408447.790095,-10.02404174127324,-0.030506850872000217,0.3250172132935857,-0.00692157469611396,-0.0012320102538282468,-0.0005697121034758809
1765408447.790295,-10.01957204693025,-0.029774431540408257,0.32324286683348147,-0.006906727793838267,-0.0017005785738943486,-0.0006158964227990819
1765408447.790475,-10.01415299691183,-0.02877050382598584,0.32094034683825134,-0.006905557200332007,-0.0021483373724149185,-0.000670353133679225
1765408447.790675,-10.00799801210747,-0.027547079908221788,0.3182776777951242,-0.006920652550854767,-0.0025736239107810826,-0.0007304141672708056
1765408447.790875,-10.00133137692401,-0.026173074196884173,0.31543103810453177,-0.0069536669482887555,-0.002975267397289559,-0.0007934459473066901
1765408447.791075,-9.994377948081477,-0.02472878299245164,0.31257821454041324,-0.007005142017447634,-0.00335252530501691,-0.0008569697091997561
1765408447.791275,-9.98735466783168,-0.023299717249088574,0.30989282732014833,-0.007074426180503412,-0.0037050163114940604,-0.0009187490891782453
1765408447.79147,-9.980463523300859,-0.021970020925450796,0.30753869886372587,-0.007159683889774882,-0.004032650292160131,-0.0009768477733570204
1765408447.79167,-9.973885589027592,-0.020815829299032914,0.3056641232055318,-0.007257985457049901,-0.0043355538850407965,-0.001029658795142459
1765408447.79187,-9.9677760127795,-0.01989927466907319,0.30439631667131667,-0.0073654633618523285,-0.004613992150565507,-0.0010759083430200906
1765408447.79207,-9.96225998838177,-0.01926406853813432,0.30383654287331247,-0.007477520829318139,-0.004868291339765647,-0.0011146421646063306
1765408447.79227,-9.957429771290402,-0.018933355126362548,0.3040562132180016,-0.007589079383503704,-0.005098770444511978,-0.0011452075590398971
1765408447.794551,-9.953342641602184,-0.018909914964723884,0.3050939349064242,-0.00769485235249917,-0.005305687092546938,-0.0011672433754680903
1765408447.79648,-9.950019594508008,-0.01917819953297834,0.30695334344566433,-0.007789631819035185,-0.005489197870780087,-0.0011806825440804996
1765408447.799522,-9.947444672115633,-0.01970745360986869,0.3096017251867131,-0.007868577343839134,-0.005649328704382123,-0.0011857589254432748
1765408447.801544,-9.945565210877955,-0.020455378395951615,0.31296974397266264,-0.00792749396481458,-0.005785951160241631,-0.0011829997478128716
1765408447.803596,-9.944293553593043,-0.021372161939028963,0.31695278787186787,-0.00796308435424117,-0.005898766058397358,-0.0011731853711909389
1765408447.806507,-9.943510719261097,-0.02240491917121785,0.32141440047679115,-0.007973158009373179,-0.005987303214076805,-0.0011572722749441052
1765408447.808558,-9.94307218554896,-0.02350244506966501,0.3261919460097445,-0.007956779970710036,-0.006050949263727009,-0.0011362945128225131
1765408447.811594,-9.942815539101412,-0.02461978929794083,0.33110421639897525,-0.00791434224170376,-0.006089010560485608,-0.0011112688459180384
1765408447.813584,-9.94256947186563,-0.025721875531395627,0.3359603782831763,-0.007847544276495904,-0.006100808514172608,-0.0010831217096136593
1765408447.816499,-9.942163494312181,-0.026785548395875006,0.34056963163626464,-0.007759277440853089,-0.006085797801838211,-0.0010526396857740196
1765408447.818634,-9.941437729702947,-0.027799973323936918,0.34475106803022426,-0.007653421658086343,-0.00604369663149318,-0.0010204345086894072
1765408447.821603,-9.940252151082964,-0.028765802444237612,0.3483432207145641,-0.007534575031558952,-0.005974618866616874,-0.0009869155434955171
1765408447.823526,-9.938494603471803,-0.029693601462166756,0.35121265686689956,-0.007407743350182814,-0.005879195691555846,-0.0009522705265225372
1765408447.826532,-9.936087002244568,-0.030601780785268585,0.35326087933184797,-0.007278016137488854,-0.005758670562130184,-0.0009164598087072352
1765408447.82852,-9.932989299062736,-0.031514027736996734,0.35442893326291425,-0.0071502547991293295,-0.005614949433356944,-0.0008792273792123927
1765408447.831601,-9.929201099709418,-0.032456242581676016,0.3546993768239849,-0.007028819259315666,-0.0054505902436613385,-0.0008401261120284112
1765408447.833614,-9.924761046830247,-0.033453228290893276,0.3540955295050066,-0.006917358017539944,-0.0052687216630753885,-0.0007985501942770842
1765408447.83659,-9.919744187146977,-0.03452566251272338,0.35267814279535215,-0.006818678239780148,-0.005072892230117758,-0.0007537696529766737
1765408447.837601,-9.914257599340623,-0.03568794447940406,0.3505398816127509,-0.006734699228358875,-0.004866865093726916,-0.0007049698456984841
1765408447.8395,-9.908434608099029,-0.03694725915075025,0.34779819038830356,-0.0066664796627916596,-0.004654383676605208,-0.0006513054185164589
1765408447.843535,-9.902427921382543,-0.03830376798119941,0.3445871622636756,-0.006614299604233267,-0.0044389343751851185,-0.0005919767844274778
1765408447.847735,-9.896402011503536,-0.03975148805059706,0.34104898635455727,-0.0065777738387767844,-0.004223526077078852,-0.0005263280282250328
1765408447.849592,-9.890525082554335,-0.041279351838372724,0.33732551377937736,-0.00655597454913515,-0.004010499555973431,-0.0004539541983588303
1765408447.851625,-9.884961036624413,-0.042872132626623365,0.3335504576197439,-0.006547547649602928,-0.0038013776241260216,-0.00037479936941963143
1765408447.853611,-9.879861898593248,-0.044511190715709706,0.32984268626854185,-0.006550815876781141,-0.003596769486106332,-0.00028922758224559725
1765408447.855494,-9.875361141145072,-0.0461751490552417,0.3263010026466747,-0.006563869994110385,-0.0033963455810446254,-0.0001980551787417466
1765408447.858605,-9.871568305364121,-0.04784058260321738,0.3230007390969948,-0.00658465403240275,-0.003198896167385798,-0.00010254088512426725
1765408447.861583,-9.86856529520343,-0.04948268066589924,0.319992402112537,-0.006611049593575706,-0.003002476345531837,-4.336301602716766e-06
1765408447.862577,-9.866404736828345,-0.05107572887119429,0.31730247011821633,-0.0066409604446701,-0.002804627206360207,9.459657544420569e-05
1765408447.866528,-9.865110735014397,-0.05259324701765563,0.3149363200975106,-0.006672396291374424,-0.0026026530226312895,0.00019209306157281524
1765408447.868594,-9.864682075343518,-0.05400776250860924,0.3128830872482931,-0.006703553861622684,-0.0023939287315432106,0.00028591217516880967
1765408447.871526,-9.865097402755126,-0.05529044757542333,0.31112195983526936,-0.006732890533195787,-0.0021762092117024374,0.0003738755470635211
1765408447.873571,-9.866321413956685,-0.05641102698049062,0.30962906903331827,-0.006759180042814634,-0.0019479129827992309,0.0004540096457455264
1765408447.876556,-9.868310958871914,-0.057338301998989184,0.30838397910881626,-0.006781536115906002,-0.0017083588704752592,0.0005246773326753063
1765408447.879559,-9.871020204549723,-0.05804134364063844,0.3073748966761835,-0.006799393001003526,-0.001457942072782412,0.0005846831219060721
1765408447.881594,-9.874404424330027,-0.05849108396421961,0.30660197268551687,-0.0068124414004221345,-0.0011982419040014874,0.0006333417096102533
1765408447.883565,-9.87842229005871,-0.05866191542036451,0.3060783570338018,-0.00682052912798069,-0.0009320575640511208,0.000670509895172771
1765408447.886524,-9.883036719530937,-0.05853307451626121,0.30582896226901135,-0.006823543492096644,-0.0006633743013281771,0.0006965910084315981
1765408447.888559,-9.88821442378654,-0.05808989082955468,0.30588714259452704,-0.006821296115991801,-0.0003972705645187098,0.0007125213762513662
1765408447.891611,-9.893924348261354,-0.05732514788505276,0.3062896374483296,-0.006813431700292991,-0.00013978217127808638,0.0007197398176914142
1765408447.894545,-9.900135243532864,-0.056240633901340695,0.30707025007747063,-0.006799379774533002,0.00010226212006817442,0.0007201308477829607
1765408447.896528,-9.906812675655859,-0.05484855725808242,0.3082529437403559,-0.00677836155047241,0.0003214272338463372,0.0007159293712497582
1765408447.897639,-9.913915861685537,-0.05317222940569275,0.309845233108545,-0.006749453474927253,0.0005098842273181803,0.000709582908186092
1765408447.901546,-9.92139470342859,-0.05124556704693498,0.3118327021424004,-0.0067116984428237155,0.0006596592059480161,0.0007035818256194964
1765408447.903524,-9.92918728480761,-0.049111448431726754,0.3141752040825979,-0.0066642475486684265,0.0007629298648057681,0.000700279024478759
1765408447.906508,-9.93721799689874,-0.04681940039115744,0.3168050352809401,-0.006606509535520151,0.0008123747825014826,0.0007017216360127561
1765408447.90953,-9.94539641117234,-0.044423185141688935,0.319627224320623,-0.006538281276431923,0.0008015700230367916,0.0007095096641645639
1765408447.911528,-9.953616979324435,-0.041978600341621694,0.32252192153233883,-0.006459832864433456,0.0007254135334676437,0.0007246872745907182
1765408447.913515,-9.96175957547377,-0.03954146538630296,0.3253486790430246,-0.0063719282984923825,0.0005805411687253917,0.0007476694588379705
1765408447.916494,-9.969690870872205,-0.03716563310576096,0.3279523092094986,-0.006275777154699386,0.0003656848490904422,0.0007782124891517015
1765408447.919497,-9.977266539677247,-0.034901032807413856,0.3301700137447419,-0.00617292909705714,8.192347766805834e-05,0.0008154442561748514
1765408447.921481,-9.984334264139372,-0.03279203893407207,0.33183944334858123,-0.006065134649829853,-0.000267206190117539,0.0008579692150014018
1765408447.922485,-9.990737464793185,-0.030876565633574875,0.3328072735989496,-0.005954197480273444,-0.0006757484763257999,0.0009040476015793598
1765408447.924573,-9.996319743347248,-0.02918605185645387,0.33293792681172524,-0.00584183601286409,-0.001135509408678039,0.0009518263243362488
1765408447.929557,-10.00093018068952,-0.027746048624770685,0.3321222231083459,-0.0057295619317492925,-0.0016363607749055643,0.0009995813521739916
1765408447.931515,-10.004429692748051,-0.02657675875699023,0.330285778277107,-0.005618577952108766,-0.0021666449620620747,0.0010459275355281913
1765408447.933465,-10.006698483628222,-0.025692882833678102,0.32739678550155854,-0.005509699635635484,-0.0027136599795046785,0.001089962744331694
1765408447.936592,-10.007644323515274,-0.02510253174490203,0.32347259226793507,-0.005403311321261248,-0.0032642106758027103,0.001131331196832213
1765408447.938607,-10.007211066124036,-0.024805521622810262,0.31858436247243616,-0.005299367915194999,-0.0038052146673437167,0.0011702055263345629
1765408447.941583,-10.005386577260513,-0.024791704668064046,0.31285906916515915,-0.005197449734788757,-0.004324343171250818,0.0012071955433221274
1765408447.944882,-10.002209109492128,-0.0250399248860334,0.30647809362260087,-0.005096868988913631,-0.004810662225621845,0.0012431987859235721
1765408447.945382,-9.997771195941917,-0.02551784438335953,0.29967194176306555,-0.004996817383428673,-0.005255228565051486,0.0012792170867574155
1765408447.94956,-9.992220358347682,-0.026182560479130052,0.2927110620752206,-0.004896537023053198,-0.0056515911868789325,0.001316171128127691
1765408447.95006,-9.98575622435548,-0.026981862801404594,0.2858932619392749,-0.004795492590604253,-0.005996153087145323,0.001354746068195664
1765408447.953539,-9.978623931933798,-0.02785617326286317,0.2795285704970157,-0.004693522708991283,-0.006288356208802052,0.0013952937849563043
1765408447.956481,-9.971103980823719,-0.028741446326190793,0.27392257634902745,-0.004590951592302574,-0.006530665904607618,0.0014378026914714994
1765408447.959501,-9.963499006805142,-0.029573293131417835,0.2693593490687371,-0.004488646116630487,-0.006728347818010484,0.0014819287092196008
1765408447.960466,-9.956118263005514,-0.030292224081172513,0.26608506756876193,-0.00438800729896325,-0.006889047369140055,0.0015270673584143503
1765408447.963499,-9.949260825106109,-0.030849375030538955,0.2642934505386543,-0.004290890055025563,-0.00702219861634234,0.00157244325684438
1765408447.965508,-9.943198658608523,-0.03121174077647397,0.2641140099133233,-0.0041994521333570045,-0.0071383061152719505,0.001617200356701869
1765408447.969525,-9.938160675500002,-0.0313659894233714,0.26560393823599004,-0.004115942686333937,-0.007248160074065252,0.0016604869932230503
1765408447.971484,-9.934318775110746,-0.03132027351608204,0.268744055535337,-0.004042452544599837,-0.007362056521403959,0.0017015352875394867
1765408447.973567,-9.93177670720915,-0.031103821190663614,0.2734388500131613,-0.0039806586290599185,-0.007489093409616245,0.0017397322324987574
1765408447.976466,-9.930562520972941,-0.03076431417351653,0.27952045432469785,-0.003931598609118637,-0.007636597501413638,0.0017746754539947796
1765408447.978553,-9.930625331036149,-0.030363194984263868,0.2867563552042248,-0.003895506151673776,-0.007809710321643482,0.0018062069551907324
1765408447.981568,-9.931836992662417,-0.029969256367705446,0.29486052770912863,-0.0038717249608305566,-0.00801113567934917,0.0018344242777331378
1765408447.98255,-9.933998961825196,-0.029651211554390752,0.30350747008783807,-0.0038587073290452124,-0.00824103576416713,0.0018596756251500729
1765408447.984584,-9.936854162122275,-0.02947029342054366,0.3123484061553557,-0.0038540939687044,-0.008497057596638482,0.0018825477716841255
1765408447.987548,-9.940103139435106,-0.029474064677506566,0.32102875058733743,-0.003854865751442913,-0.008774470328592042,0.0019038507653651863
1765408447.991478,-9.943423238471828,-0.029692405735556895,0.3292057736677926,-0.00385755145427575,-0.009066393642869073,0.001924594178620438
1765408447.994531,-9.946489157115273,-0.030136123744006933,0.33656536929516695,-0.0038584679975379485,-0.009364101298325355,0.0019459426781544937
1765408447.996471,-9.948993163279905,-0.030797985857845076,0.342837049286192,-0.0038539655663409455,-0.009657393273924408,0.0019691405572797465
1765408447.998485,-9.95066344065149,-0.03165547030781441,0.34780661770757604,-0.0038406550546918627,-0.009935040022761894,0.001995405614244778
1765408448.001605,-9.95127933348943,-0.03267433740022435,0.35132615372033194,-0.0038156078389827283,-0.010185305965520624,0.0020258053089757338
1765408448.004573,-9.950682673188274,-0.03381227122777079,0.3533209377513825,-0.003776528067137034,-0.01039655354041916,0.0020611358370359978
1765408448.006473,-9.948784890115977,-0.035022190274989866,0.3537929819908492,-0.0037218975891088147,-0.01055791537614589,0.0021018263141293226
1765408448.009526,-9.945570055679493,-0.036255169221169746,0.3528208874723654,-0.003651086473956964,-0.0106600041859682,0.0021478867300516705
1765408448.011657,-9.94109413814602,-0.03746308905925938,0.3505557191088084,-0.003564417042479097,-0.010695613004945056,0.002198910188224063
1765408448.01351,-9.935480645188152,-0.03860107876664635,0.34721255714152516,-0.0034631710523017655,-0.010660348001912913,0.0022541288951294634
1765408448.016501,-9.92891273934147,-0.03962963690910777,0.34305760488189324,-0.003349535267748102,-0.010553135033704093,0.0023125138571959904
1765408448.018552,-9.921622001317274,-0.040516245500966525,0.3383912239316629,-0.003226485589653119,-0.010376547305137785,0.0023729044278850524
1765408448.021577,-9.91387422761108,-0.041236436682479546,0.33352779476788036,-0.0030976127530977977,-0.010136911376437302,0.002434154370669511
1765408448.022527,-9.905952941327458,-0.04177452352140191,0.3287737607142485,-0.0029668948770369195,-0.009844161701712942,0.002495279364536371
1765408448.026542,-9.898141693447707,-0.04212428801058373,0.3244056823343022,-0.0028384262021666396,-0.00951143047078306,0.002555583347628855
1765408448.028582,-9.890706626951888,-0.04228968367463589,0.320650508363479,-0.0027161177797739734,-0.009154377787002333,0.002614733792398409
1765408448.03159,-9.88388089686864,-0.04228520379529518,0.3176702301425081,-0.002603392242876947,-0.008790286095746953,0.002672759713700206
1765408448.036415,-9.877852244112143,-0.04213531719984447,0.31555247511152784,-0.0025028983618858303,-0.008436966246354947,0.002729965302764102
1765408448.036915,-9.872754476413693,-0.04187250883924761,0.3143076542567905,-0.0024162720071512337,-0.00811155266819982,0.002786779126888328
1765408448.039511,-9.868663090977217,-0.04153393385909968,0.3138723777471406,-0.002343969510437938,-0.007829293176454772,0.0028435799327902024
1765408448.04148,-9.865594918358793,-0.04115722534546616,0.3141181962055303,-0.0022851965152871924,-0.0076024505050697275,0.0029005446555397016
1765408448.043564,-9.863511468611568,-0.04077627042043608,0.31486437069517814,-0.002237948897275252,-0.007439420694499905,0.002957551080625779
1765408448.046494,-9.862325556583453,-0.04041764864477691,0.3158933022619634,-0.0021991718626288566,-0.007344143031345194,0.0030141451124952043
1765408448.049485,-9.861910705515303,-0.04009805977894452,0.3169673399694834,-0.002165029422813614,-0.007315839266358747,0.003069563436818834
1765408448.051541,-9.86211276161201,-0.03982275672257662,0.31784582019077395,-0.0021312606293864282,-0.007349087094188291,0.003122794900459165
1765408448.054543,-9.8627631435822,-0.0395849282434944,0.31830141080279495,-0.0020935840889681066,-0.007434208493887454,0.0031726670109281352
1765408448.056527,-9.86369319495969,-0.03936608484192499,0.3181352071175363,-0.002048102403670888,-0.007557934916102319,0.003217949708671833
1765408448.059548,-9.86474908617546,-0.03913759336598961,0.31719041446805485,-0.001991657453012613,-0.007704295220825603,0.00325746977866386
1765408448.061546,-9.865806535661738,-0.03886342481339452,0.3153646051232678,-0.0019220971597078572,-0.007855660625156139,0.0032902251039499232
1765408448.06452,-9.866784342429291,-0.03850390529883326,0.31262034637607106,-0.0018384308767536842,-0.007993878120252845,0.0033154843480913713
1765408448.06502,-9.867655472610847,-0.03801992915556291,0.3089935395417311,-0.0017408675481004473,-0.008101429373867564,0.003332861041590602
1765408448.069465,-9.868454300985087,-0.03737693407130719,0.30459826794123157,-0.0016307440090114274,-0.008162560127486727,0.0033423606852815207
1765408448.071504,-9.86927864475859,-0.03654809436676464,0.29962659798513847,-0.0015103593480404961,-0.008164330392240658,0.0033444074809832855
1765408448.072504,-9.87028552721027,-0.03551655605333223,0.294341883225645,-0.0013827364159025484,-0.00809753681253032,0.003339856666821398
1765408448.074497,-9.871680191390583,-0.034276834704039236,0.2890647627017253,-0.001251334913787139,-0.00795745611197746,0.003329989857512568
1765408448.079514,-9.873698676151832,-0.03283553936308379,0.28415207635140727,-0.0011197425520103742,-0.007744355725007092,0.0033164822982129335
1765408448.081485,-9.876585189760274,-0.03121145161040639,0.2799701204788042,-0.0009913709532904872,-0.007463719764282003,0.0033013308445240474
1765408448.083565,-9.880566443307202,-0.02943490079571895,0.2768647639563364,-0.0008691808436898887,-0.007126148817693366,0.0032867403687326215
1765408448.086486,-9.885825747831307,-0.027546466547218207,0.27513157855240983,-0.0007554572085827304,-0.0067469103450958625,0.003274977153563749
1765408448.088527,-9.892479752180067,-0.025595247672625835,0.274989067562478,-0.0006516505714008291,-0.0063451412836595346,0.0032682041458802786
1765408448.091522,-9.900560242269485,-0.02363707333540587,0.27655750528484163,-0.0005582957698698944,-0.005942735557249144,0.0032683141479769324
1765408448.094484,-9.910002744854644,-0.02173292846226967,0.27984529451978335,-0.0004750138202136722,-0.005562984665328381,0.0032767763871191058
1765408448.096526,-9.920642990568865,-0.0199475223803738,0.2847442711308279,-0.0004005947555476233,-0.005229073530392937,0.0032945115401361454
1765408448.099513,-9.932221581210486,-0.018347562985499794,0.2910347345281917,-0.0003331498902833458,-0.004962558795511929,0.0033218093957250432
1765408448.101557,-9.944396468092853,-0.01699920285910124,0.2983999393917996,-0.000270312596587586,-0.004781966917247223,0.0033583005852673873
1765408448.104511,-9.956762210523884,-0.01596444207671108,0.30644861045394906,-0.00020946028113673056,-0.004701640301676421,0.003402989148987822
1765408448.105011,-9.968874552394498,-0.01529685048638639,0.31474317556858655,-0.00014792926898465685,-0.004730928861284792,0.0034543459076281455
1765408448.108491,-9.980278569339994,-0.015037435088670004,0.322830988079286,-8.319910542417734e-05,-0.004873775414329694,0.0035104530815951787
1765408448.111493,-9.990538379187317,-0.015211498189699774,0.33027571270096684,-1.3031766149681574e-05,-0.005128688732075582,0.0035691802376929243
1765408448.113598,-9.999266171463981,-0.015826886696741954,0.3366862318145437,6.44375507085289e-05,-0.0054890537473656215,0.0036283655787416637
1765408448.116575,-10.006148211904968,-0.016873456074084837,0.34174091442128607,0.00015064961995527065,-0.005943704853828648,0.00368597954098029
1765408448.119635,-10.010965633366826,-0.018323312710673518,0.3452057789563818,0.000246592139616658,-0.006477685781093245,0.0037402592827161093
1765408448.121613,-10.013608291669925,-0.020131615069123282,0.34694579344033394,0.00035277044908924666,-0.007073131554541152,0.003789815635061783
1765408448.123541,-10.014080727375145,-0.022238107457222493,0.34692922100097956,0.0004691613553993681,-0.007710225434137284,0.0038337186642054028
1765408448.12652,-10.012500220017179,-0.024569682102458672,0.34522555288754875,0.0005951463449551949,-0.00836819801502074,0.0038715613931991086
1765408448.12861,-10.009087815601902,-0.027043978630345335,0.3419980903733777,0.0007294357136388309,-0.009026341806443981,0.003903491980975196
1765408448.131594,-10.004153770603763,-0.029573614590462,0.3374924427153723,0.0008700076641065712,-0.009665012887021887,0.003930204491788291
1765408448.134499,-9.998078949692124,-0.032070477333276885,0.33202200834350937,0.0010140935650782097,-0.010266585545382529,0.003952889310226521
1765408448.136502,-9.991293450836693,-0.034449702508487924,0.32595105866690216,0.001158241199344293,-0.010816319166730157,0.003973156046713807
1765408448.139668,-9.984253355482352,-0.03663327710297809,0.31967565392693864,0.0012984812323760743,-0.01130308988922407,0.00399294356876171
1765408448.140168,-9.977416233739618,-0.03855332357193059,0.3136025475889559,0.0014306082758469613,-0.01171993494663143,0.004014423297972617
1765408448.144553,-9.971216018974937,-0.04015497363173246,0.30812654152544755,0.0015505677074996464,-0.012064360092562862,0.004039891758634693
1765408448.146526,-9.966038137274182,-0.041398515057191373,0.3036072454670096,0.0016549150662845634,-0.012338373282170393,0.0040716446756379
1765408448.149299,-9.962196196872195,-0.042260423666105336,0.3003465723537916,0.0017412916761803548,-0.012548228624972079,0.004111829518748714
1765408448.151544,-9.959911849519772,-0.04273307062297489,0.29856844310355035,0.0018088464436785768,-0.012703888344552506,0.00416228247414073
1765408448.152537,-9.959299464208307,-0.04282324541227519,0.29840221283350793,0.0018585351251989104,-0.012818233462284358,0.004224363487115847
1765408448.156599,-9.960357070622502,-0.0425499390050802,0.29987141711029014,0.0018932427979695204,-0.012906075018574392,0.0042988050358936025
1765408448.158633,-9.962964754030496,-0.0419418635583755,0.30288947053216053,0.0019176965276581671,-0.012983036137600573,0.004385587144694594
1765408448.161549,-9.966891241512242,-0.041034940780351546,0.3072636217155262,0.0019381588236278336,-0.013064388984970813,0.004483847857336958
1765408448.163544,-9.971808650125784,-0.03986975285426104,0.3127075980226897,0.001961916868220416,-0.013163936842806945,0.00459184004346029
1765408448.166564,-9.977314333178613,-0.038489007976668384,0.3188621381485706,0.001996607271774541,-0.013293029514270808,0.004706951545744655
1765408448.168599,-9.982957802832736,-0.036935378037756456,0.32532142833012423,0.0020494403926398013,-0.013459791907678657,0.004825808876357711
1765408448.17147,-9.988270181078036,-0.035250249137611295,0.33166270406899406,0.002126409352266545,-0.013668631048408963,0.004944476678058217
1765408448.173512,-9.992793640139956,-0.0334737021655756,0.3374761098451356,0.0022315812906893123,-0.013920062664702818,0.0050587464100655035
1765408448.176531,-9.996108681247268,-0.031645520675298966,0.34239225652534133,0.0023665652206022714,-0.014210863819141691,0.005164487905061519
1765408448.17851,-9.997857650104415,-0.029806581538045142,0.3461055684169622,0.002530228386988016,-0.014534519179918094,0.005258025091648537
1765408448.181509,-9.997763457176008,-0.027999905621442365,0.34839218018180734,0.0027186956894790053,-0.014881896153671277,0.00533649314213769
1765408448.182515,-9.99564296991801,-0.026270921290308464,0.34912158962243944,0.002925625022502474,-0.01524206603444526,0.00539813621893868
1765408448.186477,-9.99141492063341,-0.024666870833580885,0.3482615391779855,0.0031427155375315092,-0.015603186248151818,0.005442512095218294
1765408448.188574,-9.985102456120636,-0.023235502214316073,0.3458760092530035,0.0033603822190051797,-0.015953368705575538,0.005470582007789165
1765408448.189548,-9.976830686657738,-0.022023180829516147,0.3421169235618444,0.003568520632201634,-0.016281473078763615,0.005484678822831073
1765408448.1925,-9.966819726007364,-0.02107248833617299,0.3372108787896639,0.00375728733213287,-0.016577774576414555,0.005488359775181962
1765408448.196558,-9.955373684640083,-0.020419416915158365,0.3314424700345008,0.003917829618664637,-0.016834464442986242,0.0054861596117732935
1765408448.199523,-9.942865979931828,-0.020090446669632934,0.3251355865656999,0.004042910842722326,-0.01704595433571005,0.00548326743453954
1765408448.201548,-9.929721416621334,-0.020099996206504375,0.3186338710908296,0.004127393634758253,-0.017208974890675643,0.005485155995474205
1765408448.204515,-9.916395878320834,-0.020448763441929443,0.3122816839866442,0.004168561154288829,-0.017322479358127224,0.005497193008846374
1765408448.206513,-9.903354875225334,-0.021123212580499977,0.3064070792192955,0.0041662726118951495,-0.017387381753203045,0.005524261349953431
1765408448.209528,-9.891052249657525,-0.022096066315760103,0.3013079821465837,0.004122961650659445,-0.017406176594352105,0.005570414112228088
1765408448.211482,-9.879910097180991,-0.02332744598226766,0.297241997782214,0.0040434937934477905,-0.01738250219948867,0.005638592445176151
1765408448.21256,-9.870300736007225,-0.0247664194743685,0.2944195148344417,0.003934902633583403,-0.017320713780882818,0.005730433400826451
1765408448.2166,-9.862531408068037,-0.026352990463653265,0.29299923989412835,0.003806025599039175,-0.017225519981558444,0.005846186403558657
1765408448.217535,-9.856832142380242,-0.02802066971193533,0.2930850334313858,0.00366706041744091,-0.017101710226742433,0.005984741135328889
1765408448.221521,-9.853346915229537,-0.029699585425952496,0.29472312537273565,0.0035290630085771007,-0.016953971811270757,0.006143753206418888
1765408448.223553,-9.852128193684626,-0.03131981866792644,0.29789957156141694,0.0034034060171321406,-0.01678677692681451,0.00631984373757874
1765408448.226529,-9.853135160186085,-0.03281457113964158,0.3025386714992087,0.003301214569819719,-0.01660431534037062,0.006508845629187741
1765408448.228559,-9.856235997029058,-0.034122921021662256,0.30850322238601224,0.0032327938180583306,-0.016410454148132064,0.006706069313391912
1765408448.231542,-9.86121430729304,-0.03519210199815213,0.31559685766207934,0.0032070650126054044,-0.016208715142729934,0.006906563136861494
1765408448.234492,-9.867779307973267,-0.03597930256746332,0.32356813052104716,0.003231035584904296,-0.016002267491997162,0.007105349905600041
1765408448.236515,-9.875579209218412,-0.03645298036676952,0.3321161610644057,0.003309341589871878,-0.01579393471004578,0.007297630531380432
1765408448.239519,-9.884217182035046,-0.03659372651613519,0.3408983370007948,0.00344391111512212,-0.015586209650373172,0.007478953420598938
1765408448.241544,-9.893269303926404,-0.0363947636203354,0.3495409894375702,0.003633797412067683,-0.0153812654403885,0.007645351212690862
1765408448.243645,-9.90230384868537,-0.035862113182682745,0.3576537712984378,0.003875216654922682,-0.015180952945274818,0.007793447061557242
1765408448.246485,-9.910901400511909,-0.03501434824460446,0.36484784379556867,0.004161799553544037,-0.014986788203955295,0.00792053456202486
1765408448.249462,-9.918675479084296,-0.03388179819259114,0.3707572993589446,0.004485036005453883,-0.014799946512258012,0.008024637643341591
1765408448.251548,-9.925293355866533,-0.03250516288467083,0.37506268295681555,0.0048348660120551765,-0.014621282011227848,0.008104554895743543
1765408448.253512,-9.930496289301546,-0.0309336265945043,0.37751495010383307,0.005200353067100782,-0.014451382294539334,0.008159886568041497
1765408448.256501,-9.934117648980108,-0.02922261681061061,0.377957655764096,0.005570369315505427,-0.014290656573820728,0.008191038475736163
1765408448.259519,-9.936096761046471,-0.027431352680732116,0.37634472776223094,0.005934225278519415,-0.014139452214299108,0.008199200844649538
1765408448.261583,-9.936486158720315,-0.02562037599408658,0.3727510761409758,0.006282190996632465,-0.013998197666853023,0.008186307195882923
1765408448.26353,-9.935450367786549,-0.02384932955897248,0.36737367773916946,0.006605878208932836,-0.013867571742211777,0.008154979146559953
1765408448.266515,-9.933255282142687,-0.02217519726378163,0.360521672484186,0.00689847942611982,-0.013748691531133788,0.008108456218794715
1765408448.268571,-9.93024840221915,-0.020650998723770606,0.3525953972137648,0.007154881675310929,-0.0136432942470459,0.008050504112366014
1765408448.269541,-9.926831523323028,-0.0193246988881768,0.3440560777863618,0.007371683242616576,-0.013553871856812142,0.007985296844405835
