time,acc_x_g,acc_y_g,acc_z_g,gyro_x_rad_s,gyro_y_rad_s,gyro_z_rad_s
1765409674.468503,-5.717793091460297,-2.2709371041362107,7.662648065471563,-0.00969793973179854,-0.004049473781105043,-0.00045496264914982813
1765409674.468753,-5.720360426461117,-2.290995600184001,7.68299966671989,-0.010202995300770885,-0.004685291916728404,-0.00010110116121871967
1765409674.469003,-5.722086080726358,-2.3126095548595087,7.701943752249725,-0.010755066745306976,-0.0053254160227591526,0.0002137589943629208
1765409674.469253,-5.721648985100492,-2.337863113853946,7.718294075733218,-0.011271172957902763,-0.005928884797107881,0.0004843656485011551
1765409674.469442,-5.717738091072676,-2.3686918824573984,7.730991528737468,-0.011656827238589044,-0.006450932493091669,0.0007044085145186359
1765409674.469692,-5.709120257094223,-2.4067749602134443,7.739171114942053,-0.01180819126124521,-0.006843985186101285,0.0008668323907420805
1765409674.469942,-5.6946978799885635,-2.4534414583361457,7.742211163796347,-0.011614730532243106,-0.00705869370908342,0.0009643579732258361
1765409674.470192,-5.673553420149581,-2.509596502245218,7.739762251571018,-0.010962332590973704,-0.007044990667075841,0.0009901843538486165
1765409674.470435,-5.644979107218729,-2.57567040837817,7.731754752298649,-0.009736823976627429,-0.006753161806555346,0.0009388238567293904
1765409674.470635,-5.608491263560495,-2.6515931040225302,7.7183853961891025,-0.007827790264530295,-0.006134916377556432,0.0008069970785555317
1765409674.470835,-5.563830153984772,-2.7367941454993745,7.70008509585393,-0.0051325677534453645,-0.0051444300828358165,0.0005944998443950523
1765409674.471035,-5.510947741340124,-2.8302271890203756,7.677472178156949,-0.0015602406051390232,-0.003739318757914582,0.0003049513482161436
1765409674.471235,-5.449986673717481,-2.93041669405093,7.651296451787422,0.0029645506524173314,-0.0018814861751391793,-5.3657088116014144e-05
1765409674.471446,-5.381254184972344,-3.0355238359116306,7.6223801834701685,0.00849819894854317,0.000462215752291781,-0.00046868172012688985
1765409674.471696,-5.305194542772464,-3.143427624209808,7.591562068130509,0.015075329233475494,0.003319568916188486,-0.0009228785631848256
1765409674.471946,-5.2223631050432155,-3.2518159538844595,7.55964937373885,0.02270680218528912,0.006712854125704463,-0.0013948436894505951
1765409674.472196,-5.133403756144808,-3.3582804153473425,7.5273815643461965,0.03137868934422627,0.010659022499382834,-0.00185986586268119
1765409674.472439,-5.0390299365390065,-3.460409047879994,7.495406510948906,0.04105233505651775,0.015170167911762426,-0.0022911551689025404
1765409674.472639,-4.940008565346611,-3.555872943653669,7.4642687360046605,0.05166554885054655,0.020254259210992755,-0.0026613424336518017
1765409674.472839,-4.837146176703537,-3.64250476087517,7.434408167261337,0.06313489205839794,0.02591606457814324,-0.0029441016467215116
1765409674.473039,-4.731276866259484,-3.7183685741875374,7.406167132498879,0.07535895172573952,0.032158191320041336,-0.0031157506015953816
1765409674.473239,-4.623251530448826,-3.781820588351139,7.379802644606196,0.08822243611159798,0.03898215583488009,-0.003156720520604073
1765409674.473457,-4.513927554529396,-3.8315595894014796,7.355500838372191,0.10160086792236277,0.04638937653584988,-0.0030528224226292217
1765409674.473707,-4.404158010467422,-3.8666655114289097,7.33339092001377,0.11536559038230328,0.05438196373029086,-0.0027962581828195558
1765409674.473957,-4.294779607796013,-3.8866245523745104,7.313556744297466,0.12938875612315875,0.06296319369624162,-0.0023863351138951653
1765409674.474207,-4.186598988285454,-3.8913395373178505,7.296044832059946,0.14354796440656714,0.07213760242087676,-0.0018298584094312157
1765409674.474434,-4.080377480266337,-3.881124277596509,7.280868430790768,0.15773025395316687,0.08191069201895738,-0.0011411930836004668
1765409674.474684,-3.976814978438961,-3.8566807294434327,7.268008044033964,0.1718352318464899,0.09228828726505212,-0.00034199125673612177
1765409674.474934,-3.8765338610859468,-3.819058511758309,7.25740932203912,0.18577720480718254,0.10327560912470496,0.000539430765229401
1765409674.475184,-3.7800638052849043,-3.7695980519309176,7.2489793068744035,0.19948626418226675,0.11487615222492997,0.0014690891440672566
1765409674.475431,-3.6878284150470244,-3.709860662607198,7.24258215073567,0.21290835235963468,0.12709046526686707,0.0024087082866440603
1765409674.475681,-3.6001349181953337,-3.6415503377329075,7.238035643305678,0.22600440457904342,0.13991494169559335,0.003317435442078743
1765409674.475931,-3.5171684662245095,-3.566432760151314,7.235109899638716,0.23874872092734506,0.1533407394765046,0.0041538057226435865
1765409674.476181,-3.438992383867131,-3.4862573433635875,7.233529291719679,0.25112677895043095,0.16735295641436657,0.004877844876994319
1765409674.476493,-3.365555106535023,-3.402688238860848,7.2329782580833655,0.26313273399867854,0.1819301712617202,0.005453191334238615
1765409674.476743,-3.296703835735962,-3.3172495150948307,7.233110941263681,0.2747668568513311,0.19704441833195646,0.005849103267169378
1765409674.476993,-3.2322042843483216,-3.231287600753903,7.233563770207199,0.28603312990140983,0.21266161932735134,0.006042186416402724
1765409674.477243,-3.1717652688608227,-3.1459511978844112,7.2339696939645,0.296937178869234,0.22874246924707028,0.006017669109463452
1765409674.477423,-3.115066468366558,-3.0621866532780313,7.233973205492177,0.3074846602897822,0.2452437478545077,0.0057700917727908675
1765409674.477673,-3.0617874803503122,-2.9807460162280672,7.2332459513700265,0.3176801559610372,0.2621199770997469,0.005303355813534674
1765409674.477923,-3.011635935253094,-2.9022051856044055,7.231502266256499,0.32752656175325984,0.279325273004604,0.004630153468884467
1765409674.478173,-2.9643715179598935,-2.8269896965562924,7.228512010523804,0.3370249221076866,0.2968151913829105,0.0037708522628988523
1765409674.478461,-2.9198220637091636,-2.7554054260611878,7.224106270213672,0.34617465269581854,0.31454838302095445,0.0027519358372471354
1765409674.478711,-2.877888866823283,-2.6876710577056735,7.218172008586174,0.3549740925871483,0.3324879518182334,0.0016041189893220154
1765409674.478961,-2.8385411297875627,-2.6239489937459,7.210634898598679,0.36342131869777206,0.3506024979129316,0.00036026556400480653
1765409674.479211,-2.8018025895965035,-2.5643718711137367,7.201433549778636,0.3715151389879435,0.3688668783022349,-0.0009467582921533312
1765409674.479458,-2.7677352271642985,-2.509062909426754,7.190491375261036,0.37925616827403663,0.3872627216205517,-0.0022861670416535144
1765409674.479708,-2.7364250902474896,-2.4581495120970893,7.177693440508697,0.38664789069140426,0.4057787075859917,-0.0036311564898131215
1765409674.479958,-2.707973961297227,-2.4117702387175433,7.162874361471549,0.3936976190635538,0.42441058152573924,-0.00496052259534108
1765409674.480208,-2.6824986542631652,-2.370075338717128,7.145820321772797,0.40041726307559433,0.4431608460493087,-0.006259924972728593
1765409674.480459,-2.660137914406033,-2.333220991005459,7.126285259262031,0.40682382167711234,0.46203808746032593,-0.0075227438613786266
1765409674.480709,-2.6410652775780212,-2.301357731823915,7.1040191640064005,0.41293953377406345,0.4810559530419009,-0.008750490871752472
1765409674.480959,-2.6255043726535052,-2.2746141845253685,7.078804559816676,0.4187916516933495,0.500231851054813,-0.009952745377728051
1765409674.481209,-2.613741404957436,-2.25307771817667,7.050495233544611,0.4244118312257209,0.5195854542459162,-0.011146609489605573
1765409674.481465,-2.6061293697107937,-2.236773882023567,7.01905043711041,0.4298351574933196,0.5391370558005724,-0.012355701911454114
1765409674.481715,-2.6030806618207953,-2.2256464737173154,6.984559314559653,0.4350988520263595,0.5589058017907991,-0.013608740622563675
1765409674.481965,-2.605047987810422,-2.219539956067557,6.947253108324032,0.4402407328771619,0.5789078389106812,-0.01493779433169313
1765409674.482215,-2.6124959918512345,-2.218185695662258,6.907504671773715,0.4452975209654898,0.5991544499917575,-0.0163763036173603
1765409674.482431,-2.625867305645267,-2.2211933418966994,6.865815823707592,0.4503030989830356,0.6196502667114576,-0.017956974942907645
1765409674.482681,-2.645547559066198,-2.228048659198092,6.822794591062083,0.4552868348717682,0.640391654080685,-0.01970964160966421
1765409674.482931,-2.6718344219728256,-2.2381189581437755,6.779126335295066,0.4602720779785123,0.6613653795993644,-0.02165918342022947
1765409674.483181,-2.7049153508016084,-2.250666592638442,6.735543350387103,0.4652749159319034,0.6825477026644448,-0.023823606593155782
1765409674.483458,-2.744857188892832,-2.2648700210131736,6.692796205737054,0.47030324616002045,0.7039040147589612,-0.026212391682243374
1765409674.483708,-2.791608597479912,-2.279851420424926,6.651628266122088,0.4753561838363298,0.7253891166548007,-0.028825206318233557
1765409674.483958,-2.8450139710100144,-2.2947101007879662,6.612753516086757,0.48042381310628973,0.7469481511037657,-0.0316510639072558
1765409674.484208,-2.9048354270273786,-2.3085612518241914,6.576836839045954,0.4854872939325654,0.7685181411916756,-0.034668006768827836
1765409674.484458,-2.9707779962734335,-2.320579029434992,6.544474843313172,0.4905193561122948,0.7900300281951594,-0.03784338816169264
1765409674.484708,-3.042512432885208,-2.330041791137103,6.516174405468055,0.4954852298585111,0.8114110544416965,-0.04113479401412576
1765409674.484958,-3.119690414295727,-2.3363762452981955,6.492326081878457,0.5003440614308573,0.832587295147702,-0.04449158510366973
1765409674.485208,-3.2019487104965325,-2.339196916272014,6.473171062886475,0.5050508357615602,0.8534861328006044,-0.04785698171580025
1765409674.485423,-3.288901965821724,-2.3383375719865205,6.458763177971097,0.5095587794576422,0.8740385172366669,-0.05117057280209655
1765409674.485673,-3.3801270286956493,-2.3338717907215925,6.448930514718186,0.5138221539872951,0.8941809529530843,-0.054371109103171264
1765409674.485923,-3.475144093666156,-2.326120505087275,6.443243184102835,0.5177992849241385,0.9138572500656257,-0.057399425925465354
1765409674.486173,-3.5734006241160152,-2.315645200655771,6.440993842761786,0.5214556300934587,0.9330201214536274,-0.060201331475113314
1765409674.486475,-3.6742631979583122,-2.303226520068643,6.441196041443713,0.5247666787053055,0.9516327021570176,-0.06273029470527332
1765409674.486808,-3.777020695387143,-2.289829246797594,6.442603430786619,0.5277204898904885,0.9696700274891064,-0.06494977989860938
1765409674.487142,-3.8809004567372716,-2.276555729273995,6.443751296275248,0.5303197103882018,0.9871204448569479,-0.06683510645500078
1765409674.487473,-3.985097708470388,-2.264590466295392,6.443020965450315,0.5325829452669528,1.0039868589119654,-0.06837475384487517
1765409674.487723,-4.088817392452252,-2.255138860814472,6.438726616890068,0.5345453826087024,1.0202876410757837,-0.0695710687211866
1765409674.487973,-4.191325846797893,-2.249363356909916,6.429221917619902,0.5362585919899169,1.0360569899350107,-0.07044035776024907
1765409674.488223,-4.2920076048578535,-2.2483203356561683,6.413020545276049,0.5377894396981953,1.0513445069640324,-0.07101237401971175
1765409674.488481,-4.390420755756317,-2.252900879584955,6.388921064973814,0.5392181057642047,1.0662137551069737,-0.07132923351550592
1765409674.488731,-4.4863436590605765,-2.263777606277155,6.356124259331761,0.5406352468870724,1.0807396234157962,-0.07144382651251442
1765409674.488981,-4.579806631338847,-2.281358799303242,6.314330698787067,0.5421384086036397,1.0950044542471609,-0.07141780132389425
1765409674.489231,-4.6711042738191395,-2.305751035107868,6.263807976236031,0.5438278422246308,1.1090930772695067,-0.07131919127338139
1765409674.489449,-4.760786671889875,-2.336732592423361,6.205419884575463,0.5458019320089935,1.1230870717003474,-0.07121974307242081
1765409674.489699,-4.849630050523398,-2.3737409348053053,6.140613347159767,0.5481524833344368,1.1370586969471845,-0.07119201433094467
1765409674.489949,-4.938589302926416,-2.415877058452081,6.071362923418439,0.5509601512218572,1.1510649890736706,-0.07130634282921731
1765409674.490199,-5.028736064731368,-2.4619274704598153,6.0000766815965925,0.5542902942068623,1.165142527439354,-0.0716278185395408
1765409674.490454,-5.121186613285045,-2.510402408062076,5.929470109632191,0.5581895213266476,1.1793033360156615,-0.07221338489981592
1765409674.490704,-5.217023847596347,-2.5595878888956904,5.862415751121114,0.5626831554304642,1.1935323037393004,-0.07310917407085837
1765409674.490954,-5.317217342247629,-2.6076092574382264,5.801775982964912,0.5677737616134622,1.2077864013968327,-0.07434817447656533
1765409674.491204,-5.422545654428221,-2.652504210800848,5.7502266743747,0.5734408008634584,1.2219958508404813,-0.07594834192057359
1765409674.491519,-5.5335259546756355,-2.6923033241832557,5.710081633508511,0.5796413898178495,1.2360672728704691,-0.07791127532542971
1765409674.491769,-5.65035691774025,-2.7251159325027126,5.683130627717367,0.5863120857591719,1.2498887050831349,-0.08022157330840021
1765409674.492019,-5.7728804820239,-2.749218926426811,5.67050486328237,0.5933715671058325,1.2633362373883716,-0.08284697771697241
1765409674.492269,-5.900566197962114,-2.763145271714993,5.6725818618312775,0.6007240455655273,1.2762818597197312,-0.08573939725548008
1765409674.492446,-6.032519439829372,-2.765767593554317,5.688937676640958,0.6082632312560097,1.2886019712569894,-0.08883687276683365
1765409674.492696,-6.167513254315677,-2.756370402947646,5.718350415870621,0.6158766710571605,1.300185906994326,-0.09206648033886422
1765409674.492946,-6.304043506872983,-2.734703592189075,5.758856324159424,0.6234502848264404,1.3109438378064528,-0.09534806943717736
1765409674.493196,-6.440407108757543,-2.701010646711322,5.807857735006068,0.630872931420988,1.3208134899915216,-0.0985986211490674
1765409674.493419,-6.574801934198559,-2.656027422593585,5.862279591510278,0.6380408432082505,1.3297652568223868,-0.10173692246066675
1765409674.493669,-6.705444305839029,-2.600950112414477,5.918767283596946,0.6448617657027302,1.3378053873985025,-0.10468821194675307
1765409674.493919,-6.830696770459386,-2.537373319492091,5.9739141251658525,0.6512586267737461,1.3449770307189803,-0.10738845256235792
1765409674.494169,-6.949196406219872,-2.467201294085173,6.024502916533837,0.6571725506141487,1.3513590114211411,-0.10978790741079286
1765409674.494429,-7.0599722096404625,-2.3925378013414225,6.067742740284627,0.662565042659082,1.3570623371488062,-0.11185373568837301
1765409674.494762,-7.162539095433175,-2.3155622985384503,6.101479701735862,0.6674192069659426,1.36222458083831,-0.11357140537603398
1765409674.495096,-7.256956246582575,-2.2384013466257673,6.124360349506715,0.6717399041759038,1.367002429266925,-0.11494483473885268
1765409674.495451,-7.343839439362756,-2.1630044972193545,6.135929948864455,0.6755528031221064,1.3715628318748458,-0.11599529867502566
1765409674.495701,-7.424320166863405,-2.0910336803881178,6.13665320024987,0.6789023276095213,1.376073310223394,-0.11675924007954953
1765409674.495951,-7.4999486240664535,-2.023774228686466,6.127850861673467,0.681848568626239,1.380692082708404,-0.11728519999239223
1765409674.496201,-7.5725434203884205,-1.962073692414528,6.111552936889271,0.6844633239784277,1.3855587124495994,-0.11763012471836704
1765409674.49659,-7.6439982979230745,-1.9063117707928414,6.090279006835388,0.6868255186303033,1.390785993379567,-0.11785532436135997
1765409674.49684,-7.716063584370537,-1.8564019400428284,6.066767422597171,0.6890163180924366,1.3964537256050842,-0.11802234589822663
1765409674.49709,-7.790125386942749,-1.8118235043869677,6.043683625813123,0.6911142595601529,1.4026048607241994,-0.11818899344218829
1765409674.49734,-7.867007412088198,-1.7716819341094934,6.023341019204855,0.6931907001648268,1.409244228934678,-0.11840569733402086
1765409674.497538,-7.946818774328331,-1.734794882049107,6.007465397792475,0.6953058409809644,1.4163397678741065,-0.11871241979982244
1765409674.497788,-8.028866773839274,-1.6998002217456232,5.9970274200462255,0.6975055513546867,1.4238259475171788,-0.11913628699189309
1765409674.498038,-8.111647137359666,-1.66528029994371,5.992158782378752,0.699819195202032,1.4316089634935645,-0.11969013171845028
1765409674.498288,-8.192916423549203,-1.6298938770603388,5.992158068166619,0.7022586284261143,1.4395732315074417,-0.12037209203855602
1765409674.498514,-8.269842743288702,-1.5925050008289399,5.995582194469968,0.7048184697611585,1.4475887137044012,-0.12116633296812272
1765409674.498764,-8.339222384874938,-1.552296884390263,6.000409563392705,0.7074776440185836,1.4555186163318292,-0.12204485711653947
1765409674.499014,-8.397742859375256,-1.5088588239365226,6.004253316864985,0.7102020743045804,1.463227026536754,-0.12297026050318863
1765409674.499264,-8.442268775673053,-1.462235613254738,6.004599541673044,0.7129482777407438,1.4705861285427209,-0.12389917978421792
1765409674.499479,-8.470126058351163,-1.4129322793707497,5.999046070418683,0.715667515186138,1.4774827524562697,-0.12478608080225835
1765409674.499812,-8.479361388754231,-1.361872139611857,5.985521190660355,0.718310078912022,1.4838241246202832,-0.12558698124008982
1765409674.500146,-8.468956349260827,-1.3103121821245916,5.962466589794883,0.7208292897753759,1.4895427592835861,-0.1262627040012805
1765409674.500506,-8.43897920176286,-1.2597253284377639,5.928974372174868,0.7231848215250364,1.4946004292878887,-0.12678132973642398
1765409674.500756,-8.390661545767072,-1.2116632187447567,5.88487320587966,0.7253450654175263,1.4989910875406185,-0.12711964611585225
1765409674.501006,-8.326392144743405,-1.167615176756962,5.830762333341515,0.7272883759490419,1.5027425169137387,-0.12726354740182025
1765409674.501256,-8.2496258437602,-1.12887887883687,5.767993430335216,0.7290031759053789,1.505916402579714,-0.12720748230465492
1765409674.501466,-8.164711898377625,-1.0964561617471131,5.698600246795219,0.7304870293571116,1.5086064945762807,-0.12695315993261133
1765409674.501716,-8.076653024624214,-1.0709834599275028,5.62517746633259,0.7317449115425588,1.5109346161250445,-0.12650779881831617
1765409674.501966,-7.990812761771397,-1.0527009742149258,5.550714843783659,0.7327870045587825,1.5130444860515109,-0.12588223126085965
1765409674.502216,-7.912592710731492,-1.0414592655877037,5.478398510778645,0.7336263925726417,1.51509358970205,-0.12508913750267725
1765409674.502473,-7.847102576328353,-1.0367584077624818,5.4113949789465625,0.7342769939598485,1.5172435633074814,-0.12414159132339153
1765409674.502723,-7.798845570835398,-1.0378137090981194,5.352633603935211,0.7347519732928147,1.5196497310311075,-0.12305199934743223
1765409674.502973,-7.771440095079557,-1.0436419528198648,5.304601658306614,0.7350627732525996,1.5224505806597695,-0.12183146378689808
1765409674.503223,-7.767395408131249,-1.0531612407167092,5.26916449217495,0.7352188230175243,1.525758079453076,-0.12048959683260868
1765409674.503558,-7.787954253196238,-1.065295542236761,5.24742169801567,0.7352279151908019,1.5296497539499805,-0.11903481058561376
1765409674.503808,-7.833010145054301,-1.0790733440238371,5.239608228956726,0.7350971931612142,1.534163326682555,-0.11747504969355713
1765409674.504058,-7.901102884745522,-1.0937096803168227,5.245047790941292,0.7348346494341673,1.5392944334463896,-0.11581884073066025
1765409674.504308,-7.989493841205431,-1.108662287939736,5.2621656788624245,0.734450988112866,1.5449976160634111,-0.11407645900989638
1765409674.504482,-8.094321458879964,-1.1236550240241858,5.28856807441932,0.7339616380330031,1.551190461977323,-0.11226099028352479
1765409674.504815,-8.2108343450967,-1.1386648863114457,5.321191032925984,0.7333886284485015,1.557760462353585,-0.11038908048316681
1765409674.505149,-8.333692182367427,-1.1538733540597912,5.356513738472141,0.7327619952548761,1.564573899845248,-0.10848119797794568
1765409674.50546,-8.457314896606851,-1.1695882191125713,5.390820131353729,0.7321204061349174,1.571485889599521,-0.10656127606942802
1765409674.50571,-8.57625173338917,-1.1861473208659936,5.420484462812583,0.731510774969633,1.5783506151421594,-0.10465568137104782
1765409674.50596,-8.685537357390265,-1.2038186935940425,5.442251011516735,0.7309867540973822,1.5850308431361613,-0.1027915765932258
1765409674.50621,-8.781002596508822,-1.2227114806778638,5.45347637500703,0.7306061324598178,1.5914059643859835,-0.10099487443596461
1765409674.506439,-8.859512227892548,-1.2427091309571432,5.452306194189063,0.7304273196070236,1.5973780627050504,-0.09928805681888592
1765409674.506689,-8.919110292996104,-1.2634322792337147,5.437768401912867,0.7305052349407382,1.602875810202962,-0.09768814282531188
1765409674.506939,-8.959063756800857,-1.2842344467108657,5.409779527549439,0.730887015051456,1.6078562604302626,-0.09620504506251794
1765409674.507189,-8.979806675151412,-1.304230002021376,5.369073656730083,0.7316079840204892,1.6123047841798817,-0.0948404762420469
1765409674.507436,-8.982798342909744,-1.322351288859867,5.317072007253052,0.7326883100360844,1.6162334398063827,-0.09358747690206813
1765409674.507686,-8.970318665317262,-1.3374304524597547,5.255715117410431,0.7341307098312909,1.6196780432648241,-0.09243056458309763
1765409674.507936,-8.94522997890939,-1.3483002555721109,5.187280359547584,0.7359194638377717,1.6226941744822516,-0.09134648274363627
1765409674.508186,-8.91073506901762,-1.3539059929048256,5.114205039746083,0.7380208730604988,1.6253523524867246,-0.09030554111282975
1765409674.508457,-8.870156244736286,-1.3534179099887518,5.03893009713521,0.7403851421128781,1.6277326192972577,-0.08927353407015912
1765409674.50879,-8.826751669675101,-1.3463318828537891,4.963772538905594,0.742949534762365,1.6299187781974351,-0.08821416995578084
1765409674.509124,-8.783575371705725,-1.3325463297185587,4.8908280413580085,0.7456425303825753,1.6319925458867275,-0.08709187423806747
1765409674.509456,-8.743379184232865,-1.3124048724932655,4.821900503868774,0.7483886193292567,1.6340279288143136,-0.08587478135536257
1765409674.509706,-8.708549708305721,-1.2866966562640494,4.758453456408922,0.751113321554244,1.6360862248966785,-0.08453769307023666
1765409674.509956,-8.68107122936569,-1.2566099610488157,4.701578368515345,0.7537479975875264,1.638212127242997,-0.08306473012467869
1765409674.510206,-8.66250590632952,-1.2236404481076217,4.651976391875034,0.7562340447500766,1.6404313872352763,-0.08145135235010482
1765409674.510441,-8.653984521986825,-1.1894624811010557,4.6099525046321705,0.7585261431492928,1.6427503457677435,-0.0797054175411022
1765409674.510691,-8.656203125391869,-1.1557783388029494,4.575423215286692,0.7605943321489753,1.6451573983683385,-0.07784703277363723
1765409674.510941,-8.66942233032295,-1.1241635382457935,4.54793948019965,0.7624248262265272,1.6476261930425002,-0.07590712138471534
1765409674.511191,-8.69346772705005,-1.0959262978910809,4.526725315998343,0.7640195904944556,1.6501201283543157,-0.0739248275887263
1765409674.511455,-8.72773251022631,-1.0719964970218012,4.510730801781055,0.7653947919010737,1.6525975545483302,-0.07194404008966117
1765409674.511705,-8.771186075557443,-1.0528554725532258,4.498696107837,0.7665783265561587,1.6550170047381627,-0.07000941546393911
1765409674.511955,-8.822393515144237,-1.0385127648398704,4.489220890607663,0.7676066826813015,1.6573418211036597,-0.06816233800771267
1765409674.512205,-8.879550465785037,-1.0285296055635142,4.480832288202633,0.7685214253128174,1.6595436917035407,-0.06643725940125653
1765409674.512449,-8.940536602129006,-1.0220829784604528,4.472046820061462,0.7693655972002136,1.6616048291652172,-0.06485879107505563
1765409674.512782,-9.002989677431238,-1.0180605640010314,4.461426241178582,0.7701803302147494,1.6635187354717655,-0.0634397831841211
1765409674.513116,-9.064399950577858,-1.015176431165015,4.44763136457743,0.771001945244629,1.6652896557640624,-0.06218047716433959
1765409674.513491,-9.122222169253117,-1.0120983534811474,4.429478115640331,0.7718597773115943,1.6669309080199008,-0.06106872145254795
1765409674.513741,-9.174000141450994,-1.0075778886818678,4.4059971544707635,0.7727748981872288,1.6684623048187703,-0.06008119439747314
1765409674.513991,-9.217497931298933,-1.0005731932643573,4.376494899597573,0.7737598267793652,1.669906905784447,-0.05918554085250242
1765409674.514241,-9.250830798924326,-0.990353183486695,4.340610946257361,0.7748192203823981,1.6712873783115707,-0.05834326203383811
1765409674.514442,-9.272586918345088,-0.9765717784816519,4.298364043466156,0.7759514310905886,1.672622275722363,-0.05751310992015833
1765409674.514692,-9.281928343406156,-0.9593031829831996,4.250176184757285,0.7771507059866859,1.6739225447967299,-0.05665466875131212
1765409674.514942,-9.278658815689727,-0.9390330491109625,4.196864163408917,0.7784097288482839,1.675188571767444,-0.05573178510955175
1765409674.515192,-9.263248098295689,-0.9166052790848213,4.139591690561509,0.7797221573567942,1.6764080896189828,-0.054715529792672815
1765409674.515513,-9.236807113901557,-0.8931295938859769,4.079781767258731,0.7810848050663297,1.6775552675941514,-0.05358642631023114
1765409674.515763,-9.201014221646364,-0.8698598790768653,4.018996203844144,0.7824991571008454,1.6785912344048268,-0.052335758050775165
1765409674.516013,-9.157999519354878,-0.8480567895260176,3.9587955826172463,0.7839719968630349,1.6794661443154562,-0.050965859689511325
1765409674.516263,-9.110199816580618,-0.8288498570171877,3.9005975738384695,0.7855150415081054,1.6801227174343711,-0.04948939388649341
1765409674.51647,-9.060200565640017,-0.813114511282132,3.8455529723406037,0.7871436080197121,1.6805010034535428,-0.04792770967149242
1765409674.516803,-9.010582021451144,-0.8013777308479575,3.794456261659123,0.7888744448893288,1.6805439438259098,-0.04630847689043106
1765409674.517137,-8.963785308848285,-0.7937620939569204,3.7477016204240656,0.7907229609159289,1.6802031636820731,-0.04466287720447736
1765409674.517465,-8.92201014434918,-0.789972421471245,3.705287779211481,0.7927001480792552,1.6794443599468745,-0.043022677749832025
1765409674.517715,-8.887150352190618,-0.7893238012877786,3.6668678081414154,0.7948095222875595,1.6782517082123871,-0.04141749873854956
1765409674.517965,-8.860767211107284,-0.7908061195026294,3.6318344311868267,0.7970444103791113,1.6766308780937915,-0.03987251731955533
1765409674.518215,-8.844095152345654,-0.7931783063520391,3.599429002011008,0.7993859077089397,1.6746104539292315,-0.03840675993795088
1765409674.518462,-8.838070038666668,-0.7950842613357981,3.5688623985441157,0.8018018017911419,1.672241711569278,-0.03703206119793169
1765409674.518712,-8.84336772386064,-0.795181006553134,3.5394366312352052,0.8042466839343233,1.6695967541536298,-0.035752722067775196
1765409674.518962,-8.860440536343052,-0.7922679416643182,3.5106553693746956,0.8066633622369036,1.6667650048407903,-0.034565871039490326
1765409674.519212,-8.889542057044071,-0.7854046759202286,3.482311037735747,0.8089855661883161,1.6638480954168906,-0.03346249682004256
1765409674.51948,-8.93073506625255,-0.7740046599597739,3.454537816121617,0.8111418001356104,1.6609533294947088,-0.032429065275752254
1765409674.51973,-8.983881820277452,-0.757893406850984,3.427823764091753,0.8130600622670349,1.6581860849677894,-0.03144955846014776
1765409674.51998,-9.048618580981154,-0.7373235806115241,3.4029792477272283,0.8146730173466596,1.6556416695576153,-0.030507701293996086
1765409674.52023,-9.12431799690701,-0.7129442801185851,3.3810616971724214,0.8159231278276496,1.653397241343551,-0.029589099571031858
1765409674.520491,-9.210044801522926,-0.6857277674920066,3.363259867892159,0.8167672344345754,1.651504488864238,-0.028683018217087318
1765409674.520741,-9.304512867767826,-0.6568625321445987,3.350746264970772,0.8171801335012808,1.649983825128197,-0.027783586114433996
1765409674.520991,-9.406054179818394,-0.627625635338998,3.344513878953957,0.8171568024316263,1.6488208185024091,-0.026890313521729704
1765409674.521241,-9.512611343917245,-0.5992492588927452,3.3452194992082402,0.8167130578720477,1.6479654107353707,-0.02600791414569625
1765409674.521552,-9.621763752910715,-0.5727968137246217,3.3530569391701595,0.8158845871893996,1.6473341808033704,-0.025145496012347994
1765409674.521802,-9.730793384636648,-0.5490630777499533,3.367678816274223,0.8147244607397034,1.646815571923517,-0.024315227248151203
1765409674.522052,-9.836790433866938,-0.528509820830627,3.388177383640152,0.8132993828742285,1.6462776743355025,-0.023530632546550006
1765409674.522302,-9.93679276010499,-0.5112428242193173,3.413125710567167,0.8116850476607039,1.6455778906481078,-0.022804734076020152
1765409674.522508,-10.027947387695919,-0.49702965408315375,3.440671248125437,0.8099610231723579,1.6445736256717989,-0.022148267343637677
1765409674.522841,-10.107678057033931,-0.4853525744177329,3.4686658142531233,0.808205604763892,1.643133055493845,-0.02156815422855297
1765409674.523175,-10.173841420723225,-0.4754887735436043,3.494812012957858,0.8064910663563101,1.6411450614631713,-0.021066343862984067
1765409674.523465,-10.224856491963603,-0.4666095629064194,3.516807953280755,0.8048797031092082,1.6385275679776314,-0.020639090206679762
1765409674.523715,-10.259796564931014,-0.4578895291659081,3.532478648706656,0.8034209891649073,1.6352337527420269,-0.020276727974409815
1765409674.523965,-10.278438512559317,-0.44861510149348316,3.5398901263082565,0.8021500631080515,1.6312558158275177,-0.019963999841965226
1765409674.524215,-10.28126943318181,-0.43828068667811637,3.5374472753423283,0.801087611863282,1.626626134730294,-0.019680945971161896
1765409674.52446,-10.269453392624275,-0.4266609437622093,3.5239766500722065,0.8002410727440943,1.6214157151993795,-0.019404297563034162
1765409674.52471,-10.244761224538125,-0.4138502167272136,3.4987921172480414,0.7996069325808716,1.6157299489386103,-0.019109253480712244
1765409674.52496,-10.209466223087862,-0.4002636138075668,3.461738536934856,0.7991737855889764,1.6097018578189835,-0.018771483965456623
1765409674.52521,-10.166210747536828,-0.3865979778582058,3.4132091774370408,0.7989257282017957,1.6034832115588276,-0.01836918458269153
1765409674.52545,-10.117853223371338,-0.3737554053358457,3.3541348133133373,0.7988456308963184,1.597234094196814,-0.01788497911527564
1765409674.5257,-10.067309093753469,-0.36273734463463314,3.28594416551127,0.7989178482923139,1.5911116473570965,-0.0173074546859509
1765409674.52595,-10.017400397075296,-0.35452253170282877,3.2104969450942042,0.7991300163780892,1.5852588467872308,-0.016632137338015957
1765409674.5262,-9.970726154899483,-0.3499450752398665,3.1299933941967777,0.7994737251780525,1.5797942480990956,-0.01586179646034698
1765409674.526439,-9.929560610735368,-0.3495885929072421,3.0468665598022584,0.7999440201645374,1.5748036084154258,-0.015006078483371422
1765409674.526689,-9.895780417108,-0.3537087863057683,2.9636636382712,0.8005378594720978,1.5703341263787214,-0.014080561692071702
1765409674.526939,-9.870817321398919,-0.36219172972721714,2.8829214773596896,0.8012518218602233,1.5663917780613923,-0.013105355743161682
1765409674.527189,-9.855631330036235,-0.3745500367208487,2.8070412651796244,0.8020794882546772,1.562941915598092,-0.012103355074549264
1765409674.527436,-9.85070044557214,-0.389955080739451,2.738168955528841,0.8030089679595659,1.5599129768761026,-0.011098244133476787
1765409674.527686,-9.856024758206601,-0.407301012689459,2.6780888873455844,0.8040210003090008,1.5572028508329991,-0.010112373786461987
1765409674.527936,-9.87114312642883,-0.4252949745586046,2.628136686342198,0.8050879612520204,1.5546871829407898,-0.009164670287200766
1765409674.528186,-9.895160251295579,-0.442566546162238,2.589134437246448,0.8061739783537875,1.5522287415951352,-0.008268773135562145
1765409674.528477,-9.926782052770294,-0.4577873898388231,2.5613477480533637,0.807236226816139,1.5496869517324952,-0.007431604953077294
1765409674.528727,-9.964358122177417,-0.46978985525617073,2.544461986482963,0.8082273471722955,1.5469268398506977,-0.006652542643678944
1765409674.528977,-10.00593085524017,-0.4776723051151976,2.5375751637574573,0.8090987960887441,1.543826863283348,-0.005923287877367277
1765409674.529227,-10.049291534434504,-0.48087988143849936,2.5392085607281922,0.809804827122254,1.540285332889751,-0.005228449083528921
1765409674.529468,-10.092044690571644,-0.47925188551499875,2.5473414326014754,0.8103067106084144,1.5362253191450204,-0.0045467720476415445
1765409674.529718,-10.131683583711194,-0.47302989921155936,2.5594791317495753,0.8105767476839784,1.531598028242989,-0.0038528984706419343
1765409674.529968,-10.165680836446697,-0.4628240842124442,2.5727622787065134,0.8106016209491815,1.5263846550741629,-0.003119477113021957
1765409674.530218,-10.191598082085793,-0.44953962114972984,2.5841187951334166,0.8103846669696929,1.5205967005201937,-0.0023193941051233378
1765409674.530544,-10.207216129442587,-0.43427106508537294,2.59045299878249,0.8099467587863485,1.5142747316477296,-0.0014278589316576316
1765409674.530744,-10.210682374240209,-0.4181775964975564,2.588858792294957,0.8093256335338701,1.5074856066638942,-0.00042412033477747945
1765409674.530944,-10.200665794298196,-0.40235456870333286,2.576838613230308,0.8085736621129996,1.5003182820305518,0.0007073188220880034
1765409674.531144,-10.176503728710236,-0.3877162019705033,2.552506606922221,0.8077542137270977,1.4928784220503113,0.001976021762751069
1765409674.531344,-10.138320932942198,-0.37490201280288,2.514753501725859,0.8069369113929385,1.48528210741805,0.0033854434530620806
1765409674.531528,-10.087101435684083,-0.3642162431627831,2.4633526109097974,0.8061921950700294,1.477649004290614,0.004933192873323691
1765409674.531778,-10.024697616654636,-0.3556049591748344,2.39899210418085,0.8055856811632627,1.4700954286796617,0.006611631148555154
1765409674.532028,-9.953767966119779,-0.34867010896643136,2.3232275587536138,0.8051728107411649,1.4627277917495456,0.008408687689953868
1765409674.532278,-9.877643875283992,-0.34271536279244874,2.238358688577994,0.8049942231100491,1.455636892590171,0.010308793341663411
1765409674.532502,-9.800134904773898,-0.33681642634413295,2.1472434328649803,0.8050722028990567,1.4488934380193421,0.012293874713830326
1765409674.532752,-9.725289836933793,-0.32990849557209,2.0530707615806523,0.8054084443265567,1.4425450533896629,0.014344392207809083
1765409674.533002,-9.657136437064288,-0.32088419527184925,1.9591193887088572,0.8059832613516553,1.4366149178043432,0.01644040526181423
1765409674.533252,-9.599425483437154,-0.3086954994182163,1.868530585934729,0.8067562579249432,1.4311019983164899,0.01856261435609187
1765409674.533526,-9.555403758993172,-0.2924525416448859,1.7841184270901032,0.8076683752604737,1.4259826875265194,0.020693289121481436
1765409674.533776,-9.52763641017687,-0.271511452582433,1.708232330025223,0.8086451587673589,1.4212135167432778,0.022816973219588147
1765409674.534026,-9.517892149442726,-0.24554299384857284,1.6426780109111698,0.8096010256459196,1.4167345456924556,0.024920864558914325
1765409674.534276,-9.527096288248677,-0.2145740443123201,1.5886951384234738,0.8104442518834855,1.4124730040620428,0.026994796789062886
1765409674.534542,-9.555347730512176,-0.17899541680528425,1.5469825637795278,0.8110823338868891,1.4083467733537351,0.029030803508723363
1765409674.534792,-9.601988406242812,-0.1395329299705147,1.5177555899001338,0.811427332142839,1.4042673710813791,0.03102234267861966
1765409674.535042,-9.665709059640758,-0.09718402998451033,1.5008167508852994,0.8114007950231207,1.4001422501233356,0.03296336250673156
1765409674.535292,-9.744674972020299,-0.05312749718558987,1.4956237924642182,0.8109378995471728,1.3958764375749397,0.034847429608878475
1765409674.535494,-9.83665834774972,-0.008616622762490778,1.5013448548158506,0.8099905221820596,1.391373760159222,0.036667089140075465
1765409674.535694,-9.93916845932154,0.03513330183339825,1.5168981426952564,0.8085290504439281,1.3865380704568415,0.03841354269938995
1765409674.535894,-10.04957436965179,0.07705252577951772,1.540979266199544,0.8065428562078547,1.3812749428666447,0.04007667817156172
1765409674.536094,-10.165217736658086,0.11630885434612905,1.5720833723510264,0.8040394671942845,1.3754942243861552,0.04164546360367374
1765409674.536294,-10.283514988577815,0.1523747394231621,1.6085309040957807,0.8010425795529678,1.3691136107665,0.04310868528282486
1765409674.536481,-10.402048622390883,0.18506316671983042,1.6485043844864498,0.7975891363506162,1.3620631164929549,0.044455959056594684
1765409674.536731,-10.51864619260779,0.21453028575966643,1.6900989452021629,0.7937257533348857,1.3542900020324546,0.04567889996910055
1765409674.536981,-10.63144359021786,0.24124647975520364,1.7313837972021233,0.789504816094654,1.345763517038166,0.04677232105588993
1765409674.537231,-10.738928109730569,0.2659401176265114,1.7704687032425972,0.7849805992536152,1.336478773336017,0.047735343927049534
1765409674.537479,-10.8399575695351,0.2895197497372947,1.8055695430901606,0.7802057438374523,1.326459150688782,0.048572321650371016
1765409674.537729,-10.933754243230453,0.31298136795086756,1.8350684002223092,0.7752283612840168,1.315756789596452,0.0492934841912765
1765409674.537979,-11.019875991633523,0.3373078340886876,1.8575647625719822,0.7700899377975966,1.304450901087891,0.04991521871583984
1765409674.538229,-11.098171179269219,0.36336804212726503,1.8719160277062064,0.7648241243894158,1.2926438407242378,0.050459897327843846
1765409674.538508,-11.168727595135156,0.391824046946768,1.8772683006927844,0.7594564197562995,1.2804551673357776,0.050955171958407715
1765409674.538758,-11.231826788031285,0.4230548799321709,1.8730810823511115,0.7540046733236462,1.2680141917009489,0.05143268893003034
1765409674.539008,-11.287912672362335,0.45710521637031626,1.8591495055339893,0.7484802577933137,1.255451725395595,0.05192624746459124
1765409674.539258,-11.337577705237136,0.4936649521129278,1.8356249145774801,0.7428897007984163,1.2428917965394837,0.05246952024222889
1765409674.539457,-11.381563612086197,0.5320823627935495,1.8030306821558482,0.7372365358814679,1.2304440107146128,0.053093535272438014
1765409674.539707,-11.420768611606833,0.5714095906590166,1.76226712407299,0.7315231378835387,1.2181970653096492,0.05382416310671205
1765409674.539957,-11.456250567475612,0.6104755368956309,1.7145980101324367,0.7257523445893278,1.206213752348697,0.054679856639369535
1765409674.540207,-11.489215882201142,0.6479784675546144,1.6616118142194467,0.719928726348718,1.194527661537286,0.055669863914875696
1765409674.540449,-11.520986908408792,0.6825890246253183,1.6051537367882727,0.7140594328724669,1.1831417205896915,0.056793096154065935
1765409674.540699,-11.552945513836121,0.7130539030204438,1.5472294040615744,0.70815460198149,1.1720286381761613,0.058037784794186864
1765409674.540949,-11.586456399602206,0.7382912442235399,1.489886863180475,0.7022273474853361,1.1611332146068978,0.05938198625727886
1765409674.541199,-11.622779141082315,0.7574705694339735,1.435088056353686,0.6962933598470812,1.150376372844176,0.060794892375860415
1765409674.541499,-11.662980343892825,0.7700722776206287,1.3845825774835119,0.6903701675443006,1.139660662679122,0.0622388050333609
1765409674.541699,-11.707856131309278,0.7759240857629327,1.339795381099776,0.6844761206993513,1.1288769005072146,0.06367156136512259
1765409674.541899,-11.757872348458651,0.7752142480070785,1.3017380865998507,0.6786291664702138,1.1179115137728468,0.06504916741514587
1765409674.542099,-11.813127405363174,0.7684834183499029,1.2709515776096072,0.6728454893234646,1.1066540716910496,0.06632842386385307
1765409674.542299,-11.873340742814293,0.7565977926086684,1.2474851563211335,0.6671380940138931,1.0950044297452115,0.06746939046879773
1765409674.542518,-11.937867867904258,0.7407057094499567,1.2309141617971961,0.6615154197009819,1.0828789184576901,0.0684375922967175
1765409674.542768,-12.005740646390583,0.7221792652199323,1.2203939415026304,0.6559800939746712,1.0702150722740145,0.06920589321813242
1765409674.543018,-12.075729211263361,0.7025426496122329,1.2147436073237958,0.6505279588712438,1.0569745175235503,0.06975596082426866
1765409674.543268,-12.146419621361662,0.6833898188673563,1.2125488320328524,0.6451475089473377,1.0431438208554806,0.07007924699532322
1765409674.543451,-12.216299722726664,0.6662951669409637,1.2122707234867802,0.6398198635518769,1.028733335945416,0.07017742516920733
1765409674.543701,-12.283845215064183,0.652721697026044,1.2123488869419865,0.6345193536065622,1.0137743368105179,0.07006225573338062
1765409674.543951,-12.34759914223983,0.6439320125078479,1.211290667043731,0.6292147379072182,0.9983149252589462,0.069754881328619
1765409674.544201,-12.406240536295785,0.6409082467533345,1.2077432163878825,0.6238709801477287,0.9824152953992865,0.06928458276815852
1765409674.544482,-12.458640563660845,0.644287266820112,1.2005485165004306,0.6184514403666709,0.9661429137860634,0.06868706494139816
1765409674.544732,-12.50390614205212,0.654316635215165,1.1887831767068784,0.6129202891944995,0.9495680504651929,0.06800238646995027
1765409674.544982,-12.541411444283902,0.6708351747832656,1.171785214828337,0.6072449384927043,0.9327599227796757,0.06727267551206559
1765409674.545232,-12.570817483078308,0.6932801979997806,1.1491695350961444,0.6013982803639039,0.9157835509160754,0.0665397802831683
1765409674.545481,-12.592079551390958,0.7207217375575785,1.12083275359466,0.5953605345753599,0.8986973174651871,0.06584300309035174
1765409674.545731,-12.60544209877829,0.7519221255981912,1.086947129792719,0.5891205321584869,0.8815511802692538,0.0652170703778154
1765409674.545981,-12.611421124076376,0.7854168320169008,1.047943624094796,0.5826763151220268,0.864385484629568,0.06469048281934403
1765409674.546231,-12.610775249435118,0.8196100876352356,1.0044855069325993,0.5760350028339339,0.8472303317591328,0.06428434995481272
1765409674.546479,-12.60446735145423,0.8528773528795445,0.9574351761492077,0.5692119520152369,0.8301054709423059,0.06401174972839306
1765409674.546729,-12.593618326788715,0.883666553060059,0.9078167576897305,0.5622293041653307,0.8130206822282252,0.06387759397780014
1765409674.546979,-12.579454061626585,0.9105907672719189,0.8567760785324219,0.5551140607776621,0.7959765947948887,0.06387895027766921
1765409674.547229,-12.563247199627208,0.9325060386957603,0.8055388394712725,0.5478958533347692,0.7789658454945907,0.06400576465091767
1765409674.547529,-12.546256649996348,0.9485690752141979,0.7553674199581204,0.5406045890554035,0.761974442281457,0.06424192367190713
1765409674.547729,-12.529668442332957,0.9582714042649222,0.7075160507966622,0.5332681553076205,0.7449831838765264,0.06456657172022441
1765409674.547929,-12.514540824299745,0.9614493030224784,0.6631832304465609,0.5259103466499294,0.7279690125565881,0.06495557184738485
1765409674.548129,-12.50175536592062,0.9582716718495897,0.6234603482847555,0.5185491364659102,0.7109062355780231,0.0653829960401951
1765409674.548329,-12.491975337219063,0.949209540320725,0.5892769952331299,0.5111953660052261,0.6937676272440684,0.06582256399354336
1765409674.548471,-12.485612654525864,0.9349906944343126,0.5613455379876529,0.5038518867622045,0.67652549506959,0.06624899426017432
1765409674.548721,-12.482804723314299,0.9165421117293949,0.5401092365918404,0.49651317055219624,0.659152828970638,0.06663925224881154
1765409674.548971,-12.483402538875737,0.8949227911420082,0.5256993098181165,0.48916538699730927,0.6416246323335134,0.06697366848117194
1765409674.549221,-12.486971476667055,0.8712503573957499,0.5179068090746259,0.48178693808774203,0.6239194711730008,0.06723687897809288
1765409674.54947,-12.492805899023125,0.8466259236219089,0.5161744605044266,0.474349436034511,0.6060212036998062,0.06741852690797961
1765409674.54972,-12.499957856162684,0.8220626162228376,0.5196117043454609,0.46681910593339093,0.5879207834745185,0.06751366683262186
1765409674.54997,-12.507279330609034,0.7984234790189324,0.5270337742412217,0.4591585757597401,0.5696179650768818,0.06752283412618514
1765409674.55022,-12.513477107455863,0.7763736635561953,0.5370234689547055,0.4513289837901328,0.5511226955198375,0.06745178266525552
1765409674.550525,-12.517178999006363,0.7563498574869577,0.5480121808923372,0.4432923019547716,0.5324559759026365,0.06731093712378616
1765409674.550775,-12.51700914248941,0.7385476962334382,0.5583746504763725,0.4350137494008249,0.5136500351775198,0.06711462661277068
1765409674.551025,-12.511668455891044,0.7229264973325195,0.5665301784443724,0.42646414806395905,0.4947477472397498,0.06688015811226071
1765409674.551275,-12.500014643311234,0.7092301869936906,0.5710420016261099,0.4176220520451993,0.47580131074202725,0.06662677436299151
1765409674.551457,-12.481135003153643,0.6970230021166036,0.5707064364696821,0.4084754776249289,0.4568702813436918,0.06637454502663148
1765409674.551707,-12.454405280117351,0.6857377837342267,0.5646245762561323,0.3990230784064039,0.4380190992526898,0.06614325675949254
1765409674.551957,-12.419529108446444,0.6747335315263658,0.5522516745710073,0.3892746450479752,0.41931429397275116,0.06595137277272906
1765409674.552207,-12.376554702359506,0.6633580530358127,0.5334217114898254,0.3792508545729495,0.4008215681486499,0.06581511204333382
1765409674.552466,-12.32586771461026,0.6510115473198214,0.5083461369033028,0.36898225111143856,0.3826029599575843,0.06574766605380694
1765409674.552666,-12.268161536817109,0.6372075421905988,0.477587187316803,0.3585075103079447,0.3647142702476096,0.06575855479420885
1765409674.552866,-12.204388791353407,0.6216279166949487,0.44200864826938496,0.3478711148554866,0.34720293061484075,0.0658531350654588
1765409674.553066,-12.135699717390622,0.6041683937282961,0.4027098607628415,0.33712062665384107,0.33010647423208717,0.06603229004625197
1765409674.553266,-12.063373727201702,0.5849704909837347,0.360950244201636,0.3263037639378538,0.3134517282665845,0.06629231902654789
1765409674.553448,-11.988749676334173,0.5644363864650055,0.31807103294573086,0.3154654860797883,0.29725476743295065,0.06662501245190813
1765409674.553698,-11.913159308743982,0.5432246767177958,0.2754196680721279,0.30464527726371005,0.28152157986910054,0.06701787145685333
1765409674.553948,-11.837867471247081,0.522226927520589,0.2342814914059235,0.29387481112463665,0.26624933632506087,0.06745443339459527
1765409674.554198,-11.76402168874987,0.502526431554097,0.19582250817406496,0.28317615963390524,0.2514281263956337,0.06791468687688991
1765409674.554523,-11.692612298520174,0.48534137605842936,0.1610452629765491,0.27256067380790255,0.2370430034080236,0.06837558008180604
1765409674.554773,-11.62444311439555,0.47195498792719215,0.13075798423557056,0.26202862184234627,0.22307615021370955,0.06881162880236233
1765409674.555023,-11.560112049995928,0.46363572707902195,0.10555618460478962,0.25156963265118504,0.20950896626381257,0.0691956127051501
1765409674.555273,-11.500000985940808,0.46155156373997697,0.08581570236675047,0.24116395507299548,0.1963239029779779,0.06949931973260946
1765409674.555448,-11.444273967257343,0.46668365563427167,0.07169585412471098,0.23078449605502505,0.18350592385843234,0.0696942792923145
1765409674.555648,-11.392882627635354,0.47974580279331513,0.06315077965919956,0.22039954493183228,0.1710435137197137,0.06975243248222664
1765409674.555848,-11.345577743780744,0.5011163047544293,0.05994671536631509,0.2099760315838313,0.1589292099343908,0.06964671967955743
1765409674.556048,-11.301925953119964,0.5307881133419939,0.061683191575082,0.19948310956078283,0.14715969168180618,0.06935159676189308
1765409674.556248,-11.261330920473828,0.5683418866934473,0.06781704201930144,0.1888958083288443,0.13573553234867844,0.06884349900367735
1765409674.556489,-11.223058788504275,0.6129451819651028,0.07768944035060264,0.17819846905167835,0.1246607629290129,0.0681012626784131
1765409674.556739,-11.186268415168827,0.6633794736662919,0.09055725805576921,0.16738766980289058,0.11394238346690516,0.06710651032401546
1765409674.556989,-11.150047008504158,0.7180944003982598,0.10562985252668768,0.15647436576264154,0.10358989896541934,0.06584401404163893
1765409674.557239,-11.113450903718395,0.7752854709729735,0.12211058941907224,0.1454850308236815,0.09361487986564174,0.0643020594229433
1765409674.557455,-11.075549920408157,0.8329882649379199,0.1392400252650991,0.13446169089471993,0.08403049811324122,0.062472825069402466
1765409674.557705,-11.035472919003489,0.8891803523739262,0.15633635417678893,0.1234608605049617,0.07485099297534606,0.060352767575372925
1765409674.557955,-10.992452088621846,0.9418824542983553,0.17282905789170327,0.11255149541736748,0.06609106762333375,0.057942974263469525
1765409674.558205,-10.945863672509859,0.9892521722339499,0.18828299950071786,0.10181213487895358,0.05776527200409592,0.05524943458275124
1765409674.558457,-10.895262983375593,1.0296656559898458,0.2024116774946465,0.09132743399542587,0.04988745164870917,0.052283193447182796
1765409674.558657,-10.840411796128516,1.0617839339128827,0.2150796759226964,0.0811842972193729,0.04247032208467648,0.04906037795935104
1765409674.558857,-10.781296525120885,1.084601260166816,0.2262952028427075,0.071467830902313,0.0355251810881031,0.0456021133092476
1765409674.559057,-10.718135858428072,1.0974734252436271,0.23619383611039105,0.062257336903907994,0.02906172621128085,0.041934344369898874
1765409674.559257,-10.651376889878753,1.1001252484960578,0.2450146480639753,0.05362256315851304,0.023087922842898626,0.03808755586347018
1765409674.559459,-10.581679536277406,1.0926384152214106,0.2530703710918388,0.04562040682384709,0.017609869486230174,0.03409636069152883
1765409674.559659,-10.509889961652748,1.0754226080180358,0.26071405091665095,0.038292235013858505,0.012631622514292094,0.029998931309336944
1765409674.559859,-10.437004312201266,1.0491736286039082,0.2683049721789896,0.03166195325630849,0.008154961733665771,0.025836284502113314
1765409674.560059,-10.364124218267884,1.0148218536861993,0.27617628242073666,0.025734914732751978,0.0041790922555819295,0.021651467431295226
1765409674.560259,-10.292405816883411,0.9734737282396014,0.284606256069082,0.02049772182815841,0.0007002863195719735,0.0174887036449163
1765409674.560455,-10.22300482170838,0.9263488752005037,0.2937949315357529,0.015918923612129522,-0.0022885212464472185,0.013392540772756346
1765409674.560705,-10.157020933683087,0.8747158099933438,0.30384751889127964,0.011950561838305545,-0.004798151584598418,0.009407018437072952
1765409674.560955,-10.095445054442319,0.8198295786832259,0.31476513749763163,0.00853047310701061,-0.006843559971912112,0.005574864171415653
1765409674.561205,-10.039112474679156,0.7628743937276962,0.32644258761356315,0.005585225987391936,-0.00844410667879795,0.001936729092033727
1765409674.561435,-9.98866501170077,0.704913614182205,0.3386726927887788,0.0030335608007225536,-0.0096236574994162,-0.0014695165637889755
1765409674.561635,-9.944525034436786,0.6468486963446748,0.3511571374813801,0.0007901950506626707,-0.01041046699542562,-0.0046094083541503425
1765409674.561835,-9.906883895111532,0.5893883755029957,0.36352385948230104,-0.0012301554789084983,-0.010836820275897238,-0.007452427289006802
1765409674.562035,-9.875706072491115,0.5330292608718941,0.37535052821490156,-0.003108712870882566,-0.010938438936893455,-0.009972467390525581
1765409674.562235,-9.850748586848981,0.47804893421808226,0.3861928675234884,-0.004918724814161259,-0.010753691027561702,-0.01214825667809573
1765409674.562467,-9.831593566839521,0.4245123429187049,0.39561609267802256,-0.006721908250255624,-0.010322671676649277,-0.013963759686692287
1765409674.562667,-9.81769055234111,0.3722917947004852,0.4032274155973476,-0.0085654497133864,-0.009686231174550539,-0.015408582883458718
1765409674.562867,-9.808404238786215,0.3211002705429167,0.40870705657852974,-0.01047974602611292,-0.008885025106804693,-0.016478385409375053
1765409674.563067,-9.803063024806377,0.2705369926869786,0.4118347302255182,-0.012477037520949249,-0.007958653348971504,-0.017175267155321756
1765409674.563267,-9.80100408722119,0.22014306941394365,0.41250884035672314,-0.014551042224924735,-0.006944938191169816,-0.017508077007518025
1765409674.563504,-9.801611599471098,0.16946373229167475,0.41075663827531533,-0.01667764752557503,-0.0058793622777035745,-0.017492571602044857
1765409674.563754,-9.804345653573609,0.11811264029843241,0.40673455511880385,-0.018816656357553887,-0.0047946535501190365,-0.017151360026518334
1765409674.564004,-9.808760272822846,0.06583317728286558,0.40071842401834207,-0.020914516058306885,-0.00372048379935719,-0.01651357981194624
1765409674.564254,-9.814509928715065,0.012551349638916064,0.3930839325177368,-0.02290788288565854,-0.002683245796759415,-0.015614257646210584
1765409674.564512,-9.821345351462812,-0.041585375412730725,0.3842788117032016,-0.02472780416541336,-0.0017058822650063408,-0.01449332573608713
1765409674.564712,-9.829100709981702,-0.09618864113690438,0.3747894822126321,-0.02630424458076626,-0.0008077477957964929,-0.013194306520949118
1765409674.564912,-9.83767491615647,-0.1506328275115236,0.3651054926234856,-0.02757065060678427,-4.491273821934429e-06,-0.0117627392747188
1765409674.565112,-9.847009906830785,-0.2040822048180836,0.35568513055176953,-0.028468241869537336,0.0006920435869506317,-0.01024447420958614
1765409674.565312,-9.857068667123643,-0.25553850705923714,0.34692543291009265,-0.028949742817509,0.001273886265378986,-0.00868397671819316
1765409674.565513,-9.867815623611135,-0.30390322685391075,0.33913949384383246,-0.028982320729576908,0.0017369459528280354,-0.007122764621924859
1765409674.565713,-9.879201622678345,-0.3480479544144443,0.3325431839503836,-0.02854956907725615,0.0020809174971153912,-0.005598065578631683
1765409674.565913,-9.891154861112541,-0.3868863111950273,0.3272521358185083,-0.02765245817270968,0.002309052302296875,-0.004141752647423044
1765409674.566113,-9.903578081926774,-0.419441731745234,0.32328854163610693,-0.026309257757928518,0.002427775589757683,-0.002779599610424643
1765409674.566313,-9.916351430338992,-0.44490617965901774,0.3205962943723025,-0.024554509212727716,0.002446151172898353,-0.0015308842782538355
1765409674.56646,-9.92933963357502,-0.46268589694038537,0.3190621504456886,-0.022437181222274345,0.0023752145176149484,-0.000408347409508938
1765409674.56671,-9.942401490556263,-0.47243154272566046,0.31853969072611626,-0.020018180586543127,0.0022272147204144195,0.0005815127995304094
1765409674.56696,-9.955399155135016,-0.47405151327171996,0.3188722215715941,-0.017367412089100427,0.002014823593787021,0.001437858919158625
1765409674.56721,-9.968204784261738,-0.46770877347591644,0.3199110076178696,-0.014560589305981272,0.001750378487637857,0.002164716443467523
1765409674.568508,-9.980703012633114,-0.4538030596117997,0.32152652075690996,-0.011675990959336883,0.0014452217041645346,0.0027700442658349154
1765409674.568708,-9.99278907461135,-0.43294157509588405,0.32361218493025096,-0.008791336185135223,0.0011091871417709136,0.0032647570287980664
1765409674.568908,-10.004363639401841,-0.4059019853184204,0.32608170564784833,-0.005980922168005197,0.0007502677647432811,0.003661768163111489
1765409674.569108,-10.015326199370154,-0.37359149236616945,0.3288621501552923,-0.003313134243716914,0.00037447582696533105,0.003975099558492241
1765409674.569308,-10.02556903482716,-0.337005150010988,0.3318853580458844,-0.0008484036194087692,-1.4115146919007904e-05,0.004219080970049091
1765409674.568607,-10.034973318430415,-0.2971856130043729,0.33507992920137525,0.001362347699451637,-0.0004131731562879845,0.004407645991314789
1765409674.568807,-10.04340801915103,-0.25518552702830277,0.33836519553924854,0.0032787672313155164,-0.0008217864720779843,0.004553726140757579
1765409674.569007,-10.050731494843232,-0.21203315540231393,0.34164784358933253,0.004871653407131151,-0.0012400504234194795,0.004668751166896797
1765409674.569207,-10.056795457652479,-0.16870188488093518,0.34482155373336826,0.00612308802353367,-0.0016685979323467761,0.004762274435326796
1765409674.569407,-10.061451135073304,-0.1260847481797562,0.3477698324562821,0.0070261594138518015,-0.002108112473846155,0.004841742269445349
1765409674.569447,-10.064557412106868,-0.08497532856820586,0.3503717425621012,0.007584325634446538,-0.002558860246744851,0.004912406336440017
1765409674.569647,-10.06599044847398,-0.04605576163603704,0.35250969930830045,0.0078104767222841156,-0.003020275555683006,0.004977348149140783
1765409674.569847,-10.065654063665129,-0.009891193622815365,0.35407836877068666,0.00772576116484388,-0.0034906344109142014,0.00503756811992418
1765409674.570047,-10.06349016583157,0.02307112574428509,0.35499389494967337,0.0073582411858342505,-0.003966852366666459,0.005092104629724163
1765409674.570247,-10.059488365059496,0.052500153018122456,0.3552026582776072,0.006741436521110497,-0.004444435935206029,0.005138181898013384
1765409674.570449,-10.053693598493869,0.07817803326444257,0.354688444692234,0.005912811889980871,-0.004917600357760353,0.005171410762256905
1765409674.570649,-10.046210564304893,0.09999597101109915,0.353476862209951,0.004912260749763698,-0.0053795442486379,0.005186064143178059
1765409674.570849,-10.037204315011357,0.11794859644994916,0.3516364215932105,0.0037806348380678063,-0.005822848495700107,0.0051754258822002425
1765409674.571049,-10.026897088658197,0.13212642777245956,0.34927640576995145,0.002558363524337159,-0.006239947124613305,0.005132190835282837
1765409674.571249,-10.015561759697302,0.14270624543201893,0.34654186688442856,0.0012841990265307836,-0.006623608830881793,0.0050488912430427454
1765409674.571476,-10.003512173772293,0.14993925762264856,0.34360592272773827,-5.885733061478512e-06,-0.006967375527538866,0.004918335636297345
1765409674.571676,-9.991090562620993,0.15413691297589038,0.3406595094735659,-0.0012796279861346021,-0.007265922813230198,0.004734055494120839
1765409674.571876,-9.97865244209262,0.155654433351396,0.33789903014320327,-0.0025092201081568987,-0.007515322256546762,0.004490749434527707
1765409674.572076,-9.96654971713784,0.1548726966896033,0.3355126839738129,-0.0036718538529021895,-0.007713191417614294,0.004184698145997985
1765409674.572276,-9.95511303596597,0.15217970368941472,0.33366657771356056,-0.004750048346830063,-0.007858723955382542,0.0038141096616629835
1765409674.572461,-9.944634778525948,0.14795313390505807,0.3324920351832437,-0.005731750814959539,-0.00795260694497304,0.0033793549634538824
1765409674.572661,-9.93535428746398,0.14254532463417338,0.3320756186005897,-0.006610210395608191,-0.007996850140071246,0.002883068230902338
1765409674.572861,-9.927446765729616,0.1362715677558867,0.33245295539613473,-0.007383641343129954,-0.007994562444479447,0.0023301065257026314
1765409674.573061,-9.921016705009716,0.1294021528096847,0.3336066950141449,-0.0080547082428646,-0.007949711772218962,0.0017273820903565978
1765409674.573261,-9.916096184096174,0.12215819570887883,0.3354683743304619,-0.008629878288302043,-0.00786689798512669,0.0010835924759178318
1765409674.573452,-9.912648108158221,0.11471096341629132,0.3379238838177853,-0.009118690363176038,-0.007751155745712966,0.00040887962883497613
1765409674.573652,-9.910574190778812,0.10718410166385221,0.34082220512981903,-0.00953298584322928,-0.007607788102142913,-0.00028554901254150946
1765409674.573852,-9.909726966998589,0.0996579107726398,0.34398676888904706,-0.009886134227683634,-0.007442221350220032,-0.000987805793674515
1765409674.574052,-9.909924592848917,0.09217466390991808,0.3472283822571828,-0.01019227405247549,-0.007259874249850401,-0.0016856889299724299
1765409674.574252,-9.910966983855968,0.08474402064398481,0.35035857857837005,-0.010465581574035984,-0.007066044885943863,-0.0023670146331153004
1765409674.574436,-9.912651912639555,0.07734790238424627,0.35320236102672947,-0.01071957855358707,-0.006865823412829113,-0.003019912772802576
1765409674.574636,-9.914789748062725,0.0699446634706227,0.35560937005641857,-0.010966494402878273,-0.006664033307454541,-0.003633092535212236
1765409674.574836,-9.917215607391132,0.062472791088004284,0.35746259955890064,-0.01121670191041387,-0.006465194655358956,-0.004196087561622238
1765409674.575036,-9.919798040319561,0.05485454639044816,0.35868415295956124,-0.011478244751734003,-0.006273499191485427,-0.0046994882175503865
1765409674.575236,-9.922443875599454,0.04699996435703317,0.3592379724136666,-0.01175646930849619,-0.006092789846309777,-0.005135165085768743
1765409674.575461,-9.925099170336104,0.03881159115257269,0.3591296117404071,-0.012053768459511652,-0.005926543611914328,-0.005496484319189722
1765409674.575661,-9.92774624831161,0.030190282706802317,0.3584030309144319,-0.012369444924762754,-0.0057778614836200455,-0.005778511468138745
1765409674.575861,-9.930396952329415,0.021042242194996383,0.3571344746744188,-0.012699703947578965,-0.00564946987433048,-0.005978194873065028
1765409674.576061,-9.933082701676751,0.011287198885760906,0.3554238654585416,-0.013037783695667512,-0.0055437331774247905,-0.006094513236327963
1765409674.576261,-9.935842535624708,0.0008672990310333302,0.35338452524606706,-0.013374224926691724,-0.005462670538860867,-0.006128566128250538
1765409674.57649,-9.938710700396703,-0.010243980545348792,0.3511322884457988,-0.013697274007067765,-0.005407967579850359,-0.0060835832212056415
1765409674.57669,-9.941705396618113,-0.022033694791081554,0.34877526345723503,-0.01399341036577227,-0.0053809778248591995,-0.005964830686412362
1765409674.57689,-9.94482010198318,-0.034442835182387915,0.3464055822507879,-0.014247989058292417,-0.005382713547464136,-0.005779402820950114
1765409674.57709,-9.948018417133202,-0.047361923706578525,0.34409415289112577,-0.014445984917117146,-0.0054138253800666905,-0.00553590189021204
1765409674.57729,-9.951232711980927,-0.06062929618406186,0.34188868750646334,-0.014572814505644264,-0.005474565927158177,-0.005244024799548456
1765409674.577482,-9.954366285148817,-0.07403244687449013,0.33981461956237585,-0.014615200016589596,-0.005564732283174888,-0.004914086790213093
1765409674.577682,-9.957298563854357,-0.0873126895944113,0.3378783482168296,-0.014562029752242689,-0.005683588818520353,-0.004556518097968585
1765409674.577882,-9.959892898872276,-0.10017324096461766,0.3360723072847763,-0.014405162621594905,-0.0058297801178129206,-0.0041813706965368675
1765409674.578082,-9.962006393564007,-0.11229064036468203,0.33438123634246203,-0.014140117651318933,-0.006001249509325723,-0.0037978706731291523
1765409674.578282,-9.963500981395745,-0.1233292140668357,0.33278884602710684,-0.013766586526592156,-0.006195180498179757,-0.003414048339658124
1765409674.57851,-9.964254946041326,-0.13295805347855502,0.3312841678306932,-0.013288713409516663,-0.0064079762549624645,-0.0030364728185703757
1765409674.57871,-9.96417421588143,-0.14086966058314185,0.3298671304043452,-0.012715104104302965,-0.006635284918648682,-0.002670109625407002
1765409674.57891,-9.963202659530939,-0.14679902642702305,0.32855288737849636,-0.012058552265773008,-0.0068720691248882046,-0.002318308183135794
1765409674.57911,-9.96133020902163,-0.15054155923748028,0.3273741639879119,-0.01133549762724749,-0.007112714335422134,-0.0019829126700406825
1765409674.57931,-9.958597422410207,-0.1519681162642596,0.3263808469305067,-0.010565255351888493,-0.007351174138823261,-0.0016644764640590442
1765409674.57946,-9.955095418674691,-0.15103552292120762,0.3256363958763845,-0.009769073090021506,-0.007581153728000958,-0.0013625493952163276
1765409674.57966,-9.950960795883482,-0.14779139815999198,0.3252111500579791,-0.008969081556739816,-0.0077963277591479845,-0.0010760000421629835
1765409674.57986,-9.946365884667484,-0.14237275334832455,0.32517308725871075,-0.00818720717455789,-0.007990579474027192,-0.000803335376664465
1765409674.58006,-9.941505461044338,-0.13499851534243182,0.3255772063148887,-0.00744411406669856,-0.008158243427133923,-0.0005429884636621647
1765409674.58026,-9.936581784446203,-0.12595667153325635,0.3264553707714055,-0.006758237768429593,-0.008294336074877114,-0.00029355813519784453
1765409674.580494,-9.931790146215395,-0.11558710350237018,0.32780863883017647,-0.006144965067964649,-0.008394761504087906,-5.3995439850870875e-05
1765409674.580694,-9.927306668663082,-0.10426146559583717,0.3296034451432841,-0.005616006055377503,-0.00845648192714813,0.00017626434357022748
1765409674.580894,-9.923279135843178,-0.09236174844455977,0.33177187755835735,-0.005178996029658441,-0.008477647531673866,0.00039722527793698497
1765409674.581094,-9.919820813433008,-0.08025933647196343,0.3342154451721416,-0.004837352175827574,-0.008457687052675435,0.0006083079559816115
1765409674.581294,-9.917006855661672,-0.06829622945459127,0.33681141310349744,-0.0045903905236149515,-0.008397362150376722,0.0008083702933585049
1765409674.581541,-9.914872825644174,-0.056769634855942226,0.3394207002041041,-0.004433687101879891,-0.008298782642126195,0.0009957551786213183
1765409674.581741,-9.913414911626049,-0.04592058576493616,0.3418963644018415,-0.004359649189078227,-0.00816537283332372,0.001168349704356499
1765409674.581941,-9.912591701139668,-0.03592685805513456,0.3440920143425024,-0.004358248270686328,-0.008001778765082429,0.001323649757896527
1765409674.582141,-9.912327816758424,-0.026900280190508052,0.34587000239873644,-0.004417853622862443,-0.007813710558501344,0.0014588334138332293
1765409674.582341,-9.9125199132529,-0.018888374836372228,0.3471094964189502,-0.004526096897609681,-0.007607718949201296,0.0015708515868896786
1765409674.582481,-9.913045218720129,-0.01188001002166597,0.34771429378835667,-0.004670698829533547,-0.007390912156633872,0.0016565450310727146
1765409674.582681,-9.913772222394625,-0.005814432107193066,0.3476199345752283,-0.004840199922228199,-0.00717063089488293,0.0017127947159352426
1765409674.582881,-9.914572671608244,-0.0005928486990649039,0.34679966309223753,-0.005024553037729437,-0.006954110390954162,0.0017367076865406352
1765409674.583081,-9.915333768650587,0.003908334427972824,0.345268843325012,-0.005215551589744963,-0.006748160041870952,0.0017258330201686983
1765409674.583281,-9.915969166644215,0.007823518926255895,0.34308718949947975,-0.005407079528488647,-0.00655888295545925,0.0016783947625080631
1765409674.583534,-9.916427175970139,0.011284065051293589,0.3403578938019698,-0.005595179282670476,-0.006391447337303275,0.0015935224388901972
1765409674.583734,-9.916694897069812,0.014405502861501019,0.33722301822946055,-0.005777944414081187,-0.0062499164327820015,0.0014714548355859362
1765409674.583934,-9.916797831183496,0.017276687052371103,0.3338553604721957,-0.005955256790054294,-0.006137141652449625,0.0013136897132319302
1765409674.584134,-9.916795386861791,0.019951667622505474,0.3304477133687489,-0.0061284018299029306,-0.006054718876664741,0.0011230528518865416
1765409674.584334,-9.916773126932588,0.02244486932153669,0.32720053966405493,-0.006299605621646745,-0.006003000460555123,0.0009036660972027949
1765409674.584469,-9.91683265964038,0.02472996603311243,0.3243088598705578,-0.00647154085921072,-0.005981150959698733,0.0006608059506298569
1765409674.584669,-9.917080150614606,0.02674260634798811,0.3219491494983451,-0.0066468444077102075,-0.0059872367067084365,0.0004006595170310032
1765409674.584869,-9.917614648466026,0.02838686391331358,0.3202673508222512,-0.0068276813183925835,-0.006018344490765935,0.00012999961559548453
1765409674.585069,-9.918517529523287,0.02954494552737363,0.31936930689948306,-0.007015382382670682,-0.006070727240189483,-0.00014418761123330284
1765409674.585269,-9.919844139333195,0.030089327547096298,0.31931466051786006,-0.007210176528561675,-0.006139974675670212,-0.00041508290198910374
1765409674.585493,-9.921618235362585,0.02989616293494854,0.32011462331385687,-0.007411035043171635,-0.006221207889597024,-0.0006763821050467582
1765409674.585693,-9.923829410317877,0.028858584423738547,0.3217333901342239,-0.007615640155619532,-0.006309298657621051,-0.0009225794640707436
1765409674.585893,-9.926433432006942,0.026898516448428333,0.3240925989659111,-0.00782048323153957,-0.006399112647413297,-0.001149165202211113
1765409674.586093,-9.929355244700266,0.023975841700122957,0.327078067489973,-0.008021085606845476,-0.00648576862473091,-0.0013527300605649885
1765409674.586293,-9.932494096551391,0.020094174617089747,0.33054791466667477,-0.008212319386752856,-0.006564897455565951,-0.0015309804614259367
1765409674.586517,-9.935729986359153,0.015302925403083006,0.3343411138295646,-0.008388791963629984,-0.006632881101698236,-0.0016826763931456774
1765409674.586717,-9.93893062467399,0.009695689489000339,0.33828571375875455,-0.00854525298480213,-0.006687054613454444,-0.0018075112636141352
1765409674.586917,-9.941958465676784,0.003405273958220036,0.3422064428021715,-0.008676987071529096,-0.006725859824248735,-0.0019059578219242685
1765409674.587117,-9.944677811852255,-0.00340407253532132,0.3459318710917185,-0.008780163236084337,-0.006748942882320216,-0.0019791036962957262
1765409674.587317,-9.946962153539138,-0.010546430344423846,0.34930141694322253,-0.008852116107098743,-0.006757186906956243,-0.002028493548159421
1765409674.58747,-9.948701727516994,-0.01782504492628881,0.35217229353506213,-0.008891535892281028,-0.006752669411397314,-0.00205598617946795
1765409674.58767,-9.949811019000771,-0.025043277674739,0.3544262966018977,-0.008898549347749663,-0.006738537090214338,-0.002063628481079766
1765409674.58787,-9.950235758536724,-0.03201478881854954,0.355976222578463,-0.008874686057206175,-0.006718798772793542,-0.002053545094743399
1765409674.58807,-9.949958794135716,-0.03857218254315148,0.3567715000082128,-0.00882274072064836,-0.00669804611721545,-0.002027842355461153
1765409674.58827,-9.94900400609216,-0.04457351986854004,0.35680228858672525,-0.008746556334749326,-0.006681117905781214,-0.001988526512987457
1765409674.588488,-9.947437402037094,-0.04990636909514706,0.35610117307245664,-0.008650758897349668,-0.006672729461582775,-0.0019374381861416757
1765409674.588688,-9.945364901705766,-0.054489381168041445,0.35474190006701584,-0.008540471388626389,-0.006677095199255706,-0.0018762060459570516
1765409674.588888,-9.942926933007394,-0.0582716589739056,0.3528351379344986,-0.008421028433746841,-0.006697577202019924,-0.0018062214831572952
1765409674.589088,-9.940290406638528,-0.06123036059792699,0.35052157285889834,-0.008297707589044787,-0.006736393648369699,-0.001728632545653341
1765409674.589288,-9.937638736851707,-0.0633670302449475,0.34796275896813633,-0.008175489284270962,-0.006794418582618134,-0.0016443527263804852
1765409674.589451,-9.935160504966836,-0.06470313887381617,0.34533028712293695,-0.008058854031658257,-0.0068710988516966385,-0.0015540811391627557
1765409674.589651,-9.93303731793729,-0.06527528572996412,0.342794063717677,-0.007951622153698356,-0.00696450167700645,-0.0014583332538902092
1765409674.589851,-9.931431403717657,-0.06513046853484068,0.34051055181951245,-0.007856838885527453,-0.007071486614931633,-0.001357481346253397
1765409674.590051,-9.930473493658436,-0.06432178233749279,0.33861167958043475,-0.007776707430264888,-0.007187976091060856,-0.0012518013209098938
1765409674.590251,-9.930251694757626,-0.06290487683325204,0.3371950820110828,-0.007712574340545517,-0.0073092883165794716,-0.0011415220769453393
1765409674.590427,-9.93080241339785,-0.06093546140659084,0.3363165780199637,-0.007664973281097221,-0.007430495008646911,-0.001026877345478628
1765409674.590677,-9.93210469006616,-0.05846802575252412,0.33598595264992454,-0.00763373038147022,-0.007546766986271363,-0.000908164863972393
1765409674.590927,-9.934079151320619,-0.05555574375849862,0.3361668181776533,-0.007618123832846244,-0.007653672266949414,-0.0007858188518698966
1765409674.591177,-9.936592154081366,-0.052251344569142565,0.33678068704130304,-0.007617075503809512,-0.007747400123457727,-0.0006604967878949895
1765409674.591454,-9.93946493594692,-0.04860862949868174,0.33771480801498366,-0.007629341835291014,-0.007824901708842204,-0.0005331725546029279
1765409674.591654,-9.942486957951452,-0.04468426646526929,0.33883292666024234,-0.007653671331093993,-0.007883954295396733,-0.0004052199148327972
1765409674.591854,-9.94543217695161,-0.040539491029991874,0.33998785953004884,-0.00768890616294892,-0.007923165395496238,-0.0002784677850504406
1765409674.592054,-9.948076792868111,-0.036241397918237966,0.34103470060400354,-0.0077340208070003575,-0.007941937759912913,-0.0001552136374732301
1765409674.592254,-9.950217145367155,-0.03186358804102488,0.34184367236383306,-0.007788104890390508,-0.00794041807961161,-3.8190106737035604e-05
1765409674.592406,-9.95168663247079,-0.0274860020579257,0.34231180169519,-0.007850305825236326,-0.007919446625204222,6.951423351660346e-05
1765409674.592606,-9.952370423978932,-0.02319385780666929,0.34237242267874385,-0.007919749099054078,-0.007880511917175738,0.00016457887557927897
1765409674.592806,-9.952216439857606,-0.0190757534562538,0.3420012230418519,-0.007995453614251281,-0.007825702695349376,0.0002436202237250505
1765409674.593006,-9.951241074035176,-0.015221125355202954,0.34121773168095826,-0.008076258600894823,-0.007757645666733694,0.00030340130424682713
1765409674.593206,-9.949528700700608,-0.011717259189024536,0.3400818813293634,-0.008160776950195434,-0.007679419210085233,0.0003410688282456467
1765409674.593431,-9.947224794363994,-0.008645977642760694,0.33868608898179203,-0.008247386356917755,-0.007594436548137221,0.00035439406798174817
1765409674.593598,-9.94452322466774,-0.006080095081790084,0.33714388490342473,-0.008334263801101095,-0.00750629842944371,0.0003419882146285413
1765409674.593764,-9.94164898650653,-0.0040798070479792165,0.33557663484989747,-0.008419459944084476,-0.00741862603977687,0.0003034635147797692
1765409674.593931,-9.93883825915101,-0.0026893166926108946,0.3341002950465378,-0.008500999386366054,-0.007334893797174586,0.0002395186409544636
1765409674.594098,-9.936317921551186,-0.0019340839980608304,0.33281401751545336,-0.008576985480505001,-0.007258281975657221,0.0001519381240663614
1765409674.594264,-9.93428633499241,-0.0018190425900398456,0.33179173433677484,-0.008645689256251893,-0.007191561892358546,4.350732999275789e-05
1765409674.594434,-9.932896673113751,-0.002327966738348481,0.33107712192024114,-0.008705610486479753,-0.007137018441969994,-8.214630987214287e-05
1765409674.594634,-9.93224368589402,-0.003423967952644092,0.33068195334846234,-0.008755509361600421,-0.007096408514444224,-0.00022076813242979986
1765409674.594834,-9.932354476970406,-0.005050964216047854,0.33058757540398415,-0.008794413947292686,-0.007070946464213564,-0.0003677234014731777
1765409674.595034,-9.933183510329675,-0.0071359466127535924,0.3307488793677143,-0.008821610966617582,-0.007061299538087301,-0.0005182492522432221
1765409674.595234,-9.934611815194549,-0.009591923669643884,0.33109994522445496,-0.008836629015084361,-0.007067571705792289,-0.0006676867300362285
1765409674.595495,-9.936450432163006,-0.012321467444498984,0.3315607820815566,-0.008839225484009516,-0.0070892557241993715,-0.0008116786003041472
1765409674.595745,-9.938448311428884,-0.015220769073282769,0.33204491978228606,-0.008829388166962698,-0.007125139248144708,-0.0009463296098367287
1765409674.595995,-9.940304723141983,-0.018184052010004115,0.332467562251779,-0.008807357223694577,-0.0071731623181037155,-0.001068329766493732
1765409674.596245,-9.94168579671462,-0.021108138740749894,0.3327537336866521,-0.008773664743327404,-0.0072302409175034315,-0.0011750379369687817
1765409674.596468,-9.94224447941827,-0.023896952314938404,0.33284578593749403,-0.008729180908644631,-0.007292087355320379,-0.0012645187758910687
1765409674.596668,-9.941643149278855,-0.026465750891578297,0.3327098219911171,-0.008675149286323649,-0.00735306378047208,-0.001335526579774892
1765409674.596868,-9.939578088005923,-0.028744918409820134,0.3323407559661327,-0.008613191476640759,-0.007406100424150253,-0.0013874373784402462
1765409674.597068,-9.935804855597025,-0.030683142091243183,0.3317658550332648,-0.00854526754829852,-0.007442703976253856,-0.0014201428199265341
1765409674.597268,-9.930163388867335,-0.03224978353338792,0.331046792686091,-0.008473592710166192,-0.007453078687209565,-0.0014339294055483345
1765409674.597501,-9.922601332923149,-0.03343622636126178,0.33028026389611487,-0.008400523579361536,-0.007426378433019556,-0.0014293684424528175
1765409674.597701,-9.913193545755501,-0.03425602019119019,0.3295968112615497,-0.008328430957416961,-0.007351096858394349,-0.0014072358093905602
1765409674.597901,-9.902155086685987,-0.034743739740374,0.32915697954010337,-0.008259571472820311,-0.007215589166197716,-0.0013684711724525718
1765409674.598101,-9.88984488408867,-0.03495257340542372,0.3291438613380096,-0.008195964974206665,-0.007008710175087744,-0.0013141774529271196
1765409674.598301,-9.876757987296054,-0.0349507166079618,0.3297516687321425,-0.008139282883581381,-0.0067205458631938155,-0.0012456541085376007
1765409674.598471,-9.86350556908533,-0.03481670992412225,0.3311707772499228,-0.008090754307537674,-0.006343200654602656,-0.0011644530420802017
1765409674.598671,-9.850783222375602,-0.034633953241776316,0.33357042144895444,-0.008051098316663459,-0.005871580292785766,-0.0010724445943024793
1765409674.598871,-9.83932934805393,-0.03448470341864828,0.3370808065149017,-0.008020490165039924,-0.005304091571178782,-0.0009718818936004587
1765409674.599071,-9.829876385238945,-0.03444387417815283,0.34177666944371465,-0.007998566618389068,-0.0046431745738168256,-0.0008654523747878776
1765409674.599271,-9.823098147589317,-0.034572910722350844,0.34766406109181747,-0.007984472064343273,-0.0038955902295271937,-0.0007563041234349865
1765409674.599495,-9.819556800208373,-0.03491396519676043,0.3546715355274447,-0.007976942616800181,-0.0030724035271536,-0.0006480321548182245
1765409674.599695,-9.819653545755706,-0.03548462154549063,0.3626465703457047,-0.007974420079456486,-0.002188631068469267,-0.000544607324741364
1765409674.599895,-9.823587989043647,-0.03627360107861551,0.37135805674750794,-0.007975183496210209,-0.0012625584895826082,-0.00045023003416867026
1765409674.600095,-9.831331672495832,-0.03723829640689517,0.3805056022318168,-0.00797748570956013,-0.0003147725277394656,-0.0003690957090988858
1765409674.600295,-9.84262047791317,-0.03830543184741269,0.3897356913647251,-0.007979685725284541,0.0006330093295852544,-0.0003050771974310799
1765409674.600463,-9.85696831911586,-0.03937602336273063,0.39866356150960436,-0.007980370795927191,0.0015591965958285353,-0.00026136404434998244
1765409674.600663,-9.873701464926228,-0.0403346365221706,0.4068985317948338,-0.007978460895783628,0.002443545943737445,-0.00024013110497666599
1765409674.600863,-9.892009746614981,-0.04106118890334161,0.41407002393888176,-0.007973284873138201,0.0032682423853174387,-0.00024230711519930228
1765409674.601063,-9.911008555466639,-0.041442496051947095,0.4198518320489925,-0.007964620370068448,0.004018778729086953,-0.00026747181542248136
1765409674.601263,-9.929804548032168,-0.04138133731762798,0.42398293545973403,-0.00795270066658304,0.004684591239710745,-0.00031386092818541645
1765409674.601479,-9.947558378819936,-0.04080262866606743,0.426283533383256,-0.007938198759792866,0.005259408763876872,-0.0003784391396541194
1765409674.601679,-9.96353890745082,-0.039657813853250894,0.42666481843570275,-0.007922191248004003,0.005741282765551989,-0.0004570218254863932
1765409674.601879,-9.977164671660233,-0.03792845320702145,0.42513113245457435,-0.007906091276580896,0.006132309771529579,-0.0005444638288500977
1765409674.602079,-9.98803011812188,-0.0356284748664474,0.42177433695813216,-0.007891539538000522,0.006438114147678147,-0.0006349467775993311
1765409674.602279,-9.995916206182493,-0.03280354769249767,0.41676197360260886,-0.007880256729352862,0.006667184563153334,-0.0007223617101405876
1765409674.602454,-10.000786908533014,-0.0295269445513266,0.41032180138525204,-0.007873874290104724,0.0068301399417501,-0.0008007300476212295
1765409674.602654,-10.002774069503232,-0.025893223133142292,0.40272498160207815,-0.007873762236248711,0.006938969871958245,-0.00086458977614967
1765409674.602854,-10.002153073164079,-0.022011909250157866,0.3942690903418982,-0.007880868071392034,0.007006278189706349,-0.0009093117242447216
1765409674.603054,-9.999311556887351,-0.018002261072420814,0.38526121492234405,-0.007895577614553121,0.007044555087962558,-0.0009313590216085922
1765409674.603254,-9.9947135527265,-0.013988434511448196,0.37600117901405244,-0.007917608858074032,0.007065502524143546,-0.0009285106825653803
1765409674.603492,-9.988861850169892,-0.010093805367563376,0.3667653922594925,-0.007945951184904335,0.007079440283913848,-0.0009000372226787777
1765409674.603692,-9.98226162223527,-0.006434278168929019,0.35779249323017015,-0.00797886359953383,0.007094823828344571,-0.0008467850172825875
1765409674.603892,-9.975388215695787,-0.0031119638686814676,0.3492723316454216,-0.008013945016031225,0.007117899222788996,-0.0007711323909571475
1765409674.604092,-9.968661499687,-0.00021113108372371148,0.34133963447527516,-0.008048281473962254,0.00715250437054634,-0.0006768199009001585
1765409674.604292,-9.962428327839485,0.0022026907615811226,0.3340729997888127,-0.008078659295522874,0.007200014166203949,-0.0005686958100769039
1765409674.604461,-9.956953547270798,0.0040812892100904295,0.3274989589517164,-0.008101820518672562,0.0072594255646856965,-0.00045242417721851535
1765409674.604661,-9.95241886632866,0.005391810313519366,0.32160007134566493,-0.008114736390837233,0.007327572714283055,-0.00033417552952174864
1765409674.604861,-9.948928159713269,0.006115534399784607,0.316325612061331,-0.008114880418770641,0.007399444461159605,-0.0002202877116861724
1765409674.605061,-9.94651751240833,0.006247330133585616,0.3116034249669387,-0.008100482672129665,0.007468562577291538,-0.00011688130559076501
1765409674.605261,-9.945168241805863,0.005794892423471773,0.3073517880149877,-0.008070741218384815,0.007527384618836648,-2.944716392639728e-05
1765409674.605489,-9.944821177668997,0.004777213093165741,0.3034904831527763,-0.008025964491866983,0.007567712799643617,3.7534919845247575e-05
1765409674.605689,-9.945390681777225,0.0032227451280536644,0.29995049596609225,-0.007967625051252697,0.007581103676451993,8.08758810240656e-05
1765409674.605889,-9.946777172325167,0.0011682719002868598,0.29668173819130894,-0.007898316214001487,0.007559278816880067,9.881635181660077e-05
1765409674.606089,-9.948877161914096,-0.001341011548521047,0.293658015657984,-0.00782161353033241,0.007494536182541093,9.10353001883787e-05
1765409674.606289,-9.951590177830093,-0.004250768128215131,0.2908786008100845,-0.007741851858167715,0.007380154009364293,5.8566682591340535e-05
1765409674.606473,-9.954822590020004,-0.007497320776952046,0.28836643351465857,-0.007663835541090917,0.0072107643218402495,3.6539933363767772e-06
1765409674.606723,-9.958489049251934,-0.011008794449386338,0.28616375100518027,-0.007592503504553437,0.006982660531655438,-7.045038299916007e-05
1765409674.606973,-9.962512432104257,-0.014707416893903421,0.2843262543957956,-0.007532574179226009,0.006694000510727592,-0.00015974071924129948
1765409674.607223,-9.966822880818071,-0.018512059784722933,0.2829167185058844,-0.007488198094442492,0.006344874054636265,-0.00025975221584584405
1765409674.607472,-9.971356210665991,-0.022340183027094958,0.28199864657374546,-0.0074626473491081,0.00593722187444764,-0.0003658593415610694
1765409674.607639,-9.976051908318194,-0.026109067585729905,0.28163035139491266,-0.00745806885709057,0.0054746212157023525,-0.00047354280328978807
1765409674.607805,-9.980850932510181,-0.029736890660205854,0.2818596130742329,-0.007475322734941833,0.004961980480050997,-0.0005786073303998089
1765409674.607972,-9.985693388728974,-0.0331442542306811,0.2827188881991551,-0.007513920831167384,0.004405196752719456,-0.000677352896563916
1765409674.608139,-9.990516072370921,-0.03625625169572745,0.2842210988164055,-0.00757207381227333,0.0038108233709164214,-0.0007667099795197334
1765409674.608305,-9.995249976574316,-0.03900456490603716,0.28635618363046306,-0.007646846823394371,0.0031857822106006596,-0.0008443417431176921
1765409674.608437,-9.999817996056125,-0.041328987967975725,0.289088619813273,-0.007734412912401011,0.002537146620224225,-0.0009087013587516331
1765409674.608637,-10.004133165040225,-0.043178298238357504,0.29235611637983294,-0.007830380958828789,0.0018720099498912301,-0.0009590248754103102
1765409674.608837,-10.008097925660955,-0.04451107082276773,0.296069792349383,-0.00793016144391271,0.0011974334443556368,-0.0009952490093234313
1765409674.609037,-10.011605023101085,-0.045297227787092983,0.30011620162091135,-0.008029321875121072,0.0005204434495020252,-0.0010178670229175253
1765409674.609237,-10.014540429150498,-0.04552062896833906,0.3043613463931701,-0.008123881136127078,-0.0001519621404162512,-0.0010277598893123942
1765409674.609421,-10.016788260944809,-0.04518220961436072,0.3086564926357869,-0.008210504674887289,-0.0008128291715029081,-0.001026047007096269
1765409674.609754,-10.018237282131063,-0.044302625233025805,0.3128453979324768,-0.008286588155844987,-0.0014552970756442642,-0.0010139853189859885
1765409674.610088,-10.018788358160752,-0.04292345167225832,0.3167724521474548,-0.008350245160050899,-0.0020726817912267385,-0.000992918927722097
1765409674.610429,-10.018362099969528,-0.04110661481007085,0.3202911594140595,-0.008400232815071284,-0.0026585854885004738,-0.0009642612816005878
1765409674.612451,-10.016905889238313,-0.0389323624487913,0.32327244696527657,-0.0084358530763891,-0.003207029431318034,-0.0009294888840753381
1765409674.615507,-10.014399574457517,-0.036496255106136584,0.3256123807311062,-0.008456859902570852,-0.0037126101404417458,-0.0008901353759715343
1765409674.617469,-10.010859221956292,-0.03390537306869707,0.3272387089386192,-0.008463389548698517,-0.004170678685551363,-0.0008477861199690748
1765409674.618457,-10.006338328874504,-0.031273638931851935,0.32811532726011117,-0.008455917521216137,-0.004577537546696572,-0.0008040770219588124
1765409674.622506,-10.000926080016555,-0.028716161807820315,0.32824380460194635,-0.00843523558652781,-0.0049306420417909455,-0.0007606960533024535
1765409674.625486,-9.994742739399102,-0.02634283894790984,0.3276617788069228,-0.008402438536083502,-0.005228786983317051,-0.0007193777589544185
1765409674.627448,-9.987932887129968,-0.024251913007247623,0.3264388782393927,-0.008358912557468838,-0.0054722552649842035,-0.0006818782742072125
1765409674.630444,-9.9806575311858,-0.02252446675409146,0.32467122836929585,-0.008306321091715323,-0.0056629036228477364,-0.0006499246674350721
1765409674.632548,-9.973085987852999,-0.021220668830529945,0.3224754079536382,-0.008246586451875239,-0.005804162607579166,-0.0006251433108801418
1765409674.633441,-9.965388058523377,-0.020378009914799884,0.3199822691459108,-0.008181865695297764,-0.005900933877412678,-0.0006089790375476716
1765409674.637371,-9.957726786663548,-0.020011178270425898,0.31733075541029626,-0.008114518567608302,-0.0059593768649564925,-0.0006026147794436742
1765409674.640487,-9.95025208574221,-0.02011301260246592,0.3146618603302298,-0.008047065275255305,-0.005986585393164336,-0.0006068924118983999
1765409674.642453,-9.94309559190585,-0.020656210976389196,0.31211296681222145,-0.007982133247742442,-0.005990163767043727,-0.0006222287643642063
1765409674.645473,-9.936366990740733,-0.021595870377129768,0.3098127859649586,-0.007922393548836488,-0.005977726861426175,-0.0006485248467562688
1765409674.647488,-9.930151830002988,-0.02287305126023883,0.30787697355600396,-0.007870486414853328,-0.005956369473626318,-0.0006850799034472422
1765409674.650502,-9.92451063798547,-0.024419231991364043,0.3064043352619225,-0.00782893183751683,-0.005932165227680628,-0.0007305332439767019
1765409674.652508,-9.919479112604371,-0.02616103023504381,0.3054734627692942,-0.007800019418618513,-0.005909754117358021,-0.0007828550904716339
1765409674.65675,-9.915069238164131,-0.028024404682490713,0.30513980910219934,-0.007785674771270072,-0.005892062591290665,-0.0008393934787084744
1765409674.657533,-9.91127137338925,-0.029937894379814214,0.30543356000769434,-0.00778730601400401,-0.005880179971636751,-0.0008969687414315976
1765409674.660478,-9.908057455581364,-0.03183502271037983,0.3063588430942696,-0.0078056406402317625,-0.005873394914868664,-0.0009520021923056042
1765409674.662497,-9.905385308841003,-0.03365632958574287,0.3078945960456306,-0.007840568802464839,-0.00586937663979479,-0.001000673502749617
1765409674.665517,-9.903203716928642,-0.035351363957735485,0.3099969952351039,-0.007891012826382021,-0.00586447026191306,-0.001039111698226923
1765409674.667523,-9.901457682769994,-0.03688052718768384,0.312603055365523,-0.007954843801668181,-0.005854066816717485,-0.0010636239555588223
1765409674.67046,-9.900093255747484,-0.038216302563558874,0.3156348888131719,-0.008028864214876759,-0.005833006488764676,-0.0010709507889439098
1765409674.672501,-9.899061396445871,-0.03934344986535433,0.319004086303823,-0.008108869802848275,-0.005795977164666298,-0.00105851639473454
1765409674.675481,-9.89832053049095,-0.040258163166158815,0.32261580853069477,-0.008189792829111921,-0.00573787989998231,-0.0010246341290785232
1765409674.677434,-9.89783770148515,-0.04096663185707068,0.3263724285672059,-0.008265914967864467,-0.005654145698876004,-0.0009686360050483418
1765409674.680469,-9.897588430608318,-0.04148352983901595,0.3301766756627876,-0.008331126797336113,-0.005540997927420879,-0.000890915362510263
1765409674.682464,-9.897555422780966,-0.04183064526105049,0.3339341114474051,-0.008379207688699236,-0.0053956594542009925,-0.0007928906804826332
1765409674.685464,-9.89772628772314,-0.04203547986742174,0.33755473786328516,-0.008404105590836604,-0.005216506200671458,-0.0006769071553417223
1765409674.687444,-9.898090690460046,-0.042129535531455535,0.34095384807435575,-0.00840020682499409,-0.0050031689761757285,-0.0005460916485348947
1765409674.688518,-9.89863770293769,-0.04214621777740534,0.34405264910481387,-0.008362594103714248,-0.004756580513335683,-0.0004041722571644531
1765409674.692495,-9.89935425744369,-0.04211861227504283,0.34677932642412185,-0.008287291285001563,-0.004478957876277981,-0.000255272263884265
1765409674.694621,-9.900225347970235,-0.042077570369690676,0.3490710426007714,-0.0081714876362417,-0.004173708739249891,-0.00010369210537226496
1765409674.697492,-9.901236085272751,-0.04205043901088807,0.35087699126290256,-0.008013729032771756,-0.003845254756514037,4.630078456858612e-05
1765409674.700442,-9.902375047674616,-0.042060457755920454,0.35216209394758763,-0.007814062594786375,-0.003498774136759152,0.00019065304299982602
1765409674.702437,-9.903637820553605,-0.042126536795206525,0.3529103994534833,-0.007574123695513843,-0.003139878799821913,0.0003256636372094821
1765409674.705463,-9.905029489335808,-0.04226302348602098,0.3531271195592927,-0.007297157118610439,-0.002774257874747753,0.0004480776641321385
1765409674.707465,-9.906565212549467,-0.0424792107939039,0.35283863248183656,-0.00698796588809772,-0.002407331383164322,0.0005551432509839384
1765409674.71047,-9.908268558112622,-0.04277863281845933,0.3520903264031561,-0.006652782327621851,-0.0020439587468289626,0.0006446424142754121
1765409674.711528,-9.910167753816173,-0.04315844694590648,0.35094250991420756,-0.006299057800613246,-0.0016882371308546728,0.0007149053588877036
1765409674.717017,-9.912290385465273,-0.04360926852474519,0.3494648729583119,-0.0059351716390948165,-0.0013434098024017384,0.0007648134399942725
1765409674.717474,-9.914657412959842,-0.04411567072473889,0.3477302400231743,-0.0055700658937285165,-0.0010118879637668104,0.0007937910202654731
1765409674.720494,-9.917277511413378,-0.044657296155717945,0.3458084247193307,-0.005212820091744654,-0.0006953730323527194,0.0008017841714664187
1765409674.722437,-9.920142581313057,-0.045210328532655907,0.34376077691295864,-0.004872189013306543,-0.00039505370627747143,0.0007892265667891647
1765409674.725483,-9.923224999243295,-0.0457490703220755,0.3416357789238446,-0.004556135954324898,-0.00011184627644936244,0.0007569974689415317
1765409674.727518,-9.926477006482198,-0.04624753777522897,0.3394659979375217,-0.004271401362788478,0.00015335382680901688,0.0007063785214294639
1765409674.730474,-9.92983245263297,-0.04668115166206221,0.33726663616700264,-0.004023148173132414,0.00039944012875716626,0.0006390127602849444
1765409674.731491,-9.93321074418204,-0.047028601474439526,0.33503565034953786,-0.0038147187464656015,0.0006249121233718689,0.0005568632184644343
1765409674.735446,-9.936522456536364,-0.047273761931903455,0.3327551999970894,-0.0036475259565130415,0.0008277661421733169,0.0004621644216935645
1765409674.737468,-9.939675982742123,-0.04740728977781832,0.33039435445771337,-0.003521085710323735,0.0010054766223649386,0.00035736111610556965
1765409674.740489,-9.942584763454223,-0.047427456120508006,0.32791330437539123,-0.0034331817388115527,0.0011550736447277082,0.00024503427855937087
1765409674.742487,-9.945174669261942,-0.047339999154853,0.3252692123334211,-0.0033801373460861832,0.001273311192268404,0.00012782183549634013
1765409674.745524,-9.947390855908646,-0.04715718470758986,0.3224232296553144,-0.003357155788074793,0.0013569081427989762,8.34669907141447e-06
1765409674.747547,-9.94920322353941,-0.04689653048373866,0.3193476723908754,-0.0033586843414881566,0.0014028324032151203,-0.0001108356262994541
1765409674.750508,-9.950609747186048,-0.04657957860802394,0.31603230405872124,-0.003378759697243737,0.001408592623773911,-0.00022726412628195505
1765409674.752501,-9.951637245659404,-0.04623078471073938,0.31248891342441304,-0.0034113047610571717,0.0013725035516527484,-0.0003385773905863079
1765409674.753555,-9.95233941239308,-0.04587633561449233,0.30875361159220893,-0.0034503649470620673,0.0012938968126992877,-0.0004425063651456735
1765409674.757557,-9.952792232623787,-0.04554275496481264,0.3048865897636127,-0.0034902872727071398,0.0011732549714472593,-0.0005368653516368984
1765409674.760529,-9.953087336624973,-0.04525547338449124,0.3009695568614095,-0.003525852395936985,0.0010122536147396989,-0.00061954998537377
1765409674.762581,-9.95332414546226,-0.045037826154709304,0.29710141071423596,-0.003552369483683445,0.0008137066213361156,-0.0006885502463052913
1765409674.7655,-9.953601611072415,-0.044910873618362095,0.2933926327143626,-0.00356574118655175,0.0005814235180045687,-0.0007419881267269543
1765409674.767696,-9.954010126269647,-0.04489396187427875,0.28995871528793926,-0.003562504324835851,0.00032000045281430355,-0.0007781897622244616
1765409674.770504,-9.95462416461158,-0.045005349978328384,0.2869130602173043,-0.0035398521660284545,3.457357004912718e-05,-0.0007957956229247305
1765409674.771499,-9.955496402831612,-0.045261971221412456,0.28436012813293204,-0.003495645246813983,-0.00026943484108577257,-0.0007938990688926605
1765409674.775505,-9.95665409771848,-0.04567772619215313,0.28238971114672473,-0.0034284172145227216,-0.0005865502948711502,-0.0007721890595404215
1765409674.777503,-9.958098131851143,-0.04626046485865938,0.2810728762064274,-0.0033373799745722017,-0.0009114420521008713,-0.0007310651596393297
1765409674.778515,-9.959804620082013,-0.047008526293903063,0.28045964152461916,-0.0032224303957291457,-0.0012390762754059842,-0.0006716963320035703
1765409674.782528,-9.961728567184043,-0.04790794498614551,0.2805780650916207,-0.003084158075306842,-0.0015648327639190178,-0.0005960078542803687
1765409674.783491,-9.963808870528464,-0.048931140871945604,0.28143424572461506,-0.0029238476626534315,-0.0018845955114965337,-0.0005065980343302423
1765409674.786472,-9.965973955587453,-0.05003735208621825,0.2830128368711839,-0.0027434624687150922,-0.0021948251629388435,-0.0004066016046099454
1765409674.790488,-9.968147500649888,-0.051174580674847765,0.28527802640176314,-0.002545595428067883,-0.002492616972857905,-0.00029952379868241583
1765409674.792508,-9.970253930758423,-0.05228261616615607,0.2881752597719034,-0.0023333814469828364,-0.00277574281388719,-0.0001890666703114143
1765409674.795522,-9.972223431512145,-0.05329679549099709,0.2916339533840369,-0.002110376170927835,-0.003042670833182511,-7.89615290958892e-05
1765409674.796527,-9.973996086320845,-0.05415234084759247,0.29557106370130015,-0.001880412765412532,-0.003292553371469008,2.718533802195011e-05
1765409674.798497,-9.975524541847228,-0.0547890917261236,0.2998949446003959,-0.001647448322073322,-0.003525174828577347,0.00012602917936056093
1765409674.800524,-9.976774571989937,-0.05515614337283218,0.30450870240405237,-0.0014154083558413186,-0.0037408565570283044,0.00021460147713095874
1765409674.805511,-9.97772316025567,-0.05521561303374064,0.30931235735125695,-0.0011880354307824699,-0.00394032369343215,0.00029040122090089797
1765409674.807518,-9.978354247142244,-0.054944841430073485,0.31420355242229014,-0.0009687470690624268,-0.004124546325223963,0.0003514678829663993
1765409674.810547,-9.978652903129017,-0.054336851334580764,0.31907712792674153,-0.0007605074089889597,-0.004294571957795101,0.0003964489076903306
1765409674.812503,-9.978599077388335,-0.053399508293151245,0.3238242545424897,-0.0005657157564657953,-0.0044513657846417505,0.00042467541513903725
1765409674.815536,-9.978162103653922,-0.05215414399445114,0.3283318541911708,-0.00038611356950526483,-0.004595669468917383,0.0004362488298599214
1765409674.817506,-9.977296993733688,-0.05063422807557532,0.33248295554276386,-0.0002227101075063354,-0.004727881547038888,0.0004321224530164942
1765409674.82046,-9.975943400339316,-0.048884189462320315,0.3361586034702846,-7.572666026906329e-05,-0.004847959163509519,0.0004141471707533447
1765409674.822498,-9.974027918145254,-0.04695807083673381,0.33924184403653435,5.543890163752706e-05,-0.004955344787626623,0.00038504904140022065
1765409674.825471,-9.971469976564807,-0.04491761793306726,0.3416239888682488,0.00017222069083551846,-0.0050489292956851315,0.00034831879237199096
1765409674.82745,-9.96819098310745,-0.04282964149810514,0.3432128782593222,0.0002768533577913391,-0.005127066293426997,0.00030801206848585894
1765409674.830453,-9.964125719294373,-0.04076280948325632,0.34394230860828323,0.0003722833052781348,-0.005187646328747756,0.0002684761458498036
1765409674.832463,-9.959234388511856,-0.038784191521991224,0.343781235291222,0.0004620076071798449,-0.005228226375622865,0.00023402928526580367
1765409674.835503,-9.953513359660239,-0.03695581958046396,0.3427410219274465,0.0005498352923416262,-0.005246198229998192,0.0002086240330590388
1765409674.837555,-9.947002764828774,-0.035331378977497156,0.3408791703967091,0.0006395798724471452,-0.0052389752071799215,0.00019552890478804168
1765409674.84056,-9.93978970972886,-0.03395311035410684,0.33829863947027455,0.0007347079899052167,-0.005204178522932704,0.00019706447929049433
1765409674.841512,-9.932006704773723,-0.03284919041778358,0.33514272716492394,0.0008379840864632571,-0.0051398094953440925,0.00021442717478825041
1765409674.843525,-9.92382576123115,-0.032032160598000875,0.33158626303015704,0.0009511601890843497,-0.0050444011073191835,0.000247624122707034
1765409674.847445,-9.915449264816857,-0.0314991158849405,0.32782442414784674,0.001074757955705362,-0.004917151986274407,0.0002955250285599672
1765409674.850459,-9.907099091041143,-0.03123410194298087,0.3240607465952916,0.0012079769377399965,-0.004758051275380355,0.0003560150753894157
1765409674.852473,-9.899005333156811,-0.031212485994263017,0.32049571740452776,0.0013487453089440359,-0.004567998180617094,0.0004262149987405694
1765409674.85344,-9.891395566589019,-0.03140626893133883,0.31731678475008407,0.001493914102721599,-0.004348907849461624,0.0005027290241516511
1765409674.857531,-9.884485088533864,-0.03178884878096557,0.3146900419979951,0.0016395837694578033,-0.0041037834324631674,0.0005818902827844049
1765409674.858465,-9.878468283936462,-0.03233792330148411,0.31275346759967226,0.001781538240090015,-0.003836727767265501,0.0006599896268968017
1765409674.862626,-9.873511185676037,-0.03303594717384725,0.31161147267435635,0.0019157452457704517,-0.0035528700854581805,0.0007334862916363988
1765409674.865466,-9.869745344275751,-0.03386844175053747,0.3113306065953826,0.002038867021718395,-0.0032581957630910667,0.0007992006621242936
1765409674.867558,-9.867263214665556,-0.03482106374327617,0.3119365018734679,0.0021487183225980555,-0.002959287339729542,0.0008544829392983156
1765409674.868523,-9.866115261818292,-0.0358764717310816,0.31341225468464917,0.0022446110112075406,-0.002663004014107299,0.0008973449480949386
1765409674.872506,-9.866308838967084,-0.0370117989231813,0.31569833555535326,0.002327536171431666,-0.0023761377743616876,0.0009265423815173105
1765409674.875499,-9.867808775573575,-0.03819723953433594,0.31869402994369195,0.0024001545987476303,-0.0021050861654745103,0.0009416029042916993
1765409674.87752,-9.87053965166439,-0.03939608553993525,0.3222604744066236,0.0024665913960884396,-0.0018555747859977522,0.0009428075843397106
1765409674.880474,-9.874389780951004,-0.040566449241810625,0.3262254102856585,0.0025320551547483383,-0.0016324469919186274,0.0009311414562093987
1765409674.882451,-9.879216818166158,-0.04166465999860461,0.3303897058737962,0.0026023223219797205,-0.0014395188349185875,0.000908228251540885
1765409674.88546,-9.884854740452852,-0.04264983842423681,0.33453565555754755,0.002683141153427616,-0.0012794842246728142,0.0008762560345654536
1765409674.887441,-9.891121851175765,-0.04348860477637175,0.338437076986867,0.002779618429238281,-0.0011538544048025998,0.0008378919304360605
1765409674.890442,-9.89782933503797,-0.04415860439580962,0.34187101107657103,0.0028956575250638533,-0.0010629224826196907,0.0007961826250901178
1765409674.892497,-9.90478971045101,-0.044649791452937106,0.3446303066511602,0.0030335172954569036,-0.0010057511974554763,0.0007544445046529642
1765409674.895471,-9.911824498617289,-0.0449631971659084,0.34653596405956894,0.0031935538528898243,-0.0009801885642681894,0.0007161567358303828
1765409674.897457,-9.918770723450264,-0.04510789290333667,0.3474481826724855,0.00337418897909694,-0.000982920666190651,0.0006848716399071434
1765409674.900612,-9.925486220131148,-0.04509754126525384,0.3472753830859234,0.003572120545261009,-0.0010095718840204945,0.0006641442981240767
1765409674.901112,-9.931853796142521,-0.04494794139237207,0.34598063869465356,0.003782756266791267,-0.0010548627434348785,0.0006574645078747112
1765409674.90546,-9.93778411711368,-0.044676333261693804,0.3435849845114962,0.004000817701796982,-0.0011128391314900185,0.0006681635072247434
1765409674.907496,-9.943217143795634,-0.044302317865543325,0.340167287113474,0.0042210318122782925,-0.001177190585351746,0.0006992748866194147
1765409674.909464,-9.948122103586615,-0.04384956770631947,0.33586072538802253,0.0044388091689768734,-0.0012416683740396972,0.0007533499973677589
1765409674.912444,-9.95249606859158,-0.04334731161307649,0.33084610438874124,0.0046508080799194385,-0.0013005909271758167,0.0008322490099044738
1765409674.915486,-9.95636113892304,-0.04283078955151087,0.3253421830190856,0.004855304279846099,-0.001349393912075021,0.0009369375514340243
1765409674.91857,-9.95976025674785,-0.0423401988389282,0.3195933284534946,0.005052319682670683,-0.0013851596965508397,0.0010673150642557072
1765409674.92049,-9.962751949284446,-0.04191789531563212,0.3138552626328435,0.005243501480794538,-0.001407053316835892,0.0012220940524821046
1765409674.922517,-9.965404554925628,-0.04160382551867718,0.3083800642213763,0.005431777915565953,-0.001416597811750189,0.0013987480297521296
1765409674.925497,-9.967790442259819,-0.04142955408347969,0.30340161094715384,0.005620846064467202,-0.001417738991529124,0.0015935500305260903
1765409674.927462,-9.969980502974781,-0.0414118880682042,0.2991224765456758,0.005814568499924662,-0.0014166783566432442,0.0018017243773856678
1765409674.930451,-9.972039089394016,-0.04154772032859236,0.2957032235126473,0.006016367651571462,-0.0014214874660814312,0.002017722378007232
1765409674.93251,-9.974019608316897,-0.04181183537571396,0.2932549411758923,0.006228704921961439,-0.0014415462186377096,0.002235605923133331
1765409674.933487,-9.975960974484686,-0.042158756898071394,0.29183550609904974,0.006452713262535688,-0.0014868653258570653,0.002449491697715278
1765409674.937459,-9.977885035399497,-0.04252848180340191,0.2914495056069338,0.006688020866460377,-0.001567362847524053,0.00265398905394007
1765409674.940471,-9.979795061791172,-0.04285475403560631,0.2920513946698608,0.006932768788254705,-0.0016921672690884389,0.002844566676960228
1765409674.942563,-9.981675433281202,-0.04307398249168526,0.2935512590283478,0.007183795278296883,-0.0018690105643418792,0.003017804509511305
1765409674.945471,-9.983492532932361,-0.04313317437696143,0.295822334612964,0.007436940842493856,-0.0021037546042589716,0.00317151578787996
1765409674.947463,-9.98519664945135,-0.04299595136232825,0.2987093198973156,0.007687423664602245,-0.0024000722348407437,0.0033047460276631273
1765409674.948506,-9.986724684479505,-0.04264623773512564,0.3020368250192475,0.007930242040204798,-0.0027592853387958974,0.0034176659429740255
1765409674.952523,-9.988003698244937,-0.042089325874282595,0.3056178565251597,0.008160570362266547,-0.003180343448562183,0.0035113794749441246
1765409674.953476,-9.988955436444016,-0.041350056019412294,0.3092624916320355,0.008374120846439187,-0.0036599096383072276,0.0035876755146600128
1765409674.957482,-9.989501781558236,-0.04046821538734878,0.3127866946592371,0.008567444888600582,-0.004192514142786154,0.0036487625137982555
1765409674.960498,-9.989570782674097,-0.039491965522039665,0.3160209157091892,0.008738151644915777,-0.004770743494938785,0.003697028240918412
1765409674.963138,-9.989102753881669,-0.03847071790264775,0.3188179579640359,0.008885031339523841,-0.005385447245588008,0.0037348541390323743
1765409674.965025,-9.988055887990187,-0.03744897946983334,0.3210596220616885,0.009008084865062556,-0.006025958414128287,0.0037644911637665455
1765409674.967529,-9.986410884485663,-0.03646224697295005,0.32266183590086056,0.009108473530565113,-0.006680335418772439,0.003787986795859482
1765409674.970471,-9.984174237198673,-0.03553533921195111,0.32357827727671173,0.00918840899488345,-0.007335641593970644,0.003807149086528229
1765409674.972474,-9.981379959296271,-0.03468293631595452,0.32380260550792866,0.009251003298715593,-0.00797828199378809,0.003823537924050678
1765409674.975559,-9.978089533438604,-0.03391169340872472,0.3233691821321706,0.009300095241556765,-0.008594414502769541,0.0038384776479576015
1765409674.977533,-9.974389854646986,-0.033223137173377215,0.32235185618416334,0.009340065045241605,-0.009170442201111661,0.0038530861093861854
1765409674.980502,-9.97038904639531,-0.032616617702822134,0.32086036590098027,0.009375644984274043,-0.009693576582446281,0.003868314968050426
1765409674.982469,-9.966210266367726,-0.03209178100202333,0.3190341657241645,0.009411728732265022,-0.010152440646450912,0.0038849944734920044
1765409674.983555,-9.96198386158217,-0.03165017874776981,0.31703383856952866,0.00945317739738025,-0.010537664741265908,0.003903871594100219
1765409674.986477,-9.957838453788982,-0.031295664365820944,0.31503059829012525,0.00950461792780048,-0.010842421860388437,0.003925625920201535
1765409674.99046,-9.95389174072993,-0.031033302519429103,0.3131946376053247,0.009570230877923589,-0.011062852142293302,0.003950851715305976
1765409674.992537,-9.950241938791118,-0.030866865313705222,0.31168315804876834,0.009653528905846238,-0.01119833410439149,0.003980010652318728
1765409674.9955,-9.946960839978843,-0.03079554336017836,0.3106289452866831,0.00975713451849766,-0.011251569323738105,0.0040133784030268425
1765409674.997466,-9.94408939113994,-0.03081091039802748,0.310130450792062,0.009882575351233944,-0.011228457728566572,0.004051014015170932
1765409675.000568,-9.941636428970329,-0.030895157419355456,0.3102443547593673,0.010030125042470812,-0.011137755058129164,0.004092769722269987
1765409675.002525,-9.939580692445388,-0.031021195029768182,0.3109813490089152,0.01019872187765089,-0.010990524610672132,0.0041383408117524525
1765409675.005504,-9.937875695376167,-0.031154674375478697,0.312305572550646,0.010385991508243427,-0.010799418947807402,0.0041873421591525324
1765409675.007503,-9.93645673658972,-0.03125752274627227,0.3141379808117598,0.010588385763277369,-0.010577846230544394,0.004239393157086178
1765409675.010556,-9.93524928487657,-0.031292316146682035,0.3163638016391038,0.010801432653633735,-0.010339087204505932,0.0042941943723749975
1765409675.012464,-9.934178043884183,-0.031226746161536423,0.3188438684148064,0.011020077576559944,-0.01009543648279549,0.004351585835297341
1765409675.01551,-9.933176028942704,-0.031037574848282415,0.3214290034901024,0.011239083888906638,-0.00985744700900559,0.004411583505923788
1765409675.01748,-9.932192907735441,-0.030713679345330584,0.3239759373944243,0.011453453393674465,-0.00963335252214234,0.004474388938135268
1765409675.02045,-9.931201732792742,-0.030257885762930394,0.3263627333587528,0.011658824881406099,-0.009428723838319825,0.004540357361504548
1765409675.022456,-9.93020322509772,-0.02968728865307095,0.3285015904992682,0.011851811189608355,-0.009246385431226167,0.004609904721821162
1765409675.025473,-9.929227091726249,-0.029031867320805337,0.33034731591139177,0.01203024144136988,-0.009086588271453427,0.004683347496938964
1765409675.027529,-9.928330344627547,-0.028331571670867736,0.33190049174824465,0.0121932859010363,-0.008947407516420659,0.004760696548762948
1765409675.028586,-9.927592966297702,-0.02763249162689273,0.33320512023528476,0.012341456529075336,-0.008825310738487836,0.004841450309372428
1765409675.032521,-9.927111437552929,-0.026982924099974843,0.33434116720024804,0.012476493964454265,-0.008715826921566302,0.004924438568665683
1765409675.03351,-9.926990686188935,-0.026429923842733384,0.3354129379599871,0.012601166671386723,-0.008614239291200091,0.0050077563705676394
1765409675.037512,-9.927335026473244,-0.026016417369737383,0.3365346186808348,0.012719016755939729,-0.00851622309559864,0.005088810157182405
1765409675.040557,-9.92823871527827,-0.025778583114328044,0.3378146512798757,0.012834087701069898,-0.00841835385800706,0.005164484972342556
1765409675.042603,-9.929776939442567,-0.025743258069466823,0.3393409176449827,0.01295066280570405,-0.008318428624476213,0.005231430120360467
1765409675.043529,-9.931998304266262,-0.02592552862764477,0.3411688340492152,0.013073033382351034,-0.008215571752398683,0.005286443594099303
1765409675.047488,-9.934919937130948,-0.0263270684050225,0.34331415328442927,0.013205306822780897,-0.008110128828677086,0.005326912243459811
1765409675.05054,-9.938525989488946,-0.02693595363323801,0.3457515598666322,0.0133512573995026,-0.008003382592612405,0.005351243603398981
1765409675.052523,-9.94276976065576,-0.02772854422410496,0.3484192741938212,0.013514216460760953,-0.007897154026874423,0.00535921560970665
1765409675.053607,-9.947579027607272,-0.028673581838491422,0.35122891958213925,0.013696994058069893,-0.007793374789894946,0.0053521750640505485
1765409675.057495,-9.95286342157408,-0.029738040699727245,0.35407876667093524,0.013901822232225854,-0.007693722756387104,0.0053330337279144675
1765409675.060527,-9.9585220134014,-0.030893722601094433,0.35686746755818627,0.014130311848990317,-0.007599396697202237,0.005306041479040724
1765409675.06252,-9.96444917547651,-0.03212334931369836,0.35950524352260943,0.014383420178363188,-0.007511075454988964,0.005276355393228762
1765409675.06552,-9.970537546796036,-0.03342497690973763,0.36192046764880503,0.014661433444370403,-0.007429067517581606,0.005249461537304505
1765409675.067568,-9.976678057656263,-0.034813764754652185,0.364061044737099,0.014963972416817304,-0.007353612165016613,0.005230531765079306
1765409675.070548,-9.982757743044509,-0.036320413547299764,0.3658911075049437,0.015290026371639159,-0.007285254736597854,0.0052238085243136965
1765409675.073199,-9.988656325487597,-0.0379860651045201,0.36738418492563285,0.015638014366483422,-0.0072252036741451905,0.005232109653043117
1765409675.075534,-9.994242625698169,-0.03985418048506235,0.3685144703292952,0.016005868667773773,-0.007175590402767149,0.005256531556936944
1765409675.077482,-9.999371972445724,-0.04196065423546078,0.36924815723131765,0.016391135176192586,-0.007139580423328254,0.0052963997923162085
1765409675.078516,-10.00388581803168,-0.04432384498334115,0.3695368159071785,0.016791087275692892,-0.00712131026433265,0.005349474725680345
1765409675.082469,-10.007614573640337,-0.04693618333123959,0.369314447746446,0.017202849782606375,-0.0071256470146625625,0.005412378266477282
1765409675.085559,-10.0103841963522,-0.04975869436458273,0.36849927258125614,0.017623526438862985,-0.0071577863065380885,0.005481175611266138
1765409675.087539,-10.01202630650413,-0.0527193108342896,0.3670004645629017,0.018050317220628876,-0.007222721280150506,0.005552026326136387
1765409675.089513,-10.012390812440094,-0.055715333286535704,0.36472906188851817,0.018480605207289506,-0.007324632778464837,0.005621812377145545
1765409675.092554,-10.011359517411917,-0.05861990225436623,0.36161146293534235,0.018911994167553545,-0.007466272145401254,0.005688658143306986
1765409675.093534,-10.008859096094579,-0.06129197917213988,0.35760351016886377,0.019342289222399785,-0.007648423607285983,0.005752277019017168
1765409675.096455,-10.004871948757557,-0.06358905120698463,0.3527031017841394,0.019769428933339026,-0.007869529156563148,0.00581410472759895
1765409675.098491,-9.999443595836249,-0.06538144176510424,0.34695944560468395,0.020191391997764253,-0.008125533547354125,0.0058772059516905995
1765409675.101493,-9.992685565990158,-0.06656668042296196,0.3404774871989385,0.020606110968971747,-0.008409973103080426,0.0059459666915501275
1765409675.105516,-9.984773300092298,-0.0670820228018715,0.33341674043623964,0.021011425280429864,-0.008714300483830675,0.006025608594845323
1765409675.107575,-9.975939316975442,-0.06691318943447089,0.3259846120292084,0.021405095068662686,-0.00902841076435188,0.006121581533384463
1765409675.110513,-9.966462459018675,-0.06609789769941521,0.3184250898835981,0.021784879462945175,-0.009341313486162255,0.006238905492254959
1765409675.112474,-9.956654272775749,-0.06472368587807134,0.3110041355884657,0.02214866567500087,-0.009641883295156152,0.006381539995105259
1765409675.11554,-9.946843515423097,-0.06292050411892477,0.3039932089775976,0.02249462544852127,-0.009919617340774818,0.0065518550993476175
1765409675.118525,-9.937359581915125,-0.060849210571346686,0.29765218114341613,0.02282137497434856,-0.010165328071381523,0.006750261318580641
1765409675.120486,-9.928515530326186,-0.05868734445809554,0.2922127512366174,0.023128119178043492,-0.010371705218535726,0.006975031855225113
1765409675.122518,-9.92059144435433,-0.05661351802070946,0.28786354799281094,0.02341476581792026,-0.010533691600020755,0.007222329110449169
1765409675.125519,-9.913819030335517,-0.05479177928981213,0.28473820086677903,0.023681997137299113,-0.010648635981703363,0.007486435134793763
1765409675.12757,-9.90836851224058,-0.05335749769089832,0.2829075683397891,0.02393128992665235,-0.010716216226435468,0.007760177282252813
1765409675.128532,-9.904339072536521,-0.05240650526124031,0.2823770389884496,0.024164882080504196,-0.010738164071388024,0.008035522867120302
1765409675.132553,-9.901754175976459,-0.051988986923581254,0.2830894501240597,0.024385692841519233,-0.010717853937907713,0.008304286130458364
1765409675.13555,-9.90056280315802,-0.052108766915763854,0.28493357085184806,0.024597209054053805,-0.010659829321227115,0.008558860103892044
1765409675.137546,-9.900646820918695,-0.05272742534723631,0.28775723766839467,0.024803348394461314,-0.010569335543499668,0.00879287304331122
1765409675.138558,-9.90183375998869,-0.05377164823328926,0.29138339967992166,0.025008305887277024,-0.010451918095711684,0.009001683185835142
1765409675.140659,-9.903913514374441,-0.05514190120731523,0.29562681400569896,0.02521638727969635,-0.0103131326718795,0.009182662327189348
1765409675.145515,-9.906656988520693,-0.05672105683927812,0.300309000808819,0.025431834438683024,-0.010158390913559476,0.009335261466167753
1765409675.147483,-9.90983447037436,-0.058382559093656784,0.30526935977764186,0.02565865224714074,-0.009992935988073319,0.009460880199108502
1765409675.149512,-9.913231557224037,-0.05999834959186947,0.3103710764840119,0.02590045102340999,-0.009821913344746774,0.009562568139779933
1765409675.152535,-9.916660836494591,-0.06144666850076391,0.31550142768750156,0.02616032102056004,-0.009650483411581008,0.009644584372218348
1765409675.155531,-9.919968188146276,-0.06261919425318209,0.3205670992763165,0.02644075209592243,-0.009483918786202482,0.009711849648064414
1765409675.157465,-9.923033483613265,-0.06342649460712127,0.3254860507072241,0.026743599773602557,-0.00932763722150021,0.00976935121712451
1765409675.158468,-9.925766482678268,-0.0638009721015343,0.33017815111923116,0.027070084118912114,-0.009187139232665167,0.009821586921810932
1765409675.162549,-9.928099611599732,-0.06369730826993447,0.3345570286472802,0.027420800324028896,-0.009067841841048039,0.009872141127909895
1765409675.16549,-9.929979783213405,-0.06309125360993986,0.338525210902984,0.027795724412611286,-0.008974824227606787,0.009923458585646344
1765409675.167486,-9.931361381484525,-0.06197791733027676,0.34197382363179596,0.02819420927082105,-0.008912521537935647,0.009976831306669863
1765409675.169534,-9.93220201841942,-0.06037032518992342,0.3447870583622002,0.02861497611916032,-0.008884414210251518,0.010032560198331536
1765409675.172524,-9.932461833035621,-0.058298235387906426,0.34685051788994364,0.02905610890197257,-0.008892759490591248,0.010090220358685446
1765409675.175533,-9.932106167030463,-0.055806606465872016,0.3480616570638566,0.02951505660737789,-0.008938400545904961,0.010148956883507034
1765409675.178542,-9.93111063631779,-0.05295313019847809,0.3483401124281726,0.029988648736043472,-0.009020669995510796,0.01020775985658949
1765409675.180514,-9.929467103090579,-0.04980479076346925,0.34763589302259107,0.03047313435820007,-0.00913738380657234,0.01026569569095342
1765409675.182528,-9.927189037267297,-0.04643398468001622,0.34593419840555967,0.030964258370251234,-0.009284906291708346,0.010322091729986596
1765409675.185606,-9.92431533180107,-0.042914903307164534,0.34325688056781434,0.0314573812202177,-0.00945826366911153,0.010376676352681361
1765409675.187483,-9.92091252063949,-0.0393206234912721,0.3396617637622338,0.031947631388710394,-0.009651290528198683,0.010429672292087593
1765409675.190515,-9.91707595719262,-0.03572097458723029,0.3352414763028696,0.032430064152799774,-0.009856803848787036,0.01048183568796837
1765409675.192513,-9.912930473134208,-0.03218105687721199,0.33012284877830544,0.03289979698157918,-0.01006680885813302,0.010534434331664283
1765409675.195575,-9.908630504718367,-0.028760353960466035,0.32446674379195106,0.03335210403619289,-0.010272747950811255,0.01058916540713456
1765409675.197528,-9.904359089781982,-0.025512543577275365,0.3184671965407634,0.03378247312581443,-0.01046580395530871,0.010648019269041955
1765409675.200533,-9.900324867783572,-0.022486118618429064,0.3123485286211587,0.03418664803323148,-0.01063725967010609,0.010713095642303064
1765409675.202576,-9.896756367569552,-0.019725649821374654,0.3063596560298128,0.03456068892570084,-0.010778901696661338,0.010786375075104207
1765409675.205503,-9.893893278111234,-0.017273058679239794,0.3007656048974038,0.03490107926517269,-0.010883445930493764,0.010869451420613966
1765409675.207472,-9.891974801868615,-0.01516794816798227,0.2958366651795857,0.035204890593528555,-0.010944957058793009,0.01096324579516882
1765409675.210514,-9.891225511451962,-0.013446202769022881,0.2918355921189435,0.0354699942044394,-0.01095923282018348,0.011067743415474809
1765409675.212594,-9.89183947969557,-0.012136777389280332,0.2890032707694045,0.03569529093593962,-0.010924123204430905,0.011181810733567442
1765409675.215618,-9.893963833727943,-0.011257493888294126,0.28754358122667895,0.035880922806834685,-0.010839753316466924,0.011303150076820511
1765409675.218611,-9.897683124526813,-0.010811216929423608,0.2876085914800069,0.03602843116066353,-0.010708617794696772,0.011428425621747054
1765409675.220539,-9.90300597415113,-0.010783672630426445,0.28928535894240465,0.03614083053017249,-0.010535522916274917,0.011553552544329122
1765409675.222628,-9.909855571844476,-0.011143515118577103,0.2925856621864419,0.036222574346701446,-0.010327375744676699,0.01167409829407156
