time,acc_x_g,acc_y_g,acc_z_g,gyro_x_rad_s,gyro_y_rad_s,gyro_z_rad_s
1765409441.698858,-0.00272027941802919,0.015561199510166601,-0.011634622735103373,-1.9937720134275148,0.833788936422549,-1.152662906020431
1765409441.699058,-1.310041367861673,0.48269796896053857,-0.6856870179677113,-1.6840697587250897,0.7029395213829939,-0.9730450459325822
1765409441.699258,-2.587526691613808,0.9370104027104191,-1.3432121400808423,-1.381521247988803,0.5751008572584744,-0.7976603380232044
1765409441.699458,-3.807252174969994,1.365634835818148,-1.968775381182339,-1.0929104292976553,0.45312528564772636,-0.6304336597919443
1765409441.699658,-4.944305238555271,1.7570697472524173,-2.5487620426424784,-0.8242716883759891,0.3395414125290322,-0.47484799674596545
1765409441.699724,-5.977936554212824,2.101733895169746,-3.072051805865212,-0.5806046607171852,0.23643429978976405,-0.3337784225534198
1765409441.699974,-6.892363546227498,2.3923689466784457,-3.5304814055348324,-0.36567658936984976,0.1453630601608765,-0.20937716074836613
1765409441.700224,-7.677201105624561,2.624271146674249,-3.9190780602512567,-0.18191871247759372,0.06731854332833223,-0.10301356338837535
1765409441.700474,-8.327533332886588,2.7953533104173327,-4.2360696807810765,-0.030413455576655018,0.0027196732423969885,-0.015267199663542468
1765409441.70073,-8.843666855739134,2.9060514226727494,-4.482695768447373,0.08903779318678251,-0.048555982572251806,0.05403182868370795
1765409441.70098,-9.230622791105112,2.959099623048401,-4.662855392377259,0.17778106145992448,-0.08711375621635076,0.10572387391233656
1765409441.70123,-9.497432682820133,2.959203495298004,-4.782635924403335,0.23812744670379504,-0.11396289307270926,0.14121198349517744
1765409441.70148,-9.656305632499752,2.912644206223084,-4.849768525325623,0.27313979853973125,-0.13042464570381526,0.16233576716468856
1765409441.701715,-9.721730970695827,2.8268452150467476,-4.873054398760333,0.286405434875944,-0.13803471013545673,0.1712368786755786
1765409441.701915,-9.709574366258733,2.7099300634394323,-4.861801149270911,0.2818101302802194,-0.13844649428765946,0.170225104780734
1765409441.702115,-9.636216299699791,2.570295890551336,-4.825302742988761,0.26332615741163795,-0.1333406801475268,0.1616526286703579
1765409441.702315,-9.517771812490574,2.4162236198466287,-4.772389633441288,0.23482431229914807,-0.12434538127288228,0.1478023727416563
1765409441.702515,-9.369420812447316,2.25554160110984,-4.7110669821246836,0.199916874829037,-0.11296996724980717,0.13079459664067394
1765409441.702687,-9.204869290863291,2.095354162496786,-4.648249399171192,0.16183556421089296,-0.10055436777714855,0.11251424968336798
1765409441.702937,-9.035953187552062,1.9418405304968571,-4.589592153838173,0.12334590913275223,-0.08823445363237153,0.09456002565717149
1765409441.703187,-8.872388450756654,1.8001241596029995,-4.539412217652445,0.08669717504379855,-0.07692301564399816,0.07821470047977135
1765409441.703437,-8.721663522677778,1.6742085267860976,-4.500687577570445,0.05360514316858679,-0.06730499538590455,0.064435203659565
1765409441.703699,-8.589063670170502,1.566972894409687,-4.475120284101991,0.025263646987126284,-0.05984498938873509,0.05386002254207752
1765409441.703949,-8.477809560158523,1.480219926024495,-4.463248385585565,0.0023798401045631574,-0.05480465737226728,0.046830974872519776
1765409441.704199,-8.389285810041079,1.4147658344261331,-4.464593832941906,-0.014772330782925312,-0.05226750432782389,0.04342609111664959
1765409441.704449,-8.323330810494493,1.3705627452127387,-4.4778359838284585,-0.02628608521609677,-0.05216853856655428,0.043500282151359086
1765409441.704669,-8.278558347863662,1.3468423556233386,-4.5010020432857765,-0.03254861784175804,-0.054326472514241976,0.0467305804367521
1765409441.704919,-8.252684216185989,1.3422701075470558,-4.5316662614932754,-0.03416569245568103,-0.05847637426767929,0.052662990526973784
1765409441.705169,-8.242835818141558,1.355100118936082,-4.567149364832566,-0.03188828713106967,-0.06430096859369845,0.06075833825853452
1765409441.705419,-8.24582848361832,1.3833227914721529,-4.604709185436297,-0.02654476896742861,-0.07145912494074173,0.07043494187887221
1765409441.705648,-8.258398075042457,1.4247989066579458,-4.641713503018242,-0.01898123550074744,-0.07961045394472435,0.08110641205553411
1765409441.705898,-8.277384836658221,1.4773758357347204,-4.6757873015763085,-0.010011815151672763,-0.08843533324920233,0.09221339088475408
1765409441.706148,-8.299867988478438,1.538983133481738,-4.704928910202504,-0.00037990731424871155,-0.09765005130217584,0.10324854064674636
1765409441.706398,-8.323254072473354,1.607706232598548,-4.727592051807116,0.009269406828707966,-0.10701706403879649,0.1137745699087868
1765409441.706732,-8.345324468731404,1.6818380984090846,-4.7427330184123395,0.018406208012593555,-0.11635060787886026,0.12343550856060483
1765409441.706982,-8.364248837624064,1.75990942459023,-4.749824226055847,0.026622800052461645,-0.12551812078490693,0.13196178635135936
1765409441.707232,-8.378571761716668,1.840698316750287,-4.7488376224280335,0.03363236139659219,-0.13443809192412495,0.13916991807520063
1765409441.707482,-8.3871800984222,1.923220799856607,-4.740203230239811,0.03926084212865755,-0.1430750688052785,0.14495775314143305
1765409441.707716,-8.389258934245985,2.006704353041704,-4.724748419262,0.04343390820176431,-0.15143258162458526,0.1492963148647898
1765409441.707966,-8.384244333172473,2.0905480158347243,-4.703622299556493,0.04616073623681175,-0.15954471206184356,0.1522192488551772
1765409441.708216,-8.371780584030214,2.174273841330795,-4.678208316607689,0.0475163288744971,-0.1674669760668274,0.15381083927541986
1765409441.708466,-8.351687948064162,2.2574750854310164,-4.650027990393848,0.04762378888815709,-0.17526713196006097,0.15419345340894325
1765409441.708722,-8.323944272418698,2.3397665606988247,-4.620639693595269,0.04663770346038038,-0.18301645898555188,0.153515151033043
1765409441.708972,-8.288680915217398,2.4207422516136634,-4.591537532574721,0.04472948106578031,-0.190781962266036,0.15193805667043722
1765409441.709222,-8.24619077637418,2.4999444886305144,-4.564056310475992,0.04207517606283992,-0.19861985262892984,0.14962795045855015
1765409441.709472,-8.1969442839634,2.576847581820845,-4.539289143483621,0.038846052192011316,-0.20657053872842357,0.14674539444698775
1765409441.709648,-8.141608349723901,2.6508570925869215,-4.518024003913607,0.03520189456445374,-0.21465525707692173,0.1434385813701256
1765409441.709898,-8.081063648520082,2.7213243694790545,-4.500703428247429,0.03128689018041616,-0.22287435224468144,0.13983797918138582
1765409441.710148,-8.016416439839581,2.787574770278126,-4.487408297981061,0.027227756626100445,-0.2312071226049092,0.1360527521904254
1765409441.710398,-7.949001463370776,2.8489468640773055,-4.4778640721752865,0.023133698030690025,-0.23961309177482967,0.13216886832834768
1765409441.710694,-7.88037190223468,2.9048385867741655,-4.471467550120559,0.019097705009159135,-0.24803454786143708,0.12824874617944151
1765409441.710944,-7.81227219274276,2.954755032511064,-4.467332898453525,0.015198699357497288,-0.25640017435695595,0.12433224699845652
1765409441.711194,-7.7465910859013265,2.9983519066067985,-4.464354927875252,0.011504056167657983,-0.26462955097888075,0.12043877109151724
1765409441.711444,-7.685295796620699,3.0354690650479754,-4.461285238951459,0.008072102116160274,-0.2726382453947435,0.11657017794346822
1765409441.711667,-7.63035161476712,3.0661499732734137,-4.45681496433319,0.0049542729313451685,-0.28034318286983684,0.11271422601732169
1765409441.711917,-7.583633527331665,3.090644993897601,-4.449657784477229,0.0021967064655970567,-0.2876679794447903,0.10884823225140132
1765409441.712167,-7.546837214281238,3.1093986825484405,-4.438627783833666,-0.0001588579696738276,-0.2945479304410279,0.10494268605413644
1765409441.712417,-7.521396802604964,3.1230231899351755,-4.4227073187178885,-0.0020749185565711783,-0.3009343419514579,0.10096460932920216
1765409441.712701,-7.508415862241075,3.1322610634248775,-4.401100802343951,-0.003518760691082,-0.30679790158041276,0.09688051782181437
1765409441.712951,-7.5086158773803735,3.137941155936767,-4.373272186950941,-0.004463624467085126,-0.31213084590388773,0.09265889940731982
1765409441.713201,-7.522303446164923,3.140931164421072,-4.338966420152549,-0.004890333119922996,-0.31694779678219065,0.0882721773553821
1765409441.713451,-7.549355437378325,3.142089875093115,-4.298216493269684,-0.004789167769657747,-0.3212852602303704,0.08369816663068066
1765409441.713753,-7.5892212476235725,3.1422218436884775,-4.251337245891169,-0.004161731430869739,-0.32519986971992215,0.07892105583306118
1765409441.714003,-7.640942192753224,3.1420371245139673,-4.198906282860209,-0.003022527375196378,-0.32876551641208074,0.0739319605482473
1765409441.714253,-7.703188221775413,3.1421186155579837,-4.141732733091207,-0.0013999904875563335,-0.33206956972321194,0.06872910555900828
1765409441.714503,-7.774311052760416,3.1428992265734874,-4.0808159556653525,0.0006632428153036409,-0.3352084576835995,0.063317709898659
1765409441.714772,-7.852411204490505,3.144650100369432,-4.017297648409591,0.0031109667407371055,-0.3382829237217613,0.057709662904548244
1765409441.715022,-7.935414812534243,3.1474796895020076,-3.952411838715324,0.005874991951356979,-0.3413932789491293,0.05192307376081751
1765409441.715272,-8.021154725065173,3.151342208551158,-3.8874380301179907,0.008877642090762427,-0.3446349219389301,0.04598174426683306
1765409441.715522,-8.107449766984354,3.1560533656649326,-3.8236625232089354,0.012035023423069217,-0.34809432142044583,0.039914569995929516
1765409441.715731,-8.192177265540874,3.1613113707376628,-3.762350336846622,0.015260840876568477,-0.3518455828196172,0.03375484185945615
1765409441.715981,-8.273336896919743,3.1667215951708134,-3.704725642112532,0.018470461885204018,-0.3559476706361873,0.027539408651886456
1765409441.716231,-8.349106805902785,3.171823350262364,-3.651954895929862,0.021584893385497444,-0.3604423398015282,0.0213076653776836
1765409441.716481,-8.417893814918216,3.176116899679992,-3.60512632002603,0.02453435241717656,-0.3653528252116545,0.015100342448464994
1765409441.716759,-8.478378260573574,3.179088604779885,-3.565221716863791,0.02726117693404461,-0.3706833249563265,0.008958088765821588
1765409441.717009,-8.529552043846827,3.1802327934210304,-3.5330799232752015,0.029721923534670895,-0.3764192802930049,0.002919879706630892
1765409441.717259,-8.570747237181449,3.179070438714925,-3.5093542558361674,0.031888605839192,-0.3825284216111733,-0.0029786579412643976
1765409441.717509,-8.601652481659118,3.1751658822114646,-3.4944688378284083,0.03374911637539449,-0.3889625315676625,-0.008706849961014241
1765409441.717684,-8.622315245781147,3.1681426926311325,-3.4885802581992427,0.035306934857614394,-0.3956598651557191,-0.01424032319814102
1765409441.717934,-8.633129545658429,3.1576986515253367,-3.4915507339891354,0.03658025582794376,-0.40254814196232575,-0.01956193271543724
1765409441.718184,-8.634810598902623,3.1436188661503635,-3.50293660527741,0.037600667183206676,-0.40954798643630913,-0.024662161447157827
1765409441.718434,-8.628359442624006,3.1257857362500707,-3.521992724848353,0.038411480169443575,-0.41657665529663324,-0.029538964957264963
1765409441.718688,-8.61502114725962,3.1041848772421177,-3.547690774353405,0.03906576857698998,-0.42355187713710896,-0.034197110325737225
1765409441.718938,-8.596239914410559,3.07890686010115,-3.5787484650770947,0.03962414533592811,-0.43039564787256906,-0.038647119520535775
1765409441.719188,-8.573613572842445,3.0501454230040808,-3.613666597285911,0.04015230087682306,-0.43703787172304775,-0.04290396736078729
1765409441.719438,-8.548848993721885,3.018193164947303,-3.650771720264203,0.04071834405339969,-0.44341978748512867,-0.04698569812052459
1765409441.719643,-8.523718523707393,2.983435432954928,-3.6882637914005505,0.04139001197599734,-0.4494971428354378,-0.05091211392349712
1765409441.719893,-8.500015757972193,2.9463425672923798,-3.724270471671759,0.04223184066170112,-0.45524306066679515,-0.054703659369653115
1765409441.720143,-8.479507580736438,2.907460459948694,-3.756911203004663,0.04330240459761363,-0.46065049186732504,-0.058380585987189364
1765409441.720393,-8.463879354618264,2.867399532640901,-3.78437366246812,0.04465173418228145,-0.46573408869176536,-0.061962429158369754
1765409441.720726,-8.454671853369021,2.8268222227293323,-3.8050024496624695,0.04631901209891414,-0.47053127631064195,-0.0654677759784173
1765409441.721059,-8.453211341277575,2.7864285167527356,-3.817395969560821,0.04833064616649282,-0.4751022611385211,-0.06891425877849965
1765409441.721393,-8.46053679516761,2.7469382615300035,-3.820503844480999,0.05069882091983178,-0.47952871548223136,-0.07231868743815544
1765409441.721715,-8.477329891898702,2.70906867085703,-3.813714977423225,0.053420635331779806,-0.48391093998945767,-0.07569723856515438
1765409441.721965,-8.50385426967061,2.6735063140733146,-3.7969260699196514,0.05647792898303297,-0.48836342935348775,-0.07906564639256497
1765409441.722215,-8.539910909125215,2.640874809154428,-3.77058181834489,0.059837873340741254,-0.4930089311952637,-0.08243937248454862
1765409441.722465,-8.584815802865528,2.6117014918082426,-3.735680776864542,0.06345435334746075,-0.4979712636789657,-0.085833749553514
1765409441.722663,-8.637404087190154,2.5863875201045636,-3.6937444366466736,0.0672700956646462,-0.5033673206302052,-0.08926409047879515
1765409441.722913,-8.696062089002428,2.5651857274475813,-3.6467506430258916,0.0712194311010836,-0.5092988282947389,-0.09274573315576967
1765409441.723163,-8.758786277080963,2.5481890092776935,-3.597035287841927,0.07523152140684014,-0.5158445127721106,-0.09629397320788789
1765409441.723413,-8.823266560856831,2.5353296815871467,-3.5471679156616522,0.07923383962654557,-0.523053374764936,-0.09992384381536132
1765409441.723681,-8.886990884919127,2.526388318280827,-3.499807653642994,0.08315567641761037,-0.5309397260883176,-0.10364974655085227
1765409441.723931,-8.947368054628392,2.521010199606358,-3.4575463845634773,0.08693145816505433,-0.5394805028192662,-0.10748500035744178
1765409441.724181,-9.001864959876686,2.518728686937772,-3.4227471904428866,0.09050369846216544,-0.5486151426535502,-0.11144141353991065
1765409441.724431,-9.0481519502549,2.5189962285997045,-3.3973880900389717,0.09382544541285488,-0.5582480515832365,-0.11552895966542368
1765409441.724683,-9.08424677163535,2.5212236964914227,-3.3829230417112788,0.09686212350465387,-0.5682534597003708,-0.11975556123467616
1765409441.724933,-9.108645089019173,2.5248269095620413,-3.380172656581177,0.09959270231651707,-0.5784823111118942,-0.12412690542332684
1765409441.725183,-9.120425303477848,2.529276354025023,-3.3892557571240194,0.10201015801052234,-0.5887707206274008,-0.12864618259024993
1765409441.725433,-9.11931677319036,2.534143589657145,-3.4095705112908465,0.10412122701945091,-0.5989494237420653,-0.13331366582178625
1765409441.725744,-9.105723269046793,2.539136949463683,-3.4398303205289458,0.10594548669820682,-0.608853553878325,-0.13812612304804614
1765409441.725994,-9.080697809303917,2.5441206100435183,-3.4781542060378485,0.10751383825792936,-0.6183320325626445,-0.1430761377362206
1765409441.726244,-9.045870693090563,2.5491143092124444,-3.5222045709800143,0.10886650821389786,-0.6272558662423261,-0.14815147282612304
1765409441.726494,-9.003338266778293,2.554274362236199,-3.569358609317491,0.11005071587199425,-0.6355247091201301,-0.1533346291346923
1765409441.726782,-8.955524493616759,2.5598590828117875,-3.6168945492570397,0.11111817275206007,-0.6430711927692149,-0.15860273417268628
1765409441.727115,-8.905030292639735,2.5661831507725643,-3.6621712021252883,0.11212258554796357,-0.64986275766702,-0.16392786834472473
1765409441.727449,-8.854486300176049,2.573566201463089,-3.7027804696054356,0.11311732170881558,-0.6559010205946346,-0.1692779014925336
1765409441.727684,-8.80642239958977,2.582281210530184,-3.736658621977783,0.11415336257266019,-0.661218998358738,-0.17461786927458695
1765409441.727934,-8.763162449808238,2.5925081881742145,-3.7621515638254768,0.1152776206276705,-0.6658767102125076,-0.17991185605271118
1765409441.728184,-8.726747163669026,2.6042980410926493,-3.7780379809885605,0.11653164303228987,-0.6699557726295832,-0.18512527235178844
1765409441.728434,-8.698884036067161,2.617550010886899,-3.7835193995781813,0.11795066717460424,-0.6735535877369144,-0.19022734643513453
1765409441.728741,-8.680920811561375,2.632004282181966,-3.7781880680982836,0.11956294846595604,-0.6767776257771514,-0.19519361615398378
1765409441.728991,-8.67383722902339,2.6472499712943365,-3.761984009240347,0.1213892630815808,-0.6797401436572997,-0.2000082087810544
1765409441.729241,-8.678248444450961,2.6627479646582457,-3.735152278674797,0.12344249900853514,-0.6825535187057719,-0.20466571608838569
1765409441.729491,-8.694413502569782,2.677867227294908,-3.6982095445565597,0.12572727300061434,-0.6853262503500123,-0.2091724972889511
1765409441.729701,-8.722243967921816,2.6919314388300415,-3.651924949071637,0.12823954632628026,-0.6881595923323974,-0.21354727369612328
1765409441.729951,-8.761310425942366,2.7042705289554103,-3.5973148467206686,0.13096626950408005,-0.691144701577146,-0.2178209242435325
1765409441.730201,-8.81084679718336,2.7142704390145154,-3.5356462587900586,0.13388516025977412,-0.694360127011257,-0.22203545613190376
1765409441.730451,-8.869754184715791,2.7214154524459704,-3.468440737717736,0.136964776741732,-0.6978694514835312,-0.22624220152120963
1765409441.730726,-8.9366080319671,2.7253203181621086,-3.397468805699582,0.14016505734680523,-0.7017189780858444,-0.23049935647827066
1765409441.731059,-9.009674450386091,2.7257524021678083,-3.3247254330663982,0.14343845397210023,-0.705935497264632,-0.23486901048570386
1765409441.731393,-9.08694189911965,2.722645539575892,-3.2523797985895633,0.14673169991488152,-0.7105243209166073,-0.23941381490851638
1765409441.731752,-9.166171716774546,2.716106710207827,-3.1826975569860876,0.149988143061387,-0.7154678867558207,-0.24419343555776282
1765409441.732002,-9.244966549950439,2.7064151782321004,-3.1179393447824806,0.15315046578742852,-0.7207253147759934,-0.24926095553691016
1765409441.732252,-9.320852221183822,2.69401277973046,-3.060243607073709,0.1561635435343687,-0.7262333109291403,-0.2546594352918094
1765409441.732502,-9.39136762576583,2.6794842997970942,-3.0115045887787293,0.1589771878844732,-0.7319087134030272,-0.26041886874864684
1765409441.73587,-9.45415812433027,2.663528068614756,-2.973257915625008,0.1615485637915694,-0.7376527638111943,-0.26655377911563627
1765409441.73612,-9.507068830006899,2.646918293209112,-2.946586704047138,0.16384413033636663,-0.7433569331996519,-0.27306167867958514
1765409441.73637,-9.548234350562126,2.6304615619093785,-2.9320597800908614,0.16584100769435572,-0.7489099168432454,-0.2799225808999225
1765409441.73662,-9.576161481773592,2.6149501865437466,-2.9297093743189135,0.1675277205427548,-0.7542052355177804,-0.2870996951654131
1765409441.735912,-9.58980166426292,2.6011149879197015,-2.93904896986163,0.1689043188140607,-0.7591487182142844,-0.29454134427947953
1765409441.736245,-9.588610544934289,2.58958046329387,-2.959124807041823,0.16998192878466084,-0.7636650366310603,-0.3021840234051948
1765409441.736579,-9.572592283089163,2.58082609231806,-2.9885892403755703,0.17078182497272648,-0.7677025182069382,-0.3099563837569079
1765409441.737345,-9.542325993838498,2.5751578623588673,-3.0257825432350716,0.17133412043088583,-0.7712357246540277,-0.3177838002771312
1765409441.737595,-9.498970678319843,2.572692781791402,-3.0688127461616466,0.17167615223909716,-0.7742656700966467,-0.32559310191333035
1765409441.737845,-9.444243407041142,2.573356480505789,-3.1156296109193704,0.1718506147435652,-0.7768179294563589,-0.33331703528980855
1765409441.738095,-9.380364689796938,2.5768916805835844,-3.1640956992067,0.17190349218844583,-0.7789391428188916,-0.3408980990443084
1765409441.737658,-9.309966645995779,2.5828746179262043,-3.2120611008999242,0.17188186813769835,-0.7806925138992328,-0.3482914944567619
1765409441.737991,-9.23596447784303,2.590737069682261,-3.2574470102448667,0.1718317222421933,-0.7821528535805201,-0.3554670511370642
1765409441.738325,-9.161398360754323,2.5997925730909905,-3.2983385209930454,0.17179584764951347,-0.783401590122846,-0.3624100866577052
1765409441.738735,-9.089258416667521,2.6092664861809323,-3.333082522784512,0.17181202625241923,-0.784522014520721,-0.369121241078534
1765409441.738985,-9.022308278844276,2.6183307414617922,-3.360384508891677,0.1719115774631346,-0.7855948900619598,-0.37561538319731647
1765409441.739235,-8.96292339586507,2.6261446087515328,-3.3793967112897065,0.17211835057321995,-0.7866944425227506,-0.38191970702352745
1765409441.739485,-8.912959565260156,2.6319014109297934,-3.3897870489968214,0.1724481767220482,-0.7878846707028782,-0.38807113872684434
1765409441.739834,-8.873664742500404,2.6348783563085094,-3.3917752983524982,0.17290875044967574,-0.7892159000212954,-0.39411319305139986
1765409441.740084,-8.845641854002386,2.6344844153749607,-3.38612354418152,0.17349988033395627,-0.7907215690823375,-0.4000924688724837
1765409441.740334,-8.828862804599888,2.6303009058313394,-3.3740741722819463,0.1742140388065312,-0.7924153845749579,-0.40605502214145434
1765409441.740584,-8.82272714053097,2.6221108188649573,-3.357237871624463,0.17503715161363326,-0.7942891548520778,-0.41204286103919274
1765409441.740748,-8.826155817395659,2.60991463642245,-3.337441963063628,0.17594957869190786,-0.7963117400770731,-0.418090776515388
1765409441.741081,-8.837710976962628,2.5939314211582114,-3.3165540329917795,0.1769272316261825,-0.7984295712658239,-0.4242236839020792
1765409441.741415,-8.85573347342068,2.5745840501772097,-3.296298612989224,0.17794275675121146,-0.8005690779190905,-0.4304546296869906
1765409441.741652,-8.878488588332013,2.552467428333457,-3.2780867114158805,0.17896671320130234,-0.8026411573677129,-0.4367836135038362
1765409441.741902,-8.904307294063363,2.528299828685413,-3.262878848823419,0.17996869966247492,-0.8045475587615502,-0.4431973731600102
1765409441.742152,-8.931708008829615,2.502860666197532,-3.2511006809800733,0.18091841238127632,-0.80618877251511,-0.44967024746751527
1765409441.742402,-8.959484381146968,2.4769215361369974,-3.2426251401601367,0.18178663004918125,-0.8074727493761493,-0.4561661396208085
1765409441.742662,-8.986748998352683,2.4511791071394757,-3.2368255883680974,0.18254612178227209,-0.808323567425287,-0.4626414619758974
1765409441.742912,-9.012930066877853,2.4261977430844595,-3.2326919292461778,0.1831724774649923,-0.8086890637081067,-0.46904879846840536
1765409441.743162,-9.03772633280374,2.402367492379719,-3.2289895647389173,0.183644868441528,-0.8085464961361022,-0.47534092283390206
1765409441.743412,-9.061033048857128,2.3798806510234987,-3.224433832976536,0.18394675304934965,-0.8079055414887762,-0.48147478147293105
1765409441.743682,-9.082856762739455,2.3587282930571196,-3.217852566219576,0.18406654152341523,-0.8068083439260882,-0.4874150820235219
1765409441.744015,-9.103237348046681,2.338717065290872,-3.2083157288590227,0.18399822810029548,-0.8053267788531282,-0.4931371938252389
1765409441.744349,-9.122191714555463,2.3195055474634034,-3.195220311194334,0.18374197959894076,-0.8035574306031352,-0.4986291328430969
1765409441.744736,-9.139686706034333,2.3006578041258874,-3.1783275593459495,0.18330463493667057,-0.8016149288833517,-0.5038924625011044
1765409441.744986,-9.155641113985272,2.2817091601958834,-3.15775716061986,0.18270003091510642,-0.7996242932225238,-0.5089420097434381
1765409441.745236,-9.169950199915196,2.26223625087872,-3.1339491274416433,0.18194905184360494,-0.7977128794833012,-0.513804393445578
1765409441.745486,-9.182522149146243,2.2419213795413233,-3.1076072753283275,0.18107932091721463,-0.7960024483909328,-0.5185154964262573
1765409441.745713,-9.19331574933487,2.220601832738508,-3.0796360490452086,0.18012450363790317,-0.7946017769841778,-0.5231171572526914
1765409441.746046,-9.202371914697418,2.1982984265747,-3.0510756826111076,0.1791232523121773,-0.7936001173528815,-0.527653457835957
1765409441.74638,-9.209836259373077,2.175222328976989,-3.023033677300069,0.17811785424902768,-0.7930617215375723,-0.5321669954299738
1765409441.74669,-9.21597349476164,2.1517625896601,-2.9966076548179807,0.17715264421475396,-0.7930216320158644,-0.5366954647358186
1765409441.74694,-9.221175965804436,2.128457875118343,-2.9727967874248007,0.17627222851942484,-0.7934829596356041,-0.5412687845735593
1765409441.74719,-9.225968239267734,2.1059554863602887,-2.952404130195426,0.17551957234594776,-0.7944158878558133,-0.5459069251440611
1765409441.74744,-9.231007950714377,2.0849601304736263,-2.9359373546653185,0.1749340228820997,-0.7957586314691778,-0.5506185439230521
1765409441.747696,-9.237080869803238,2.0661749942330894,-2.923519147262196,0.17454936383873765,-0.7974205342829046,-0.555400514485372
1765409441.747946,-9.245086002974402,2.050238735657972,-2.9148210662317187,0.17439201818599628,-0.7992873950858025,-0.5602384084441964
1765409441.748196,-9.256005212782087,2.0376638172036925,-2.9090357689181534,0.17447953215834608,-0.8012289346379746,-0.5651079389828
1765409441.748446,-9.270852345476573,2.028783257707698,-2.9049008135635837,0.17481946898325923,-0.8031080520747661,-0.5699772850196868
1765409441.748689,-9.290600220643327,2.023713172818429,-2.9007814268800347,0.17540880557123065,-0.8047912107805419,-0.5748101044572759
1765409441.749022,-9.316089748212923,2.022336854699334,-2.8948100244360893,0.176233877216766,-0.8061590188207579,-0.5795689457392427
1765409441.749356,-9.34793162971886,2.024313208734626,-2.8850691338825407,0.17727088118052706,-0.807115905112395,-0.5842187057493928
1765409441.74965,-9.386414609995963,2.029109164281334,-2.8697950510644414,0.17848692961692103,-0.8075978013728902,-0.5887297691838824
1765409441.7499,-9.43143372105367,2.0360528070527,-2.847574774343511,0.1798416123104056,-0.8075769522947622,-0.5930804947010049
1765409441.75015,-9.482448465870956,2.0444014300872215,-2.8175095874689347,0.1812889802689033,-0.8070633671775496,-0.597258771785198
1765409441.7504,-9.538476408646208,2.0534162701662875,-2.779324794292531,0.18277980498648258,-0.8061029019232769,-0.6012624527301798
1765409441.750638,-9.598123274366362,2.062433645757554,-2.7334150226554645,0.18426392212182222,-0.8047723890084456,-0.6050985789737263
1765409441.750971,-9.659646558626417,2.0709216039034475,-2.680825311123116,0.18569244994055897,-0.8031725197232367,-0.6087814820006457
1765409441.751305,-9.721046051036302,2.0785132271427673,-2.6231766969275334,0.18701969933780738,-0.8014193200512953,-0.6123300277596432
1765409441.751667,-9.780172191994929,2.0850123892171224,-2.5625499054112857,0.18820466159144197,-0.799635088093658,-0.6157644380393494
1765409441.751917,-9.834842189915234,2.090373115648287,-2.50134284577839,0.1892120443425672,-0.7979395941536414,-0.619103203901246
1765409441.752167,-9.882954537522675,2.09465759759618,-2.4421175948109823,0.19001289757785111,-0.7964421819955895,-0.6223605794491402
1765409441.752417,-9.922595390037314,2.097979868600303,-2.3874494749500617,0.19058492176355177,-0.7952351767269877,-0.6255450328541109
1765409441.752681,-9.952134697504377,2.100443537625559,-2.3397846103882323,0.19091257935739825,-0.7943887668685006,-0.6286588767971726
1765409441.752931,-9.970313308308342,2.102083660279234,-2.3013062608938517,0.19098712991996725,-0.7939473546140988,-0.6316991194251502
1765409441.753181,-9.976321241756825,2.1028235939314777,-2.273808851520146,0.19080667284311495,-0.7939272925128583,-0.6346593716450879
1765409441.753431,-9.969861886559586,2.102455531118014,-2.2585828671171844,0.19037622442395613,-0.7943159415621394,-0.6375324459757675
1765409441.753712,-9.951191210414153,2.1006482181702637,-2.256319458085513,0.1897077993807803,-0.7950720668177326,-0.6403131491123658
1765409441.754045,-9.92112015658415,2.096979434203325,-2.267045686878738,0.1888204230727692,-0.7961276806933162,-0.6430007565768955
1765409441.754379,-9.880973405623072,2.0909867883050928,-2.2900992386623895,0.18773997501885126,-0.797391480750893,-0.645600757821709
1765409441.754644,-9.832505406710743,2.0822292427745035,-2.3241482830386735,0.1864987604440422,-0.798753959833174,-0.6481256180230012
1765409441.754894,-9.777781652240666,2.0703525135703287,-2.367259450187834,0.18513472116451943,-0.800094101832846,-0.6505944608515726
1765409441.755144,-9.71903889045025,2.0551523099186486,-2.417012569244277,0.1836902211321657,-0.8012873621108982,-0.6530317098927797
1765409441.755394,-9.658542363798144,2.036628983062611,-2.470653834799122,0.1822103726174234,-0.8022144047061625,-0.6554648399111758
1765409441.755637,-9.598459402298214,2.0150261060753274,-2.5252721518292303,0.18074091550751176,-0.8027698566269682,-0.6579214945020297
1765409441.755887,-9.540764671668203,1.9908459728803458,-2.577979964527075,0.17932573283085784,-0.8028701952471053,-0.6604263185929644
1765409441.756137,-9.487183906104075,1.9648384243545731,-2.6260801720627036,0.1780041671490243,-0.8024598868748386,-0.6629979024540515
1765409441.756387,-9.439173727868187,1.9379644032493777,-2.6672031360437716,0.1768083619513948,-0.8015150916557414,-0.6656462065080863
1765409441.756636,-9.39792848700086,1.9113390898116023,-2.6994022057840916,0.1757608660428,-0.8000446088270919,-0.6683707376485917
1765409441.756969,-9.364402001201798,1.8861597310153826,-2.7212035930386183,0.1748727134247011,-0.7980881520941705,-0.671159626623771
1765409441.757303,-9.339332367788165,1.8636218605082469,-2.731615281741507,0.17414215206906905,-0.7957123958061686,-0.6739896685610618
1765409441.757627,-9.323261094196356,1.844827572884953,-2.730105894526476,0.17355415991570852,-0.793005435043495,-0.6768273505582492
1765409441.757877,-9.316542440819333,1.830692257761016,-2.7165657505180167,0.17308084628554235,-0.7900703432497864,-0.6796308640362352
1765409441.758127,-9.319343165758836,1.8218599426291369,-2.691260449169986,0.17268276858630174,-0.7870184368979573,-0.6823530323940755
1765409441.758377,-9.331635430541676,1.8186389978090827,-2.654785049518215,0.17231109726524504,-0.7839627276361096,-0.6849449611422764
1765409441.75872,-9.353186569055797,1.8209679328642188,-2.6080247556288496,0.17191046947010705,-0.7810118900440808,-0.6873600762160932
1765409441.75897,-9.383549472646695,1.8284164300477328,-2.5521247136691274,0.17142231244954462,-0.7782649109924462,-0.689558115211826
1765409441.75922,-9.422056712725444,1.8402216574432209,-2.4884671248727837,0.170788385270048,-0.7758064498642874,-0.6915086136091454
1765409441.75947,-9.467820247697421,1.8553556661466304,-2.4186503216579287,0.1699542664637693,-0.7737028831520933,-0.6931934839930675
1765409441.759736,-9.51973737249454,1.8726166587335629,-2.3444632175281424,0.16887251490964075,-0.77199905017793,-0.6946083914328149
1765409441.760069,-9.576503496185245,1.890734653783457,-2.2678489717517976,0.1675052691936559,-0.770715810650173,-0.6957627509344281
1765409441.760403,-9.636633579869342,1.9084799351858295,-2.1908522986710777,0.16582612152388176,-0.7698486065099147,-0.6966783103475415
1765409441.760754,-9.698495561107741,1.9247610846549856,-2.115545844955281,0.1638211872127501,-0.7693672700746993,-0.6973864527144001
1765409441.761004,-9.760359111368825,1.9387000168145792,-2.0439346091196082,0.16148938037576385,-0.769217344790823,-0.697924548691855
1765409441.761254,-9.820460569369807,1.9496753168564869,-1.9778442826353653,0.15884199178924377,-0.7693231622429676,-0.698331854849225
1765409441.761504,-9.877080470834471,1.9573309469203912,-1.9188069517652393,0.1559017228494349,-0.7695927962660765,-0.6986455188885641
1765409441.761916,-9.928625740457301,1.961552387598796,-1.867961899230113,0.15270134061668467,-0.769924768630166,-0.6988972035328703
1765409441.762249,-9.973706477276428,1.962415630561619,-1.8259884148338783,0.1492820920849997,-0.7702160546186582,-0.6991107229914427
1765409441.762583,-10.01119837942531,1.9601174967707327,-1.793082115496015,0.1456919820540513,-0.7703706145821025,-0.6993009392847858
1765409441.762706,-10.040285669328654,1.9548991323931812,-1.7689778152752103,0.14198399627167513,-0.7703074522584916,-0.6994739857013055
1765409441.762956,-10.060484506526135,1.9469764089048878,-1.7530122423275123,0.13821432876956283,-0.7699671641821128,-0.6996286741297468
1765409441.763206,-10.071651458116074,1.9364892691284221,-1.744211606289947,0.13444063837816606,-0.7693161490698958,-0.6997587530683056
1765409441.763456,-10.07398288379269,1.923477056096512,-1.7413861570735027,0.13072033215463985,-0.7683480536765461,-0.699855568791107
1765409441.763664,-10.068007161013696,1.9078807582875,-1.7432187435869393,0.1271088776551433,-0.7670825196124847,-0.6999106572442796
1765409441.763914,-10.054564972544252,1.889568215874428,-1.7483438171925882,0.12365817590192825,-0.7655617155906381,-0.699917845637438
1765409441.764164,-10.034769571623004,1.8683757275447668,-1.755420323308259,0.1204150530074282,-0.7638453780741113,-0.6998745513842421
1765409441.764414,-10.00994284156216,1.8441586567454262,-1.7632022580981408,0.11741992861755138,-0.7620051049093601,-0.699782107881703
1765409441.764656,-9.981531435874432,1.8168431757610084,-1.7706064273565625,0.11470569396338903,-0.7601185082495244,-0.6996451009727749
1765409441.764906,-9.951014323833029,1.7864706794364458,-1.7767728787715595,0.11229680328656598,-0.758263642496645,-0.6994698588199028
1765409441.765156,-9.91981526202532,1.7532269099895594,-1.7811115657847771,0.11020857490041712,-0.7565139568293134,-0.6992623887529343
1765409441.765406,-9.889231900495107,1.7174508983532484,-1.783327937216774,0.10844671170478662,-0.7549338895134856,-0.6990261594258591
1765409441.765663,-9.860389541381299,1.679623720776426,-1.7834199295615079,0.10700706137343532,-0.7535751142283061,-0.6987601402887417
1765409441.765996,-9.83422303135936,1.640341168833127,-1.781640965566925,0.10587563155459727,-0.7524733945506502,-0.6984574249900043
1765409441.76633,-9.811485328727533,1.6002758255847422,-1.7784289833174858,0.10502887071479186,-0.7516460384687679,-0.6981046229313922
1765409441.766681,-9.792776821291797,1.560133195664312,-1.7743083020183132,0.10443423773468492,-0.7510900576573963,-0.6976820628709043
1765409441.766931,-9.778586545692585,1.5206054098717856,-1.7697762277154498,0.10405110565160414,-0.7507812641171865,-0.6971647516035089
1765409441.767181,-9.76933570190799,1.4823260996230645,-1.7651883140884328,0.10383205321978566,-0.7506746163994003,-0.6965239715877445
1765409441.767431,-9.765415282980944,1.4458312252216996,-1.760655880732763,0.10372457565041236,-0.7507061201910916,-0.6957293614764684
1765409441.767672,-9.767212346778022,1.411531582879803,-1.7559683700869233,0.10367319232693568,-0.7507964749317269,-0.694751279943853
1765409441.767922,-9.775121619087871,1.379701914044028,-1.7505522493168164,0.10362185590974882,-0.7508564463873861,-0.6935632048768611
1765409441.768172,-9.789539557251741,1.3504884964377648,-1.7434766341962482,0.10351649576377733,-0.7507936785521754,-0.6921438899172697
1765409441.768422,-9.810837815588554,1.323932785046139,-1.7335119466633215,0.10330748611803157,-0.7505203991205686,-0.6904790170440163
1765409441.768676,-9.839314515249615,1.3000051473882643,-1.7192410585373048,0.10295183470929468,-0.7499612651480244,-0.6885621565943224
1765409441.768926,-9.875125820286515,1.2786418335063086,-1.6992136291306885,0.10241493990241587,-0.7490604639994511,-0.6863949510292943
1765409441.769176,-9.918206116708749,1.2597800169456455,-1.6721254993664332,0.10167184005542734,-0.7477871698253269,-0.6839865329340351
1765409441.769426,-9.968190465426137,1.2433878337710687,-1.6369979595838238,0.1007079417827189,-0.7461386159890148,-0.6813522471004432
1765409441.769678,-10.02435522880491,1.2294865308795657,-1.5933292066379818,0.0995192399884375,-0.7441403936854215,-0.6785117899253555
1765409441.770011,-10.085589810815524,1.2181604140151676,-1.5411950018736822,0.09811204421489338,-0.7418440424875222,-0.6754869433499823
1765409441.770345,-10.150405024353866,1.2095500367115504,-1.4812868523782086,0.09650223620144602,-0.7393224079154239,-0.6722991661178292
1765409441.770728,-10.216975368649235,1.2038269493599543,-1.4148891736655838,0.09471411466179382,-0.7366634844509603,-0.6689673622735514
1765409441.770978,-10.28320720804138,1.2011529908256333,-1.3438064411014756,0.09277891282798204,-0.7339635223747686,-0.6655061259323587
1765409441.771228,-10.346823325242072,1.2016305156983889,-1.2702555806583231,0.09073307971179972,-0.7313201100733059,-0.6619246738538905
1765409441.771478,-10.405454752856597,1.2052508901850938,-1.1967396832018748,0.08861640601902045,-0.7288258024965222,-0.6582265841122135
1765409441.771722,-10.456731664455212,1.2118483699216285,-1.1259181218640304,0.08647007341310022,-0.7265626758841385,-0.654410392586088
1765409441.771972,-10.498367049198487,1.221066382294264,-1.0604845568141605,0.08433471247023348,-0.7245979827918567,-0.6504710273736318
1765409441.772222,-10.52823096633581,1.232342735097895,-1.0030577259876352,0.08224855204973232,-0.7229809147100151,-0.6464019496385831
1765409441.772472,-10.544418217988083,1.24491811653729,-0.9560830450926658,0.08024572746220401,-0.7217403913594229,-0.6421977414681189
1765409441.772656,-10.545315233164567,1.2578684788588077,-0.9217395942430913,0.07835480297295216,-0.7208837870100667,-0.6378567940445706
1765409441.772906,-10.529671043031803,1.270158034918973,-0.9018475832610676,0.07659756334241036,-0.7203965501224724,-0.6333837334047979
1765409441.773156,-10.496673529866523,1.2807071166246113,-0.8977734966297187,0.07498812852585261,-0.7202427403207763,-0.6287912646440584
1765409441.773406,-10.446027626759662,1.288468301784341,-0.9103329511666884,0.07353243494822184,-0.7203665656826306,-0.6241011893744265
1765409441.774474,-10.3780278199456,1.292504315933594,-0.9396963989302323,0.07222810618405738,-0.7206950288970856,-0.6193444347513042
1765409441.774807,-10.293613975232779,1.2920614216679893,-0.98530981801627,0.07106471115002193,-0.7211417601215966,-0.6145600211617591
1765409441.775141,-10.194398663605979,1.2866319498380672,-1.0458473628184417,0.07002438543712881,-0.7216120094659166,-0.6097929968059426
1765409441.774688,-10.082656591396926,1.2759998070236946,-1.119212149781125,0.06908277386787076,-0.7220085957915433,-0.6050914870682734
1765409441.774938,-9.961271198340656,1.2602642881970556,-1.2025958841310123,0.06821023809955575,-0.7222383972380565,-0.6005031297688058
1765409441.775188,-9.833637856526375,1.2398406945849425,-1.292600765417298,0.0673732627850532,-0.7222187887153816,-0.5960712521497861
1765409441.775438,-9.703526681130874,1.215439887663624,-1.3854188376889849,0.06653598928800543,-0.7218833507264485,-0.5918311587353808
1765409441.775718,-9.574911702575708,1.1880310764960116,-1.4770542714678987,0.06566180097151793,-0.721186222762086,-0.5878068546520506
1765409441.775968,-9.451777671603919,1.1587918187675819,-1.5635650880161216,0.06471487047085463,-0.7201046389739472,-0.5840084668870037
1765409441.776218,-9.337920080440446,1.1290471092622898,-1.6412969388034537,0.06366156345479987,-0.7186394335775897,-0.580430568680213
1765409441.776468,-9.23675637276437,1.1001976090348156,-1.7070847846816135,0.06247159394803971,-0.7168135954511509,-0.57705156172146
1765409441.776734,-9.151165659140991,1.073637544686618,-1.7584061958934465,0.06111885673551827,-0.7146692132063829,-0.5738342255325708
1765409441.776984,-9.083370332186439,1.050665758478579,-1.7934785774007695,0.05958191972865198,-0.7122633116810927,-0.5707274918467833
1765409441.777234,-9.034866494974672,1.0323969339322432,-1.8112999704099197,0.0578442251912254,-0.7096631194362442,-0.5676694202862946
1765409441.777484,-9.006402779264498,1.0196818527043963,-1.8116392104645123,0.05589409952153026,-0.706941256990589,-0.5645912309686667
1765409441.777677,-8.998001150374728,1.0130447368460214,-1.7949861013059092,0.05372469087348821,-0.7041712337083196,-0.5614221157871223
1765409441.777927,-9.009010329233869,1.0126432589936256,-1.7624745689601187,0.051333941888150436,-0.701423497009636,-0.5580944465687901
1765409441.778177,-9.038182464613929,1.0182543418931114,-1.7157901569472163,0.04872467329444141,-0.6987620955151377,-0.5545489478728027
1765409441.778427,-9.083764903808234,1.0292871196705011,-1.6570687655373968,0.04590481538484364,-0.696241846144842,-0.5507393957830452
1765409441.778684,-9.143599838747965,1.04482283834332,-1.5887891733877617,0.042887779481770805,-0.6939058193735717,-0.5466364296277807
1765409441.779017,-9.215225609373878,1.063679418387225,-1.513659436623931,0.039692907688490854,-0.6917830200072415,-0.5422301245766209
1765409441.779351,-9.29597536024554,1.0844960288317287,-1.434496662008556,0.03634588792132256,-0.6898862968367248,-0.5375310708823169
1765409441.779657,-9.383070844973235,1.1058308400474424,-1.354100677123822,0.03287899457679956,-0.6882106767601724,-0.5325698280308575
1765409441.779907,-9.473709867833964,1.1262634319361593,-1.2751250227637825,0.02933102256487845,-0.6867324294116736,-0.5273947589502055
1765409441.780157,-9.565144752248463,1.1444923734603358,-1.199953038011361,0.02574681408149214,-0.6854092077631164,-0.5220683988872978
1765409441.780407,-9.654747882299931,1.1594188244822656,-1.1305906213947825,0.02217631997866158,-0.6841815716479981,-0.5166626657880534
1765409441.780632,-9.74006119770097,1.170209084471212,-1.0685878619158202,0.01867318213580501,-0.6829760770771989,-0.5112533469754951
1765409441.780882,-9.818830454952597,1.17633231457932,-1.0149981659544276,0.015292862012542043,-0.6817099063225358,-0.5059143730347825
1765409441.781132,-9.88902987174529,1.177573005821654,-0.9703778140385525,0.012090369074573911,-0.6802967480376179,-0.50071240326516
1765409441.781382,-9.94888470790414,1.1740202184202424,-0.9348240215477396,0.009117666729468017,-0.6786533708827072,-0.495702195267444
1765409441.78168,-9.996896828501958,1.1660367735953565,-0.9080461575022084,0.006420864953532962,-0.6767061517556813,-0.4909231140471175
1765409441.78193,-10.031873461622144,1.1542117803424723,-0.8894611626360749,0.004037354629285867,-0.6743967929593871,-0.4863969791372115
1765409441.78218,-10.052955738718381,1.1393003621357551,-0.8782999249172178,0.001993093925306627,-0.6716865987660873,-0.4821273025386682
1765409441.78243,-10.059642818567967,1.122156087691033,-0.8737089057747368,0.0003003065921487233,-0.6685589207586354,-0.4780998596505929
1765409441.782655,-10.051808489220253,1.1036633415823085,-0.8748334366072653,-0.0010441288609439664,-0.6650196512414055,-0.47428443774407025
1765409441.782905,-10.029708519409867,1.084676539576191,-0.8808752906381154,-0.0020593564925684873,-0.6610958969215148,-0.47063750701908
1765409441.783155,-9.993977927932907,1.065970076828493,-0.8911239095335134,-0.002780137820325954,-0.656833165833157,-0.46710548734150764
1765409441.783405,-9.945617639618387,1.0481990300548123,-0.9049650655017317,-0.0032553362367358984,-0.6522915197947898,-0.4636282795195195
1765409441.783724,-9.885969875938827,1.031868377954495,-0.9218725440895339,-0.0035453756547920317,-0.6475411706122742,-0.46014279503123506
1765409441.783974,-9.816681625823932,1.01730878455037,-0.9413892037997567,-0.0037188503658692426,-0.6426579402815922,-0.45658631228700175
1765409441.784224,-9.739656295298062,1.0046589285144192,-0.963104236620729,-0.003848539582407581,-0.6377188888837407,-0.4528995651110237
1765409441.784474,-9.656995285608605,0.9938563970016409,-0.9866325572657233,-0.004007139493606956,-0.6327982749231339,-0.449029507987289
1765409441.784689,-9.5709331877396,0.9846400071786306,-1.0115992103233642,-0.004263055184760523,-0.6279638919248145,-0.44493170520985026
1765409441.785022,-9.48377143423909,0.9765655590588347,-1.0376279460952467,-0.0046765826972735925,-0.6232737535124887,-0.44057227545957334
1765409441.785356,-9.397814835528152,0.9690350474137676,-1.0643309397588083,-0.005296754698357626,-0.618773087263292,-0.43592931186031636
1765409441.785652,-9.315313702389508,0.961337538789775,-1.091296523290445,-0.006159028712314921,-0.6144916380177218,-0.43099370126111636
1765409441.785902,-9.238412283554762,0.9526989531996055,-1.118072709364806,-0.007283887370519836,-0.610441360085753,-0.4257692816795192
1765409441.786152,-9.1691027397846,0.9423373720967367,-1.1441457513975222,-0.008676329207973022,-0.60661467453875,-0.4202723004732419
1765409441.786402,-9.109182727745827,0.9295194673751006,-1.16891554867804,-0.010326174859337659,-0.6029835546064529,-0.41453017606970455
1765409441.786682,-9.060213867665777,0.9136125751256189,-1.1916731555611788,-0.012209086036181727,-0.5994997504997311,-0.4085796318866137
1765409441.786932,-9.023478597674519,0.894127170325015,-1.2115882507924804,-0.014288173415692449,-0.5960964453469001,-0.4024643512043946
1765409441.787182,-8.999934617138416,0.8707466487685196,-1.2277145846596749,-0.016516053852682493,-0.5926915210473566,-0.39623236104214066
1765409441.787432,-8.990168590033147,0.8433441863654423,-1.2390193371440887,-0.018837222235496696,-0.5891924119784359,-0.38993336160030795
1765409441.787643,-8.994352798587133,0.8119882370950331,-1.2444392249463174,-0.021190630312103154,-0.5855022805860446,-0.38361618265649666
1765409441.787893,-9.012209343562898,0.7769385709445099,-1.24296271561642,-0.023512390526701683,-0.5815270153818992,-0.3773265016809026
1765409441.788143,-9.042986403134119,0.7386345778825399,-1.2337335260190265,-0.025738526766636523,-0.5771823697864505,-0.37110491796990946
1765409441.788393,-9.08545068488312,0.6976773527409739,-1.2161652554470237,-0.027807684282724086,-0.572400470080336,-0.36498543718959964
1765409441.788707,-9.137900397667996,0.6548063809682044,-1.19005101102136,-0.029663708377426712,-0.5671349607687219,-0.3589943796158156
1765409441.78904,-9.198203991327603,0.6108704819826809,-1.155647449262072,-0.031258007811435576,-0.5613642338065924,-0.3531496970909108
1765409441.789374,-9.2638704544925,0.5667921822042298,-1.1137129952019045,-0.03255162206310045,-0.55509246615997,-0.34746067833953737
1765409441.789663,-9.332155356641193,0.5235257479285496,-1.0654866944229056,-0.03351690792009982,-0.5483484976476736,-0.34192802885768936
1765409441.789913,-9.40020199858619,0.48201092144202323,-1.012605503001239,-0.03413875759722577,-0.5411828466131279,-0.33654431120959805
1765409441.790163,-9.46520967651731,0.4431254891799228,-0.9569700336863465,-0.034415266789033505,-0.533663343916566,-0.3312947231351264
1765409441.790413,-9.524613538654009,0.4076399123726517,-0.9005781870355055,-0.03435779454351456,-0.5258699613523528,-0.32615818914833444
1765409441.790715,-9.576255635269826,0.37617733910629003,-0.8453504457842554,-0.03399039595042565,-0.5178894267134262,-0.3211087464090708
1765409441.790965,-9.618526241831926,0.3491828613604845,-0.7929696450583551,-0.03334864956828706,-0.5098101590067794,-0.31611719450568004
1765409441.791215,-9.650458189119057,0.3269060717595652,-0.7447535941140961,-0.032477936507875844,-0.5017179347207101,-0.3111529369821964
1765409441.791465,-9.671763246024106,0.30939979544967855,-0.7015736515637127,-0.03143126390456391,-0.4936925337541735,-0.30618588680431946
1765409441.791718,-9.682807129745006,0.29653530920802973,-0.6638272923860494,-0.030266763098428892,-0.48580544063083797,-0.3011882685383211
1765409441.791968,-9.684527705241516,0.2880313979861805,-0.6314666327934496,-0.02904501805615432,-0.4781185159126479,-0.29613614493585844
1765409441.792218,-9.67830836490943,0.2834924498257394,-0.6040769372353764,-0.02782638385199415,-0.47068341670743724,-0.29101052747666806
1765409441.792468,-9.665823564793468,0.28245017826902263,-0.5809914055192509,-0.026668446982829278,-0.4635414471111865,-0.2857979897250091
1765409441.792714,-9.648874690653468,0.2844043203308714,-0.5614243523619381,-0.02562376826923582,-0.45672349036979665,-0.280490768610404
1765409441.792964,-9.629232654930105,0.28885879774732603,-0.5446049114240754,-0.024738031581438984,-0.45024974384458205,-0.2750863911855832
1765409441.793214,-9.60850093230034,0.29535029446473515,-0.5298953569503767,-0.024048689205671162,-0.4441291278761404,-0.26958689902736765
1765409441.793464,-9.588010008234717,0.30346596017594124,-0.5168803084166336,-0.02358414561548295,-0.4383584077532239,-0.2639977748243894
1765409441.793732,-9.568750771583115,0.31284732306370444,-0.5054160745040654,-0.02336346206972873,-0.4329212022535415,-0.2583267205457341
1765409441.794065,-9.551349780325308,0.32318000691385546,-0.4956343948851982,-0.023396507273742987,-0.42778713980818023,-0.2525824803118238
1765409441.794399,-9.536084236902715,0.3341733574406117,-0.4879016916620984,-0.023684441634354923,-0.4229114628954694,-0.24677390231232071
1765409441.794701,-9.52292993589717,0.34553821248981254,-0.4827421726770074,-0.024220418208084318,-0.4182353611836729,-0.2409093637415568
1765409441.794951,-9.511632208223409,0.35697186068213677,-0.48073872029284065,-0.024990408901141112,-0.4136872336929498,-0.2349965614908729
1765409441.795201,-9.501788755333193,0.36815571412323966,-0.48242754896606005,-0.025974099607969838,-0.4091849682333346,-0.22904255964651404
1765409441.795451,-9.492934684215651,0.3787653425263432,-0.4882004012031133,-0.02714582455034704,-0.40463921373510997,-0.22305393815099683
1765409441.795662,-9.484623291694882,0.3884878249113531,-0.4982230555679406,-0.028475524607196816,-0.39995751378573424,-0.2170369197072041
1765409441.795912,-9.476499123555147,0.3970401786041634,-0.5123743275298437,-0.029929721262300587,-0.3950490677121277,-0.21099743173199298
1765409441.796162,-9.468360630400527,0.40418444323904434,-0.5302080226784219,-0.031472499107176546,-0.3898298088330331,-0.20494113358118662
1765409441.796412,-9.46020859153375,0.4097377438664822,-0.5509409490209093,-0.03306648536937005,-0.3842274560520705,-0.19887347034658118
1765409441.796693,-9.452275488194731,0.4135776954646912,-0.5734703592518612,-0.034673807310580174,-0.3781861923545864,-0.19279980257885768
1765409441.796943,-9.445031855699847,0.4156444015156561,-0.5964220983992418,-0.03625700558197568,-0.371670629815575,-0.1867256295777421
1765409441.797193,-9.439168283944879,0.41594037088572466,-0.6182267944841231,-0.037779890847972626,-0.36466873581510517,-0.18065689483180516
1765409441.797443,-9.435555013119219,0.4145293424771409,-0.6372175914026018,-0.03920834900460787,-0.3571934370830445,-0.17460034243092099
1765409441.797648,-9.435183822684863,0.41153447372801094,-0.6517403560132623,-0.0405111159436742,-0.34928269987256044,-0.1685638833424596
1765409441.797898,-9.439098548471595,0.4071359115531255,-0.6602656559385133,-0.041660549021976905,-0.3409980037680987,-0.1625569355492
1765409441.798148,-9.448320922716091,0.4015678170125618,-0.6614909528238602,-0.042633421175652796,-0.3324212690554459,-0.15659071756423054
1765409441.798398,-9.46377752765534,0.3951153334620036,-0.6544226191598371,-0.043411757755301233,-0.32365044854518926,-0.15067847754538016
1765409441.798668,-9.486232081914814,0.38811205788607334,-0.6384311227701066,-0.04398371858957194,-0.3147941403798373,-0.14483561309597573
1765409441.798918,-9.516226271759066,0.3809378069430051,-0.6132771336282672,-0.04434448514977882,-0.3059656888507034,-0.13907959167882442
1765409441.799168,-9.55403242472692,0.3740150881349593,-0.5791092669823973,-0.044497047196089115,-0.29727727275080346,-0.1334295521888257
1765409441.799418,-9.59962137904882,0.36780140882514156,-0.536436037072184,-0.04445272514758968,-0.28883441847039265,-0.12790549043925967
1765409441.799653,-9.65264748464567,0.3627742346178637,-0.48607700602757253,-0.044231249057164995,-0.28073125380761044,-0.12252701984643702
1765409441.799903,-9.712450101007756,0.3594066166862589,-0.4291010232033197,-0.04386025331242477,-0.27304669780776547,-0.11731182815217135
1765409441.800153,-9.778069263314626,0.3581340662164058,-0.36676069496708835,-0.04337412577492986,-0.2658416876697619,-0.11227406473369507
1765409441.800403,-9.848273711806119,0.35931616503578734,-0.3004301693936455,-0.042812251043404435,-0.2591574572040038,-0.10742293896105767
1765409441.801049,-9.92160114584013,0.36319840707480916,-0.23154906985772922,-0.042216783838660794,-0.25301479315391034,-0.10276177319748425
1765409441.801299,-9.99641116635359,0.3698801685751635,-0.16157171214174568,-0.041630151895979746,-0.24741413820254907,-0.09828765841841931
1765409441.801549,-10.070950128962991,0.3792936721697117,-0.09191920059547624,-0.041092504901773685,-0.2423364111370271,-0.09399174441616098
1765409441.801799,-10.1434252206238,0.39119691319397004,-0.023932287454951268,-0.0406393043120539,-0.23774445542858946,-0.08986008922616347
1765409441.801679,-10.212083937641339,0.40518131791617695,0.041175877987244,-0.040299203371177886,-0.23358506618753094,-0.08587491259198805
1765409441.801929,-10.275295040669274,0.42069298678233574,0.10236628589820197,-0.040092311603373586,-0.2297915609821931,-0.08201605915135304
1765409441.802179,-10.331627209183177,0.43706520273797406,0.15881735286427603,-0.04002888830423506,-0.2262868490018154,-0.07826247671935485
1765409441.802429,-10.379921184256629,0.4535593351479935,0.20996118919778964,-0.040108477999950924,-0.22298691796139594,-0.07459353638796717
1765409441.80277,-10.419350054308918,0.4694106960121491,0.25550847457330117,-0.04031949156156967,-0.21980461133721158,-0.07099005369277196
1765409441.80302,-10.449461232724556,0.48387499533445516,0.29545750087854833,-0.040639240242089605,-0.2166535274807473,-0.06743491976543026
1765409441.80327,-10.470193758507836,0.4962703927192065,0.33008358275655136,-0.04103442877853076,-0.21345184367260167,-0.06391332082666273
1765409441.80352,-10.481866616269198,0.5060105640324973,0.35990689611127125,-0.04146209935405464,-0.21012584824745145,-0.060412597620829116
1765409441.803685,-10.485137604126137,0.512625694501634,0.3856399555623006,-0.041870998518127395,-0.20661295689822576,-0.05692185151483921
1765409441.803935,-10.480936773396367,0.5157701795677729,0.40811950387660706,-0.04220332292251863,-0.20286401584987435,-0.053431431997129526
1765409441.804185,-10.470382390399921,0.5152175903091646,0.42823041726132755,-0.04239678471498603,-0.19884476769210446,-0.04993244519615834
1765409441.804435,-10.454689895731686,0.5108451629977999,0.4468307842109009,-0.04238691910023853,-0.1945364533065179,-0.04641640841556112
1765409441.804691,-10.435084902165844,0.5026116508596146,0.46468730262988267,-0.042109536372428404,-0.1899356035907434,-0.04287513849845364
1765409441.804941,-10.412729538114995,0.49053338925617423,0.48242805245012765,-0.04150320243938471,-0.18505311829077103,-0.03930090123052279
1765409441.805191,-10.388667843550408,0.4746634491612587,0.5005156961063687,-0.040511619789537316,-0.17991275020196734,-0.03568677880835143
1765409441.805441,-10.363791916081341,0.45507774622677416,0.5192398949436736,-0.03908578078246938,-0.17454912651878227,-0.03202715879924118
1765409441.805777,-10.338827568868075,0.4318701619724705,0.5387251763528283,-0.037185779343705316,-0.16900544118722613,-0.028318231819197015
1765409441.806027,-10.314336665130615,0.40515659496891654,0.5589499970275762,-0.034782191225148314,-0.16333093789330488,-0.024558408376302084
1765409441.806277,-10.290732259933218,0.37508623299863203,0.5797730731651641,-0.03185696275964835,-0.15757828568075083,-0.02074861227075392
1765409441.806527,-10.268301728268174,0.3418579260091558,0.6009631782459941,-0.028403784013635663,-0.15180094550704476,-0.01689245384735359
1765409441.806737,-10.2472326416388,0.30574010039376914,0.6222288223313148,-0.024427962562655423,-0.14605063534149176,-0.012996309679768116
1765409441.806987,-10.227636881997224,0.2670931837151677,0.6432451861460603,-0.019945850410544995,-0.14037500597909025,-0.009069330691369044
1765409441.807237,-10.20957025429124,0.22639334448724346,0.663677258043601,-0.014983904002492807,-0.1348156286843379,-0.005123380917273534
1765409441.807487,-10.193046999108333,0.1842556671254519,0.6831995409187239,-0.009577481110273385,-0.12940637673263183,-0.0011728908479781148
1765409441.807688,-10.178050361171552,0.14145414239429135,0.7015133558672346,-0.0037695012688874893,-0.12417226618101164,0.002765398479051943
1765409441.807888,-10.164541110020687,0.09893531986789153,0.718362537924081,0.002390892546812758,-0.11912880395809572,0.006672819032318305
1765409441.808088,-10.152465398748443,0.05782230204649484,0.7335474581988817,0.008849545578208754,-0.11428186737150359,0.010529285287835062
1765409441.808288,-10.141762102834404,0.01940618779235199,0.7469363771128298,0.015548282473080058,-0.10962811313290939,0.01431389646026753
1765409441.808488,-10.132368754282533,-0.014876776996254896,0.7584726586536672,0.022425623716063978,-0.10515589363144093,0.01800556815746465
1765409441.808703,-10.124224866060986,-0.04348241873078553,0.7681764287514572,0.029417214289496903,-0.10084663883613362,0.021583617551486117
1765409441.808953,-10.117271647872647,-0.06480862558259459,0.7761396246360335,0.036455992381045556,-0.09667663235414801,0.02502823702054514
1765409441.809203,-10.111447630240269,-0.07725533203578906,0.7825140269405845,0.0434721640893191,-0.09261906916400636,0.02832081825179468
1765409441.809453,-10.106680538565,-0.07929127523670478,0.787492872002985,0.05039308354072061,-0.08864624391691793,0.031444119759697506
1765409441.80965,-10.102876723688519,-0.06952439903560742,0.791287783791115,0.05714316153599043,-0.08473169621403395,0.03438229606329579
1765409441.8099,-10.099910191040047,-0.046773018956270764,0.7941036363746071,0.06364393150076955,-0.0808521389470673,0.03712082135342327
1765409441.81015,-10.097613638850191,-0.010134889395845826,0.7961144346053466,0.06981438651346021,-0.07698902136146081,0.03964634336873463
1765409441.8104,-10.095774004630378,0.04094898430642577,0.7974434596330695,0.07557167277325542,-0.073129628982468,0.041946497887726364
1765409441.810704,-10.09413465259836,0.10663941855870139,0.7981504981977453,0.08083219304031419,-0.06926768266650786,0.04400970870333107
1765409441.810904,-10.092405182198567,0.1866569217736993,0.7982275199462594,0.08551314324641793,-0.0654034493513258,0.04582499831258269
1765409441.811104,-10.09027816414046,0.2802560181799104,0.7976020755618549,0.08953447553485447,-0.06154341132998158,0.04738183798004685
1765409441.811304,-10.08745071885731,0.3862188042646335,0.7961461999613294,0.09282124795016392,-0.05769955967390619,0.0486700646191397
1765409441.811504,-10.083648107291813,0.5028692829854615,0.7936884124255582,0.09530628172122932,-0.05388837937024753,0.0496798829953439
1765409441.811685,-10.078646170093494,0.628108816171268,0.7900270534275742,0.09693300053238407,-0.05012958900136449,0.050401959260489716
1765409441.811935,-10.072289533845124,0.7594719514981967,0.7849439986794953,0.09765827783256087,-0.04644471056566778,0.0508276046143566
1765409441.812185,-10.064503346930483,0.8942005796050415,0.7782184097090047,0.0974550821649106,-0.04285558140367906,0.050949051780121636
1765409441.812435,-10.055297760374405,1.0293326389750321,0.7696403572839987,0.09631470170710087,-0.03938294889327144,0.05075983382289543
1765409441.812719,-10.044765655523978,1.1617999119663767,0.759023806538841,0.09424835250404688,-0.036045275215311215,0.05025526646934438
1765409441.812969,-10.033074766186038,1.2885287540996682,0.7462180834894427,0.09128802290316403,-0.03285782953605072,0.049433004849804514
1765409441.813219,-10.020455604434225,1.406538264614398,0.7311171793306516,0.08748646770921381,-0.029832093968248492,0.04829360896517478
1765409441.813469,-10.007186772753878,1.5130319749354164,0.7136669127802578,0.08291632974703307,-0.02697548026729372,0.046841032047109286
1765409441.813683,-9.993579171414776,1.6054807874738886,0.6938702796387903,0.0776684247788249,-0.02429134062422102,0.045082952695539746
1765409441.813883,-9.979960195714819,1.6816960703206028,0.671791085005015,0.07184926857612675,-0.021779244574045252,0.04303089887434238
1765409441.814083,-9.966658645380587,1.7398923530606227,0.6475558172630244,0.06557794893562452,-0.019435481312473354,0.04070014599679236
1765409441.814283,-9.953991044912112,1.7787391192748299,0.6213540058813559,0.05898245823178432,-0.017253735811698562,0.03810940238435114
1765409441.814483,-9.94225014697626,1.797401026816215,0.5934374656370305,0.05219561428610173,-0.015225880917411576,0.035280320978844065
1765409441.814701,-9.931696224162138,1.7955657525231483,0.5641184494725816,0.04535071050292703,-0.013342827522831141,0.03223689955870455
1765409441.814951,-9.922551459639182,1.7734585730312729,0.533766271604407,0.03857704599587024,-0.011595379113451636,0.029004855902745614
1765409441.815201,-9.91499753600226,1.7318425230766425,0.502801979488555,0.03199549403758894,-0.009975039644454597,0.025611085361188772
1765409441.815451,-9.9091762098285,1.6720023680447365,0.47169090187459944,0.025714278985194503,-0.008474722090110513,0.02208331244943528
1765409441.815672,-9.90519201694044,1.5957099870930989,0.44093284422266305,0.019825148818192282,-0.00708930502929415,0.018450020303284565
1765409441.815872,-9.903115590257823,1.5051687343200972,0.41104945821140004,0.014400145278036859,-0.005815994095709398,0.01474068049535708
1765409441.816072,-9.90298597048012,1.4029354492090973,0.3825684388112422,0.009489176737396668,-0.004654462895147631,0.010986228571155431
1765409441.816272,-9.904810855552688,1.2918209920149553,0.3560048174050231,0.005118582541877722,-0.0036067657758705064,0.007219665368861742
1765409441.816472,-9.90856453264658,1.1747728510065318,0.33184028158821555,0.0012908372433084099,-0.0026770299117895684,0.0034766315554420305
1765409441.816717,-9.914183899629638,1.054745702746038,0.31050184270765163,-0.0020145194973967637,-0.0018709521219730982,-0.00020419500410166994
1765409441.816917,-9.921563467472714,0.9345674076387156,0.2923413760378583,-0.004838718797838432,-0.0011951462219485047,-0.0037810061006924075
1765409441.817117,-9.93055049978043,0.8168089338642475,0.27761764059938926,-0.007240438350138062,-0.0006563973192939532,-0.007209170506713798
1765409441.817317,-9.94094138115512,0.7036673666185347,0.2664822189751386,-0.009291474207933697,-0.0002608746013101341,-0.010442001608912387
1765409441.817517,-9.95248005157628,0.596871347845681,0.2589704496492958,-0.011071642551612951,-1.334599500015422e-05,-0.01343199746378272
1765409441.817684,-9.964859217715146,0.4976175273388833,0.25499811184645826,-0.01266321480482531,8.356071751676552e-05,-0.01613250498778313
1765409441.817884,-9.977725071013575,0.40654449254498914,0.25436439790823095,-0.01414524282319991,2.9999259813702208e-05,-0.01849969561268217
1765409441.818084,-9.990686073187781,0.3237472183938044,0.256761334610093,-0.015588159441764648,-0.00017060260960986127,-0.02049468650240878
1765409441.818284,-10.003325817243434,0.24883084659232718,0.2617892067993317,-0.017049035921205546,-0.0005112409909313663,-0.022085613215306103
1765409441.818484,-10.015219232859032,0.18099837721643017,0.26897688730808866,-0.018567837451929893,-0.0009812488581860523,-0.023249462798730035
1765409441.818689,-10.02595081593081,0.11916348672854872,0.2778054928273166,-0.020164942528403017,-0.0015664281501333625,-0.023973506928005716
1765409441.818939,-10.035133324179624,0.062077727261305914,0.2877335496953344,-0.02184009008363514,-0.0022493853960800086,-0.024256221147148597
1765409441.819189,-10.042425517065809,0.00846082804021091,0.2982218862480026,-0.023572801462418344,-0.0030100426310495586,-0.024107625366635597
1765409441.819439,-10.047547899710432,-0.0428766555296338,0.30875673803688797,-0.025324204864279103,-0.0038262891193689124,-0.0235490257254966
1765409441.819673,-10.050295851439571,-0.09292781129123678,0.31887000351976036,-0.027040081180801416,-0.004674734988258299,-0.02261218084083253
1765409441.819873,-10.05054985435549,-0.14240835751527298,0.3281561823013813,-0.0286548656671936,-0.005531524768259399,-0.0213379596198253
1765409441.820073,-10.048282754240468,-0.19170467565162358,0.33628609897875433,-0.03009628842656027,-0.0063731704035061825,-0.01977459751583776
1765409441.820273,-10.043563993020209,-0.24085216477296414,0.3430176895235118,-0.03129031861553594,-0.007177368744442413,-0.017975680986771058
1765409441.820473,-10.036560446449037,-0.28954238952145195,0.34820369924561595,-0.03216608598599617,-0.007923773499691152,-0.015997990548579064
1765409441.820698,-10.027533051825216,-0.33715574861275815,0.35179546711232446,-0.03266048013492046,-0.008594695157727294,-0.013899319612962157
1765409441.820948,-10.016828241271442,-0.38281562213294296,0.35384166496190306,-0.03272216580624834,-0.009175705366119884,-0.011736371987452187
1765409441.821198,-10.004863552841751,-0.42545957728611716,0.3544811600834627,-0.03231479892260897,-0.009656122144001855,-0.009562829987660748
1765409441.821448,-9.992107529320771,-0.4639226804485084,0.35392987289788486,-0.03141928376500103,-0.010029347760674975,-0.00742767424957476
1765409441.821738,-9.979054857436926,-0.4970271151704867,0.3524623542837096,-0.030034978021584648,-0.010293028326638948,-0.005373823386640741
1765409441.821938,-9.966198472948856,-0.5236713965417868,0.3503896050478787,-0.028179826288728175,-0.010449011106769811,-0.0034371474948638224
1765409441.822138,-9.954000923736146,-0.542912019167799,0.3480351526636011,-0.02588947683900329,-0.010503091867393758,-0.0016458921377046482
1765409441.822338,-9.94286751730268,-0.554030831629986,0.3457114691344355,-0.02321550249698351,-0.010464562127334768,-2.052341068672156e-05
1765409441.822538,-9.933123672473359,-0.5565828833786274,0.34369861990525846,-0.020222897185782546,-0.010345578907918932,0.001426030959627673
1765409441.822706,-9.924998529164439,-0.5504216785406814,0.34222675529192564,-0.016987051790346628,-0.010160388089060477,0.0026878068788891507
1765409441.822906,-9.918616267585524,-0.5357013243558513,0.3414636486326723,-0.01359042631086016,-0.00992444089548601,0.0037649855463297707
1765409441.823106,-9.913995754200279,-0.5128576234462284,0.341507882771733,-0.010119129745089448,-0.009653454740929284,0.004662932118413803
1765409441.823306,-9.911058211190294,-0.48257234719046443,0.34238763528572125,-0.0066595946846534785,-0.009362483223229865,0.005391184683099766
1765409441.823506,-9.909641802929393,-0.4457263640095915,0.34406450200216515,-0.003295494785183854,-0.009065067847327832,0.005962465848461127
1765409441.823685,-9.90952141436791,-0.40334771516900486,0.3464414240260484,-0.00010501016354565396,-0.008772539435453912,0.006391760693371937
1765409441.823885,-9.910431452739092,-0.3565600212735503,0.34937349059150485,0.002841492330329906,-0.008493521263726518,0.006695475119300432
1765409441.824085,-9.91208931171175,-0.30653489391381533,0.352680280139618,0.005483326669825985,-0.008233663207214024,0.006890665882910713
1765409441.824285,-9.914217290186805,-0.2544498912311105,0.35615858010735274,0.007770887017454174,-0.007995610352671111,0.006994327574413366
1765409441.824485,-9.916561217872301,-0.20145194276062187,0.3595946704203075,0.009666576841490637,-0.007779187031065036,0.007022736141280901
1765409441.824757,-9.918904659766934,-0.1486257669004805,0.3627756431066307,0.011145276220160762,-0.007581764558048752,0.00699087185437145
1765409441.824957,-9.921078208311128,-0.09696739032978002,0.3654994110633046,0.012194368154149739,-0.00739877634378685,0.006911956128907866
1765409441.825157,-9.922963924561897,-0.04736348830538417,0.3675832336522972,0.012813359510603143,-0.007224339740904001,0.006797125747596377
1765409441.825357,-9.92449538954539,-0.0005771302086517081,0.36887076071668373,0.013013144365403174,-0.007051937664925991,0.00665524552366164
1765409441.825557,-9.92565405751837,0.04276022375766164,0.36923767049879935,0.012814963450837505,-0.006875109308694096,0.006492845674263958
1765409441.82565,-9.92646274159848,0.08215121901934323,0.3685959838020001,0.012249115138318644,-0.006688101851712442,0.0063141699725334085
1765409441.82585,-9.92697721828092,0.11723034200785015,0.36689721830380523,0.01135347461190211,-0.006486442548475838,0.0061213257746513434
1765409441.82605,-9.927277070244442,0.14775736082035684,0.36413463346141733,0.01017188023186842,-0.006267399138360664,0.005914526104027542
1765409441.82625,-9.927456785839532,0.1736069517093596,0.36034465009799904,0.008752449709315182,-0.00603030364793201,0.005692405508917709
1765409441.82645,-9.927617710420623,0.1947554602616433,0.35560712694865565,0.007145892523505005,-0.005776721176575982,0.005452382267003407
1765409441.826646,-9.927860930895937,0.21126630781533642,0.3500439155074867,0.005403884610162075,-0.005510453931489262,0.005191037812555686
1765409441.826846,-9.92828087697432,0.22327574829344152,0.343815206333945,0.0035775612707488746,-0.00523738244913047,0.004904492328779572
1765409441.827046,-9.928959420139423,0.23098035999238067,0.33711345231208034,0.001716165024263558,-0.004965157950605946,0.004588767558286041
1765409441.827246,-9.929960458892737,0.2346270132742444,0.3301549554923602,-0.00013413577447882492,-0.004702768562065363,0.004240135465269642
1765409441.827446,-9.931325295890957,0.23450537059575788,0.32316957734424867,-0.0019312576483198126,-0.0044600065942992555,0.003855449964660317
1765409441.827694,-9.933069369722602,0.23094243639180276,0.3163893940551372,-0.0036380516715370397,-0.004246866395741691,0.0034324507692957296
1765409441.827894,-9.93518087612009,0.22429835266369386,0.3100372185143634,-0.005223005039339329,-0.004072905857732242,0.0029700210444871867
1765409441.828094,-9.937621472201524,0.21496252229705187,0.3043157381391879,-0.006660804083801979,-0.003946610895706669,0.002468381372367376
1765409441.828294,-9.940328865066073,0.20334918942852345,0.29939787215356867,-0.007932759304059867,-0.0038748087358597035,0.0019292118296793163
1765409441.828494,-9.943220887813286,0.18989176293510496,0.2954189849865016,-0.009027081532814594,-0.0038621781253986727,0.0013557047251301594
1765409441.828672,-9.94620064158028,0.17503538469883506,0.29247160705176845,-0.009938987907132745,-0.003910900309371484,0.0007525556968640661
1765409441.828872,-9.949162318384897,0.15922749182413695,0.29060312584610104,-0.010670609841466458,-0.0040204839727059965,0.0001258998331491877
1765409441.829072,-9.951997397177825,0.14290641452671085,0.2898165901061622,-0.011230674717600062,-0.004187780048979304,-0.0005168034841978695
1765409441.829272,-9.95460097666067,0.12648839210686352,0.29007443257032334,-0.011633938999142538,-0.004407179489590726,-0.0011669353819793798
1765409441.829472,-9.956877948670934,0.110353722540598,0.29130456889202716,-0.011900362727431047,-0.00467096577922012,-0.0018149318502221584
1765409441.829669,-9.958748539989633,0.09483301286097072,0.29340801552758816,-0.012054033682063602,-0.004969782800627799,-0.002450548347326646
1765409441.829869,-9.960152658761,0.08019463353030007,0.29626703172254104,-0.012121872913842336,-0.005293178333296685,-0.0030631733085893145
1765409441.830069,-9.961052607617397,0.06663448021237417,0.29975291657666264,-0.012132179081539464,-0.005630186472211743,-0.003642183202375592
1765409441.830269,-9.96143399808526,0.05426897629613601,0.30373291092727084,-0.012113091965942157,-0.005969912112921698,-0.004177323372341876
1765409441.830469,-9.961304966904397,0.04313192813208885,0.3080759859759693,-0.01209106891350062,-0.006302077848985285,-0.0046590914957153826
1765409441.830648,-9.96069394502593,0.03317549219082019,0.3126574646783391,-0.012089467393688519,-0.006617492687443731,-0.0050790974793618595
1765409441.830848,-9.959646246026288,0.024275266144973412,0.31736238875508127,-0.012127314907148915,-0.006908407345565847,-0.005430376474470169
1765409441.831048,-9.958219727322003,0.016239416481911455,0.3220874952056607,-0.012218331024413498,-0.007168734842892624,-0.005707639053669412
1765409441.831248,-9.956479861883128,0.00882172449431099,0.3267417699019415,-0.012370249867408697,-0.007394134768844906,-0.005907451261923563
1765409441.831448,-9.954494690883351,0.001738320954855136,0.33124573166592947,-0.01258447626009325,-0.007581976647313571,-0.006028343799449998
1765409441.831657,-9.952330137503642,-0.005312418971191888,0.33552971386430863,-0.012856096153987724,-0.007731205599090372,-0.006070851453956585
1765409441.831857,-9.950046038832633,-0.012627786869491406,0.3395314743246061,-0.013174250613899093,-0.007842134287141301,-0.006037480819487965
1765409441.832057,-9.947693165927092,-0.020477835042960645,0.3431935896997209,-0.01352286696107217,-0.007916186635236657,-0.005932599723218861
1765409441.832257,-9.94531152239451,-0.029083298717845166,0.3464612586351427,-0.013881716212589434,-0.007955623840994975,-0.0057622410909081295
1765409441.832457,-9.942930228471642,-0.03859611532482836,0.34928123393737126,-0.014227736485583594,-0.007963286170368246,-0.005533820359359751
1765409441.832642,-9.940569189450198,-0.04908427296683568,0.3516025253024672,-0.014536535887548663,-0.007942377958654987,-0.0052557767688691266
1765409441.832842,-9.93824247432735,-0.06052244494308056,0.3533791673776287,-0.01478397035212481,-0.007896308002364738,-0.004937159249405236
1765409441.833042,-9.935962937964186,-0.07278932088748931,0.3545747452118356,-0.014947683368897891,-0.007828580782796316,-0.004587183887008867
1765409441.833242,-9.933747262199185,-0.08567180256319526,0.35516776716507975,-0.015008498435788784,-0.007742724629662499,-0.004214794174355005
1765409441.833442,-9.931620447428047,-0.09887544454175487,0.3551567007129602,-0.014951573437455479,-0.007642243585782751,-0.0038282598026902126
1765409441.833645,-9.929618892768277,-0.11203990566402573,0.3545636148655401,-0.014767255289110125,-0.007530585732542951,-0.0034348515811872906
1765409441.833895,-9.927791442339919,-0.1247579415892933,0.3534357027261032,-0.014451604738362425,-0.007411125485198535,-0.0030406235241307537
1765409441.834145,-9.926198038756654,-0.13659660549386513,0.35184427209208335,-0.014006587925548498,-0.0072871573031743,-0.0026503177154854705
1765409441.834395,-9.924905932139112,-0.14711959426788623,0.3498810830095145,-0.013439950622326178,-0.007161894878205474,-0.0022673893912293426
1765409441.834726,-9.923983818641556,-0.15590985921113967,0.347652309336346,-0.012764804414961932,-0.007038468017111326,-0.0018941354286460532
1765409441.834926,-9.923494775826107,-0.16259165637787282,0.34527088851879123,-0.011998963224315541,-0.006919911412673869,-0.0015319012058836285
1765409441.835126,-9.923489198018892,-0.1668512060654027,0.34284836398951773,-0.011164073662745367,-0.006809141642530949,-0.0011813374001490783
1765409441.835326,-9.923998900527723,-0.16845509340266562,0.3404873352492144,-0.010284584543094517,-0.006708917416934006,-0.0008426785622263528
1765409441.835526,-9.925033158953031,-0.16726544142127633,0.33827534669476717,-0.009386602505362619,-0.006621776362969547,-0.0005160183069548741
1765409441.835693,-9.926576877071064,-0.1632507180778537,0.33628060421834227,-0.008496685833078122,-0.006549945177975591,-0.00020155978263451717
1765409441.835893,-9.928590588204132,-0.15649094348380102,0.33454948168151605,-0.007640637303262468,-0.006495229340909422,0.0001001768877536713
1765409441.836093,-9.931011796401416,-0.14717629458220333,0.33310557744668173,-0.006842364293502715,-0.006458898929245962,0.0003882057600778552
1765409441.836293,-9.933757295560655,-0.13559874945649167,0.3319501623380307,-0.006122873211387411,-0.006441592316858682,0.0006609965345972563
1765409441.836493,-9.936726363460807,-0.12213724486480956,0.3310639991726775,-0.005499452841435453,-0.006443255465635614,0.0009164724937558557
1765409441.836672,-9.93980484450453,-0.10723750785356588,0.3304104787224172,-0.004985081612663743,-0.006463123093951811,0.0011520833834938813
1765409441.836872,-9.942870072545132,-0.09138811062697613,0.3299398779994283,-0.004588073854210214,-0.006499737354028119,0.0013649420053843074
1765409441.837072,-9.94579650779886,-0.07509443363830208,0.32959448644837663,-0.004311964110927728,-0.006550996202896726,0.0015520042242972802
1765409441.837272,-9.948461929179633,-0.058852224306544174,0.3293143198514137,-0.004155617656227762,-0.00661422628278368,0.0017102674700102054
1765409441.837472,-9.950753944680994,-0.04312240445783901,0.3290430228919265,-0.004113548544853612,-0.00668627966136246,0.0018369637003407082
1765409441.837794,-9.95257645005633,-0.028308734381541453,0.32873344885211153,-0.004176421791656756,-0.0067636585418498355,0.0019297275358889328
1765409441.837994,-9.95385556094331,-0.01473983025449259,0.3283524440236925,-0.004331712067968141,-0.006842675158675566,0.0019867274660779494
1765409441.838194,-9.95454443949965,-0.0026567768929066497,0.32788442446354793,-0.004564487628358721,-0.006919650772454458,0.002006756993704137
1765409441.838394,-9.954626287674511,0.007792838920532243,0.3273332459008673,-0.004858284311014163,-0.006991146572675546,0.0019892912297722705
1765409441.838594,-9.95411475661796,0.016554186088813906,0.32672181677664597,-0.005196028097495716,-0.0070542066741733946,0.001934519080826731
1765409441.838703,-9.953051354194479,0.023658057567039207,0.3260891737144273,-0.005560955183535177,-0.007106585303088366,0.0018433601913389868
1765409441.838903,-9.951500044206835,0.029208272040074604,0.325485246032367,-0.005937469680279174,-0.007146926236546655,0.0017174721029662896
1765409441.839103,-9.94953982620129,0.033364984959075854,0.32496400222522515,-0.006311877307878371,-0.00717486257610123,0.0015592504571715529
1765409441.839303,-9.94725651695454,0.03632547043844798,0.3245760374230639,-0.006672942431144542,-0.0071910139640684505,0.0013718234718509703
1765409441.839503,-9.944735202941843,0.038303895133238265,0.324361928025201,-0.007012233629499193,-0.007196877219125842,0.0011590385990085381
1765409441.839672,-9.942054741379438,0.03951151097061495,0.32434760538243246,-0.007324244190691277,-0.007194626376446193,0.0009254333275376537
1765409441.839872,-9.939285117494189,0.04013866946027387,0.3245424150294688,-0.007606293596926961,-0.007186851147836841,0.0006761762079465449
1765409441.840072,-9.936487643617456,0.04034006475444834,0.3249397340920402,-0.007858232204212248,-0.007176269568776326,0.0004169624388286419
1765409441.840272,-9.933717342098555,0.04022448616321499,0.32551947078234256,-0.008081983975035928,-0.007165453483803547,0.00015385361248583906
1765409441.840472,-9.931026570259226,0.03984996183748749,0.3262515830918551,-0.008280972265724206,-0.007156601626773065,-0.00010693694277466169
1765409441.840661,-9.928468930903401,0.03922450738598523,0.3270998351158627,-0.00845948214338205,-0.007151382817042105,-0.00035929819539609576
1765409441.840861,-9.926102678109995,0.03831195511090605,0.3280253089401432,-0.008622018622709157,-0.007150856857749518,-0.000597491260791091
1765409441.841061,-9.923993088115722,0.03704180452081746,0.32898953764510225,-0.008772720657530375,-0.007155468757705844,-0.0008164109668878541
1765409441.841261,-9.922213438946596,0.03532181263192232,0.32995722188847787,-0.008914883495371895,-0.007165103103259436,-0.0010118190500470747
1765409441.841461,-9.920844275003615,0.0330520126034291,0.33089833853686346,-0.009050627474496723,-0.0071791802058676895,-0.0011805321495735738
1765409441.841705,-9.919970741385773,0.030138862862056328,0.3317893992193503,-0.009180731017840131,-0.007196776721418197,-0.0013205486683650783
1765409441.841905,-9.919678113914772,0.026508273080104054,0.33261383965809516,-0.0093046222999797,-0.007216758663119261,-0.0014311000798775187
1765409441.842105,-9.920046031439435,0.022116384051024937,0.3333617851482743,-0.009420504366995874,-0.007237917460845757,-0.0015126180564706453
1765409441.842305,-9.921142087565402,0.016957225702280386,0.33402950825354216,-0.009525579117615101,-0.007259098661167585,-0.001566618898038753
1765409441.842505,-9.923015354484058,0.011066738813107196,0.3346187896107231,-0.00961633592670678,-0.00727931285757909,-0.0015955172737076367
1765409441.842669,-9.925690231015336,0.004523058496973293,0.33513621675596306,-0.009688874186675878,-0.007297820513279375,-0.0016023886621046408
1765409441.842869,-9.929160811762282,-0.0025566992962275568,0.33559229458401996,-0.009739232335572067,-0.007314182886725244,-0.0015907040719830832
1765409441.843069,-9.933385858587469,-0.010022683763884833,0.3360002072143523,-0.009763701291815391,-0.007328271085707429,-0.0015640632572367621
1765409441.843269,-9.938284522500608,-0.017700941010551745,0.3363742037527044,-0.009759108110361408,-0.007340228597040077,-0.0015259531013884571
1765409441.843469,-9.943733138522376,-0.02540357950645826,0.33672773946861934,-0.009723061640271025,-0.00735038842504077,-0.0014795536441954305
1765409441.843646,-9.949563504782887,-0.03293945957264865,0.3370715479318654,-0.0096541530439924,-0.007359149947215318,-0.0014276049526696824
1765409441.843846,-9.955563026939018,-0.04012440306231767,0.3374118035607221,-0.009552103364804635,-0.007366822637234583,-0.001372336886502885
1765409441.844046,-9.961477090475942,-0.046790111290843914,0.33774858969766924,-0.00941785214536653,-0.007373445976249844,-0.001315454380795118
1765409441.844246,-9.967014074001845,-0.05279127688760532,0.3380750228666129,-0.009253585261768803,-0.007378597527365777,-0.0012581642723380497
1765409441.844446,-9.971853465712847,-0.058010658992464534,0.3383775008717843,-0.00906270404808916,-0.007381204942718069,-0.0012012256307232035
1765409441.844693,-9.975657504969202,-0.06236207514265403,0.3386375301370707,-0.008849739918070077,-0.007379382798659506,-0.0011450044498782428
1765409441.844893,-9.978086578147064,-0.06579136018482472,0.33883537033105465,-0.00862021861016904,-0.007370317248646412,-0.0010895165206512942
1765409441.845093,-9.978818225843504,-0.06827542742383184,0.33895535482628575,-0.008380476685068002,-0.007350215241404405,-0.001034449942988227
1765409441.845293,-9.977569099199725,-0.06981965980402721,0.3389923612403365,-0.008137432433820485,-0.007314322839347711,-0.0009791698075425944
1765409441.845493,-9.974118590658952,-0.07045392415142984,0.33895860518035026,-0.007898315543621272,-0.0072570083928087566,-0.000922718210657045
1765409441.845639,-9.968332237751465,-0.0702275466617614,0.3388896865037854,-0.007670363557299558,-0.00717190705237647,-0.0008638285561108479
1765409441.845839,-9.960182543000919,-0.0692036370259019,0.33884867565679,-0.00746049634053812,-0.0070521300401911275,-0.0008009729535376866
1765409441.846039,-9.94976477443958,-0.06745315687960891,0.33892710049994385,-0.007274982033403257,-0.006890546897921616,-0.000732457424131734
1765409441.846239,-9.937305589168274,-0.06504905598648247,0.33924195122735246,-0.007119110733411102,-0.006680145510151611,-0.0006565722761908911
1765409441.846439,-9.923162741134648,-0.06206072461014752,0.33992814679736616,-0.0069968972455687764,-0.006414462958308215,-0.0005717935708044184
1765409441.846644,-9.9078146176622,-0.0585490342365513,0.3411263495733609,-0.006910840872757471,-0.006088065043641327,-0.0004770183049199688
1765409441.846844,-9.891839042594698,-0.05456232848176811,0.3429666980474571,-0.00686177311909154,-0.005697039659157432,-0.0003718063715722981
1765409441.847044,-9.87588176035173,-0.05013376900132415,0.34554984808269706,-0.0068488174213289545,-0.005239462801800039,-0.0002565998446543602
1765409441.847244,-9.860616141489155,-0.0452804013098645,0.3489274078706924,-0.00686946950106777,-0.004715795479833131,-0.0001328930905820145
1765409441.847444,-9.846696780070278,-0.04000421249050773,0.35308428040221346,-0.006919790961754591,-0.004129171223118212,-3.3318736382373214e-06
1765409441.847664,-9.834710725280258,-0.03429529579535215,0.3579255378152214,-0.006994699074488243,-0.0034855341703544603,0.00012827636587974832
1765409441.847864,-9.825131017825994,-0.028137001464405658,0.3632701332804823,-0.007088331184677827,-0.0027935887069206115,0.00025705506082565697
1765409441.848064,-9.818277833632951,-0.021512752620602805,0.3688530587914933,-0.007194458612975145,-0.0020645297003450006,0.0003772624638615548
1765409441.848264,-9.81429265045315,-0.014414225526092478,0.37433684093943975,-0.007306921294802118,-0.0013115431411322913,0.0004826066561352814
1765409441.848464,-9.81313004488334,-0.0068507734265000585,0.37933265040494524,-0.007420051915423956,-0.0005491007241425089,0.0005666556717869968
1765409441.848698,-9.814569541704069,0.001140142355075106,0.3834302333940588,-0.007529057252997236,0.00020788870030212113,0.0006233037605949796
1765409441.848898,-9.818246465740344,0.009482525629519805,0.3862339979029051,-0.007630324171216824,0.0009449763645663204,0.0006472356315562713
1765409441.849098,-9.823697072544102,0.01805350867696509,0.3874008314437521,-0.007721619150273709,0.0016490143200594161,0.0006343333393420185
1765409441.849298,-9.830410869510981,0.02667964357339466,0.38667496686387987,-0.007802158302973252,0.0023088483364348544,0.0005819977597440808
1765409441.849498,-9.8378826848048,0.03513955233662561,0.38391632204336545,-0.007872543219105152,0.002915802290590514,0.0004893870445726308
1765409441.849613,-9.84565814028575,0.043172879049705584,0.3791196671266487,-0.00793457913541135,0.003463928096199528,0.0003575832997751942
1765409441.849863,-9.853367832538947,0.050493869287674485,0.37242205471628376,-0.007991000999622534,0.0039500278676986795,0.00018968050527017603
1765409441.850113,-9.860747420641838,0.056807614005342566,0.3640963680796661,-0.008045127455075261,0.004373486599590651,-9.240488591611686e-06
1765409441.850363,-9.867643008442442,0.061827951739575206,0.3545307048163282,-0.008100458102667522,0.004735978349287984,-0.0002322905587614431
1765409441.850662,-9.87400337175836,0.06529677313635275,0.34419592195598697,-0.008160238962628177,0.005041110954796833,-0.00047111431392067864
1765409441.850862,-9.879862116042762,0.0670038368886154,0.3336055476794226,-0.008227038537445658,0.005294048130337425,-0.0007163561531766496
1765409441.851062,-9.88531349810757,0.06680475054587409,0.3232729522712218,-0.008302385576277316,0.005501112787567498,-0.000958187036276689
1765409441.851262,-9.890485629932144,0.06463414048985668,0.31367062688854686,-0.00838651309270676,0.005669359819243504,-0.0011868494497815835
1765409441.851462,-9.89551445765726,0.060512047988146855,0.30519592217711894,-0.008478238146731924,0.005806118579296737,-0.0013932123729554359
1765409441.851725,-9.900521477970688,0.054543434955746276,0.29814658607274325,-0.008574990625604033,0.005918528887074535,-0.0015693307468105653
1765409441.851925,-9.905597571226432,0.046911977979440425,0.2927079592888772,-0.008672988827145756,0.0060131107843500176,-0.0017089707781723015
1765409441.852125,-9.910794355015451,0.03786948517386796,0.2889519166405605,-0.008767545562413423,0.006095410262100756,-0.0018080307134851327
1765409441.852325,-9.916123007942529,0.02772177406743165,0.2868458267604763,-0.008853475512342833,0.006169751544107594,-0.001864789238029437
1765409441.852525,-9.921559037267224,0.01681158349852533,0.2862684809322928,-0.008925562106351134,0.006239106634783241,-0.0018799482977075116
1765409441.852712,-9.927050737884752,0.0054995352082315326,0.2870297490554269,-0.008979033117900477,0.006305074186108223,-0.001856478710943115
1765409441.852912,-9.932529398662897,-0.005855048889285336,0.28889158907731727,-0.009009994110662124,0.006367948803317508,-0.0017993027364389522
1765409441.853112,-9.93792008553877,-0.016911442266315222,0.29158902716847906,-0.009015779328147032,0.006426856487653238,-0.0017148516866521107
1765409441.853312,-9.943152278980673,-0.02736171513739321,0.29485006447121603,-0.008995194829284589,0.006479927483620448,-0.001610531405698479
1765409441.853512,-9.948169556015987,-0.036941867401820025,0.2984133586073237,-0.008948640857277618,0.006524475651728797,-0.0014941340088368508
1765409441.853691,-9.952937249255111,-0.045440388990772684,0.3020425956283154,-0.00887810718376856,0.006557158112222435,-0.001373254650847621
1765409441.853891,-9.957446982947417,-0.05270409904752589,0.3055368312737221,-0.00878704026898573,0.006574101466179847,-0.0012547854213653615
1765409441.854091,-9.961717316906952,-0.05864029271366911,0.3087364766921535,-0.00868008881639837,0.006570998709641798,-0.0011445406938703974
1765409441.854291,-9.96579038513702,-0.06321440503013175,0.311525017864105,-0.008562745443151212,0.006543198798966719,-0.0010470242967611583
1765409441.854491,-9.969725228815703,-0.06644365819945057,0.31382711986776535,-0.00844091472036246,0.006485820410290784,-0.0009653111603994449
1765409441.854669,-9.973589145160215,-0.06838838744719078,0.315604226438841,-0.00832044826617665,0.006393915108377649,-0.0009010111118661073
1765409441.854869,-9.977448470365548,-0.06914290283294017,0.3168487278927543,-0.008206691965138752,0.006262684378714924,-0.0008543047940937029
1765409441.855069,-9.981359843945194,-0.06882687200221545,0.31757739848052724,-0.008104087693741513,0.006087732680623894,-0.0008240627320472206
1765409441.855269,-9.985362604090783,-0.06757717281189672,0.3178246476336503,-0.008015865892723956,0.00586532908413371,-0.0008080563987279277
1765409441.855469,-9.989472861280115,-0.06553979176296869,0.3176362951742857,-0.007943859547769284,0.005592655922343298,-0.0008032472495197664
1765409441.855688,-9.99367987767994,-0.0628618089100594,0.3170646524117518,-0.007888461711564848,0.005268034501598509,-0.0008061159729832156
1765409441.855888,-9.997945335131181,-0.05968426696990573,0.31616541470821546,-0.007848731576469786,0.004891124001356286,-0.0008129878185462966
1765409441.856088,-10.002205733219173,-0.05613697393077441,0.3149963916714024,-0.007822630036789412,0.004463086035601747,-0.0008203235894946255
1765409441.856288,-10.006377547215036,-0.0523357250691412,0.3136175989850584,-0.00780734577436368,0.003986696274266669,-0.0008249669017754676
1765409441.856488,-10.010364105561045,-0.048381516302743115,0.3120918000070206,-0.0077996654674105164,0.0034663733985392333,-0.00082435018919804
1765409441.856633,-10.014062781994609,-0.04436078903874696,0.3104844234942803,-0.007796344299143472,0.0029080959555332795,-0.00081665891691652
1765409441.856833,-10.017371299278818,-0.040345916969031996,0.3088621418556347,-0.007794438991642609,0.0023191963586187588,-0.0008009439955826308
1765409441.857033,-10.020192590519619,-0.036395738502658134,0.30729016236920936,-0.0077915731918726345,0.0017080498046473825,-0.0007771695410179987
1765409441.857233,-10.022438349702881,-0.03255639927486721,0.3058289548359538,-0.007786115396514508,0.0010836948902693151,-0.0007461918487818707
1765409441.857433,-10.024031762227926,-0.028862767746404654,0.3045312905019122,-0.007777261300214193,0.0004554222623658794,-0.0007096785007848101
1765409441.857694,-10.024909831002134,-0.025340388421706925,0.303440138503632,-0.007765022393646704,-0.00016764291402027144,-0.0006699830519647666
1765409441.857894,-10.02502536901416,-0.022007735357925794,0.3025875108172659,-0.007750130959431383,-0.0007769454417176836,-0.0006299882504173241
1765409441.858094,-10.02434844592134,-0.018878558094188407,0.3019940570036847,-0.0077338802033749396,-0.0013648720695771915,-0.0005929255467000082
1765409441.858294,-10.022867090445967,-0.015964200609123177,0.3016691583638204,-0.007717925537074493,-0.001925068459018007,-0.0005621762028994864
1765409441.858494,-10.02058729676681,-0.013275799980354884,0.30161140580814855,-0.007704075433066926,-0.0024526745191081525,-0.0005410598396614504
1765409441.85872,-10.017532610046707,-0.010826286930436396,0.3018095620551551,-0.007694097322049448,-0.0029444504283107097,-0.000532618826746995
1765409441.85892,-10.013743585652442,-0.008632125704367721,0.302244195071413,-0.007689557578426426,-0.0033987764842934964,-0.0005394110970626404
1765409441.85912,-10.009277202073777,-0.006714656952218763,0.302889938768378,-0.007691705895936702,-0.003815533606368238,-0.0005633272132317741
1765409441.85932,-10.004206008039978,-0.005100753171109799,0.30371795553259184,-0.0077014048116058505,-0.004195894099425415,-0.0006054461077037694
1765409441.85952,-9.998616656282517,-0.003822424019011959,0.3046980652389994,-0.007719097865147367,-0.004542058990302787,-0.0006659375773447059
1765409441.859731,-9.99260763235182,-0.0029151518083832756,0.3058002638999156,-0.007744806619864956,-0.004856967998759582,-0.0007440127967280952
1765409441.860064,-9.986286252471073,-0.0024150705878168534,0.30699563052485807,-0.0077781462897451295,-0.005143994372541801,-0.0008379214994061498
1765409441.860398,-9.979765162303732,-0.002355471550639152,0.308256683800819,-0.007818350900849981,-0.005406634170008325,-0.0009449962929260636
1765409441.862697,-9.973158615039896,-0.002763311851846838,0.30955726415488116,-0.007864302566168843,-0.005648210247250992,-0.001061747371659211
1765409441.863693,-9.966578829846348,-0.0036562749285685525,0.31087213532341423,-0.007914565204205961,-0.005871621780951039,-0.0011840110501389542
1765409441.867702,-9.96013271944596,-0.005040557177413982,0.3121766126297376,-0.007967427705076793,-0.006079165973163026,-0.0013071502649340428
1765409441.868692,-9.953919197657454,-0.006909239275119784,0.3134465116493225,-0.008020962455305022,-0.006272440127695922,-0.0014262937557440473
1765409441.872657,-9.948027170467096,-0.009241103420247424,0.31465861094911013,-0.00807310245463872,-0.006452312941045776,-0.0015365883925379227
1765409441.874696,-9.942534196780432,-0.012000042123195661,0.3157916878151856,-0.008121735641592673,-0.006618945180650979,-0.0016334363295414278
1765409441.877692,-9.937505676244964,-0.015135437075604899,0.3168280059452096,-0.008164810050230618,-0.006771844087359989,-0.0017127000187668238
1765409441.87979,-9.932994348213837,-0.018583742494882288,0.31775494759760964,-0.008200439400842731,-0.00690994654798093,-0.001770875348267515
1765409441.882627,-9.929039930920103,-0.022271020601175022,0.3185663981264106,-0.008226997153423416,-0.007031732600729754,-0.0018052422986333534
1765409441.884637,-9.925668834112246,-0.026115772658084128,0.31926356846111464,-0.008243189434650024,-0.007135366747439527,-0.001813997494510966
1765409441.887685,-9.922893945601515,-0.03003149201500429,0.3198551219970945,-0.008248103440562203,-0.0072188549147643374,-0.0017963604311576615
1765409441.889645,-9.920714522473801,-0.033928870695812414,0.32035664223900534,-0.008241234359443284,-0.0072802003031595345,-0.001752637086791849
1765409441.892676,-9.919116257022502,-0.03771803280037733,0.3207895807719194,-0.008222496056784349,-0.007317545513665825,-0.0016842280591002178
1765409441.894619,-9.918071625184922,-0.041311146780790106,0.3211798808059025,-0.008192218672196175,-0.007329296329310963,-0.0015935791250662641
1765409441.897658,-9.917540625242044,-0.04462534576219743,0.32155647824141453,-0.008151134662613345,-0.007314228525792688,-0.00148407929068734
1765409441.899677,-9.917471981043809,-0.047585483566415614,0.32194979401842244,-0.008100356634775338,-0.007271580043175225,-0.0013599094673412485
1765409441.902695,-9.91780484261803,-0.05012626636601296,0.322390182103601,-0.008041352180543908,-0.0072011256986646704,-0.0012258401722971914
1765409441.904678,-9.918470977777249,-0.05219372256123195,0.32290623623991094,-0.00797591776695625,-0.007103223091780062,-0.0010869793257499486
1765409441.90762,-9.919397399115537,-0.05374638317142182,0.32352295474439,-0.00790614604381053,-0.0069788134560449305,-0.0009484834108420921
1765409441.909741,-9.920509280912718,-0.0547565311214713,0.32425988478412276,-0.007834374675635837,-0.006829365869435916,-0.0008152590115418457
1765409441.910744,-9.921732898422452,-0.055211482788536145,0.3251293762266307,-0.007763104776424961,-0.006656767106100945,-0.0006916875244920497
1765409441.914696,-9.922998272939624,-0.05511449298942701,0.3261350070288714,-0.007694882849876445,-0.006463175808091579,-0.0005814008763091728
1765409441.917752,-9.924241320213751,-0.054484851322999024,0.3272701933520214,-0.00763214838625139,-0.006250869756587758,-0.00048712465035355207
1765409441.919692,-9.925405495723808,-0.053357067113566276,0.3285169853347087,-0.007577057529471871,-0.006022114621784456,-0.00041059334979959175
1765409441.922719,-9.926443050188588,-0.05177945675720914,0.32984509690267466,-0.007531301143651381,-0.0057790751754360405,-0.00035253483125585977
1765409441.925623,-9.927316013997956,-0.04981261100815561,0.3312113741945146,-0.007495942014750786,-0.00552378090280058,-0.0003127180789611358
1765409441.927706,-9.927996952256732,-0.04752799149888643,0.33256007054928177,-0.0074712971239228754,-0.005258148187313396,-0.0002900577778177599
1765409441.930707,-9.928469364001659,-0.045006503968265145,0.33382425232443563,-0.007456884284348899,-0.004984050543607063,-0.0002827668787840702
1765409441.931207,-9.928727407483395,-0.042336686662324194,0.33492839847225137,-0.007451440628246276,-0.004703420080225044,-0.0002885437016613631
1765409441.934988,-9.928774630265929,-0.03961227818598902,0.33579201816468324,-0.007453009566387766,-0.004418360552467678,-0.0003047760198115967
1765409441.936782,-9.928621681793636,-0.03692920942607348,0.33633405292477386,-0.007459086487279364,-0.004131253327644598,-0.00032874471310098463
1765409441.940703,-9.928283413744904,-0.03438222633421649,0.3364778526689713,-0.00746681032092067,-0.003844839508429732,-0.0003578144536830104
1765409441.942699,-9.927776058663941,-0.032061303506218136,0.3361564708743767,-0.007473185397035836,-0.0035622647747609545,-0.0003896043212879946
1765409441.944691,-9.927115220873679,-0.030047905664987717,0.3353179466304147,-0.007475315251497602,-0.003287079464915764,-0.00042213226170720607
1765409441.945651,-9.926315281073688,-0.028411175642017342,0.33393025901599155,-0.007470628432144975,-0.0030231934677021136,-0.00045392460779119435
1765409441.949614,-9.925390564189552,-0.02720424830117545,0.3319857312650007,-0.007457076730803361,-0.0027747906529915945,-0.00048408169067534393
1765409441.952744,-9.924358249576176,-0.026460967168103807,0.3295046674936542,-0.007433288733519718,-0.0025462096911058243,-0.0005122964934770735
1765409441.954797,-9.923242556071209,-0.02619328801857269,0.32653786230882664,-0.0073986662854021315,-0.0023417979834030283,-0.0005388317168265964
1765409441.955641,-9.922079332510004,-0.02638965592357844,0.32316742785142394,-0.007353418135374509,-0.0021657436572775314,-0.0005644653092086504
1765409441.958698,-9.920919943260193,-0.0270146278527183,0.3195052471257367,-0.007298532140280658,-0.0020218880103225275,-0.0005904130184934866
1765409441.962668,-9.919833327481294,-0.028009925447051685,0.3156884132677998,-0.007235692585094883,-0.0019135205329479335,-0.0006182318213487415
1765409441.964679,-9.918905381610877,-0.029296949547612004,0.31187139917900086,-0.007167151022585393,-0.0018431639478283697,-0.0006497055555477331
1765409441.967667,-9.918235354423855,-0.030780617533180076,0.30821539665992903,-0.007095559087418241,-0.0018123659346022363,-0.0006867156798824282
1765409441.969675,-9.91792960187283,-0.032354252925883946,0.30487600063011255,-0.007023773506469211,-0.0018215215979487487,-0.0007311018604076578
1765409441.972641,-9.918093609514795,-0.03390523692297172,0.3019909186077552,-0.006954648390389818,-0.0018697530804699385,-0.0007845151814420957
1765409441.973632,-9.918823503682493,-0.03532123086849452,0.29966952782929535,-0.0068908348971282235,-0.0019548711463678596,-0.0008482640802612284
1765409441.977637,-9.920198257347874,-0.03649686874648772,0.2979857992199612,-0.006834609047227344,-0.002073438650027392,-0.0009231556999039708
1765409441.978137,-9.922273440509402,-0.03734073951902335,0.29697534865279807,-0.00678774309758473,-0.0022209463018091845,-0.0010093441365391742
1765409441.982664,-9.925076831679311,-0.03778219413188583,0.29663640882466286,-0.006751426644859614,-0.0023920971249582657,-0.0011062058711212748
1765409441.984644,-9.928605806767798,-0.03777716583715741,0.2969337876538356,-0.006726234743839613,-0.002581179114642949,-0.0012122641870919797
1765409441.987638,-9.932826340345125,-0.03731205432675692,0.29780468209238703,-0.0067121352112645685,-0.002782488710375806,-0.0013251773212261278
1765409441.988753,-9.93767359419909,-0.03640498342156012,0.2991654482973095,-0.006708526808181431,-0.002990756418408716,-0.0014417959337029143
1765409441.990692,-9.943054197975178,-0.035104291833621674,0.3009187524035649,-0.006714302087403488,-0.0032015258654967227,-0.0015582915623386074
1765409441.994642,-9.948850282401725,-0.03348462617567012,0.30296069623440797,-0.006727929869062116,-0.0034114480668354014,-0.0016703586819433386
1765409441.99764,-9.954925082859551,-0.03164122921434265,0.3051875276225037,-0.006747551007867965,-0.003618466892159145,-0.001773490879466208
1765409441.999696,-9.961129612030835,-0.029682976020547997,0.3075015329444213,-0.0067710792573441834,-0.0038218830383884603,-0.0018633201041553865
1765409442.002769,-9.967309690120898,-0.027724622632606076,0.3098157520073965,-0.006796299446815002,-0.0040222911915894,-0.0019359897604506585
1765409442.004607,-9.973312611719608,-0.025878793782607545,0.31205725310079113,-0.0068209586775433645,-0.004221392966891431,-0.001988517442299787
1765409442.007703,-9.978992877403979,-0.024248425514334506,0.3141688349051572,-0.006842851306511855,-0.004421701255656536,-0.0020190995505407474
1765409442.008684,-9.984216637404225,-0.02292046542670295,0.3161091528977126,-0.0068599021782380296,-0.004626167848674529,-0.002027318846436191
1765409442.012766,-9.988864723689737,-0.02196143200092968,0.3178513880656212,-0.006870252108664368,-0.004837777904918645,-0.002014232801867281
1765409442.014742,-9.992834379217959,-0.021414988634960934,0.319380732166307,-0.006872344928637053,-0.00505915663195651,-0.001982339349030119
1765409442.015702,-9.99604003612269,-0.021301213805392964,0.32069119400768,-0.006865009664548881,-0.005292226866205423,-0.0019354307030612311
1765409442.019713,-9.998413681775943,-0.021616996116693335,0.3217824521283033,-0.006847528179118149,-0.005537945715042318,-0.0018783510046978225
1765409442.022718,-9.999905369928184,-0.022337096716204183,0.32265754988311723,-0.006819678761655096,-0.005796137766471492,-0.001816672389009183
1765409442.024663,-10.000484250933612,-0.02341579002133483,0.32332206656317547,-0.006781748708657254,-0.006065433353244121,-0.001756305224874774
1765409442.027673,-10.000140166562094,-0.02478928685493731,0.32378496939931706,-0.006734512472771283,-0.006343312188481974,-0.001703066887686393
1765409442.029619,-9.998885463313316,-0.026379122976150724,0.3240607193876155,-0.006679175214547292,-0.006626243331390036,-0.0016622455600870962
1765409442.032657,-9.996756371150008,-0.028096438410091074,0.3241716568958811,-0.0066172842435022715,-0.006909902333569253,-0.0016382024272214137
1765409442.033595,-9.99381326390627,-0.029846843996395995,0.3241495942735005,-0.006550613907581991,-0.007189438591106397,-0.0016340518528731563
1765409442.037618,-9.990139389419712,-0.031535544726619485,0.32403593949962756,-0.006481033887612848,-0.007459762504633635,-0.0016514461113860315
1765409442.03963,-9.985838011245631,-0.033072515933105624,0.3238802209856053,-0.006410376039239949,-0.007715823877523273,-0.0016904756638125495
1765409442.042635,-9.981028117466808,-0.034377607852411556,0.3237372169505014,-0.0063403185074677034,-0.007952860406769917,-0.0017496851180719964
1765409442.044686,-9.97583893431386,-0.035385325167450715,0.32366297056027815,-0.00627230389561717,-0.008166605322280982,-0.001826200574095998
1765409442.04768,-9.970403589238886,-0.03604875170710598,0.3237100110971744,-0.006207499073007619,-0.008353450624282074,-0.0019159603802889273
1765409442.049695,-9.96485247827466,-0.03634194907092861,0.32392228668322176,-0.006146792560935642,-0.008510564820748934,-0.0020140324006272126
1765409442.050673,-9.959307115691594,-0.03626040828513304,0.32433057980795366,-0.006090818919855832,-0.008635964573865928,-0.0021149882407779787
1765409442.054733,-9.953875291543447,-0.03581972102938895,0.324949242518082,-0.006039999440144412,-0.00872854083162245,-0.002213296906678225
1765409442.055704,-9.948648117077266,-0.035053178567674335,0.3257747692736539,-0.0059945890369302824,-0.008788041686542823,-0.0023037034804366937
1765409442.058617,-9.943699109532336,-0.034009102863061975,0.3267862065944104,-0.005954716752226484,-0.008815016762053566,-0.0023815696420927826
1765409442.062678,-9.939085116462342,-0.03274831225617006,0.3279470564443188,-0.005920404492420381,-0.008810733166623359,-0.002443162937665443
1765409442.064666,-9.934848729569314,-0.03134157260807039,0.32920830712411875,-0.005891550965172868,-0.008777080234558055,-0.0024858846314646525
1765409442.067632,-9.931021776318733,-0.029866614900981966,0.3305123384448273,-0.005867877818764605,-0.008716484374390626,-0.002508423562317979
1765409442.069635,-9.927629364776552,-0.028404453599630685,0.33179746491923245,-0.005848849760645287,-0.008631851489895035,-0.0025108211769693874
1765409442.07064,-9.924693806927827,-0.027035113334596607,0.3330027400683454,-0.005833591762230735,-0.008526543101224643,-0.002494435035392835
1765409442.074632,-9.922237673216246,-0.025833168177787177,0.3340724659013685,-0.00582082728199488,-0.008404378847919891,-0.0024617958712700137
1765409442.077613,-9.920285330791527,-0.02486357908603034,0.3349598130265897,-0.005808853268263641,-0.008269647819470738,-0.0024163655318446826
1765409442.078653,-9.918862601097324,-0.02417824365321447,0.33562912788900945,-0.005795558217867998,-0.008127106094055425,-0.0023622168651957804
1765409442.08269,-9.917994550610876,-0.02381359427992406,0.33605679020826723,-0.00577848311555886,-0.007981937901210354,-0.002303668529315747
1765409442.084658,-9.917701767276485,-0.023789559977087045,0.3362307483060223,-0.0057549198897032874,-0.007839663206163345,-0.0022449156464845795
1765409442.087619,-9.917995684418164,-0.024110125384429464,0.33614901722121737,-0.005722036138390134,-0.0077059844645220804,-0.0021897004765749906
1765409442.089649,-9.91887356743583,-0.024765401035559978,0.33581742846122603,-0.005677010172509129,-0.0075865760508982425,-0.0021410643527543455
1765409442.092647,-9.920313709339002,-0.025734607345498213,0.33524681272125756,-0.005617159993048153,-0.0074868281283293455,-0.002101210321465385
1765409442.094604,-9.922271318665521,-0.02698900294389672,0.3344497681595278,-0.005540054420949671,-0.007411563359414378,-0.00207148538126874
1765409442.097667,-9.924675665158903,-0.028493863037174744,0.33343736240564764,-0.0054436021996262145,-0.007364750516729376,-0.0020524674603964116
1765409442.098167,-9.927429202937368,-0.03020911135813119,0.33221638012731614,-0.005326122108452334,-0.00734923992971381,-0.0020441228774802232
1765409442.102691,-9.93040936213738,-0.03208882954117371,0.3307877635688501,-0.005186400926091361,-0.007366540261333172,-0.002045990585929038
1765409442.104667,-9.933473370524753,-0.03408031299427132,0.32914665845330865,-0.005023745527509943,-0.007416651441153135,-0.0020573528476448286
1765409442.105668,-9.936465987369226,-0.03612348273511994,0.3272841746898641,-0.004838032562608238,-0.007497971658846326,-0.002077367168961992
1765409442.109593,-9.939229588962945,-0.03815131841067353,0.32519071024759605,-0.0046297570952187304,-0.007607302244786233,-0.002105154546050845
1765409442.112602,-9.941615698551747,-0.04009165880962148,0.3228604342734401,-0.004400080155590544,-0.0077399719668968785,-0.0021398538679715446
1765409442.113608,-9.9434968471801,-0.04187035635994183,0.32029634136704355,-0.0041508713008966336,-0.007890088841075433,-0.0021806554103124113
1765409442.115682,-9.944777641526404,-0.04341544717343416,0.31751529179324056,-0.0038847356914530353,-0.008050908860770856,-0.002226820420287191
1765409442.119675,-9.9454040243128,-0.044661724968958996,0.31455255238851293,-0.0036050105339048132,-0.008215292655020476,-0.0022776865149134675
1765409442.122627,-9.945369798630258,-0.04555493350941129,0.3114653235282383,-0.0033157180787472536,-0.008376206619367667,-0.0023326553340291055
1765409442.124666,-9.944719584014395,-0.04605481731433423,0.3083345809008032,-0.0030214727083199494,-0.00852721897633258,-0.002391159873170597
1765409442.127629,-9.94354765679791,-0.046136547730099134,0.3052645317005078,-0.0027273536460821588,-0.008662945535939019,-0.00245261190331062
1765409442.129655,-9.941992629882893,-0.045790504702826584,0.3023792407786047,-0.002438764062772751,-0.008779410676143913,-0.002516333770664413
1765409442.132779,-9.940228462189902,-0.045020885416531944,0.29981642632931316,-0.0021612947532060065,-0.008874299642186808,-0.0025814840778940955
1765409442.134774,-9.938452673229301,-0.04384394314564242,0.29771887555939947,-0.001900596315328023,-0.008947085134055188,-0.0026469922691565806
1765409442.137684,-9.936872843590443,-0.04228667642872892,0.29622428858326566,-0.0016622458931586635,-0.00899901632207113,-0.0027115195994509796
1765409442.139715,-9.93569257572918,-0.0403864400259755,0.2954546163945375,-0.001451583436156386,-0.009032967360831486,-0.002773460970834266
1765409442.142688,-9.935098112887868,-0.03819136675869703,0.29550611261719134,-0.0012734941973200698,-0.009053157691418625,-0.0028309949313402717
1765409442.144684,-9.935246714234511,-0.035760951344270236,0.2964412747585418,-0.0011321279425349229,-0.009064773131951982,-0.00288218082698244
1765409442.147648,-9.93625758772471,-0.03316590496426664,0.2982835062459927,-0.001030565772328253,-0.009073527630822005,-0.0029250944217506757
1765409442.149631,-9.938205748626096,-0.030486515568093404,0.3010147873205162,-0.0009704672022306513,-0.009085208797855631,-0.0029579862178509696
1765409442.152639,-9.94111877687483,-0.02780915984692566,0.3045761745851928,-0.0009517493681701182,-0.009105249033050777,-0.0029794400410630673
1765409442.154639,-9.944976182096338,-0.025221171532619907,0.30887070070301087,-0.0009723623234446076,-0.009138359379947567,-0.0029885050121487887
1765409442.157683,-9.949710915965204,-0.022804819919869438,0.3137681494745555,-0.0010282224346945426,-0.009188253550659156,-0.0029847761978445088
1765409442.159641,-9.95521251144108,-0.020631519363519788,0.31911118354093426,-0.0011133449726665335,-0.009257476438574677,-0.0029684111823928216
1765409442.162641,-9.96133146125905,-0.01875744344798856,0.32472242566012754,-0.0012201803325154698,-0.00934734049536338,-0.002940088245047407
1765409442.164633,-9.96788471659048,-0.017221413419428355,0.3304122541393424,-0.0013401168943360526,-0.009457967210768841,-0.0029009282292757647
1765409442.167659,-9.974662367359848,-0.01604532477485213,0.33598709768926616,-0.0014640808392270993,-0.00958842569440578,-0.0028524091516185894
1765409442.169588,-9.981435543071893,-0.015236645616027673,0.34125791038830755,-0.001583149867858464,-0.009736952533398218,-0.002796297763487945
1765409442.17265,-9.98796545921211,-0.014791938015053446,0.3460484469864233,-0.0016891065720254018,-0.009901229498502176,-0.002734608881273644
1765409442.175641,-9.99401344212495,-0.014700147006673018,0.3502029859866332,-0.0017748812458258474,-0.010078692710234446,-0.002669588718660092
1765409442.177598,-9.9993516475162,-0.014944625044592099,0.3535931395465089,-0.0018348609601657971,-0.010266847817427658,-0.002603708786364061
1765409442.178643,-10.00377397649792,-0.01550340202782402,0.3561233179130819,-0.0018650623525079473,-0.010463565543560188,-0.0025396523595277594
1765409442.182675,-10.007106446285462,-0.016347887564856577,0.35773439140769436,-0.0018631774222206661,-0.010667327527391109,-0.002480273836695949
1765409442.183175,-10.009216118445744,-0.017440823778110088,0.3584051565480077,-0.001828507299928044,-0.010877387839116898,-0.002428513767647083
1765409442.187682,-10.010017724415201,-0.01873474606921092,0.3581513296814989,-0.0017618023326572462,-0.011093820404009637,-0.0023872619895951982
1765409442.188182,-10.009477390776757,-0.020172301974434505,0.3570219978562386,-0.0016650306616989281,-0.011317441422422221,-0.0023591776022851233
1765409442.192605,-10.007613291631207,-0.021689362955789937,0.35509380137285323,-0.0015411020397177455,-0.011549620930246828,-0.0023464922920915037
1765409442.1946,-10.004493483064033,-0.023220922310090503,0.3524635146683081,-0.0013935767615519952,-0.01179201572664419,-0.0023508358269279015
1765409442.198277,-10.00023147116048,-0.024708595280991393,0.3492399806486424,-0.001226388863508673,-0.012046261810155794,-0.002373122859183842
1765409442.199631,-9.99498019884346,-0.02610765570185755,0.345536470645237,-0.0010436075499297428,-0.012313662639518034,-0.0024135249451302
1765409442.202621,-9.988925093356201,-0.027391437929775247,0.3414644300797306,-0.0008492525920013526,-0.012594904882885491,-0.0024715242193013133
1765409442.204718,-9.982276577939672,-0.02855174432123866,0.3371291492110717,-0.0006471711102821992,-0.012889827573026173,-0.002546017381187891
1765409442.207708,-9.975262144181247,-0.029595302866307925,0.33262729798158963,-0.00044097655145299816,-0.01319726571657692,-0.002635425934196688
1765409442.210654,-9.968117952217039,-0.030537669488805604,0.32804585558995336,-0.00023404381792573484,-0.013514986290317313,-0.0027377785616520003
1765409442.212618,-9.961080051884968,-0.03139667318979644,0.3234619586676823,-2.9544324232933e-05,-0.013839729226436151,-0.0028507567713652628
1765409442.214639,-9.954375504975093,-0.032187362780161134,0.3189434030399491,0.00016950640111159805,-0.014167354099265882,-0.00297171897978065
1765409442.217726,-9.948213750883628,-0.03291966099403523,0.31454967888431756,0.000360220418953892,-0.014493077555928715,-0.003097728991880889
1765409442.218226,-9.942778531122912,-0.03359898078732452,0.31033341310891754,0.000539853267706263,-0.014811775006966121,-0.003225612154041432
1765409442.2227,-9.938220696298586,-0.03422923389147959,0.3063420134500513,0.0007058733377673975,-0.015118316630225694,-0.0033520533754085704
1765409442.224726,-9.934652300097593,-0.034817083984225845,0.3026192797048984,0.0008560761573082565,-0.015407909194565158,-0.003473741442063844
1765409442.227648,-9.932142493091543,-0.03537597410740376,0.2992068626459672,0.0009887202298547101,-0.015676417550457664,-0.003587554625082568
1765409442.229673,-9.93071575752247,-0.035928423560027234,0.2961456509350935,0.0011026542071615657,-0.015920642574719753,-0.0036907720746281415
1765409442.232644,-9.930352838284628,-0.03650542061397494,0.2934772513334052,0.0011974093745741137,-0.016138537016558208,-0.003781283426631314
1765409442.234606,-9.930994327699771,-0.03714247561067329,0.2912456084649374,0.001273244174328501,-0.016329346970296893,-0.0038577585026584997
1765409442.237587,-9.932546454037245,-0.03787295968499215,0.2894985986289213,0.001331141804164096,-0.01649367385758499,-0.0039197365991117915
1765409442.239683,-9.93488837848749,-0.03872043653074381,0.2882892078725377,0.0013727720595192873,-0.016633458945780284,-0.003967606634425854
1765409442.242612,-9.937880204415913,-0.03969229293481548,0.2876756568188436,0.0014004323501590598,-0.016751898318748185,-0.004002474781413806
1765409442.244582,-9.941370901518475,-0.04077665866270712,0.2877197088336171,0.0014169802400781513,-0.016853299939278758,-0.004025945976571495
1765409442.247668,-9.945205497627146,-0.04194341694319959,0.28848265893328484,0.0014257625684007183,-0.016942895442857885,-0.004039866702963239
1765409442.249674,-9.9492311896967,-0.043148630176973464,0.29001913804498897,0.001430537303307359,-0.01702661654395891,-0.004046080046563479
1765409442.252658,-9.953302339099228,-0.04434069476862651,0.292369540895575,0.0014353775270607911,-0.01711083988526742,-0.004046231787921148
1765409442.254658,-9.95728453015795,-0.04546638701020225,0.2955523166186327,0.0014445455661664314,-0.017202099784467836,-0.004041647447353455
1765409442.257745,-9.961057954109446,-0.04647548623135964,0.29955749301506956,0.0014623297566037693,-0.017306771439389742,-0.00403328352351488
1765409442.259639,-9.964520301989296,-0.04732338281517606,0.30434261444657495,0.0014928435009862664,-0.017430736960794144,-0.004021744879019502
1765409442.260629,-9.96758911285929,-0.04797165430314627,0.30983175785496847,0.0015397926320687648,-0.017579056354969574,-0.004007353445157737
1765409442.264674,-9.97020328018918,-0.048386950374275026,0.31591764559663466,0.0016062226152963148,-0.017755669956791568,-0.003990249025720637
1765409442.267637,-9.972323363766439,-0.048538748208202954,0.3224663595499714,0.0016942636959365587,-0.01796315713067259,-0.003970498970166131
1765409442.269662,-9.973930505444677,-0.04839675873526704,0.3293238416620595,0.0018048994617236365,-0.018202570903616395,-0.003948190310328624
1765409442.272598,-9.975023974465135,-0.04792905591153112,0.3363232093147154,0.0019377898558113286,-0.01847336357061115,-0.00392348031560779
1765409442.274713,-9.97561757308509,-0.04710221154944124,0.34329197170918746,0.0020911810191216115,-0.0187734153034637,-0.0038965945345988684
1765409442.277591,-9.975735255641265,-0.04588449242411638,0.3500584677264454,0.0022619300558465527,-0.01909917193258577,-0.0038677841518964394
1765409442.27868,-9.97540629572212,-0.04425230320129417,0.35645705027575164,0.0024456623380063884,-0.019445884760174875,-0.003837276546919739
1765409442.282662,-9.974660237105034,-0.04219880909612681,0.362331669707193,0.0026370627543258296,-0.019807925868114317,-0.0038052596464371704
1765409442.283606,-9.97352187780243,-0.03974269300019651,0.36753777457799536,0.0028302817656195556,-0.020179133364296747,-0.0037719251077792484
1765409442.287611,-9.972006740139063,-0.03693479652215177,0.37194293027727393,0.0030194152771100178,-0.020553131052159907,-0.003737566850701274
1765409442.289604,-9.970117699093485,-0.033860936342124656,0.3754269873294815,0.0031989997489822895,-0.02092357408811382,-0.003702708021715757
1765409442.292696,-9.967843477656821,-0.030640056627025375,0.37788274377534936,0.0033644566784750123,-0.021284297036460464,-0.0036682218498567745
1765409442.294583,-9.965159550744929,-0.027417684299537,0.3792178627527606,0.0035124263852156683,-0.02162937250281164,-0.003635417375375354
1765409442.297582,-9.962031671969987,-0.02435526298539026,0.3793584585013007,0.003640948614495061,-0.021953111205231506,-0.0036060707943215194
1765409442.299629,-9.958421780487502,-0.021616401049836642,0.3782543118576256,0.003749472721967456,-0.02225003911296711,-0.0035823909294145236
1765409442.302591,-9.954295606828971,-0.019351478838284454,0.37588524559427294,0.003838706875176417,-0.02251487842224773,-0.0035669123779311254
1765409442.305619,-9.949631085745333,-0.017682493963365773,0.3722679590914511,0.0039103373310163635,-0.02274254830054844,-0.0035623154222045755
1765409442.306119,-9.944426681929615,-0.016690387069051297,0.3674625340530034,0.003966662408906583,-0.022928197169638745,-0.003571182955392646
1765409442.309579,-9.938708714750495,-0.016407044081310565,0.36157763497238504,0.0040101924014937645,-0.023067281054630333,-0.0035957237947387664
1765409442.312631,-9.932536673134598,-0.01681341366754383,0.3547731553090095,0.0040432676140406635,-0.023155705558664728,-0.003637511172169966
1765409442.31463,-9.926005568216066,-0.017843872300795104,0.3472590460248817,0.004067741098239346,-0.02319004414518449,-0.0036972895336891357
1765409442.317582,-9.919244755877015,-0.019395704595217764,0.33928951063352103,0.004084760656985577,-0.023167829430535882,-0.0037748842636660656
1765409442.320678,-9.912413257401388,-0.021341860707059773,0.33115248189194174,0.0040946702982898615,-0.02308789225832809,-0.0038692177876610404
1765409442.322637,-9.905692159521951,-0.023545071673808676,0.32315501866340324,0.004097038475090581,-0.02295070449764922,-0.00397841121164862
1765409442.324695,-9.899275018999772,-0.025871631830630397,0.3156058248282303,0.00409080842935655,-0.022758670983962222,-0.00409994424817109
1765409442.327624,-9.893357297074285,-0.02820334597141588,0.3087964595434194,0.0040745514813897085,-0.02251631426133482,-0.004230852698391739
1765409442.329608,-9.888125776424342,-0.030446224490769856,0.3029830097530167,0.004046787657338121,-0.022230303476954046,-0.004367949387781212
1765409442.330715,-9.883748793108495,-0.032534748746773916,0.2983700907679119,0.00400632534612628,-0.021909297245106027,-0.004508052423016515
1765409442.334654,-9.880368005952974,-0.03443121513892112,0.29509898477170465,0.0039525686145828595,-0.021563597319059956,-0.00464819486843581
1765409442.3376,-9.878092276311444,-0.03612077811788626,0.29324135480454716,0.003885748876086524,-0.021204639898773407,-0.004785782684131369
1765409442.340627,-9.876994006631612,-0.03760390851446078,0.2927992219095013,0.0038070541127676392,-0.02084437917149243,-0.004918675206017282
1765409442.34264,-9.877108023101142,-0.03888849349279845,0.2937109372991575,0.003718649184478075,-0.020494638425703846,-0.005045185957717013
1765409442.344575,-9.878432818587843,-0.03998348821498206,0.29586198202278774,0.0036235996665265682,-0.02016651148924801,-0.005164027938355594
1765409442.347588,-9.880933729259288,-0.040895166233957496,0.2990988119372657,0.003525724422288448,-0.019869886570828384,-0.0052742410519624645
