time,acc_x_g,acc_y_g,acc_z_g,gyro_x_rad_s,gyro_y_rad_s,gyro_z_rad_s
1765409499.827557,0.003610042705044225,-0.043297961305225195,-9.013790200248778,0.2373016690497397,0.9430656802018068,0.00015517108185536193
1765409499.827807,-1.4721493435802806,0.11404774218012412,-7.0430796472068415,0.19966262141110222,0.7938555481956969,0.0004803684114039543
1765409499.828057,-2.9114203748643606,0.26956634963435316,-5.12136546081933,0.16294452321015487,0.6480293520876943,0.0007940257726605896
1765409499.828307,-4.279803881508221,0.42124815996794834,-3.294303385067039,0.12792838870601822,0.5089037757046144,0.0011252256024166516
1765409499.828539,-5.546477739338967,0.5674861793550049,-1.6024802323374312,0.09529502131441343,0.3794464072162661,0.0015045467057932106
1765409499.828739,-6.685638378451679,0.7071573669082984,-0.07947018288947019,0.06559100160868395,0.262137736757236,0.0019627900833426117
1765409499.828939,-7.677536065899334,0.8396582581999004,1.2495280166430063,0.03920578251891287,0.15887446891033072,0.0025298444743322057
1765409499.829139,-8.509069159356697,0.9648945965748686,2.3684254985751676,0.016360686972364223,0.07091728679889919,0.0032337311804478464
1765409499.829339,-9.173946445239181,1.0832296812646893,3.2703652130249607,-0.002890617381752956,-0.0011183951642989589,0.0040998419166736605
1765409499.82957,-9.672458281895732,1.1953997772243796,3.957293548046482,-0.018651484591779014,-0.057233461924479354,0.005150362591633875
1765409499.82977,-10.010917880306028,1.3024072417991113,4.439074623434353,-0.031163403920688493,-0.09798481142554652,0.006403858761617658
1765409499.82997,-10.200845522768066,1.4054030650957774,4.732257723715226,-0.04078108565493855,-0.12440176435660696,0.007874988578442765
1765409499.83017,-10.257972830528704,1.5055702322524829,4.858614899400361,-0.04794383657953027,-0.13788746119678227,0.009574309237845562
1765409499.83037,-10.201143212115895,1.6040177964274531,4.843563684874585,-0.053145454277868855,-0.140113163687282,0.01150814889140826
1765409499.830558,-10.051179794665554,1.7016932823055484,4.714580973287508,-0.05690464717839565,-0.13291253108134482,0.013678523456033763
1765409499.830808,-9.82978447516161,1.7993185581714954,4.499699996313482,-0.059737671528194536,-0.11818178743348787,0.016083092711168947
1765409499.831058,-9.55852201655185,1.8973516884235293,4.2261648791534565,-0.062134502194475125,-0.0977903783626447,0.01871517994842679
1765409499.831308,-9.257931973499097,1.995974276029842,3.9192980881984916,-0.06453945250532664,-0.0735053541541037,0.021563914005497422
1765409499.831617,-8.946799099308313,2.095100713129133,3.6016164382322726,-0.06733675606112376,-0.04693140821642562,0.024614564517279485
1765409499.831867,-8.641600201732706,2.194403623912278,3.2922119452097056,-0.07084124377956112,-0.019467318974291943,0.02784911254220442
1765409499.832117,-8.356132872505068,2.2933494535325525,3.0063955867436785,-0.07529391411620132,0.007721464289725519,0.031247042753057196
1765409499.832367,-8.101320014230742,2.391239305648752,2.755586129737255,-0.08086192220829379,0.03371516276281617,0.034786294251094446
1765409499.832494,-7.885174453900216,2.487251654536589,2.547413637506911,-0.08764231494276727,0.05783861842718828,0.038444286146029995
1765409499.832744,-7.712900689581698,2.580484746291519,2.3859985501798096,-0.09566871395103185,0.07964895353989818,0.042198935058099296
1765409499.832994,-7.587106222191589,2.6699973814443068,2.2723623170642733,-0.10492009363826117,0.09891428228449542,0.046029589136738665
1765409499.833244,-7.508093132767177,2.754847438241744,2.204924364467066,-0.11533081353699778,0.11558590213993084,0.049917812589502605
1765409499.833577,-7.474201577988611,2.8341277589127953,2.180042640048463,-0.12680113662458453,0.12976633633777138,0.053847969200329
1765409499.833777,-7.482180215767696,2.906998829852575,2.1925605530556957,-0.13920758046740642,0.14167543002649144,0.05780757099022709
1765409499.833977,-7.527563144297541,2.972717470756907,2.236330634970734,-0.15241258116512163,0.15161645762349274,0.06178737408531091
1765409499.834177,-7.605037420340471,3.030660948121138,2.304693219109817,-0.16627308074927313,0.15994390049883286,0.06578122116533114
1765409499.834377,-7.7087887269141095,3.080346354200738,2.390895552074367,-0.1806477710346033,0.16703420918424006,0.06978565643410499
1765409499.834552,-7.832815180036577,3.1214451167096415,2.4884421864131854,-0.19540284410788966,0.17326049408985333,0.07379937160040936
1765409499.834885,-7.971201116380943,3.153791910905924,2.591371479516915,-0.210416210330692,0.178971740320467,0.07782256447158437
1765409499.835219,-8.118344717105238,3.177386561288506,2.6944565945498793,-0.22558024075837066,0.1844768444153245,0.08185629359757342
1765409499.835516,-8.269135909116928,3.192387417107194,2.7933331724022232,-0.2408031663193669,0.1900335073167871,0.08590189295080924
1765409499.835766,-8.419083850354559,3.1990953327784997,2.8845592363325454,-0.25600931943394517,0.19584176972462608,0.08996047772475128
1765409499.836016,-8.564395796177523,3.1979285367676527,2.965615225723058,-0.27113843255513737,0.20204176305295382,0.09403253673990429
1765409499.836266,-8.702011088705506,3.1893901086314433,3.034853769376571,-0.28614421177196925,0.20871510485938216,0.09811757958828421
1765409499.836518,-8.829595785027637,3.174031283190558,3.091410564266876,-0.30099239033061326,0.21588929235780105,0.10221379731877135
1765409499.836768,-8.945505083159794,3.152414875988455,3.1350888764290823,-0.315658448385648,0.2235444094682765,0.10631770904274863
1765409499.837018,-9.048721678852198,3.125083327568431,3.166229590468174,-0.3301251653455592,0.2316214410594745,0.11042379602518018
1765409499.837268,-9.138778262054466,3.0925353254632992,3.1855768942686886,-0.34438014907372566,0.24003150001883308,0.11452415410606015
1765409499.837447,-9.215671962972646,3.055214070559327,3.194148329811717,-0.3584134678424838,0.24866534511246344,0.11860821781775896
1765409499.837697,-9.279777882776376,3.0135088951513263,3.1931173906862886,-0.37221550462363856,0.25740268768851005,0.12266262917401158
1765409499.837947,-9.331767444474634,2.967769740933059,3.183715468377349,-0.38577515519425765,0.2661209017279726,0.12667133501067893
1765409499.838197,-9.37253505110115,2.918331397003109,3.1671568722485635,-0.3990784854841747,0.27470282720424083,0.130615976622286
1765409499.838572,-9.403134329914867,2.865542717067428,3.144587357783776,-0.4121079372534819,0.2830434036929223,0.13447657463204063
1765409499.838822,-9.42472396689935,2.8097961195731664,3.117054677027956,-0.4248421287569106,0.29105492359145557,0.1382324417448447
1765409499.839072,-9.438522523493644,2.7515537858451182,3.085498490789392,-0.4372562550692855,0.29867076138716414,0.14186322401069396
1765409499.839322,-9.44577090811915,2.6913677138738263,3.050755303110842,-0.44932306359315066,0.30584750842595737,0.14534998723089051
1765409499.839517,-9.44770045856019,2.6298908566504235,3.0135725406787026,-0.4610143603157362,0.31256552726396786,0.1486762920826506
1765409499.839767,-9.445504607353753,2.5678769135012076,2.9746260429432074,-0.4723029767586944,0.3188280417923008,0.15182920332268235
1765409499.840017,-9.440312903770225,2.506167688459847,2.934536902091777,-0.48316508600504043,0.3246589746001335,0.15480015708665604
1765409499.840267,-9.433167071625313,2.445668947100819,2.893885262574518,-0.49358270451574,0.330099800611179,0.1575855959290666
1765409499.840499,-9.42499945015428,2.3873174983591525,2.8532197849345464,-0.5035461729888653,0.33520570775728153,0.16018730043279966
1765409499.840749,-9.416614817367446,2.3320431027450925,2.813062673467155,-0.5130563903549438,0.34004136308119487,0.1626123991709594
1765409499.840999,-9.408677188074515,2.2807285716068955,2.77391156851456,-0.5221265827893028,0.3446765811966184,0.16487309965407682
1765409499.841249,-9.40170324059523,2.2341705207695073,2.7362403387168026,-0.5307834143542289,0.3491821666003379,0.16698622249892797
1765409499.841498,-9.396063487121657,2.193042527841347,2.7005005165610774,-0.5390672770912317,0.35362614251206564,0.1689726304494163
1765409499.841748,-9.391991640404546,2.1578622700504746,2.667124419428365,-0.5470316396603119,0.3580704991836213,0.17085663440120447
1765409499.841998,-9.389601953384235,2.128963980115236,2.636530290500332,-0.5547413980181314,0.3625685200270159,0.17266543931094447
1765409499.842248,-9.388913152532568,2.106476743845172,2.6091288238030734,-0.5622702588097366,0.3671626938768867,0.17442865551551712
1765409499.842451,-9.389875954799624,2.090308447990287,2.5853292035565443,-0.5696972789485575,0.37188319762911654,0.1761778378442389
1765409499.842701,-9.392400064777902,2.080135544844162,2.565541927433662,-0.5771027705785639,0.3767469243982043,0.1779459465753448
1765409499.842951,-9.396377072833703,2.075399933799574,2.550175799424836,-0.584563855428541,0.38175702934365324,0.17976659138248888
1765409499.843201,-9.401697772912394,2.07531490719521,2.5396276203215065,-0.5921500036830245,0.38690297109688343,0.18167294201015305
1765409499.843526,-9.408264848505164,2.0788818064209287,2.5342647840288137,-0.599918898758961,0.39216104944060703,0.1836962488761016
1765409499.843776,-9.416003234940257,2.0849185887696673,2.5344024865235677,-0.6079129255052105,0.39749547448145606,0.1858639868693169
1765409499.844026,-9.424870299452675,2.092101514940298,2.5402782419278336,-0.6161565024232156,0.40286002254331726,0.1881977150078407
1765409499.844276,-9.434866819325029,2.099021011424439,2.552027093014702,-0.6246543886945527,0.40820031276144497,0.19071084017256884
1765409499.844511,-9.446048192869954,2.104251421553486,2.5696611765736797,-0.633391011033549,0.413456676001012,0.19340656443213902
1765409499.844844,-9.458533636414908,2.1064316370786487,2.593056324885699,-0.6423307965099758,0.4185675064070903,0.19627633948946346
1765409499.845178,-9.472509730578754,2.104350404232612,2.621945903388403,-0.6514194806427124,0.4234729056862221,0.19929911904292258
1765409499.84547,-9.488224389877162,2.097027922252491,2.6559194664337893,-0.6605863673594674,0.4281183650437063,0.2024415951344957
1765409499.84572,-9.50596852426299,2.0837853456930135,2.694422959351606,-0.6697475080108406,0.43245819904124494,0.2056594597481895
1765409499.84597,-9.526044776493704,2.0642958602375256,2.7367586657672343,-0.6788097163665145,0.4364584661667238,0.20889959042835637
1765409499.84622,-9.54872488768064,2.0386138490398484,2.782085696979303,-0.6876752597257099,0.44009917108665697,0.21210295374683988
1765409499.846595,-9.57419912236758,2.007181018335604,2.8294238752658223,-0.6962469982863434,0.44337560540047355,0.21520796462159442
1765409499.846845,-9.602522891269167,1.9708098588706038,2.877664610046519,-0.7044337075917814,0.44629872217841576,0.2181540208906808
1765409499.847095,-9.633567120304935,1.9306458261895543,2.925591925132798,-0.7121553080325667,0.4488944690850389,0.2208849358187686
1765409499.847345,-9.666979416934765,1.8881104215674882,2.971915299321399,-0.7193477276199564,0.4512020550082003,0.22335201000471844
1765409499.847548,-9.702162266476615,1.8448280889832307,3.015313638671304,-0.7259671310396923,0.453271199988447,0.22551651550618612
1765409499.847798,-9.738272723876069,1.8025408098688964,3.0544874927295345,-0.7319932540960049,0.45515849710164946,0.22735140887475866
1765409499.848048,-9.774245937567127,1.7630156712707201,3.088215698529862,-0.7374315874723951,0.4569230868544299,0.22884215653006718
1765409499.848298,-9.808842378913699,1.7279519755366648,3.1154128158387007,-0.7423141671176415,0.45862192057649065,0.22998665656783357
1765409499.848581,-9.840715806375046,1.698894521459298,3.135183795610375,-0.7466987686111389,0.4603049727537125,0.23079436267148334
1765409499.848831,-9.868496577575769,1.677157869182521,3.1468720225504447,-0.7506663878735719,0.4620108258642858,0.23128481348551033
1765409499.849081,-9.890883995176786,1.6637635328459768,3.150097255901125,-0.7543170290632585,0.4637630595196015,0.2314857964663315
1765409499.849331,-9.906741557566582,1.6593900370645038,3.1447812271788353,-0.7577640014620934,0.46556782286987786,0.23143132214906562
1765409499.849531,-9.915188534991799,1.6643358594489215,3.1311590562784044,-0.7611271183371263,0.4674128766054033,0.23115950043779016
1765409499.849781,-9.915679570387473,1.678496868230297,3.1097735027545617,-0.764525345919343,0.46926827088259065,0.23071035643539858
1765409499.850031,-9.908062896444612,1.7013612989396922,3.081448647468656,-0.7680695268275958,0.47108867402321947,0.2301236266711554
1765409499.850281,-9.89260942582265,1.7320253581876546,3.0472421715549673,-0.7718557845548252,0.4728171970514155,0.2294366209708515
1765409499.850495,-9.87000896781859,1.7692310568366465,3.008379681446117,-0.7759601255128371,0.4743904113019946,0.22868228245569122
1765409499.850828,-9.841333889017752,1.811425579620741,2.9661774674928276,-0.7804346284071105,0.4757441514614439,0.22788759539633413
1765409499.851162,-9.807973664237073,1.8568393038969637,2.921961058617037,-0.7853054701797261,0.4768196108849875,0.2270724677337349
1765409499.851486,-9.771546719009406,1.9035780464014094,2.8769876286469107,-0.7905728893247366,0.4775691571744981,0.226249163068831
1765409499.851736,-9.733798757424934,1.949724331465749,2.832380938143991,-0.796213033640694,0.47796127226593677,0.22542229499147126
1765409499.851986,-9.696497796958505,1.9934422151496167,2.789086079000808,-0.8021814883585123,0.4779841070522984,0.2245893407214663
1765409499.852236,-9.661334685034122,2.0330800513886627,2.7478472793424733,-0.8084181465511227,0.47764730910345826,0.22374158863322352
1765409499.852526,-9.629835638026805,2.06726508322003,2.7092079835609275,-0.8148529869048743,0.4769819484425186,0.22286540544201633
1765409499.852776,-9.603292108998957,2.09498298914325,2.673530622724121,-0.8214122786407674,0.47603849375526286,0.22194369073237336
1765409499.853026,-9.582712541216639,2.115635596406061,2.6410328816120594,-0.8280247333434976,0.47488292139148247,0.22095738012379765
1765409499.853276,-9.568798634170047,2.1290718564926174,2.6118355044282304,-0.8346271481914392,0.47359120945203514,0.21988687500632273
1765409499.85343,-9.561945304376266,2.1355901890741342,2.5860137622185286,-0.8411691236389998,0.4722426526041902,0.21871332593953627
1765409499.85368,-9.562259852652813,2.135912638037395,2.5636428291436126,-0.8476164998537759,0.4709125808350838,0.21741976106449384
1765409499.85393,-9.569593429447098,2.13113213011854,2.544828021342918,-0.8539532537410597,0.4696651578424188,0.2159920888158138
1765409499.85418,-9.583577437008236,2.12263450065771,2.5297138423892647,-0.8601817316159668,0.46854696882728664,0.2144199887915384
1765409499.854434,-9.60365890952408,2.111998361318288,2.5184698513218167,-0.8663212460272972,0.46758206834175864,0.2126976516686063
1765409499.854684,-9.629131478741058,2.1008786340757415,2.5112554720395557,-0.8724052178553063,0.4667690339600766,0.21082428445148294
1765409499.854934,-9.659161412406101,2.0908825258267463,2.5081696827850823,-0.8784771723440609,0.46608037186290824,0.20880429821738403
1765409499.855184,-9.692810593323285,2.083448415217045,2.5091949690062196,-0.8845859771163586,0.46546437822619324,0.2066471428084447
1765409499.857165,-9.729059255545383,2.079737872363565,2.5141467368589527,-0.8907807363533944,0.4648493143269289,0.20436681865069678
1765409499.857415,-9.76683027671316,2.0805490156301163,2.522637790415212,-0.8971057471188713,0.4641495282740192,0.20198114951542712
1765409499.857665,-9.805014801330534,2.0862562754106406,2.534062927665723,-0.9035959023837408,0.4632729570100702,0.19951092063134032
1765409499.857915,-9.84249790997231,2.096778367308376,2.547604197917105,-0.9102728917310428,0.4621292874440485,0.19697895989733713
1765409499.857239,-9.87818382384323,2.1115741767579337,2.5622552949922994,-0.9171424935815968,0.4606379976255638,0.19440916975732606
1765409499.857489,-9.911021823794702,2.129666102850574,2.5768637786217785,-0.9241931707958891,0.4587355657404446,0.19182544441449165
1765409499.857739,-9.940035404791285,2.1496913038562724,2.5901905711574185,-0.931396085822954,0.45638127817320984,0.18925039031808802
1765409499.857989,-9.964357406247023,2.1699811444567865,2.6009856437874443,-0.93870654918649,0.45356121936385263,0.18670382856423828
1765409499.857468,-9.98327238101033,2.1886668416002326,2.608076234050119,-0.9460668058362266,0.4502901708560222,0.18420115535429413
1765409499.857801,-9.996264494101796,2.2038058524125854,2.610460523359243,-0.9534099540143567,0.44661130115009906,0.18175170953942887
1765409499.858135,-10.003066276258428,2.2135207859517223,2.60739750714279,-0.9606646947993419,0.44259368880016,0.17935732308283883
1765409499.858513,-10.003701882097726,2.2161412123948363,2.598483354523891,-0.9677605349182172,0.4383278756243939,0.1770112393843461
1765409499.858763,-9.99851781466025,2.2103379280569087,2.5837050437842395,-0.9746330107183898,0.4339197947439896,0.17469759990958483
1765409499.859013,-9.988193622617564,2.195238407661108,2.5634633298308307,-0.9812284750733862,0.4294835596429025,0.172391696328732
1765409499.859263,-9.973725234295472,2.1705120122632877,2.538559622630932,-0.9875080084452049,0.4251337149494253,0.17006112071200816
1765409499.859532,-9.956375674577968,2.1364152094582263,2.5101449025052283,-0.9934500885694743,0.42097759776597676,0.16766782061830973
1765409499.859782,-9.93759283131481,2.093790873643083,2.4796330278138767,-0.9990517718031644,0.41710841697704765,0.16517092586718865
1765409499.860032,-9.918900808604977,2.0440207108782067,2.4485857760679073,-1.0043282884725142,0.4135995588408308,0.16253010781029623
1765409499.860282,-9.9017772576236,1.9889346427016126,2.418581686500107,-1.009311119142394,0.41050053065612535,0.15970918009615473
1765409499.860564,-9.887531186038528,1.9306847549106403,2.3910831111857704,-1.014044777252583,0.4078348683021097,0.1566796427712116
1765409499.860814,-9.877194521510312,1.8715940857810929,2.367315339957558,-1.0185826506569773,0.40560020052552814,0.1534238833834217
1765409499.861064,-9.871438700187332,1.8139923212150384,2.348169919616125,-1.022982331559462,0.40377045206694107,0.14993776125429523
1765409499.861314,-9.870525527840892,1.760051466400273,2.334142035981737,-1.0273008884645423,0.4022999335489567,0.14623231846335102
1765409499.861448,-9.874297874126995,1.7116346874274186,2.3253078328194703,-1.0315905172307833,0.4011288839105824,0.14233439846437126
1765409499.861698,-9.882210150166133,1.670170692730842,2.321341969291536,-1.0358949630811514,0.40018991594827985,0.1382860185965164
1765409499.861948,-9.893393561786262,1.6365642502844548,2.321571313644852,-1.0402470323636281,0.39941474023130064,0.1341424341865554
1765409499.862198,-9.906748634646737,1.6111507849313953,2.325058895680929,-1.0446674107364327,0.3987405041578111,0.12996894107494558
1765409499.862473,-9.921056169374753,1.5936997296939412,2.3307110732105163,-1.0491648788072545,0.3981151066235614,0.12583658115145974
1765409499.862723,-9.93509593026108,1.5834676772463625,2.33739825116857,-1.053737873691692,0.3975009436045453,0.12181704313161792
1765409499.862973,-9.947760717970224,1.579298137995305,2.3440764282054327,-1.0583771929331198,0.39687669043262924,0.11797719248315508
1765409499.863223,-9.95815363501291,1.579759205191156,2.349895487038839,-1.0630694944250263,0.396236927849054,0.11437379862616905
1765409499.863526,-9.965658304098485,1.5833037715474687,2.3542809949499444,-1.0678011394012348,0.3955896752850436,0.1110491019268944
1765409499.863776,-9.969974395345984,1.5884310055830644,2.3569787851018615,-1.0725618757724782,0.3949521738002529,0.10802782081839651
1765409499.864026,-9.971113953892504,1.5938256384131224,2.358055882922175,-1.0773478751333425,0.3943454927078327,0.1053160072335039
1765409499.864276,-9.969358868862274,1.59845544288625,2.3578577412543122,-1.0821637154185277,0.3937886688737224,0.1029018372560366
1765409499.864487,-9.965186523770967,1.6016165224099266,2.3569289530745245,-1.0870230252870003,0.39329312570461,0.10075807069886085
1765409499.864737,-9.959176716909175,1.6029273386970722,2.3559098046856217,-1.091947656723264,0.39285807846083765,0.09884566094265067
1765409499.864987,-9.95191520166634,1.602281806412698,2.355422577160771,-1.0969654218632225,0.3924675218671388,0.09711792139664652
1765409499.865237,-9.943907268677084,1.5997767157713847,2.355960803869346,-1.1021066130941988,0.39208921413995906,0.0955247315049036
1765409499.865461,-9.935511080787643,1.595628900719344,2.3577940024514796,-1.1073996981903496,0.3916758267032387,0.09401640411253086
1765409499.865711,-9.926897036865793,1.5900946475174973,2.360899473686284,-1.1128667063655495,0.39116815627240287,0.09254695316275373
1765409499.865961,-9.918036223347913,1.5834004277322418,2.36492964415394,-1.118518869656751,0.39050005094994666,0.09107656305094097
1765409499.866211,-9.908717434765318,1.575691872879195,2.3692181126703438,-1.1243530579801961,0.3896045248919728,0.08957309574593231
1765409499.866514,-9.89858902950469,1.5670067227157711,2.3728226963443713,-1.1303494658733997,0.388420430824304,0.0880125358992201
1765409499.866764,-9.88722011915991,1.5572755155497486,2.3746014434131295,-1.1364708924691636,0.3868990115040276,0.08637840287704836
1765409499.867014,-9.87417463582074,1.546349567417534,2.3733165377903274,-1.1426638066709216,0.3850096568808806,0.08466033155378212
1765409499.867264,-9.859089807119194,1.5340498482011342,2.3677581495383175,-1.1488612024848677,0.3827442632274263,0.08285217329502659
1765409499.867505,-9.841747443582822,1.520225298954679,2.3568750209617213,-1.1549870341094133,0.38011972245031245,0.08095003059730979
1765409499.867755,-9.822125208855734,1.5048074210722033,2.339894558131673,-1.160961810238945,0.3771782439772378,0.07895060357771995
1765409499.868005,-9.800418504196873,1.4878497282172205,2.3164161202363527,-1.166708768670164,0.37398541395788426,0.07685013531170713
1765409499.868255,-9.777030732423691,1.4695440443016559,2.28646647346211,-1.1721599812448844,0.37062612694486174,0.07464413306522064
1765409499.868496,-9.752536904030649,1.4502092973698826,2.250512887701655,-1.1772617611746727,0.36719876700754644,0.0723279086641972
1765409499.868746,-9.727630396548534,1.4302527160199632,2.209435467465117,-1.181978836797778,0.3638082215719737,0.06989780625065113
1765409499.868996,-9.703064544171365,1.4101086971875112,2.164465397409135,-1.1862968882098566,0.3605584370109914,0.06735279885982874
1765409499.869246,-9.679599132066325,1.3901660394613777,2.1170982319752993,-1.190223201139923,0.3575452528647718,0.06469601552064794
1765409499.869537,-9.657957071290047,1.3706975733997273,2.0689904104174865,-1.1937853728204695,0.3548501852982257,0.06193576862384009
1765409499.869787,-9.638791012113556,1.3518061594017747,2.0218450692079384,-1.1970281994409127,0.3525356888746549,0.059085774742643316
1765409499.870037,-9.622656530082567,1.3333980626778836,1.9772928864646586,-1.2000090679684154,0.35064224424859347,0.05616444010296475
1765409499.870287,-9.609988716124732,1.31519016411606,1.936775595501339,-1.2027923506235216,0.34918742859628427,0.05319326709362486
1765409499.870493,-9.601081190586573,1.2967520712800689,1.9014423084655068,-1.2054434360640438,0.34816693061551374,0.050194614600736064
1765409499.870743,-9.59606911913823,1.2775781463339857,1.8720701227610088,-1.2080230864244172,0.3475572741444398,0.047189197506818485
1765409499.870993,-9.594919551562683,1.2571783454193926,1.849019429588164,-1.2105827450363522,0.3473198411948287,0.04419380281818546
1765409499.871243,-9.597432328147768,1.2351719726970054,1.8322303472754675,-1.2131612436977433,0.3474056734981743,0.041219687023325915
1765409499.871663,-9.603252829683738,1.2113667037052414,1.821260526064179,-1.2157831284251754,0.3477604956617309,0.03827198252606973
1765409499.871913,-9.611895365368609,1.1858075618143697,1.8153583121165353,-1.2184586019382684,0.3483294352079646,0.03535021100994725
1765409499.872163,-9.622774478076344,1.1587867355822468,1.8135608007866462,-1.2211849068435885,0.3490610027400156,0.03244974925908979
1765409499.872413,-9.635241287844439,1.1308137949668344,1.8148043340266002,-1.223948860152555,0.34991002027687074,0.02956389633662664
1765409499.872552,-9.648622928995291,1.102554473526637,1.8180355213339632,-1.2267301949615115,0.3508393194938342,0.026686107725923138
1765409499.872802,-9.662264432830774,1.074751703799435,1.8223130885560201,-1.2295053494251593,0.35182015698350705,0.02381200493873504
1765409499.873052,-9.675572580991929,1.0481433056321292,1.8268928370531625,-1.2322513471738665,0.3528314169731896,0.02094088701642796
1765409499.873302,-9.68805944852169,1.023387724660179,1.8312887498115031,-1.2349494355923052,0.3538577987679621,0.018076579818317288
1765409499.873477,-9.69938103699997,1.0010053964007204,1.83530451779071,-1.237588192726309,0.35488729658072327,0.015227522626151192
1765409499.87381,-9.709365880514135,0.9813405687812953,1.8390331547633652,-1.240165870863576,0.35590834739046373,0.01240604743587649
1765409499.874144,-9.718029928647145,0.9645462862100386,1.8428265057501183,-1.2426918003107186,0.35690704690384223,0.009626907121084388
1765409499.876062,-9.725575450604364,0.9505922826775158,1.8472388872058052,-1.2451867244025137,0.35786482483267557,0.006905257986287851
1765409499.876312,-9.732372156399249,0.9392914144583978,1.8529499001970648,-1.2476819819721627,0.358756920092091,0.004254455032888041
1765409499.876562,-9.738919385842877,0.9303363487596528,1.8606724489769988,-1.250217511550354,0.35955189185337527,0.0016841079352459246
1765409499.876812,-9.745790509554684,0.9233365615427662,1.8710538507853176,-1.252838737506827,0.3602122619662112,-0.0008011898646784109
1765409499.876141,-9.753564215086174,0.917847450031702,1.884579760795556,-1.255592513831393,0.3606962462295345,-0.0032022188606493527
1765409499.876391,-9.762750342815933,0.9133878664840445,1.9014912512443705,-1.2585224317660728,0.36096041689345126,-0.005524578352243718
1765409499.876641,-9.773719148435042,0.9094474585318327,1.9217239466362601,-1.2616639166492325,0.3609630432855065,-0.007777424094652494
1765409499.876891,-9.786642458132913,0.9054885972156386,1.9448749005026302,-1.2650396128288988,0.36066777801345495,-0.009971813608238926
1765409499.876482,-9.801453982575385,0.9009485146351739,1.9701995976104754,-1.268655557431264,0.36004730784900013,-0.012118993862137056
1765409499.876732,-9.8178344348537,0.8952463154642184,1.9966396035503633,-1.2724985785971903,0.3590865933138657,-0.01422893388350012
1765409499.876982,-9.835224708466143,0.8877980011785941,2.0228804891089758,-1.2765352484984174,0.35778537418158485,-0.01630934392390998
1765409499.877232,-9.85286693572777,0.8780410968339495,2.0474379889915255,-1.28071259055041,0.35615968561436095,-0.01836533036343511
1765409499.877451,-9.869869133209722,0.8654686684044411,2.068767090971685,-1.2849605759017655,0.35424219590884887,-0.02039970237983381
1765409499.877701,-9.885285087465544,0.8496700264336643,2.0853846898833677,-1.2891962481552177,0.35208126459465744,-0.022413782913279997
1765409499.877951,-9.898198064259788,0.8303722094624884,2.095993020448835,-1.2933291218965963,0.3497387435795154,-0.02440842964267271
1765409499.878201,-9.907796055828697,0.8074734336615607,2.099589453565397,-1.2972673555810648,0.347286677351245,-0.026384915752243387
1765409499.878507,-9.913428426611798,0.7810591013027367,2.095549056853297,-1.3009241258842614,0.34480316848254144,-0.028345403643782262
1765409499.878757,-9.914638307608143,0.7513943690449443,2.0836697630116796,-1.304223628330635,0.3423677617781407,-0.030292933266688582
1765409499.879007,-9.911170045824674,0.7188941157315314,2.0641754969583825,-1.307106191269722,0.34005677052619476,-0.0322310336017711
1765409499.879257,-9.902954844976032,0.6840780874969021,2.0376786184866424,-1.3095321056353169,0.33793899184769505,-0.03416315147361287
1765409499.879541,-9.890080166341969,0.6475221219309624,2.005107904650225,-1.3114839165232908,0.33607219216908574,-0.03609206021204623
1765409499.879791,-9.872750208491812,0.6098144636920243,1.9676119248934552,-1.3129670632447143,0.33450060052049857,-0.03801932981021104
1765409499.880041,-9.851246062417216,0.5715216425751823,1.9264508012413113,-1.3140088723193206,0.3332535042051895,-0.039944885116934385
1765409499.880291,-9.825893725806367,0.5331643466215977,1.8828910250033937,-1.3146560035584391,0.3323449586716248,-0.04186666157233792
1765409499.880503,-9.797044893875979,0.4952012843801211,1.8381159770828284,-1.314970538313045,0.3317745777666111,-0.04378035739053821
1765409499.880753,-9.765070557698001,0.45801760724366253,1.7931593422071295,-1.315024993308442,0.3315293002930998,-0.04567926619445175
1765409499.881003,-9.730364048686047,0.42191380354378694,1.7488633930028017,-1.314896636790408,0.33158592287894606,-0.047554178978784195
1765409499.881253,-9.69334983105577,0.3870917176506029,1.7058618947509945,-1.3146615546773983,0.33191410057781556,-0.04939338824020942
1765409499.881471,-9.654495185617638,0.3536370942613948,1.6645865372648816,-1.3143889438487402,0.33247949846199876,-0.05118289548238941
1765409499.881721,-9.614321348273146,0.3215024407878803,1.6252933239252176,-1.3141360912552191,0.3332468252429738,-0.05290696910395396
1765409499.881971,-9.57340926120254,0.29049825069672947,1.5881020026763035,-1.3139444385504357,0.33418254011101994,-0.05454916875893836
1765409499.882221,-9.532395769268987,0.26030202923448903,1.5530409170635864,-1.3138370490097366,0.33525705631077984,-0.05609382846066342
1765409499.882458,-9.491959360200138,0.2304913653817116,1.520091879937683,-1.3138177013827252,0.3364462802695646,-0.05752782374588198
1765409499.882708,-9.452797590721556,0.20060038098984617,1.489231285032699,-1.3138717331231564,0.3377323507166932,-0.05884232042225041
1765409499.882958,-9.415599306485005,0.1701912120835045,1.4604632773564319,-1.3139686258014576,0.33910348388580663,-0.060034165496949704
1765409499.883208,-9.38101482320425,0.13892675495114545,1.4338410652157179,-1.3140661546079424,0.3405528939205101,-0.061106636329589376
1765409499.883479,-9.349627627242354,0.10662953377803194,1.4094749989843576,-1.3141157248848978,0.34207686453396113,-0.06206939028787921
1765409499.883729,-9.321931232683713,0.07331458104958924,1.3875289119634877,-1.3140683343744297,0.3436721983046197,-0.06293762310103443
1765409499.883979,-9.298313928305266,0.03919057843482675,1.3682074242037425,-1.3138804823716983,0.3453334128920819,-0.06373059738439285
1765409499.884229,-9.279052853112612,0.0046308079809748446,1.351736897515164,-1.3135193317437506,0.3470501288055184,-0.06446978649621114
1765409499.884535,-9.264317786022216,-0.029878883746358775,1.3383426856749316,-1.3129665231665897,0.34880508102207153,-0.06517688135460492
1765409499.884785,-9.254183997766681,-0.06380510978519467,1.328225463467368,-1.3122202243745975,0.35057310505667044,-0.06587187089723719
1765409499.885035,-9.248651970770704,-0.09663443016809384,1.3215393182726676,-1.3112952360799028,0.3523213225590266,-0.06657136896136251
1765409499.885285,-9.247669779646271,-0.12793351126727362,1.3183735996335424,-1.3102212279269478,0.35401059341148355,-0.06728732013529218
1765409499.885537,-9.251152513117953,-0.15739397965218938,1.3187394224920714,-1.309039403399221,0.355598113833652,-0.06802616398027551
1765409499.88587,-9.258993757811686,-0.18485718846391497,1.3225610807435724,-1.30779806368837,0.3570408473153264,-0.06878848100296588
1765409499.886204,-9.271066904266043,-0.21031849013232545,1.3296730000542707,-1.3065476346313456,0.3582993332286108,-0.06956909834149595
1765409499.886502,-9.287217148729923,-0.2339151290851024,1.3398233847211378,-1.3053357206053173,0.3593413772867571,-0.07035759791824171
1765409499.886752,-9.307247161632793,-0.25590492131018827,1.3526853196535915,-1.30420265915373,0.3601451896042942,-0.07113914456001535
1765409499.887002,-9.330900835873969,-0.2766430223521725,1.3678752304216077,-1.303177906906064,0.36070165536212007,-0.07189554432500647
1765409499.887252,-9.35785087308024,-0.29656118941655807,1.38497817708493,-1.3022774427775554,0.3610155527894218,-0.07260645512325441
1765409499.887494,-9.387696190712507,-0.31614965425934244,1.403578804398901,-1.3015022657000461,0.3611056550403102,-0.07325069090678457
1765409499.887744,-9.419972780672081,-0.3359382514150126,1.4232948271307,-1.3008379999910884,0.3610037664467262,-0.07380757447758655
1765409499.887994,-9.454177232996498,-0.35647218820713683,1.4438076740418546,-1.3002555894683887,0.36075283642014067,-0.07425829501732985
1765409499.888244,-9.489798080184425,-0.3782790252566487,1.4648845561897206,-1.299713043155325,0.3604043423801058,-0.07458721397399994
1765409499.888467,-9.526348259738379,-0.4018263470606873,1.4863881991326797,-1.299158173787078,0.3600151408393124,-0.07478304434773907
1765409499.888717,-9.563392059209011,-0.42747301804011656,1.5082728447177967,-1.2985322267098158,0.35964398791197744,-0.07483981001440909
1765409499.888967,-9.60056069399902,-0.4554197333995594,1.5305660676929513,-1.297774214740257,0.3593479440027911,-0.07475747088452138
1765409499.889217,-9.63755198352103,-0.485666290677453,1.5533360140071844,-1.2968256593740302,0.3591788898755552,-0.07454208065245609
1765409499.889429,-9.674112198586693,-0.5179836992840346,1.5766449152890258,-1.295635327107133,0.35918039311124866,-0.074205351726508
1765409499.889679,-9.710002022413805,-0.5519088722693251,1.6004928046747482,-1.294163485087974,0.3593851896445531,-0.07376356429367428
1765409499.889929,-9.744952375763354,-0.5867674805244351,1.6247586232719413,-1.292385203087615,0.35981356545783855,-0.07323587513687836
1765409499.890179,-9.778618481199462,-0.6217258882794753,1.649147918834744,-1.2902922984219891,0.36047288479002115,-0.07264222384919028
1765409499.89047,-9.810541864843069,-0.6558667291277298,1.6731572270305726,-1.2878936541598631,0.361358382709706,-0.07200114340326397
1765409499.89072,-9.840129830265244,-0.688277088608987,1.6960648447794113,-1.285213834517075,0.36245515099924935,-0.07132780924784468
1765409499.89097,-9.866659579733835,-0.7181358386631168,1.7169547267703233,-1.2822901562176854,0.3637410618448832,-0.07063260050153357
1765409499.89122,-9.88930975828351,-0.7447879888878592,1.7347744631125352,-1.2791686086384237,0.36519024349245144,-0.06992034183630148
1765409499.891432,-9.907217383251538,-0.7677975432828544,1.7484219763587836,-1.2758991876342458,0.36677666123027014,-0.06919029474832507
1765409499.891765,-9.919554389705619,-0.7869742593619903,1.7568511800195867,-1.2725312644892728,0.36847736357579025,-0.06843688231249109
1765409499.892099,-9.925615424230234,-0.8023730422981431,1.7591848584703422,-1.2691095421218506,0.3702750157364046,-0.06765103819157767
1765409499.892461,-9.924906512187453,-0.8142681407097858,1.7548225230177297,-1.2656709953258025,0.3721594351322542,-0.06682195514919356
1765409499.892711,-9.917223080098976,-0.8231085020966344,1.7435312146231894,-1.2622430075335307,0.37412794200392446,-0.0659389023634772
1765409499.892961,-9.902706648433519,-0.8294646212804145,1.7255083391538895,-1.2588427427093047,0.3761844374544726,-0.06499275204155235
1765409499.893211,-9.881872947932084,-0.83397870431859,1.7014083740811883,-1.255477644112684,0.378337237995597,-0.06397695467464604
1765409499.893529,-9.85560919433582,-0.8373273135797369,1.6723297313756467,-1.2521468413763523,0.38059584891470816,-0.06288790581531711
1765409499.893779,-9.825142515509132,-0.8401993682435938,1.6397628372872424,-1.2488431863294194,0.38296704169299134,-0.061724856491725
1765409499.894029,-9.79198362635359,-0.8432852027682145,1.6055040097009852,-1.245555632446685,0.38545076161462094,-0.0604896239295124
1765409499.894279,-9.757850395759647,-0.8472679054880593,1.5715417755815755,-1.2422717064743893,0.38803646444187,-0.059186318342670845
1765409499.894481,-9.72457627900973,-0.8528085141502463,1.5399235890322487,-1.238979862304891,0.3907004419098074,-0.05782117195346835
1765409499.894731,-9.694008888566016,-0.8605210333034519,1.5126118111491738,-1.235671537849337,0.39340457129366785,-0.056402440775667494
1765409499.894981,-9.667903727933915,-0.870938601634634,1.491338512656746,-1.2323427590467884,0.3960967480832796,-0.05494030967520206
1765409499.895231,-9.647817775828834,-0.8844756085236419,1.477469757251271,-1.2289951598704583,0.3987130518876361,-0.0534467456490889
1765409499.895534,-9.635008396001135,-0.9013914868826357,1.4718914809390262,-1.2256363158470123,0.4011814769167144,-0.05193525022973485
1765409499.895784,-9.630345012921696,-0.9217616832812872,1.4749294775696105,-1.2222793231666693,0.40342686837043534,-0.05042043165453101
1765409499.896034,-9.634242400118675,-0.9454613202944175,1.486313534312646,-1.2189416010767307,0.4053765798036006,-0.04891728917313689
1765409499.896284,-9.64662347057331,-0.9721669843999675,1.5051900470438109,-1.215642957897282,0.40696631248620874,-0.047440139528857735
1765409499.896491,-9.66691628514335,-1.001380206485329,1.5301806141368983,-1.2124030425364096,0.4081456048088527,-0.046001241896517255
1765409499.896824,-9.694086518582548,-1.0324716317331168,1.5594795748926036,-1.2092383950318342,0.40888249910684044,-0.0446093359916211
1765409499.897158,-9.726704140993547,-1.0647390953843232,1.5909824338077188,-1.2061593926758651,0.4091670150622071,-0.0432683950817977
1765409499.897495,-9.763040889733507,-1.0974689451541766,1.6224371258490566,-1.2031674428419654,0.4090131742619865,-0.04197685289719358
1765409499.897745,-9.801192123421776,-1.1299900694444587,1.6516083415162746,-1.2002527845456092,0.4084594163913018,-0.040727436799257714
1765409499.897995,-9.839213243957492,-1.1617134787216274,1.6764420649281535,-1.1973932210684737,0.40756732312800953,-0.03950762718416364
1765409499.898245,-9.875258290606979,-1.1921542865698886,1.6952154906955381,-1.1945540218327748,0.4064186539009349,-0.0383007136337441
1765409499.898487,-9.907707192901414,-1.220935494349857,1.7066578059175275,-1.1916891191159322,0.4051108230053474,-0.03708739432921042
1765409499.898737,-9.935268716202726,-1.2477742235941383,1.7100296922143505,-1.1887435968406896,0.4037510932494592,-0.035847797162881535
1765409499.898987,-9.957048874631663,-1.2724525328622411,1.7051536173181094,-1.185657329116131,0.40244988590176123,-0.03456366725612526
1765409499.899237,-9.972579549259326,-1.294777894535737,1.692392829269009,-1.1823694842095096,0.40131369247268256,-0.03322032240950014
1765409499.899521,-9.981807601469603,-1.3145424269941095,1.6725830421766905,-1.178823487442845,0.40043813406902634,-0.03180791880119564
1765409499.899771,-9.985048990866805,-1.331493097387871,1.6469253986893397,-1.1749719594958437,0.3999017462759163,-0.030321661659956017
1765409499.900021,-9.982915410854435,-1.3453247460757458,1.616852517844074,-1.1707811290107517,0.39976104216098535,-0.02876084146045934
1765409499.900271,-9.976223923405609,-1.3557025989689224,1.5838825066429356,-1.1662342612202372,0.4000473144226905,-0.027126898439366935
1765409499.900953,-9.965902205133737,-1.3623123782466477,1.5494780164471433,-1.1613337409928708,0.4007655000728161,-0.025420987280460033
1765409499.901203,-9.952900959110345,-1.3649279889269645,1.5149261901014024,-1.1561015887274368,0.401895248701627,-0.02364162434218729
1765409499.901453,-9.938120724151748,-1.3634824998713322,1.4812501086490495,-1.150578351403637,0.403394094512448,-0.021782941841687987
1765409499.901703,-9.92235585909415,-1.3581282803869184,1.4491560295282506,-1.1448204693111237,0.40520236417417727,-0.019833920961114027
1765409499.901606,-9.906256489733455,-1.3492745715845282,1.4190162929452697,-1.1388963507098209,0.407249241306682,-0.01777880675169165
1765409499.901856,-9.890308924235988,-1.3375934333478428,1.390885370410426,-1.1328814935111033,0.4094593219233073,-0.015598739848662568
1765409499.902106,-9.874834144700204,-1.3239880779660864,1.3645446779922137,-1.1268530829271786,0.41175902531490083,-0.013274438856374566
1765409499.902356,-9.860001777363209,-1.3095227677354433,1.3395698709517263,-1.1208845605335676,0.41408230615740405,-0.010789513722672327
1765409499.902509,-9.845854960968017,-1.2953214026912554,1.3154129922388114,-1.1150406817567617,0.4163751938144546,-0.008133749892366047
1765409499.902842,-9.832341488390657,-1.282450620875487,1.2914917533433088,-1.1093735299033216,0.41859876843289984,-0.0053056147122066254
1765409499.903176,-9.819348154690221,-1.2718087553492148,1.2672788775504062,-1.1039198270857036,0.42073031128650323,-0.0023134008126115026
1765409499.903493,-9.80673617329072,-1.2640412512875825,1.2423842576142878,-1.0986997031738337,0.422762561080856,0.0008252127278328029
1765409499.903743,-9.794374729372986,-1.2594961516845191,1.2166214182255934,-1.0937169033459369,0.42470123706301627,0.004085003021871917
1765409499.903993,-9.78216919241052,-1.2582231443195224,1.1900499782888525,-1.088960273247304,0.4265611947990215,0.007436004569001113
1765409499.904243,-9.770082307107455,-1.2600106437645575,1.1629895770906695,-1.084406273140229,0.4283617326233647,0.010846739648345129
1765409499.904478,-9.758149245074518,-1.2644502451101278,1.1360057726251627,-1.0800222308912528,0.4301216688211308,0.014287391252301655
1765409499.904728,-9.746487314837907,-1.2710166865286605,1.1098706516134822,-1.0757700275281106,0.4318548432610501,0.01773251285299059
1765409499.904978,-9.735298294000101,-1.2791521974190416,1.0855003092005933,-1.0716099021842354,0.43356662378261174,0.02116294038028921
1765409499.905228,-9.724859396972635,-1.288344701388606,1.0638717658355574,-1.06750406688993,0.435251825082494,0.024566645409795994
1765409499.90545,-9.715500451676732,-1.2981893302396195,1.0459252227504454,-1.0634198486213688,0.4368942421903304,0.027938388880772127
1765409499.9057,-9.70756886265243,-1.3084235017680041,1.0324618384265136,-1.0593321325910927,0.43846780995826024,0.03127822869266558
1765409499.90595,-9.701387799150714,-1.3189293175452375,1.0240497387238268,-1.0552249588861617,0.4399392154364974,0.03458917244166454
1765409499.9062,-9.69721531391419,-1.3297036104228253,1.02095073645483,-1.0510922071732107,0.44127160333379917,0.03787446614815491
1765409499.906548,-9.69521246617273,-1.3408036012022864,1.0230774699157688,-1.0469373738996677,0.44242887069478687,0.04113508980786949
1765409499.906798,-9.695426945342598,-1.3522816806416773,1.0299862701101163,-1.0427724950018809,0.44338000731133753,0.044367964207972434
1765409499.907048,-9.697795540657895,-1.3641242749696518,1.0409064903213034,-1.0386163011712366,0.44410301227538035,0.04756519668908527
1765409499.907298,-9.702165118043094,-1.3762073522261402,1.05480346814306,-1.0344917273861987,0.44458804757772274,0.0507144741204834
1765409499.907464,-9.708328411650406,-1.3882768403397587,1.0704694132270898,-1.0304229419603619,0.4448396071068476,0.053800508415982495
1765409499.907714,-9.71606792295836,-1.399957846741977,1.086632829522465,-1.026432103785314,0.4448775572388495,0.05680727881984048
1765409499.907964,-9.72519880194727,-1.410792452987006,1.1020726741264897,-1.0225360838610058,0.4447369637258181,0.059720696098142616
1765409499.908214,-9.735601358554574,-1.420301439738842,1.115721503847551,-1.0187433969747872,0.44446668813659096,0.06253124184592299
1765409499.908559,-9.747237051351316,-1.4280604848501244,1.1267451019038646,-1.0150515938917852,0.44412682619565924,0.06523613315022478
1765409499.908809,-9.760146787530038,-1.4337772782153972,1.134592559343594,-1.0114453664947676,0.44378516343146013,0.06784065027915523
1765409499.909059,-9.774433783810242,-1.4373544585988334,1.1390158846892686,-1.0078956020265797,0.44351292325408376,0.0703584389755028
1765409499.909309,-9.790233806830097,-1.4389256420192647,1.1400601046467453,-1.0043595740273223,0.4433801539127908,0.07281081300241353
1765409499.909519,-9.807675219691774,-1.4388576476061592,1.1380254935934482,-1.0007823804616307,0.4434511272051746,0.0752252610103566
1765409499.909769,-9.826832123677196,-1.4377189653104112,1.1334053719350827,-0.9970996420550149,0.44378011128882106,0.07763344810259108
1765409499.910019,-9.847676020668382,-1.4362198276328344,1.1268061123292004,-0.9932413577055631,0.4444078545030807,0.0800689989141861
1765409499.910269,-9.870033153283403,-1.4351319286442856,1.118859199295283,-0.9891366871571314,0.4453590847182956,0.0825653032683654
1765409499.910544,-9.893554613202236,-1.4351969513762382,1.110136781228641,-0.984719315423333,0.4466412675074582,0.08515354172921599
1765409499.910794,-9.917704454785893,-1.4370341275715555,1.1010813600342042,-0.9799329674204358,0.4482447455377228,0.0878610918257578
1765409499.911044,-9.94176841670337,-1.4410581531937436,1.0919574333585114,-0.974736589091191,0.45014420883301787,0.09071042169984675
1765409499.911294,-9.964883316534968,-1.4474185113849511,1.0828290583683804,-0.9691086938859192,0.4523012806366972,0.09371849331886209
1765409499.911519,-9.986084980133521,-1.455968384530617,1.073563514306212,-0.9630504027633476,0.45466790520707634,0.09689660583354358
1765409499.911852,-10.00437080445328,-1.466266327136192,1.0638584167884835,-0.9565867999905173,0.4571901963407108,0.10025055195350281
1765409499.912186,-10.018772106209799,-1.4776086257418954,1.0532884610379616,-0.9497663914590943,0.45981241108902626,0.10378095743097604
1765409499.912515,-10.028431385140678,-1.4890866705077945,1.041368209533988,-0.942658668496724,0.46248072047306166,0.10748371186455175
1765409499.912765,-10.03267985700653,-1.499662374106362,1.0276274361827813,-0.9353500087093078,0.4651464536513386,0.11135044121443
1765409499.913015,-10.031110276441794,-1.508254912580906,1.0116940127171028,-0.9279383344458306,0.4677685079413399,0.11536898685322991
1765409499.913265,-10.023639230349989,-1.5138322853259283,0.9933765924619232,-0.920527053485899,0.4703146689447134,0.11952384218995514
1765409499.913452,-10.01055258545869,-1.5155004648042405,0.9727372863793328,-0.9132188162074697,0.47276169594576734,0.12379648734544822
1765409499.913702,-9.992528261829658,-1.5125818375719455,0.9501443827110029,-0.9061095730387202,0.4750941898510511,0.1281655877373833
1765409499.913952,-9.970631818776306,-1.5046748253766726,0.9262966425838707,-0.8992833458241396,0.477302428816719,0.1326070850723871
1765409499.914202,-9.946281790057597,-1.491689074869667,0.9022127715109594,-0.8928080463634076,0.47937948896910937,0.13709427505018232
1765409499.914486,-9.921182869801097,-1.4738547790198888,0.8791817734491697,-0.886732574976274,0.48131805488688534,0.14159799122452119
1765409499.914736,-9.897226658066106,-1.4517085363396804,0.8586728889981948,-0.8810853144149661,0.48310736526599407,0.14608697885137684
1765409499.914986,-9.876363281619518,-1.4260599558145088,0.8422092320088601,-0.875874017634833,0.48473072332185335,0.1505284655080852
1765409499.915236,-9.860453006204882,-1.3979429316565142,0.8312167042109427,-0.8710869862124827,0.48616393379762657,0.15488886228682636
1765409499.915571,-9.85111256669049,-1.3685545104473096,0.8268662604300008,-0.8666953543472753,0.48737493071990207,0.15913450087045478
1765409499.915821,-9.849573707104211,-1.3391840022247372,0.8299304828197026,-0.8626562304532227,0.4883247352004495,0.16323233459969122
1765409499.916071,-9.856570898044408,-1.311135906296232,0.8406745499494124,-0.8589164006519501,0.48896971546897383,0.16715057532829755
1765409499.916321,-9.872271990707917,-1.285651633189881,0.858797379696742,-0.8554162660415627,0.4892649244692282,0.170859265301251
1765409499.916503,-9.896259601387952,-1.2638357652862873,0.8834306268882683,-0.8520936767124397,0.4891681142771336,0.17433078647121864
1765409499.916753,-9.92756292575562,-1.2465922479731848,0.913192942024605,-0.8488873482062798,0.48864392233449455,0.1775403105277009
1765409499.917003,-9.964732306496435,-1.234575063909717,0.9462888666463704,-0.8457395982960609,0.4876677155291174,0.1804662105782331
1765409499.917253,-10.005945251319131,-1.2281573882878511,0.9806389899096256,-0.8425982162330602,0.4862286555408283,0.18309047693981395
1765409499.917459,-10.049132829142879,-1.2274226810815412,1.0140289231590636,-0.8394173699447037,0.48433167659939996,0.1853991684357039
1765409499.917792,-10.092116911709788,-1.2321795056564466,1.0442656590704396,-0.836157565412712,0.48199820213744426,0.1873828734709886
1765409499.918126,-10.132749511192184,-1.2419985623846588,1.0693298144157586,-0.8327847821969248,0.4792655451508464,0.18903709156966164
1765409499.918503,-10.169045615257847,-1.2562665524287184,1.0875125798385707,-0.8292689976022848,0.47618503803487483,0.19036243371661082
1765409499.918753,-10.199301279668829,-1.2742488879252878,1.097527750594887,-0.8255823623608181,0.4728190323462442,0.191364594300224
1765409499.919003,-10.22218921862133,-1.2951530496052996,1.0985910054620234,-0.8216973020110665,0.46923700165390225,0.1920541284178358
1765409499.919253,-10.236824608951578,-1.3181861836603923,1.0904601291407023,-0.8175848032469727,0.4655110593753481,0.1924461172314996
1765409499.919471,-10.24279549314073,-1.3426029547115559,1.0734325786309398,-0.8132131147423459,0.4617112508462827,0.19255979102950446
1765409499.919721,-10.240156229255103,-1.367741550374727,1.048301814262205,-0.8085470495632545,0.4579009896877362,0.19241812328565808
1765409499.919971,-10.229387733236726,-1.3930468078206917,1.0162793317183854,-0.8035480213061363,0.4541329882030126,0.1920473541675867
1765409499.920221,-10.211331935368731,-1.4180801278498072,0.9788921986076314,-0.7981748796859828,0.4504459834630376,0.19147638077073958
1765409499.920452,-10.187108599348422,-1.4425167139253525,0.9378656463607102,-0.7923855332511228,0.4468624901205009,0.19073596722908295
1765409499.920702,-10.158021818382599,-1.4661319572608043,0.8949993828823007,-0.7861392599180429,0.44338773510405616,0.1898577629928502
1765409499.920952,-10.125463005157638,-1.4887800094282588,0.8520465330236829,-0.7793995216679908,0.440009863555014,0.188873148568034
1765409499.921202,-10.090817448472233,-1.5103678473954973,0.8106046258474362,-0.7721370346356381,0.43670143633449326,0.18781194668571313
1765409499.921444,-10.0553819707737,-1.5308271675081,0.7720274222918954,-0.7643328101272071,0.4334221354808322,0.18670105796323105
1765409499.921777,-10.020301234436188,-1.5500851063530174,0.7373645055036513,-0.7559808746910751,0.4301224581939895,0.1855631189334064
1765409499.922111,-9.986528767107243,-1.5680343767346598,0.7073326448316932,-0.7470903931323079,0.42674806991121234,0.18441532812647662
1765409499.922523,-9.954814915567567,-1.5845045414706416,0.6823187783225116,-0.7376869552736403,0.42324445368289687,0.1832686142912725
1765409499.922773,-9.92571876727166,-1.5992382314459006,0.6624099398415454,-0.7278128461907833,0.41956151853142126,0.18212730272755728
1765409499.923023,-9.899637526410425,-1.611877695577137,0.6474429320427317,-0.7175262021326562,0.41565785827175966,0.18098936065816165
1765409499.923273,-9.876846559979693,-1.6219668146835695,0.6370669882216288,-0.7068990589536396,0.4115043642673033,0.1798471848838682
1765409499.923506,-9.857544720649928,-1.6289713132101462,0.6308140398792476,-0.6960144174197498,0.4070869137151375,0.17868877351419274
1765409499.923756,-9.841899959309439,-1.6323161755309965,0.6281710581451078,-0.6849625608968322,0.40240789807152916,0.17749904680085796
1765409499.924006,-9.830089244268875,-1.631435566573963,0.6286473401394429,-0.6738369390187109,0.3974864232379915,0.1762610834779482
1765409499.924256,-9.822326005035574,-1.625828158324442,0.6318284755184524,-0.6627299515694642,0.3923571079315871,0.17495711750915183
1765409499.92451,-9.818868980978275,-1.6151104225043469,0.6374094658147231,-0.6517289241487252,0.38706753912339126,0.1735692576044722
1765409499.92476,-9.820008624748946,-1.5990620214879152,0.6452022716992434,-0.6409124849869818,0.3816745984968934,0.1720799936552335
1765409499.92501,-9.826030810847566,-1.5776599012616674,0.6551173678101372,-0.630347469837101,0.3762400044765014,0.17047260133158018
1765409499.92526,-9.83716199673817,-1.5510997555031005,0.6671236223005533,-0.62008642339164,0.37082547887151096,0.16873154325550668
1765409499.92553,-9.853504022474073,-1.519804500390597,0.6811946484147112,-0.6101657326670903,0.36548794432634973,0.1668429154827976
1765409499.925863,-9.874969046129857,-1.4844196185487462,0.6972516884707111,-0.6006044181311948,0.3602751180935173,0.1647949333712441
1765409499.926197,-9.901225220112305,-1.4457954575879595,0.7151128952652078,-0.5914036203832476,0.3552218148591056,0.1625784129489057
1765409499.926617,-9.931662295822717,-1.4049571618464782,0.7344570773942654,-0.5825468368309834,0.3503472135354556,0.16018718903599963
1765409499.926867,-9.96538419590936,-1.363063818998223,0.7548073342969754,-0.5740009555838959,0.3456532781060074,0.15761841697124887
1765409499.927117,-10.001232779446742,-1.3213595033805594,0.7755372279250008,-0.565718088274724,0.3411244485145204,0.15487272141095837
1765409499.927367,-10.037843221400907,-1.2811199339410542,0.7958995636600502,-0.5576381287655804,0.3367286341033867,0.15195416965260994
1765409499.927464,-10.073726762047595,-1.243598955786802,0.8150752902160667,-0.5496918839483437,0.33241945253893246,0.14887005322517216
1765409499.927714,-10.107372071667971,-1.2099787360148426,0.832237290927452,-0.5418045627577212,0.3281395642207511,0.1456304688129636
1765409499.927964,-10.13735367738253,-1.1813265979021808,0.846621543197928,-0.5338993850706722,0.3238248547956443,0.14224770673612633
1765409499.928214,-10.162435805446448,-1.1585600643152898,0.8575972960123639,-0.5259010778263626,0.3194091231473985,0.13873548143865774
1765409499.928496,-10.181662022777203,-1.142420218525859,0.8647285775278062,-0.5177390501581572,0.3148288640960157,0.13510806953999568
1765409499.928746,-10.194423475697814,-1.1334524456844801,0.8678202510798372,-0.5093500806096849,0.31002772153532926,0.13137945230114387
1765409499.928996,-10.200500247134158,-1.13199349634614,0.8669422369601741,-0.5006804045537531,0.3049602337108803,0.12756257954973227
1765409499.929246,-10.200072108437714,-1.138164437953486,0.8624265633529459,-0.49168714380907635,0.299594582960326,0.12366886686424407
1765409499.929455,-10.193698072364096,-1.151869686114015,0.8548353395770029,-0.4823390618900264,0.29391418308788503,0.11970800493181488
1765409499.929705,-10.18226859320522,-1.1728025477193458,0.8449032975513502,-0.4726166651945285,0.28791807464459407,0.11568811193710549
1765409499.929955,-10.166938298512678,-1.200457812908793,0.8334637268352731,-0.46251171335553304,0.28162022626717687,0.11161620788198266
1765409499.930205,-10.149049085300655,-1.234151983491401,0.8213691097803423,-0.4520262408042532,0.27504792975802395,0.10749893599170574
1765409499.930488,-10.130052934196804,-1.273051228549735,0.80941718157112,-0.44117120687482175,0.2682395153467271,0.10334340617994484
1765409499.930738,-10.111441714266656,-1.3162058869159416,0.7982906229404957,-0.42996488479701095,0.2612416104034328,0.09915800761707941
1765409499.930988,-10.094688662544371,-1.3625890584992804,0.7885154824109314,-0.41843109140310863,0.254106136424407,0.09495305073216163
1765409499.931238,-10.081203806869448,-1.4111365856622171,0.7804405352354264,-0.40659736094004845,0.24688719844580048,0.09074114898756806
1765409499.931537,-10.072303456839204,-1.4607865236727031,0.7742373127667751,-0.394493170906684,0.2396379804306798,0.0865373072608533
1765409499.931787,-10.069191866961873,-1.5105168698196363,0.7699183731962873,-0.38214832540381916,0.2324077353758428,0.08235871810228622
1765409499.932037,-10.072951348094536,-1.559379868826236,0.767369528285853,-0.3695915902076788,0.22523895899358432,0.07822427851787704
1765409499.932287,-10.084535850075994,-1.6065299881123665,0.7663904225797995,-0.356849656041239,0.21816485162217322,0.07415385070202289
1765409499.932508,-10.104762713240465,-1.6512420062792226,0.766737263802223,-0.34394648452846244,0.21120718427770324,0.0701673210841946
1765409499.932758,-10.134297905167356,-1.6929166245619212,0.7681614820099383,-0.3309030664551501,0.20437467992909655,0.0662835604726577
1765409499.933008,-10.173631501753412,-1.7310734472754594,0.7704386017856079,-0.31773759286146125,0.19766200790102406,0.06251942559551693
1765409499.933258,-10.223042497991004,-1.7653338536477299,0.7733831973903424,-0.30446600294552495,0.19104948396397056,0.058888937661946215
1765409499.933596,-10.282555131061434,-1.7953978102744894,0.7768488752824845,-0.29110283151425537,0.1845035725814367,0.05540272328590965
1765409499.933929,-10.351891925559672,-1.821018574532029,0.7807158840745603,-0.2776622450550544,0.17797827790304405,0.05206773811970984
1765409499.934263,-10.430430463254714,-1.8419782260266961,0.7848714916712426,-0.2641591423492384,0.1714174577711591,0.04888725092438935
1765409499.934505,-10.517170983222568,-1.8580660863020453,0.7891889240148453,-0.25061020611324114,0.16475799877449945,0.0458610552125903
1765409499.934755,-10.610720752209554,-1.8690616957126112,0.7935099035183558,-0.23703482009208318,0.1579336854253617,0.04298587797319775
1765409499.935005,-10.709299230676129,-1.8747236870797976,0.7976342401412002,-0.22345580145211846,0.15087952306915312,0.04025595151421782
1765409499.935255,-10.810765744252823,-1.8747851870400143,0.8013179354560309,-0.2098999308262285,0.14353624251986993,0.03766370525617762
1765409499.935481,-10.912669216271766,-1.8689553691250291,0.8042797064268445,-0.19639828365418935,0.13585471017238993,0.03520052908798224
1765409499.935731,-11.012318109239219,-1.8569259866768635,0.8062154343986677,-0.1829863746640139,0.12779997690728948,0.03285756287436817
1765409499.935981,-11.106867976148063,-1.8383816151092947,0.8068202353678903,-0.16970412608421664,0.11935471677501237,0.03062647248150492
1765409499.936231,-11.193423274794316,-1.8130129327036857,0.8058172967983758,-0.15659566321197294,0.11052182911960559,0.02850017149745707
1765409499.936553,-11.269148956969763,-1.7805330874285519,0.8029908893923672,-0.14370893235517326,0.10132600915473713,0.02647343620413294
1765409499.936753,-11.331386129963702,-1.7406973411147482,0.7982190072200619,-0.1310951328968193,0.09181414421062668,0.02454334914895897
1765409499.936953,-11.377765447821961,-1.6933255827912126,0.7915002095794198,-0.11880796140582509,0.08205447163228703,0.02270951046976099
1765409499.937153,-11.406312111870585,-1.6383264679288427,0.7829698127367442,-0.10690267657182717,0.0721345272966733,0.020973983555630026
1765409499.937353,-11.415537146324953,-1.5757215094415422,0.7729020280151286,-0.09543500251047073,0.06215800204461236,0.019340982156694577
1765409499.937443,-11.40451052843708,-1.5056675285923422,0.761696368969407,-0.08445989447135588,0.052240698042052516,0.017816340156275888
1765409499.937693,-11.372912673275488,-1.4284760712272715,0.7498485786357719,-0.07403019782862859,0.04250583610280659,0.016406822856079094
1765409499.937943,-11.321061788947635,-1.3446283989907926,0.7379084520061545,-0.06419523809143661,0.033079001289763016,0.015119344053703227
1765409499.938193,-11.249915676201958,-1.2547845464981302,0.726428818743259,-0.054999385523188636,0.024083019255749873,0.013960152886324684
1765409499.938454,-11.161047435281185,-1.159784885325579,0.7159109917626942,-0.046480643935742555,0.015633033388969354,0.012934049567822242
1765409499.938704,-11.056595210658788,-1.06064275041401,0.7067520177000289,-0.03866932074122087,0.007832018972150788,0.012043680944468713
1765409499.938954,-10.93918682119077,-0.9585270385590675,0.6991985723247263,-0.03158684422182703,0.0007669399058209664,0.01128895964894417
1765409499.939204,-10.811841204826292,-0.8547343755463347,0.6933118705381035,-0.02524480162205492,-0.005494272171362603,0.010666646288824267
1765409499.939484,-10.67785010806011,-0.7506514294649829,0.6889474991364388,-0.019644272515179268,-0.0109047689257598,0.01017012732543092
1765409499.939684,-10.540645251921642,-0.6477089642617653,0.6857532950359729,-0.014775520315289056,-0.015439772720568335,0.009789405174134706
1765409499.939884,-10.40365814158135,-0.5473299940802261,0.6831871523052843,-0.010618080793668782,-0.019096482752775826,0.009511292398756503
1765409499.940084,-10.270181345726385,-0.4508748725874683,0.6805549878491325,-0.0071412578189291795,-0.02189296559075662,0.009319779431328853
1765409499.940284,-10.14324076919993,-0.35958651778961354,0.6770669965429854,-0.004305013888999813,-0.023866170348361873,0.00919653640709691
1765409499.940563,-10.025487693884008,-0.27453934813412834,0.6719078805468528,-0.0020612301928850476,-0.02506927040758222,0.00912151507482203
1765409499.940763,-9.919117255362972,-0.196595720789228,0.6643143972081406,-0.0003553004568255607,-0.025568578268974847,0.00907362617190858
1765409499.940963,-9.82581703302576,-0.1263733896972729,0.6536519371270976,0.000871995356994278,-0.025440293240305882,0.009031471122437002
1765409499.941163,-9.746746153072191,-0.06422660281978093,0.6394814182096299,0.0016824174280948817,-0.02476731181463153,0.008974103024333555
1765409499.941363,-9.682542363272171,-0.010242178387809544,0.6216088360140379,0.002138096738089926,-0.02363626760603561,0.008881786144368633
1765409499.941437,-9.633352408305953,0.03574937284441927,0.6001121399220152,0.0022993885990940377,-0.022134896934014922,0.008736720743676948
1765409499.941687,-9.598879839307658,0.07414870107177535,0.5753430056195215,0.0022228714230329246,-0.020349767000377512,0.008523701981584595
1765409499.941937,-9.578444049531615,0.10555035686301695,0.5479039109229196,0.001959609288736483,-0.018364361519058507,0.00823068640255182
1765409499.942187,-9.571044790612264,0.13069591316973359,0.5186034848896003,0.0015537868576692342,-0.01625749313759428,0.007849244623986017
1765409499.94248,-9.5754275713179,0.15042022658826884,0.48839521016806764,0.0010418080388999258,-0.014102001428005764,0.007374879396581073
1765409499.942647,-9.59014679921387,0.1655938672138143,0.45830581851558283,0.00045192299963519575,-0.011963695052588673,0.0068071807574913885
1765409499.942813,-9.613624877801541,0.17706539733670146,0.42936000845119143,-0.0001955908805330687,-0.009900502617487403,0.006149782073808606
1765409499.94298,-9.644206583760875,0.18560797486891709,0.4025078636552486,-0.0008877181318737215,-0.007961809440151353,0.005410088359963223
1765409499.943147,-9.680208938154134,0.19187496120800687,0.37856093854494244,-0.0016175404776873996,-0.0061879773806863035,0.004598777221313437
1765409499.943313,-9.71996728263697,0.19636838634957263,0.3581421919170904,-0.0023827377033607067,-0.00461006503226423,0.0037291092263338132
1765409499.943515,-9.761878156684254,0.19942258067738144,0.34165342867881165,-0.0031838999495376083,-0.003249776060648176,0.002816109170195544
1765409499.943715,-9.804438985986057,0.20120368093751406,0.32926183025801486,-0.004022804741970762,-0.002119659955176751,0.0018756875693199937
1765409499.943915,-9.846283972411914,0.20172438598125195,0.32090509533084094,-0.004900804211982205,-0.0012235743063188028,0.0009237727672896659
1765409499.944115,-9.88621519399106,0.20087212491192263,0.3163130488434337,-0.005817450102110047,-0.0005573981101391787,-2.44736759108097e-05
1765409499.944315,-9.923227764879297,0.19844750371383396,0.315042364968263,-0.006769459059467059,-0.00010997046951704812,-0.0009552871713733952
1765409499.944561,-9.956527920651459,0.1942086749035009,0.3165203114251672,-0.007750088319184549,0.0001357782962876173,-0.001856720134108809
1765409499.944811,-9.985543079930194,0.18791657267335854,0.3200932118643632,-0.008748952665708715,0.0002015424984249039,-0.002718826577431248
1765409499.945061,-10.009923240474162,0.1793760975976214,0.3250755903862676,-0.009752271319653146,0.00011225617851101174,-0.0035336225431601407
1765409499.945311,-10.029533453562797,0.1684692586383615,0.33079652609089666,-0.010743494279831307,-0.00010532482917250928,-0.004294865073522841
1765409499.945444,-10.044437606284038,0.1551776239366814,0.3366403722610733,-0.01170422604174794,-0.00042399944795591053,-0.004997711127135503
1765409499.945644,-10.054874294410013,0.13959281632549114,0.3420795372499086,-0.012615341117731566,-0.0008173870377890373,-0.005638323009481488
1765409499.945844,-10.061226064169098,0.1219150359539665,0.3466975517493146,-0.013458171266155547,-0.0012610225578443255,-0.006213483717559704
1765409499.946044,-10.063983699109546,0.10244073311921503,0.3502013791634098,-0.014215642985120795,-0.0017332324479111454,-0.006720278632954953
1765409499.946244,-10.063707620463418,0.0815416507257181,0.3524229597338221,-0.014873258391535832,-0.0022157571162781443,-0.0071558883293104504
1765409499.946496,-10.060988850313384,0.05963836949461709,0.35331112297626227,-0.015419840039301221,-0.0026941050600343967,-0.007517517988359931
1765409499.946696,-10.056412153707646,0.03717188854610135,0.3529159410497826,-0.015847994490009863,-0.0031576431110626,-0.007802463550715018
1765409499.946896,-10.050523773733886,0.014576479174842394,0.3513681573049707,-0.016154284279548892,-0.0035994443585281896,-0.008008290305705039
1765409499.947096,-10.043805667126668,-0.007743708992631043,0.3488564752632968,-0.016339126928506725,-0.004015931095519163,-0.008133083432418501
1765409499.947296,-10.036657473675406,-0.02943262574869401,0.3456051931311954,-0.016406459142689254,-0.004406364338223171,-0.008175724136267248
1765409499.947428,-10.029386697763162,-0.05019392769572792,0.341853989923549,-0.0163632161001385,-0.0047722390698823995,-0.008136146885530668
1765409499.947628,-10.022206857176457,-0.06979599070073701,0.3378409279406687,-0.016218683632991098,-0.005116641472973184,-0.008015540173047843
1765409499.947828,-10.015242791410056,-0.08807092915150094,0.3337892054927341,-0.01598378601163532,-0.005443613952535302,-0.00781646488029953
1765409499.948028,-10.008541925226695,-0.10490893532885982,0.32989780522558354,-0.015670371480312736,-0.005757561407039428,-0.007542880183958489
1765409499.948228,-10.002089959313256,-0.12024953981177315,0.3263357713417452,-0.015290550131301012,-0.0060627205498665175,-0.007200082719596445
1765409499.948464,-9.99582921062442,-0.1340712198151172,0.323239504905557,-0.014856125756913472,-0.006362704238256531,-0.006794574069275595
1765409499.948664,-9.989677771933128,-0.14638043537121068,0.3207123651654944,-0.014378147942375054,-0.006660126863552995,-0.006333872481485455
1765409499.948864,-9.98354782537108,-0.15720094286303407,0.31882591487954165,-0.013866595241181232,-0.006956315730329042,-0.005826281650316245
1765409499.949064,-9.977361691608507,-0.16656413064090034,0.31762214751505086,-0.013330186771052284,-0.007251115111260068,-0.005280629089121119
1765409499.949264,-9.971064464011269,-0.17450095895295153,0.31711604819873834,-0.012776309861865714,-0.007542791658402292,-0.004705991828277242
1765409499.949419,-9.964632462840354,-0.18103579232945619,0.3172980691111946,-0.012211046613016748,-0.007828050069213008,-0.004111433647888072
1765409499.949669,-9.958077254250052,-0.1861821422529307,0.3181364612315366,-0.011639281525043947,-0.008102164525585787,-0.003505777609586581
1765409499.949919,-9.951445425164422,-0.1899402823114993,0.319579585654759,-0.01106487282198006,-0.008359222843026074,-0.0028974264824752753
1765409499.950169,-9.944814580007506,-0.1922968445795438,0.3215582466913989,-0.010490869069658947,-0.008592467664154798,-0.00229422816544074
1765409499.950553,-9.938286265792073,-0.19322663480071028,0.3239880059682669,-0.009919750263061229,-0.008794708224145128,-0.001703374485027712
1765409499.950753,-9.93197685323132,-0.19269679547161392,0.32677154121710766,-0.009353670831005705,-0.008958772609902816,-0.0011313242128903342
1765409499.950953,-9.926007631705032,-0.1906730858169408,0.32980124079683953,-0.008794683174201255,-0.009077972209547808,-0.0005837488178111872
1765409499.951153,-9.920495281408089,-0.18712763160773735,0.3329621568008323,-0.00824492516438034,-0.009146551806871902,-6.550367497147846e-05
1765409499.951353,-9.91554355828257,-0.18204722887066233,0.33613528774955853,-0.007706762278045675,-0.009160100031086601,0.0004193740818805264
1765409499.951633,-9.911236769901404,-0.17544121199080578,0.33920116855786203,-0.00718288189115758,-0.009115897876640829,0.0008676435178750643
1765409499.951833,-9.907635489618345,-0.1673479697931564,0.3420438409217928,-0.0066763409163690035,-0.009013185953989472,0.0012768190549772712
1765409499.952033,-9.904774731091756,-0.1578393830694854,0.3445551994376493,-0.006190568777893696,-0.008853331733454026,0.0016451181040108202
1765409499.952233,-9.902664422321179,-0.14702273708879568,0.34663946590566264,-0.005729329683580189,-0.00863987960197436,0.001971404150468706
1765409499.952433,-9.901291691342244,-0.13503996090396847,0.34821736560466326,-0.005296653389843278,-0.008378472944911109,0.0022551286727018824
1765409499.952551,-9.900624331419047,-0.12206430192591526,0.34922950736289315,-0.004896748387286173,-0.008076646578744193,0.0024962703028101503
1765409499.952751,-9.900614758936348,-0.10829477274176243,0.3496384238936569,-0.004533910751087621,-0.007743496433604346,0.0026952668010895523
1765409499.952951,-9.901203810359503,-0.09394892693011286,0.3494288613244735,-0.004212435907285438,-0.007389243592058028,0.002852936005748882
1765409499.953151,-9.90232400915961,-0.07925467743831177,0.34860641183540486,-0.003936533171846845,-0.007024724105283421,0.0029703849440201016
1765409499.953351,-9.903902415072809,-0.06444190151448012,0.347195209289002,-0.0037102376720360864,-0.006660849272793981,0.0030489108294100412
1765409499.953529,-9.905863463612265,-0.049734507249421675,0.3452356221201053,-0.003537313040406758,-0.006308085148686205,0.0030899029798234132
1765409499.953729,-9.908132072868273,-0.03534354184139929,0.3427825426367079,-0.0034211407945522964,-0.005975994214060702,0.003094758480100211
1765409499.953929,-9.910636929292792,-0.021461812905561477,0.3399043509342415,-0.0033645957812289576,-0.005672872202182599,0.0030648239732897478
1765409499.954129,-9.913313548177928,-0.008260333030462256,0.336682222898891,-0.003369908398003578,-0.005405501657500061,0.0030013715623809565
1765409499.954329,-9.91610650473043,0.00411331389305715,0.33320915898176057,-0.003438513420759149,-0.005179028964510017,0.002905611325879334
1765409499.954496,-9.918970193421055,0.01553479112578319,0.32958800565319907,-0.003570885422801352,-0.004996954674731838,0.0027787379145683823
1765409499.954696,-9.92186776052625,0.02590127623667489,0.3259280411511311,-0.003766365067932146,-0.004861214828173777,0.0026220034809581066
1765409499.954896,-9.924768441247661,0.0351285731840595,0.3223403159386084,-0.004022988318780964,-0.004772326899172342,0.002436804326675252
1765409499.955096,-9.92764403486697,0.04314761851753484,0.3189324035045952,-0.0043373383130148255,-0.004729573468843362,0.002224766650579836
1765409499.955296,-9.930465337243357,0.04990109380107467,0.3158032430881959,-0.0047044444573039685,-0.004731196467276647,0.0019878189675025617
1765409499.955583,-9.93319912473714,0.055340941000839985,0.31303856108294265,-0.005117753690188394,-0.004774578959601206,0.0017282432884157103
1765409499.955783,-9.935806049191456,0.059427477845665204,0.31070722477804785,-0.005569194057443384,-0.0048564031141481185,0.0014487008578121371
1765409499.955983,-9.938239636974098,0.062130487007461314,0.3088587658100639,-0.006049341925910094,-0.004972786360615662,0.001152229985081676
1765409499.956183,-9.940446404929798,0.0634321846259211,0.30752211717444344,-0.006547694805817425,-0.005119404317510843,0.0008422150359722343
1765409499.956383,-9.94236696780391,0.0633315204701028,0.30670548706097556,-0.007053043648981466,-0.00529160763378146,0.0005223290254227375
1765409499.957275,-9.943938029474161,0.06184896078434576,0.30639734974831806,-0.007553929220378935,-0.005484535686840755,0.00019645702116018112
1765409499.957475,-9.94509523804427,0.059030799334062106,0.3065685637817215,-0.008039154541815814,-0.005693227563866907,-0.00013138884933484003
1765409499.957675,-9.945776861581386,0.05495210454248245,0.30717546166399723,-0.008498313127725768,-0.0059127308484552945,-0.00045715183874088365
1765409499.957875,-9.945928118191718,0.04971759671348139,0.308163584682866,-0.008922287478652237,-0.006138209930556111,-0.000776803117832526
1765409499.958075,-9.945505898821972,0.043460029841976985,0.3094717667552141,-0.009303675678862642,-0.006365054697833457,-0.0010864029229889602
1765409499.957551,-9.944483522638524,0.036336013152611445,0.3110363228095344,-0.009637111156562047,-0.006588985034427884,-0.0013821548458879253
1765409499.957751,-9.942854959243789,0.028519615218233187,0.31279492861980873,-0.009919448067727012,-0.006806138691637807,-0.001660462365017914
1765409499.957951,-9.940637771640269,0.020194457666182015,0.3146895857833701,-0.010149794136186571,-0.0070131269871828005,-0.001917998062620265
1765409499.958151,-9.9378741676297,0.01154521382109862,0.3166682387001403,-0.010329386296619471,-0.007207049844821882,-0.0021517917777500394
1765409499.958351,-9.93463002579647,0.002749442132611073,0.31868512718114345,-0.010461320142149268,-0.007385474712276329,-0.002359334104335975
1765409499.960764,-9.930992265520128,-0.006029447069401763,0.3207004091393314,-0.010550158668495627,-0.007546392580324314,-0.002538680642383629
1765409499.960964,-9.927065161650496,-0.014647519582818184,0.3226797203939372,-0.01060145814294919,-0.007688164797498006,-0.002688536361503231
1765409499.961164,-9.922966164106695,-0.022983655542724444,0.32459421063230776,-0.010621258449152926,-0.007809471382342762,-0.002808300969860064
1765409499.961364,-9.91882161848798,-0.030940892041814414,0.3264212775534349,-0.010615588667250429,-0.00790926800970842,-0.0028980638892412325
1765409499.961564,-9.914762566231055,-0.03844595763321364,0.3281457424318295,-0.010590032567516871,-0.007986753724540503,-0.002958548625935252
1765409499.960835,-9.910920585733791,-0.04544728435795447,0.3297607856825272,-0.010549384624990988,-0.00804134778866127,-0.0029910175426320963
1765409499.961035,-9.90742356468891,-0.051911831967132484,0.33126793396952087,-0.010497411086111427,-0.008072677203142076,-0.00299715469885539
1765409499.961235,-9.90439142694093,-0.057821094858481,0.3326758159677134,-0.010436718057810945,-0.008080583154476025,-0.0029789439135140517
1765409499.961435,-9.901931980971801,-0.06316669588538625,0.33399791513075927,-0.010368721568538394,-0.008065155472943269,-0.0029385540474323258
1765409499.961635,-9.900137012552914,-0.06794599775667494,0.33524977149623736,-0.010293711547633729,-0.008026797077496144,-0.0028782390950338552
1765409499.961525,-9.899078596609517,-0.07215814447140179,0.3364460145964441,-0.010210999135605955,-0.00796631203059047,-0.0028002596074781353
1765409499.961725,-9.89880556926013,-0.07580083639734841,0.33759746051523765,-0.010119132240670464,-0.007885005401776637,-0.0027068316317974558
1765409499.961925,-9.899340237160725,-0.07886797891109243,0.338708419873113,-0.010016158644755847,-0.007784779186036495,-0.002600105396670806
1765409499.962125,-9.900675635867609,-0.08134824282248407,0.3397744007328093,-0.009899912015427566,-0.007668206110389046,-0.0024821677690489044
1765409499.962325,-9.902773917891297,-0.08322458775918375,0.34078057200630824,-0.009768295934609735,-0.007538564493796921,-0.0023550544177858516
1765409499.962464,-9.905566629322125,-0.08447484019472207,0.3417015355764426,-0.00961954479636221,-0.0073998213171498324,-0.002220755301396073
1765409499.962664,-9.908957509181125,-0.08507337369476475,0.34250287725241096,-0.009452447306663657,-0.007256554642441531,-0.0020812029519118682
1765409499.962864,-9.912827960153281,-0.08499379467491795,0.34314457156023487,-0.009266526457365233,-0.007113811223132293,-0.001938244111629238
1765409499.963064,-9.917044733150055,-0.08421236650328374,0.34358584890357174,-0.009062175815997357,-0.006976902624429135,-0.0017936049330077434
1765409499.963264,-9.921468929114642,-0.08271180955171492,0.34379082995003246,-0.008840752702702242,-0.006851152515341595,-0.00164886269701333
1765409499.963445,-9.925965217083792,-0.08048515158208353,0.3437341002647182,-0.008604625047520907,-0.006741615712298137,-0.001505432569734139
1765409499.963645,-9.930410132277212,-0.07753941411862578,0.34340537894104595,-0.008357164713004727,-0.00665279315722801,-0.001364570674150686
1765409499.963845,-9.93469844891303,-0.07389896881811507,0.3428125652494213,-0.008102679712263828,-0.006588365748093399,-0.0012273897590859176
1765409499.964045,-9.938746961202074,-0.06960831372144176,0.3419827713765331,-0.007846281780314749,-0.006550965770651551,-0.0010948829068309267
1765409499.964245,-9.942495512068794,-0.06473388296229335,0.34096138331639747,-0.00759369222282476,-0.006541999944950137,-0.0009679520979555827
1765409499.964457,-9.94590562162764,-0.059364461848460844,0.339809552426938,-0.007350995672835576,-0.00656153399688349,-0.0008474390666842064
1765409499.964657,-9.948957386424947,-0.05360991146781673,0.3386006513094563,-0.007124357502759829,-0.006608246004619775,-0.0007341548997121519
1765409499.964857,-9.951645363624502,-0.04759816644767125,0.33741611156423257,-0.0069197258140759514,-0.006679454723098102,-0.0006289043339552741
1765409499.965057,-9.953974036232356,-0.04147071670409669,0.3363408428710461,-0.0067425419746220015,-0.006771227675024595,-0.0005325032135056456
1765409499.965257,-9.95595334195964,-0.03537689990033533,0.3354582985136747,-0.006597483234403998,-0.006878568733026641,-0.0004457919502133138
1765409499.965459,-9.957594662413056,-0.02946734259090631,0.33484526129519077,-0.00648825670101325,-0.006995674994017398,-0.00036964923434552757
1765409499.965659,-9.958907548028847,-0.023886939610995882,0.3345665213158249,-0.006417456629573796,-0.007116241240026559,-0.0003050058806957092
1765409499.965859,-9.959897335045966,-0.01876792303316024,0.334669766967286,-0.006386488240843779,-0.007233783218072176,-0.0002528519329689661
1765409499.966059,-9.960563790865892,-0.014223725139467036,0.3351811853785889,-0.0063955538943178914,-0.007341951953189385,-0.000214226968660792
1765409499.966259,-9.960900966497874,-0.010344302572926598,0.3361023644412287,-0.006443694298275603,-0.007434818774511803,-0.0001901861782747786
1765409499.966514,-9.96089839513499,-0.007193325000728012,0.33740900633317816,-0.006528878955453773,-0.007507120834420874,-0.0001817401233468177
1765409499.966714,-9.960543612356998,-0.004807288087702454,0.33905173425957175,-0.006648142299158581,-0.007554466711596605,-0.00018976994820169281
1765409499.966914,-9.959825769492266,-0.00319635495922382,0.3409589881079237,-0.006797759233790154,-0.007573508274420446,-0.000214921420444278
1765409499.967114,-9.958739902563124,-0.0023466117451931903,0.34304168086017595,-0.006973445023620324,-0.007562084513508529,-0.00025748293259934607
1765409499.967314,-9.957291182190723,-0.0022233948341388787,0.3451989603827136,-0.007170556071785671,-0.007519334823065314,-0.00031725695667586095
1765409499.967502,-9.95549831192567,-0.002775341057931039,0.3473242666081166,-0.007384267513484359,-0.007445769260647261,-0.0003934408474677679
1765409499.967702,-9.953395371548849,-0.003938776439616997,0.3493110505177239,-0.007609710901129685,-0.007343279582365414,-0.0004845375192215839
1765409499.967902,-9.951031809972758,-0.005642018443183288,0.3510578757211862,-0.007842064474750322,-0.007215078973725608,-0.0005883155664924038
1765409499.968102,-9.948470693532748,-0.007809218647054043,0.3524728033094029,-0.008076595571465289,-0.007065566351066744,-0.0007018317473580786
1765409499.968302,-9.945785519669531,-0.010363548137061722,0.3534768997666429,-0.008308661503105554,-0.006900120058813064,-0.0008215200045282815
1765409499.968539,-9.943056008537887,-0.013229708177407807,0.35400670113376204,-0.008533684410079153,-0.006724834645530276,-0.0009433437921150336
1765409499.968739,-9.940363361673576,-0.016335812461547427,0.35401564451804246,-0.008747124934886595,-0.00654622023028179,-0.0010630021243123982
1765409499.968939,-9.937785394432774,-0.019614658814232667,0.3534745987269532,-0.008944482823554605,-0.00637088472176,-0.0011761724853063763
1765409499.969139,-9.935391670540923,-0.023004386281163827,0.3523715695077297,-0.009121345730592454,-0.006205217967952643,-0.001278766796074302
1765409499.969339,-9.93323855825567,-0.026448542595779896,0.3507106681532995,-0.009273493320449605,-0.006055097819937812,-0.0013671739997737529
1765409499.969473,-9.931364221097237,-0.029895648366107256,0.34851065194304964,-0.009397049636223417,-0.0059256391283767345,-0.0014384660554888293
1765409499.969673,-9.929783824243025,-0.033298393186461335,0.3458035133656834,-0.009488667891491017,-0.0058210021193924434,-0.001490551279663894
1765409499.969873,-9.92848540249097,-0.0366125916917697,0.342633472179523,-0.009545727541995924,-0.005744265303825218,-0.0015222674493194485
1765409499.970073,-9.927426826172164,-0.039795969761346806,0.3390564312757356,-0.009566520432750057,-0.005697355782301166,-0.0015334145883783082
1765409499.970273,-9.926534224570537,-0.04280681982711883,0.33513973772287436,-0.009550401132472809,-0.005681022252516537,-0.0015247320399265618
1765409499.97046,-9.925702146957125,-0.04560264300125768,0.3309620074966899,-0.009497879970835853,-0.005694833685121751,-0.0014978261555053233
1765409499.97066,-9.92479568117369,-0.048139063342077196,0.3266127924064422,-0.009410647398056943,-0.00573718773440267,-0.0014550551898806355
1765409499.97086,-9.923654770215958,-0.05036941067514096,0.32219200554823596,-0.009291531133924,-0.005805317190708894,-0.0013993781154735044
1765409499.97106,-9.922101052140723,-0.052245298104356075,0.3178092210898771,-0.009144397401953663,-0.005895289536057942,-0.0013341745567176792
1765409499.97126,-9.919947511644864,-0.05371830860253513,0.31358302304563407,-0.00897401189706783,-0.006002001456826355,-0.0012630440049833447
1765409499.971528,-9.917010921221992,-0.05474268845241063,0.30964038244271147,-0.008785875166718018,-0.006119175437120934,-0.0011895941292790278
1765409499.971778,-9.913126562365271,-0.05527878699408279,0.3061157396845239,-0.008586041376950461,-0.006239370330025688,-0.0011172309223705704
1765409499.972028,-9.908164280325593,-0.05529686414950097,0.30314928495262256,-0.008380921531018846,-0.006354023250751671,-0.00104896737676443
1765409499.972278,-9.902044660932427,-0.054780818623503515,0.3008839566534047,-0.008177066870674687,-0.006453544789852977,-0.0009872691477650767
1765409499.972456,-9.894754013723425,-0.05373140306798365,0.29946088790247494,-0.007980928862485418,-0.006527489908801957,-0.0009339507551124458
1765409499.972656,-9.886356849903907,-0.05216856509035879,0.29901333728310586,-0.00779859874929356,-0.006564821035699516,-0.0008901246605452905
1765409499.972856,-9.877004581869539,-0.05013263100797132,0.29965941238439947,-0.007635538974797173,-0.006554269526021902,-0.0008561949509911776
1765409499.973056,-9.866939181560689,-0.047684124588011655,0.3014940372768429,-0.007496326479018314,-0.006484789900845204,-0.0008318842433357192
1765409499.973256,-9.85649057059605,-0.04490210731172167,0.3045806514050885,-0.007384431162118302,-0.006346090135356838,-0.0008162869953234223
1765409499.973417,-9.846066722424638,-0.04188103233545184,0.30894314126167344,-0.007302051500396632,-0.00612921148457914,-0.0008079488285654085
1765409499.973617,-9.836135915898396,-0.03872620311283829,0.31455853840722314,-0.007250023844547089,-0.005827122629262732,-0.0008049737699767179
1765409499.973817,-9.827201250096248,-0.035548041848693486,0.3213510680440483,-0.007227813405061658,-0.005435284875837935,-0.0008051580864572778
1765409499.974017,-9.819768355502706,-0.0324555264494374,0.3291881912572101,-0.00723358618231649,-0.004952138657959253,-0.0008061436731750757
1765409499.974217,-9.814308207949507,-0.029549291320929604,0.3378793176040716,-0.0072643550505406594,-0.004379458640779206,-0.000805579601082232
1765409499.974512,-9.811218051838143,-0.026914918026171342,0.34717784906437477,-0.007316190315960149,-0.0037225271189457875,-0.0008012787362774498
1765409499.974712,-9.810784536241401,-0.024616910117931743,0.35678718422773514,-0.007384483424678641,-0.0029900848584672496,-0.0007913555910617067
1765409499.974912,-9.813153870100313,-0.02269396123076946,0.3663712409799913,-0.007464249568185253,-0.002194037058062893,-0.0007743301000034071
1765409499.975112,-9.818313478405944,-0.021156478626440153,0.37556971545806594,-0.007550450249247596,-0.0013489208106784297,-0.0007491837456449609
1765409499.975312,-9.826087967210094,-0.01998755044954272,0.3840174449078132,-0.007638313224857057,-0.0004711768282265615,-0.0007153683772089127
1765409499.975416,-9.83614979362014,-0.01914802717191888,0.391366103389319,-0.007723626711778005,0.0004216983739360283,-0.0006727936359334892
1765409499.975616,-9.848043011496191,-0.0185850443626038,0.39730572764266825,-0.0078029854897693875,0.0013120314020370347,-0.0006218348858543139
1765409499.975816,-9.861217299234381,-0.018241943424589256,0.40158378093923225,-0.00787396869053642,0.002182812306983908,-0.0005633880079869435
1765409499.976016,-9.87506878372749,-0.018067121066966972,0.4040204203841643,-0.007935238332784287,0.003018459584854147,-0.0004989581008513934
1765409499.976216,-9.888983604081314,-0.018020150559770368,0.4045194814358763,-0.007986563486457224,0.0038054881539086286,-0.00043073649733910206
1765409499.976457,-9.902379904197474,-0.01807503045022397,0.40307468916739647,-0.008028782593251274,0.004533043326016307,-0.0003616158037549813
1765409499.976657,-9.914744368893205,-0.018221553816770684,0.3997700769616662,-0.008063705572165649,0.005193244196465185,-0.00029511664642074923
1765409499.976857,-9.92566060829687,-0.018465625681769262,0.39477375348750177,-0.008093941189267127,0.005781293435097262,-0.00023523636043707824
1765409499.977057,-9.934828311507017,-0.018828160274850105,0.388325509829143,-0.008122635937502832,0.0062953580085005865,-0.00018624938532021883
1765409499.977257,-9.94207346497214,-0.01934150839488772,0.38072023668671906,-0.008153131415782796,0.006736265664931125,-0.0001524733798461863
1765409499.977527,-9.94735049983505,-0.020043287691577965,0.3722894472486329,-0.00818857144213106,0.007107065439536544,-0.00013798789478227977
1765409499.977727,-9.950737074047272,-0.02096916338997701,0.3633825055286207,-0.00823150353979304,0.007412485358790775,-0.00014629886082645444
1765409499.977927,-9.952421975966564,-0.022146763135628928,0.35434855212465083,-0.00828352145061484,0.007658319928676503,-0.00017998855215937824
1765409499.978127,-9.952686891316251,-0.023591953138529527,0.3455200710136857,-0.008344992172236568,0.007850797504399851,-0.00024043018798375283
1765409499.978327,-9.951883399200948,-0.025307252490827704,0.3371990102007796,-0.00841490511223671,0.007995994554703588,-0.0003276331100214593
1765409499.978507,-9.950407080419579,-0.027281473385137204,0.32964590467260774,-0.008490869810390348,0.008099366049346449,-0.0004402263360785881
1765409499.978707,-9.948670744835825,-0.0294899714481943,0.3230718636982477,-0.00856927065182904,0.008165443480252459,-0.0005755355770099289
1765409499.978907,-9.94707857674785,-0.031895541339069085,0.3176330458740653,-0.008645564497492599,0.008197715747217327,-0.0007297004059290209
1765409499.979107,-9.946002651538768,-0.03445026517912146,0.31342734640779196,-0.008714685568630094,0.00819866756601743,-0.0008978084309675821
1765409499.979307,-9.94576291803454,-0.037098250109413665,0.31049319931030633,-0.008771507570847728,0.008169926264724335,-0.0010740563773956036
1765409499.979496,-9.946611427067594,-0.03977857437024924,0.30881053494986754,-0.008811310029824505,0.008112467253218974,-0.0012519548189847648
1765409499.979696,-9.948721367625676,-0.04242761512895091,0.30830403610666424,-0.008830202339477242,0.008026837316467932,-0.0014245743578219733
1765409499.979896,-9.952181326259243,-0.0449805439634011,0.3088488751179503,-0.008825468693126653,0.007913360474969985,-0.001584811269758153
1765409499.980096,-9.956994940614855,-0.04737262135370428,0.31027899523954944,-0.008795805434817571,0.007772297675784532,-0.001725653140078636
1765409499.980296,-9.963085625639744,-0.04954115400319357,0.31239764811582116,-0.008741430966671763,0.007603947021728222,-0.0018404482139217592
1765409499.980499,-9.970305492085503,-0.05142831318754275,0.31498944786977223,-0.00866406108924009,0.007408689834832775,-0.0019232018695472762
1765409499.980749,-9.97844734751658,-0.05298406741407779,0.3178329524118631,-0.00856675885092421,0.007186997695239539,-0.001968916132188849
1765409499.980999,-9.987258847393798,-0.05416822128960375,0.3207128395347796,-0.008453681553451338,0.006939415971317428,-0.0019739533068560936
1765409499.981249,-9.99645806834992,-0.054951302688244726,0.323430897313276,-0.00832975450412853,0.006666538076282764,-0.0019363689089941002
1765409499.981471,-10.005749704519648,-0.05531507156806429,0.3258151361690941,-0.008200303611876902,0.0063689837011601065,-0.0018561521475829428
1765409499.981671,-10.01484088195019,-0.05525364241562732,0.32772645587044597,-0.008070679767321546,0.0060473893772114975,-0.0017353390491943244
1765409499.981871,-10.023455524126213,-0.05477532749548538,0.3290625712313262,-0.00794590660734924,0.005702411596229717,-0.001577998267022774
1765409499.982071,-10.031346331048079,-0.05390416643668498,0.32975923421998515,-0.007830379480764526,0.005334737664625672,-0.0013901018506911676
1765409499.982271,-10.038303677339798,-0.05267979835531979,0.32978906447443074,-0.007727638254077031,0.004945099585729971,-0.001179278088395494
1765409499.982487,-10.044161098000956,-0.05115509289475417,0.3291584856724,-0.007640228934464901,0.004534287736714121,-0.0009544278667305832
1765409499.982687,-10.048797505127222,-0.049392066016904226,0.3279033571773159,-0.007569657127975903,0.004103162079218449,-0.0007251993674990594
1765409499.982887,-10.052136700957407,-0.04745720292849897,0.3260838626636955,-0.007516423169483354,0.0036526602479596193,-0.0005013581443346271
1765409499.983087,-10.054144947341422,-0.045417116420721604,0.3237791009784682,-0.0074801211266518446,0.0031838022574888223,-0.00029213157341468195
1765409499.983287,-10.054827330007562,-0.04333484887758662,0.3210817068383524,-0.007459584028531264,0.0026976884858345494,-0.00010562011858104016
1765409499.983532,-10.054223533015142,-0.041266675096793916,0.31809274355526423,-0.007453060924127189,0.0021954860955689976,5.1651851867512014e-05
1765409499.983732,-10.052403453604418,-0.039259316461968306,0.314917023028935,-0.007458412936121172,0.001678406784561969,0.00017501069924036978
1765409499.983932,-10.049462840419382,-0.03734787677734604,0.31165890732775275,-0.007473314859857661,0.0011476928716271418,0.00026173542315111986
1765409499.984132,-10.045518907186898,-0.03555508796057296,0.3084185585119518,-0.007495447480950354,0.0006046361974674495,0.0003110117585151831
1765409499.984332,-10.04070575453271,-0.033892261754697305,0.3052885533470829,-0.0075226647026601185,5.064692402840555e-05,0.0003237699003316004
1765409499.984526,-10.035169442688609,-0.032361759955920874,0.3023507982491377,-0.007553120142485097,-0.0005126280670253191,0.0003024348161246308
1765409499.984726,-10.029062688636534,-0.03096025138583661,0.29967381304482066,-0.007585341658121699,-0.0010831540072765529,0.00025061800219733165
1765409499.984926,-10.022539399629425,-0.02968192707964136,0.2973106790382956,-0.007618249147599614,-0.0016583500588001898,0.00017278588619078968
1765409499.985126,-10.015749496259774,-0.028521233313076044,0.29529812298210534,-0.007651118452679422,-0.002234950988828397,7.394503415862143e-05
1765409499.985326,-10.008834545713887,-0.02747518363448802,0.2936571629728888,-0.00768350032173812,-0.002808912344600157,-4.062349235823812e-05
1765409499.985492,-10.001924533505237,-0.02654547083992449,0.29239541254596524,-0.007715108904320853,-0.0033753786246760497,-0.0001655702345214869
1765409499.985692,-9.995135735161412,-0.02574030733200021,0.2915106046675618,-0.007745700113892371,-0.003928730069583057,-0.00029563758156848105
1765409499.985892,-9.988569308249172,-0.02507550449260352,0.29099438075413486,-0.00777496472495542,-0.004462718733079044,-0.0004257996459052973
1765409499.986092,-9.982310121425288,-0.02457418286178135,0.2908352234270446,-0.007802460943438946,-0.00497069566659567,-0.0005514020369862403
1765409499.986292,-9.976425546601847,-0.024264829727556853,0.2910197970582666,-0.00782760385077065,-0.005445917039728051,-0.0006683059005327752
1765409499.986566,-9.970964295741611,-0.02417798655208161,0.29153268169110585,-0.007849714917321157,-0.00588190128662175,-0.0007730248361507501
1765409499.987066,-9.96595559795429,-0.024342305747917427,0.29235504992327954,-0.007868118198266938,-0.006272798890301879,-0.0008628365963810188
1765409499.989482,-9.961408954451866,-0.024780819914980604,0.29346296556093127,-0.007882257018165936,-0.006613735253845604,-0.0009358559120534008
1765409499.992502,-9.95731450378543,-0.025508005963807784,0.29482580175852835,-0.007891799642732171,-0.006901092921310313,-0.0009910639781669991
1765409499.994429,-9.953643891863464,-0.026527783710563316,0.29640504696362063,-0.007896705718091021,-0.0071327078885018306,-0.0010282946522556834
1765409499.997423,-9.950351589022217,-0.027832228394506112,0.29815367742446997,-0.007897236899097528,-0.007307964724736235,-0.001048174386856655
1765409499.999437,-9.947376797878023,-0.029400727267858556,0.30001638585736334,-0.007893911698093073,-0.007427787085108553,-0.0010520091825296318
1765409500.000458,-9.944646282020956,-0.03119959104191459,0.3019311042669211,-0.007887419388905808,-0.007494531737879472,-0.0010416167759654416
1765409500.005452,-9.942078404332202,-0.03318245965294692,0.30383213199977266,-0.007878515947859096,-0.0075118017833157484,-0.0010191177208874731
1765409500.007488,-9.939588328741246,-0.03529185807159866,0.30565468178647137,-0.00786792665038252,-0.007484197590185498,-0.000986716312426835
1765409500.010439,-9.93709389536613,-0.037461899331051464,0.3073400957048326,-0.007856276799218659,-0.007417024550781327,-0.0009465088612916864
1765409500.012433,-9.934521410032223,-0.03962171250321183,0.30884074961837804,-0.007844065042290726,-0.0073159766855752035,-0.0009003463755060848
1765409500.014515,-9.931810618405684,-0.04169905918657547,0.3101238193485167,-0.007831684046440015,-0.007186814930179528,-0.0008497570051150294
1765409500.015447,-9.928918374964598,-0.0436238486343627,0.31117341262150877,-0.007819482495811379,-0.007035060103104197,-0.000795914922595232
1765409500.019459,-9.925820832649164,-0.04533158065671654,0.31199091754196806,-0.0078078520075209315,-0.006865722635952802,-0.0007396380382279558
1765409500.022434,-9.922514256054107,-0.046766809255961744,0.3125937159498591,-0.007797314880438879,-0.00668308945272825,-0.0006814057411538322
1765409500.02449,-9.919014664494394,-0.047886472842479065,0.3130125599512329,-0.007788586742432677,-0.0064905804793431235,-0.0006213984444748599
1765409500.025461,-9.91535640085025,-0.048662614671828745,0.31328789662394413,-0.007782594738251462,-0.006290678124921645,-0.0005595638770151658
1765409500.029482,-9.91158958933685,-0.049083918249102985,0.3134654323374577,-0.007780445889395164,-0.006084928268652075,-0.0004957096925129437
1765409500.032467,-9.907776521450064,-0.04915572678288786,0.31359138458805275,-0.0077833545622358205,-0.0058740089810854065,-0.00042961202239345456
1765409500.034698,-9.903987265313555,-0.048898653588327644,0.3137080396273102,-0.007792543941103807,-0.005657858019302923,-0.0003611213734960035
1765409500.035504,-9.900295007085834,-0.048346221606879985,0.31385023197021583,-0.007809132873985227,-0.005435841789931461,-0.0002902473850885921
1765409500.039446,-9.896771682371403,-0.04754200300603913,0.3140431862839761,-0.007834013766858642,-0.005206942139974362,-0.00021721310014715845
1765409500.042595,-9.893484376825196,-0.04653653943437458,0.31430189125013747,-0.007867726142280321,-0.004969937261713076,-0.0001424796087486387
1765409500.044491,-9.890492809774662,-0.045384149213614035,0.3146318404217392,-0.007910334296634895,-0.0047235593913644,-6.674506938957868e-05
1765409500.047465,-9.887847984908673,-0.044139730416717975,0.3150306664382536,-0.007961322800823668,-0.0044666223663273755,9.081191249680872e-06
1765409500.049523,-9.885591877349494,-0.04285579845315182,0.3154900836042451,-0.008019527299938614,-0.004198122537467896,8.393157242592165e-05
1765409500.050509,-9.883757908995163,-0.04158008111836816,0.3159976795637397,-0.008083117457320977,-0.003917322356012555,0.00015665909282947722
1765409500.054501,-9.882371939081763,-0.04035393092295705,0.31653830502228675,-0.008149642228584275,-0.003623824257245916,0.0002261331715988633
1765409500.055487,-9.881453532975984,-0.03921164807018287,0.3170949900836181,-0.008216136593450996,-0.003317635407952143,0.0002913355857024772
1765409500.060457,-9.881017367504448,-0.03818062835686323,0.3176494964513894,-0.008279278020094746,-0.0029992182196332978,0.00035143808571839704
1765409500.062446,-9.881074726912678,-0.03728210269601651,0.31818277045277193,-0.008335574384136856,-0.002669521906620663,0.00040584817601668603
1765409500.064435,-9.881635015157784,-0.03653215479200929,0.31867555982888685,-0.008381563874218586,-0.0023299945837099824,0.00045421907640935975
1765409500.065448,-9.882707044789278,-0.035942747566154495,0.3191092824697725,-0.008414009884533467,-0.001982578860206201,0.0004964303326758332
1765409500.070452,-9.884299723766595,-0.035522649486485584,0.3194670531008317,-0.008430077840989736,-0.0016296949145629077,0.000532552372786292
1765409500.070952,-9.88642179200303,-0.03527831288487238,0.3197346913261184,-0.008427485147407803,-0.0012742136051567237,0.0005628077932644536
1765409500.073415,-9.889080435216846,-0.035214795137257365,0.31990148938423185,-0.008404619067814067,-0.0009194188676209682,0.000587535574096598
1765409500.077435,-9.892278842355038,-0.035336704518551594,0.3199604812483938,-0.008360619304057869,-0.0005689555183228911,0.00060715780016755
1765409500.079447,-9.896013043948313,-0.03564896499170847,0.3199080401868318,-0.00829542205213949,-0.00022675692242035174,0.0006221468652303505
1765409500.082431,-9.900268618965539,-0.036157052087271574,0.3197428940611828,-0.008209761961814475,0.00010305339466205218,0.0006329945272020075
1765409500.084416,-9.905017965392295,-0.03686638552076593,0.3194649353935318,-0.008105130284654417,0.0004162894109882683,0.0006401887682257704
1765409500.087519,-9.91021873352072,-0.03778081381650311,0.3190743249193721,-0.007983692361528894,0.0007088543904565171,0.000644206507354451
1765409500.08945,-9.915813796111953,-0.038900470132761836,0.31857129909317994,-0.007848172501690393,0.0009769005181639607,0.0006455287613719649
1765409500.092422,-9.92173287388395,-0.04021950773078845,0.31795686398862705,-0.007701715584098221,0.001216974076595501,0.0006446804053009665
1765409500.094412,-9.92789568423959,-0.041724205544882875,0.3172342872066314,-0.007547732754201072,0.001426126611614106,0.0006422896174672011
1765409500.097416,-9.934216267029813,-0.04339170319500445,0.31641109657448024,-0.007389737410918189,0.0016019801564908797,0.000639154107828981
1765409500.099399,-9.94060799300024,-0.04518936489630963,0.315501221054202,-0.0072311800068566665,0.0017427415920515702,0.0006362970954021379
1765409500.102443,-9.946988645794356,-0.0470747022691197,0.314526903594851,-0.007075294540031466,0.0018471659219288208,0.0006349995564350461
1765409500.104482,-9.953284867441061,-0.04899595694318053,0.31351998921161195,-0.006924972028718437,0.0019144717935163772,0.0006368035741065172
1765409500.107458,-9.95943525813237,-0.050893642431123556,0.312522158659815,-0.006782673418680365,0.00194421729496746,0.0006434873146144917
1765409500.109485,-9.965391608855578,-0.0527032936040578,0.3115837067642312,-0.00665038581691355,0.001936151856949307,0.000657012220357028
1765409500.112467,-9.971118081332381,-0.05435931322171129,0.3107606050871711,-0.006529615553214643,0.0018900693195599172,0.0006794418086183191
1765409500.114453,-9.97658854767337,-0.05579935393977978,0.3101098917499136,-0.006421405592722731,0.0018056923118705155,0.0007128349411825921
1765409500.117452,-9.98178269119688,-0.05696844031508934,0.30968387117044266,-0.00632636565111341,0.0016826151494577992,0.0007591252376461205
1765409500.119433,-9.986681722011483,-0.05782219278945757,0.30952397366745404,-0.006244707244111807,0.0015203234850492413,0.0008200059410123514
1765409500.122424,-9.991264524911701,-0.058328972717380655,0.3096551832001218,-0.006176278581807811,0.001318298634735886,0.0008968377122320607
1765409500.124477,-9.995504745394076,-0.0584712186717244,0.3100817034729801,-0.006120595324928815,0.0010762051210676665,0.0009905841815591654
1765409500.127513,-9.999368944707154,-0.058246381644281316,0.31078422674925466,-0.00607686429174574,0.0007941513241167809,0.001101764489009491
1765409500.129459,-10.002815724253747,-0.05766761063580772,0.3117189639352702,-0.006043999191433124,0.0004730048005803479,0.0012304040770137492
1765409500.132462,-10.005795680043805,-0.056763921959915385,0.3128184971392144,-0.006020630135253673,0.00011473515408355705,0.0013759706670429916
1765409500.134497,-10.008252139668524,-0.055579377767471065,0.3139944916483349,-0.006005110376440864,-0.0002772521670461966,0.0015372992111937324
1765409500.137454,-10.010122780202252,-0.05417099062070632,0.31514231196314346,-0.005995523201492596,-0.000697835400564773,0.0017125268896516057
1765409500.139573,-10.011342325691317,-0.05260550228514312,0.3161475315546455,-0.005989690691522497,-0.001139993840486821,0.001899065433623762
1765409500.14049,-10.011846472441253,-0.0509555179046457,0.31689413553825374,-0.005985186237712664,-0.0015947584288644318,0.0020936309040835476
1765409500.144538,-10.011576980806142,-0.04929549545548161,0.3172739494640741,-0.005979353147757861,-0.002051317147349124,0.0022923376566071
1765409500.147448,-10.01048761531145,-0.04769785535696681,0.3171966020631772,-0.005969330582635046,-0.0024972841672107607,0.002490851763435929
1765409500.150487,-10.008550421865383,-0.04622924289531399,0.3165991816326859,-0.005952086907627018,-0.0029191311149071174,0.002684593028330728
1765409500.152451,-10.005761739817434,-0.04494696262615132,0.31545467743387107,-0.00592446175908516,-0.0033027672688092547,0.0028689721442562736
1765409500.154483,-10.002147361434014,-0.04389579331987116,0.3137783581931778,-0.005883220661202954,-0.0036342413452585863,0.003039646528587317
1765409500.157428,-9.997766333913246,-0.043105568155970386,0.31163142837244834,-0.005825126816522938,-0.0039005228387728273,0.003192773124836025
1765409500.159491,-9.99271295243423,-0.042589854300465815,0.30912150562061075,-0.005747032479009834,-0.004090310256999559,0.0033252315526250058
1765409500.162465,-9.987116480765101,-0.04234576951208728,0.3063996168366736,-0.005645987858869099,-0.0041948107829853885,0.0034347914058363268
1765409500.164558,-9.981138180301102,-0.04235464314183252,0.3036535990669498,-0.005519360447340109,-0.0042084404250099855,0.0035202066872628084
1765409500.167462,-9.97496546246835,-0.04258313460388162,0.3010980701487764,-0.005364954335046745,-0.0041294008176059995,0.003581236655015816
1765409500.169549,-9.968803346255275,-0.042984640344769565,0.29896141012616767,-0.005181119676285559,-0.003960094004667933,0.003618608161502217
1765409500.17046,-9.962863722127203,-0.043501162467050575,0.29747039178262213,-0.004966847381675776,-0.0037073398413821216,0.003633940710353893
1765409500.175777,-9.957353127629274,-0.044065993846419106,0.29683329430041416,-0.004721851744769266,-0.0033823651031294746,0.0036296486965816895
1765409500.177454,-9.952459899660978,-0.04460742722675009,0.29722260573407366,-0.004446650787404811,-0.003000540197303306,0.0036088221235941833
1765409500.17939,-9.948341707269014,-0.04505327625816093,0.2987586801293502,-0.004142656931407518,-0.0025808480520799586,0.0035750786590180933
1765409500.182424,-9.945114514618114,-0.0453355779781284,0.30149583595462137,-0.0038122866621884575,-0.002145082329334248,0.003532382709285592
1765409500.18542,-9.942843945715259,-0.04539475539344494,0.30541236383474263,-0.0034590873165326152,-0.0017167924602837315,0.003484838870495538
1765409500.187423,-9.941539854250705,-0.04518285330895554,0.3104057747042347,-0.0030878649608476086,-0.0013200200447415454,0.003436479220154192
1765409500.190495,-9.94115463384046,-0.044665959718158836,0.31629426967623525,-0.0027047836283821246,-0.000977897208156934,0.003391068342673198
1765409500.192389,-9.941585413220839,-0.04382619492288385,0.322824786844259,-0.0023173963384541976,-0.0007111965144054025,0.003351944758152864
1765409500.194538,-9.94267986559833,-0.042663514641865886,0.32968722956015545,-0.0019345649600652844,-0.0005369341586358369,0.003321907140108429
1765409500.197401,-9.944245078618025,-0.04119719074546034,0.33653383159904227,-0.001566231604993084,-0.0004671336621941987,0.0033031443605509993
1765409500.199436,-9.946058793908646,-0.03946653525337933,0.3430021155753975,-0.0012230197479224235,-0.0005078531848605257,0.003297203057071078
1765409500.202393,-9.947882221421052,-0.03753045340531372,0.34873949224194734,-0.0009156659250962695,-0.0006585652247661718,0.0033049852312492653
1765409500.2044,-9.949473550479198,-0.03546570118072026,0.35342730987680204,-0.0006543074633375401,-0.0009119556234687448,0.0033267702553635837
1765409500.20751,-9.950601315905308,-0.03336401354613681,0.3568022529818904,-0.00044767437593869685,-0.0012541795903882485,0.003362258482735631
1765409500.209429,-9.951056940925735,-0.03132834023633199,0.3586733766647084,-0.0003022535033622295,-0.0016655743419443677,0.0034106343406781693
1765409500.213463,-9.950665959181652,-0.029468288192017987,0.3589335652122199,-0.00022151007054348662,-0.0021217849478399626,0.0034706440630388967
1765409500.214429,-9.949297556651807,-0.027894721155711358,0.35756473897274416,-0.00020526325496840402,-0.0025952213062643645,0.003540680468851919
1765409500.217436,-9.94687216922818,-0.026713513184087004,0.3546367153533031,-0.00024931202840200055,-0.003056736215456714,0.0036188690376114303
1765409500.219488,-9.943366856337303,-0.02601874560595841,0.3503001888425294,-0.00034538949527737264,-0.003477398525736239,0.0037031553322613886
1765409500.222459,-9.938817987434337,-0.025886016584313803,0.34477470667846166,-0.0004814870253223627,-0.00383023224743525,0.0037913977814007954
1765409500.224428,-9.933320583849964,-0.026366736602666634,0.3383327514969927,-0.0006425396195534148,-0.004091803704792042,0.0038814677010451273
1765409500.22543,-9.927023773319336,-0.027484140756894267,0.3312811838842099,-0.0008114125328346375,-0.004243561841172785,0.0039713517248772395
1765409500.229439,-9.920122385258201,-0.029231299357956292,0.323941440363442,-0.0009700884349169919,-0.004272864434523633,0.004059245956261561
1765409500.232508,-9.912845510396378,-0.03157090115485311,0.31663002013004227,-0.0011009329479422035,-0.004173648462500689,0.004143631406899308
1765409500.233485,-9.905443428915154,-0.03443635478893871,0.3096407739045739,-0.0011879163109878629,-0.0039467229147613515,0.0042233276233194506
1765409500.237441,-9.898174382929959,-0.037733970078275274,0.30323016604477976,-0.001217684791632206,-0.0035996765573292782,0.0042975302688399546
1765409500.239405,-9.891292293364542,-0.04134643244284434,0.2976060946785822,-0.001180398295618808,-0.003146403985999022,0.004365840902078396
1765409500.242565,-9.88503601018242,-0.04513802830307134,0.2929203418240559,-0.0010702755174025402,-0.002606266645020571,0.004428291123198873
1765409500.244476,-9.879620312279515,-0.04896183381513278,0.28926449805236787,-0.0008858164765184213,-0.0020029261384094817,0.00448535393806703
1765409500.249291,-9.875228686894799,-0.052668447548068535,0.28666916311278023,-0.0006297052529326859,-0.0013629127563003843,0.004537929655392582
1765409500.249791,-9.872007793760238,-0.0561152157578314,0.28510615324814914,-0.0003084274747353309,-0.0007140153393238541,0.004587296389428362
1765409500.252445,-9.870063359718841,-0.05917466450498219,0.2844932951633047,6.833979700996441e-05,-8.359515079062321e-05,0.004635026248890119
1765409500.254466,-9.869457122999847,-0.06174115463178272,0.28470127038853416,0.0004884955057932815,0.0005030638385346502,0.004682880763099266
1765409500.257405,-9.870204509699219,-0.06373538210536048,0.28556200496118106,0.0009383644778937964,0.0010242546645471376,0.004732703364291715
1765409500.259426,-9.872273039854027,-0.0651068409042538,0.2868782809381813,0.001403557127086276,0.0014630936618714684,0.004786320297365046
1765409500.26242,-9.875581926729357,-0.0658344962679822,0.28843450269978455,0.0018697760002891117,0.001808429547286126,0.0048454515972446086
1765409500.264427,-9.880003740711992,-0.06592578580297395,0.29000875846097274,0.0023235229727304792,0.002055355482428209,0.004911629817603814
1765409500.267444,-9.885369088296654,-0.06541400196565632,0.291386260352227,0.002752683397894508,0.002205290083841438,0.0049861287050647785
1765409500.269453,-9.891474807379385,-0.06435432109860052,0.2923737358110121,0.0031469879480197295,0.002265620925189416,0.005069912247381126
1765409500.27243,-9.898095306782608,-0.06281908167160341,0.29281353931340776,0.0034983716156265594,0.002248933433250762,0.005163618373809459
1765409500.274555,-9.904995803416872,-0.06089301637377926,0.29259567379928597,0.003801253573673652,0.002171879005752745,0.005267586062891494
1765409500.277424,-9.911945754537486,-0.058668838895539685,0.29166593726310225,0.0040527480646703595,0.0020537668614866813,0.005381921761658554
1765409500.279443,-9.918730890611252,-0.056243087668676923,0.290028974417821,0.004252791524446746,0.001914989930693246,0.005506587991557015
1765409500.282421,-9.92516280356736,-0.05371183571705648,0.2877458354273386,0.004404147545078752,0.0017754116769823714,0.0056414910649239
1765409500.284448,-9.93108576110858,-0.051166046073121724,0.2849265117757997,0.004512241510364796,0.0016528468260905307,0.0057865481712225065
1765409500.287398,-9.936381009731813,-0.04868687736569716,0.28171867230816944,0.004584788018847601,0.0015617637985916777,0.005941721603642625
1765409500.289424,-9.940969123976648,-0.04634169863139719,0.2782942707060626,0.004631206089547597,0.0015123174707278367,0.006107012167325168
1765409500.290458,-9.944810927392124,-0.044181568554764475,0.2748356993931771,0.004661860080877499,0.0015097865015537828,0.006282403554347082
1765409500.294513,-9.947907236154986,-0.04224045891933283,0.27152279703391,0.00468720271245286,0.001554445141220335,0.006467750845049363
1765409500.297384,-9.950297361011206,-0.040535891835466326,0.2685215674329674,0.00471691822453391,0.0016418548133549542,0.0066626161182697895
1765409500.299424,-9.95205616789201,-0.039070312720875966,0.265975163642441,0.004759165834100665,0.001763522309462397,0.006866073120191705
1765409500.302425,-9.953289589917002,-0.03783262182520973,0.2639974738282305,0.004820009833512567,0.0019078402659745992,0.007076523626915689
1765409500.304404,-9.954128675371294,-0.03679971040394683,0.2626693817225903,0.004903096684122431,0.0020612028219441246,0.0072915788050689125
1765409500.307564,-9.954722430373279,-0.035938277393448535,0.2620375456045848,0.0050096048671527905,0.002209179017411331,0.007508051229596276
1765409500.309445,-9.955229831204097,-0.03520735756502386,0.26211547518570544,0.005138455493332683,0.002337631961613127,0.007722077748016757
1765409500.312438,-9.955811395553463,-0.03456176785940414,0.26288665256136473,0.005286736696450432,0.0024336920101089205,0.007929359128141385
1765409500.314387,-9.95662058824856,-0.03395620169263046,0.26430921247517747,0.00545026745983859,0.0024865214009137933,0.008125473364263452
1765409500.315472,-9.957795204510674,-0.03334930710922748,0.2663213605189149,0.005624211735987282,0.0024878383448083056,0.008306207808074515
1765409500.319378,-9.959448914768961,-0.03270709075497387,0.2688466253724647,0.0058036564508845805,0.0024321958184895984,0.008467863003904999
1765409500.322375,-9.961663413232843,-0.03200537597897949,0.27179835170045485,0.005984087087228777,0.002317033860986334,0.00860749839521986
1765409500.324405,-9.964481896789069,-0.03123143518854089,0.2750832996689474,0.00616172343701286,0.0021425423100911493,0.008723104025801082
1765409500.327392,-9.967904689303708,-0.03038495001200578,0.2786045586177341,0.006333703874967573,0.0019113792951776915,0.00881368844277231
1765409500.329418,-9.971887666549813,-0.02947813284993505,0.28226414626194346,0.006498123140134473,0.0016282897024640494,0.00887927727122124
1765409500.33166,-9.976343795958105,-0.028534534422163985,0.2859656352812272,0.006653940026455692,0.0012996639648615337,0.008920827386204139
1765409500.334484,-9.981147663271672,-0.027586152627163057,0.28961690994946704,0.00680078581663025,0.0009330751809747478,0.008940078616217562
1765409500.337516,-9.986142455501316,-0.026669016631484382,0.2931328699856575,0.006938723273403993,0.0005368286997647873,0.008939380123176027
1765409500.339429,-9.991148707271911,-0.025818121732256397,0.2964378180231313,0.0070680190336860115,0.0001195495534973652,0.008921531862874796
1765409500.34246,-9.995974237178826,-0.025062956062817637,0.299467392554619,0.007188986026489909,-0.0003101773092295001,0.008889668754044976
1765409500.344491,-10.000424860756814,-0.02442461524608607,0.30216999427560653,0.0073019255513034715,-0.000744104972646329,0.008847192159048051
1765409500.345447,-10.00431539814998,-0.023914796121852676,0.304507582387681,0.007407163181114127,-0.0011745513472839523,0.008797732819612174
1765409500.351665,-10.00748021912226,-0.023536276003654565,0.3064556568254181,0.0075051435750515,-0.0015945431276731816,0.008745121836642843
1765409500.352165,-10.00978235964179,-0.023284254697863185,0.3080023880082572,0.007596535138623964,-0.001997867815845216,0.008693350766938196
1765409500.354462,-10.011120344944198,-0.023148195510425455,0.30914719303502236,0.007682298229249128,-0.002379036751401483,0.008646508707200552
1765409500.355496,-10.011432286468459,-0.023114175415494397,0.30989940557710505,0.007763687332427933,-0.0027331807444008383,0.008608686440689262
1765409500.359474,-10.010697385315186,-0.02316782659453868,0.31027781599111326,0.007842180448168179,-0.003055916753260018,0.008583838083143187
1765409500.362424,-10.00893537304575,-0.02329763601870559,0.3103115882347437,0.0079193484247053,-0.0033432331003945483,0.008575596593412341
1765409500.364447,-10.006204450973083,-0.02349795337905468,0.3100424148035322,0.007996689060459056,-0.0035914404609682774,0.008587054730753434
1765409500.367434,-10.002597995186697,-0.023770917100648072,0.3095270347597937,0.008075457582439863,-0.0037972242152250696,0.008620543720671942
1765409500.370461,-9.998239916737639,-0.024126794791038506,0.30883879234862144,0.008156528597292953,-0.003957808715316756,0.008677456709118483
1765409500.372398,-9.993278350681374,-0.024582777084163968,0.30806697632339064,0.008240323254240794,-0.004071210642701579,0.008758160133874301
1765409500.374424,-9.987877381851062,-0.02516071506185535,0.30731316546363624,0.00832682666608602,-0.0041365301268140135,0.008862011090697671
1765409500.37739,-9.982206741562754,-0.02588437024612006,0.30668442661767725,0.00841570390577304,-0.0041542172001946456,0.008987465962084272
1765409500.379455,-9.976429776811058,-0.026776435507108797,0.30628379079191614,0.008506500026001545,-0.004126259100092983,0.009132243313016992
1765409500.380385,-9.970690486974828,-0.02785519225812608,0.30619898539543455,0.008598885543855801,-0.004056251159635838,0.009293501948143375
1765409500.384401,-9.965100912357313,-0.029130629442039008,0.3064908596963861,0.00869289197990966,-0.003949330693124594,0.009468010378928296
1765409500.387382,-9.959730398526855,-0.03060032758697146,0.3071830779601901,0.008789081195162305,-0.003811968115561112,0.009652305374272393
1765409500.389443,-9.954598144923468,-0.0322460793796945,0.3082544287631865,0.00888861037118157,-0.0036516247801635,0.009842850778490874
1765409500.392374,-9.949670128160927,-0.03403250191169579,0.3096347934209053,0.008993184516024775,-0.0034763003981670157,0.010036205150251904
1765409500.394446,-9.944861156661979,-0.035908462699387585,0.3112056475909041,0.009104917440289295,-0.0032940007967984268,0.010229192054247325
1765409500.397465,-9.940042457245442,-0.037811180382664664,0.312805785991355,0.009226139370868776,-0.003112161351267299,0.010419054025018814
1765409500.399431,-9.935054697542862,-0.03967193093081471,0.3142424924949438,0.00935919102343111,-0.0029370689697987224,0.01060357201944181
1765409500.402446,-9.929725698009245,-0.04142189292407815,0.3153076138828731,0.009506233780434435,-0.002773337719081196,0.010781144350274595
1765409500.404508,-9.92389140593599,-0.042996902794412574,0.31579715616775383,0.00966909135155457,-0.0026235023003956465,0.010950829907361391
1765409500.407469,-9.91741812108801,-0.04434049437273226,0.31553231577202656,0.009849126745116185,-0.0024877883712243793,0.011112362090316866
1765409500.408488,-9.910223592825165,-0.04540523302585387,0.3143794333471171,0.010047152275968134,-0.0023640960116152175,0.011266135775392812
1765409500.412404,-9.902294596072103,-0.04615282413044739,0.31226638590528405,0.010263368677397935,-0.0022482003476839234,0.011413165627980594
1765409500.414487,-9.893698989675503,-0.046553683718286644,0.3091934695451806,0.010497330153826324,-0.0021341418960451283,0.0115550113389351
1765409500.417387,-9.884590872388678,-0.04658658973280838,0.305237628107446,0.010747934270325148,-0.0020147552056823735,0.011693664085314739
1765409500.419457,-9.875208001748932,-0.04623879203932705,0.3005495987202973,0.011013438709179138,-0.0018822720921485832,0.0118313908324569
1765409500.422403,-9.865861093832807,-0.04550669790626942,0.2953440842792669,0.011291511019301169,-0.001728937543000478,0.01197053979179271
1765409500.424382,-9.856915211252652,-0.044397004378690375,0.28988362107970755,0.011579321064788758,-0.0015475893904324254,0.012113318573655376
1765409500.427434,-9.848764362979123,-0.042927869924051044,0.28445752285124437,0.01187368504979059,-0.0013321689664220265,0.012261562770726464
1765409500.429463,-9.841801549595646,-0.041129451171908867,0.2793579956151644,0.012171260987553306,-0.0010781412750862805,0.012416516496078127
1765409500.430449,-9.836387360283076,-0.039043073286315365,0.27485591923908076,0.012468779984322501,-0.0007828077847255709,0.012578650159877837
1765409500.434448,-9.832820450390946,-0.03671862462790409,0.27117872063123555,0.012763283605670762,-0.00044549737647208397,0.012747544872685222
1765409500.437454,-9.83131277359712,-0.03421041225086767,0.2684923615770975,0.013052332258843849,-6.762737461510961e-05,0.012921872318796861
1765409500.437954,-9.831971697633966,-0.03157239762555288,0.2668890045103568,0.013334153962902932,0.00034736218694941595,0.013099487169865509
1765409500.440459,-9.834790473377826,-0.02885409252368364,0.26638149826574536,0.013607713642142638,0.0007941873011833475,0.013277625902121367
1765409500.444421,-9.83964793946253,-0.026098197303021167,0.2669052957330574,0.013872697141480409,0.0012659927110899422,0.013453180217330923
1765409500.447406,-9.846317592062475,-0.023340378806288,0.2683276441643333,0.014129419164861734,0.0017546969943899482,0.013622997548161394
1765409500.449586,-9.854485195043171,-0.020610815080598626,0.2704629695170721,0.014378676425788944,0.0022513823039895416,0.013784161937286668
1765409500.450528,-9.863773177247662,-0.01793670309010042,0.27309254255093873,0.014621572597219362,0.00274669219548367,0.013934221679490455
1765409500.456306,-9.87376938642989,-0.015344907344704463,0.2759859863123182,0.014859339582821821,0.0032311988886,0.014071345624180262
1765409500.457442,-9.884057415211212,-0.012864094973559729,0.27892210074779417,0.015093173091496517,0.0036957139750240764,0.014194402670134922
1765409500.459414,-9.894245673993176,-0.010525883689613057,0.2817068072355485,0.015324093015849425,0.004131539184994225,0.014302969818821032
1765409500.462392,-9.903992639626198,-0.008364737411550131,0.28418653754931505,0.015552832841194112,0.004530671470043394,0.014397284087107252
1765409500.464462,-9.913026229243917,-0.006416617105356679,0.28625595189158504,0.015779758880577473,0.004885979884174659,0.01447816075142847
1765409500.465423,-9.921156015561023,-0.004716667988524424,0.2878595726915023,0.016004821368005816,0.005191366471025326,0.014546902314601423
1765409500.469398,-9.928277985029544,-0.00329638098077768,0.2889879178757962,0.016227544161079892,0.005441922309582009,0.014605217520138611
1765409500.472413,-9.934372585911445,-0.0021806552471188368,0.28966982670972824,0.016447061557458537,0.005634095744176308,0.014655159040796412
1765409500.474441,-9.939497570076615,-0.0013850994974200152,0.2899633540176395,0.016662203600515086,0.0057658912930809315,0.014699077640860364
1765409500.475397,-9.943777282668243,-0.0009138791997735147,0.28994742820220937,0.016871617917832794,0.00583710278731076,0.0147395839070879
1765409500.479485,-9.947389638954107,-0.0007584527242524193,0.28971553324339355,0.0170739061039784,0.005849554628688818,0.014779505157179768
