time,acc_x_g,acc_y_g,acc_z_g,gyro_x_rad_s,gyro_y_rad_s,gyro_z_rad_s
1765408129.65618,7.105774520822091,-4.827006405712055,-4.650947406433564,-0.0063300532761341585,-0.005483650274616852,-0.002886364096195843
1765408129.65643,4.913997246014443,-4.883874855191185,-4.637748042779792,-0.005058007679266561,-0.005048944071481756,-0.0023307263878584927
1765408129.65668,2.7745031853656883,-4.93816365318746,-4.625071713501091,-0.0037467147935778835,-0.004642096794989279,-0.0018149742942188821
1765408129.65693,0.7365261311663467,-4.987806827102658,-4.6129636712331,-0.0023946775799199784,-0.004235158054468218,-0.00131487557325198
1765408129.657158,-1.1560074778389504,-5.030892847694064,-4.601525251989531,-0.001013098980163438,-0.0038005709761859533,-0.0008011313520011353
1765408129.657408,-2.8665576797507484,-5.065731484002661,-4.590914178690162,0.00037247134845386806,-0.003312126198295686,-0.00023992706875242925
1765408129.657658,-4.367432267661412,-5.090922387460318,-4.581337817912675,0.0017216281217906628,-0.0027456276399355556,0.0004063601241013352
1765408129.657908,-5.640580429842937,-5.1054230283570625,-4.573039654120776,0.00297988118135784,-0.0020792285354550018,0.0011783175335015334
1765408129.658208,-6.677737518441586,-5.108611420428244,-4.566279993289655,0.004080757597778818,-0.0012934311647428045,0.0021185341742300918
1765408129.658458,-7.479989737543032,-5.100336944878775,-4.56131251597239,0.004949177368884128,-0.00037078432994840517,0.0032705260697185063
1765408129.658708,-8.056860407935934,-5.0809511547980195,-4.55835883389163,0.0055059153705545524,0.0007046480862673558,0.004677546183530551
1765408129.658958,-8.425037374197009,-5.0513104768070285,-4.557583609418699,0.005672823510758436,0.001947942131225844,0.0063812762393741515
1765408129.659174,-8.606866484576559,-5.012744725285546,-4.559072857801764,0.005378363961717895,0.003373967369692911,0.00842041612753382
1765408129.659374,-8.628731379846576,-4.966989218495606,-4.562817644491465,0.0045629263118536255,0.004997912613374669,0.010829219846031916
1765408129.659574,-8.519427535031644,-4.91608336314386,-4.568704693215212,0.003183391422452626,0.006835574994354952,0.01363606276936381
1765408129.659774,-8.308621119808764,-4.8622437462888,-4.576514768049686,0.0012164724039922872,0.008903331978258443,0.016862148604293022
1765408129.659974,-8.025463318414356,-4.807723726744617,-4.585929211547614,-0.0013394997068944816,0.011217746481566749,0.020520466968232266
1765408129.660155,-7.697410504342012,-4.754673178519276,-4.596544512690807,-0.004464498417086538,0.013794789588831484,0.024615095756436865
1765408129.660405,-7.349281582502371,-4.705011116615206,-4.607894032422499,-0.00811839987909195,0.0166487103869573,0.029140915201511353
1765408129.660655,-7.002566547541358,-4.6603211041082195,-4.619475166973781,-0.012244062802237096,0.019790637273233894,0.03408377209525562
1765408129.660905,-6.674985096740587,-4.621775829691615,-4.630779634597108,-0.01677157392094978,0.023227047296869925,0.03942110764477591
1765408129.66119,-6.380281308426397,-4.5900941762301075,-4.64132433604894,-0.021623262274755955,0.02695827394439007,0.0451230392664388
1765408129.66144,-6.128230424948874,-4.565531970630943,-4.650680175171472,-0.026719043353387054,0.030977230054910855,0.051153859020101965
1765408129.66169,-5.924826865168774,-4.547906127549626,-4.658496319865011,-0.03198164446554888,0.03526850127813896,0.05747387353024679
1765408129.66194,-5.772618427145212,-4.53665031865582,-4.66451794770992,-0.03734128445454182,0.039807922489249456,0.06404146491452709
1765408129.662161,-5.671149725306243,-4.530898065537698,-4.6685966692402445,-0.042739439253763556,0.044562693524343215,0.07081521359074028
1765408129.662411,-5.617477991437753,-4.529586361895571,-4.670694029680824,-0.048131420961070745,0.049492032960137655,0.07775590768414362
1765408129.662661,-5.606726430770379,-4.5315701869757685,-4.670878967930017,-0.05348762043554295,0.0545483205410929,0.08482827544748484
1765408129.662911,-5.63264410076518,-4.535736412055442,-4.669319671321549,-0.05879339312972043,0.059678644291246793,0.09200231206237128
1765408129.663193,-5.688146032390497,-4.541105437921417,-4.666269628376856,-0.06404769041876383,0.06482664410089044,0.09925412473275129
1765408129.663443,-5.765812176299749,-4.546910751555652,-4.662047772409589,-0.06926064462911763,0.06993452641154922,0.10656628395907518
1765408129.663693,-5.858328307814038,-4.5526499422713655,-4.6570135912604265,-0.07445039622465141,0.07494511455640228,0.11392773257954611
1765408129.663943,-5.958856407526142,-4.558104625619223,-4.651539267666732,-0.07963949904454662,0.07980379810315888,0.12133335354399645
1765408129.664203,-6.061326479115123,-4.563330465780673,-4.6459815779701765,-0.08485125276866448,0.08446025635215983,0.12878332292872396
1765408129.664453,-6.160646176718557,-4.568621653988593,-4.640656284934967,-0.09010629357230547,0.08886985964390959,0.13628237195966103
1765408129.664703,-6.252828722302955,-4.574456436534746,-4.635817441760934,-0.09541972711377045,0.09299469147339341,0.14383905219954102
1765408129.664953,-6.335043270305878,-4.581431333585299,-4.631643637198389,-0.10079901658720296,0.09680416994443336,0.15146505198343996
1765408129.665198,-6.4055951169216545,-4.590191582776627,-4.62823271155678,-0.10624275123709111,0.1002752707221117,0.15917456561839446
1765408129.665448,-6.463845891386583,-4.601364355627651,-4.625605719234071,-0.11174032999769144,0.10339237253599778,0.16698368356683257
1765408129.665698,-6.510085928740016,-4.615499819927658,-4.6237198992579716,-0.11727251205771481,0.10614677191832518,0.17490975925643887
1765408129.665948,-6.545372224662664,-4.633023606605728,-4.622489195074411,-0.12281271736640086,0.1085359461159503,0.18297071607711116
1765408129.666161,-6.571345680110602,-4.654203059633229,-4.621809503051924,-0.1283289058530396,0.11056266800340314,0.19118427960300147
1765408129.666411,-6.590040849583543,-4.679128885974324,-4.621584677096981,-0.13378582304361136,0.11223407849768792,0.1995671453793013
1765408129.666661,-6.6037001717821076,-4.707713154655546,-4.621749048621654,-0.1391473759875266,0.11356079800898028,0.20813411309985533
1765408129.666911,-6.614602748683489,-4.739703453413238,-4.622283244535476,-0.14437890528170522,0.11455612325714899,0.21689722971500625
1765408129.667172,-6.624915395959287,-4.774711110010951,-4.623222018121451,-0.14944914734119502,0.11523532559608453,0.22586498935990687
1765408129.667505,-6.636571288923247,-4.812249207552811,-4.624654664215935,-0.15433172775786683,0.11561504582192927,0.23504164197227997
1765408129.667839,-6.651179298009728,-4.851774751187168,-4.6267195020541525,-0.15900608475510802,0.11571276604297784,0.24442666757171808
1765408129.668145,-6.6699650284435315,-4.892729534518415,-4.629593803958617,-0.1634577859192764,0.11554633261251168,0.2540144766209546
1765408129.668395,-6.693742669971548,-4.93457564284193,-4.633480105453575,-0.16767826099858646,0.11513350432128314,0.2637943903384501
1765408129.668645,-6.7229153064915455,-4.976822973767396,-4.638589627780388,-0.1716640200565652,0.11449149990947977,0.27375093219695745
1765408129.668895,-6.757500540825884,-5.019046971727204,-4.645123520281746,-0.1754154634910592,0.11363651548276002,0.2838644296158671
1765408129.669111,-6.7971778107994165,-5.060895387374953,-4.653252587643875,-0.17893542744802926,0.11258318218214841,0.29411189675315
1765408129.669361,-6.841352964885341,-5.102084094439799,-4.663096233038327,-0.1822276437121115,0.11134394382676803,0.3044681496474026
1765408129.669611,-6.88923438498924,-5.142383911452517,-4.674701679760916,-0.18529531336863875,0.10992835146167147,0.31490708462080486
1765408129.669861,-6.939913811328932,-5.181602172273073,-4.688025007974011,-0.1881399838566645,0.10834229231335035,0.32540302069596205
1765408129.670117,-6.99244481124393,-5.219563543550402,-4.7029159058849315,-0.19076087602922082,0.10658719369111563,0.3359319718726972
1765408129.670367,-7.045912710793475,-5.25609404334791,-4.719108107357719,-0.1931547424237664,0.10465926574249793,0.3464726943330803
1765408129.670617,-7.099491270241133,-5.29101080341046,-4.736217297752699,-0.19531626791744008,0.10254886090675054,0.3570073652650537
1765408129.670867,-7.152482880933855,-5.3241184309299685,-4.753748047376931,-0.1972389592360235,0.10024002265329436,0.36752179998272955
1765408129.671128,-7.204340584453565,-5.35521131291366,-4.771111140773258,-0.19891640967038796,0.09771027613915206,0.37800519596539794
1765408129.671461,-7.254672176629896,-5.384080194376293,-4.787652056815751,-0.20034377572133275,0.09493069552904645,0.388449487304249
1765408129.671795,-7.303229149798464,-5.410521012471318,-4.802689781568107,-0.2015192818047167,0.0918662775423368,0.39884846854823947
1765408129.672119,-7.349885406168599,-5.434344258235608,-4.815562993809349,-0.20244558551161076,0.08847665251792508,0.4091968736594294
1765408129.672369,-7.3946111677170725,-5.455383937064894,-4.825679356259448,-0.20313087174294978,0.08471715940819217,0.4194895698752382
1765408129.672619,-7.437445787469045,-5.473506162794922,-4.83256406285676,-0.2035895762813552,0.08054029285160856,0.42972096893343176
1765408129.672869,-7.478470378789102,-5.4886179549900636,-4.835905148416779,-0.20384266166654705,0.07589750272646112,0.43988469510469935
1765408129.673103,-7.517779253405017,-5.500676521262083,-4.835593885169608,-0.20391738793279326,0.0707412966664466,0.44997349760269595
1765408129.673353,-7.555449297057616,-5.50969843100222,-4.8317582823416965,-0.2038465452567692,0.06502756901507956,0.4599793623519103
1765408129.673603,-7.591508456543152,-5.51576731352465,-4.8247866815613865,-0.2036671464445587,0.058718058081712154,0.4698937658494894
1765408129.673853,-7.6259072490634106,-5.519038574181535,-4.81533734675705,-0.20341861226564487,0.0517828154984362,0.47970801464596746
1765408129.674117,-7.6584990795223495,-5.519740068361763,-4.804329378483556,-0.20314052007430666,0.04420255248524392,0.4894136173584447
1765408129.674367,-7.689035094236402,-5.518168303943501,-4.79291084376154,-0.20287002659144013,0.03597070898250846,0.499002638868325
1765408129.674617,-7.717177258234993,-5.5146803089028955,-4.782402022319797,-0.20263912002672077,0.027095081684373683,0.5084679920599904
1765408129.674867,-7.742530134039428,-5.509681782434856,-4.7742148673992055,-0.20247189908078345,0.017598854665515338,0.5178036318221573
1765408129.675111,-7.764688436710926,-5.503612469984266,-4.7697535690510655,-0.20238210159280665,0.007520903760957262,0.5270046240340018
1765408129.675444,-7.7832944969213775,-5.496929607875085,-4.770304729156006,-0.20237110067993663,-0.0030847096541589646,0.5360670651211206
1765408129.675778,-7.798097854485651,-5.490089537585905,-4.776928008592896,-0.20242655414978344,-0.014150080446336682,0.5449878313691091
1765408129.676164,-7.809008935470331,-5.483526413897245,-4.790358276831149,-0.2025218501240829,-0.025595588071333653,0.5537641572229735
1765408129.676414,-7.816140118563572,-5.477626178722164,-4.810928551983452,-0.20261645335935768,-0.03733268143236707,0.5623930881268301
1765408129.676664,-7.819829525752359,-5.472694529111966,-4.838520528424327,-0.20265722480061274,-0.0492671236685113,0.5708709126459443
1765408129.676914,-7.820644648785967,-5.468919588312049,-4.87254698330445,-0.20258074868219456,-0.06130247523098603,0.5791927205154276
1765408129.677118,-7.819364553830525,-5.466332757948576,-4.911967736753037,-0.20231663994423937,-0.07334362171669882,0.5873522336466204
1765408129.677451,-7.816941603202313,-5.464773893779752,-4.95533801628957,-0.20179171374519994,-0.0853002135356667,0.5953420082280486
1765408129.677785,-7.814446248849751,-5.4638684562271305,-5.000885611456562,-0.20093478975757306,-0.0970899324070363,0.6031540176510302
1765408129.678178,-7.813000206630626,-5.463023679397905,-5.046611879639212,-0.19968180141625527,-0.10864150339515043,0.6107805279469607
1765408129.678428,-7.813703479213089,-5.461448052432652,-5.090411313845912,-0.1979808125061049,-0.1198973398040844,0.6182151075494372
1765408129.678678,-7.817560124543294,-5.458194606643965,-5.130203768266803,-0.19579652733443642,-0.13081567362155747,0.6254535911939052
1765408129.678928,-7.825407427969716,-5.452224862316281,-5.164071865819864,-0.1931139106745681,-0.14137200807344055,0.6324948384469937
1765408129.679148,-7.837853111577923,-5.442487476691797,-5.190394354427084,-0.1899405895222104,-0.151559734356894,0.6393411759202833
1765408129.679398,-7.855224971447076,-5.428004030255747,-5.207965067040025,-0.18630777451224503,-0.16138977933786355,0.6459984735923949
1765408129.679648,-7.877537109454346,-5.4079541777716456,-5.216086579671474,-0.1822695108331728,-0.17088919779604478,0.6524758647610165
1765408129.679898,-7.904476824860596,-5.381753265547043,-5.214627822913092,-0.17790015588226205,-0.1800986982119334,0.6587851647557749
1765408129.680141,-7.935415453940558,-5.349116744536451,-5.204037007762918,-0.17329010305336282,-0.18906919860760027,0.6649400719919013
1765408129.680474,-7.969444189597814,-5.310106629792984,-5.185306163260506,-0.16853993862262032,-0.1978576426892831,0.6709552483190176
1765408129.680808,-8.005432597519293,-5.265155724282375,-5.159890293647774,-0.16375341514559838,-0.2065224440271473,0.6768453790028237
1765408129.681111,-8.042104604118084,-5.215065810593981,-5.129590148885022,-0.15902981171889746,-0.21511902870925162,0.6826243110623899
1765408129.681361,-8.078125154035947,-5.160977208841859,-5.096411211606142,-0.15445638517063603,-0.22369597585373469,0.6883043621539094
1765408129.681611,-8.112190160775803,-5.1043092781324075,-5.062413152443957,-0.15010166132391184,-0.2322921897442748,0.6938958760251421
1765408129.681861,-8.14311200829274,-5.046674336791175,-5.029564555785676,-0.14601025867709794,-0.2409353842440242,0.6994070722390981
1765408129.682124,-8.16989292694572,-4.989770659187078,-4.999616580284336,-0.1421997915836297,-0.2496419561623311,0.704844199668229
1765408129.682457,-8.191779906529664,-4.9352631640382345,-4.974005559945377,-0.13866019437509333,-0.25841812565272065,0.7102119579284869
1765408129.682791,-8.208297234800241,-4.884662485922147,-4.953789652409976,-0.13535557068750909,-0.26726207960579446,0.7155141029114112
1765408129.683099,-8.219255087639795,-4.839213822896981,-4.939621057618144,-0.13222842660397707,-0.27616678832708946,0.7207541144201771
1765408129.683349,-8.224734366000648,-4.799806155467379,-4.931753803112513,-0.12920590887973157,-0.2851231569097073,0.7259357916235764
1765408129.683599,-8.225049793847102,-4.766910207238327,-4.930085750625247,-0.1262074587386705,-0.2941231779731511,0.7310636609791901
1765408129.683849,-8.220695696888622,-4.740550129114925,-4.934230222629351,-0.12315313359569224,-0.30316274282260386,0.7361431216730261
1765408129.68414,-8.212281661668799,-4.720310018443973,-4.94360765600589,-0.11997176818454343,-0.3122437574996418,0.7411803004327611
1765408129.68439,-8.200467589041214,-4.705373016415862,-4.957543486223372,-0.11660815502729102,-0.3213752413852132,0.7461816311073081
1765408129.68464,-8.185908213707881,-4.694588541932757,-4.975357598396804,-0.11302852235725337,-0.3305731844456132,0.7511532103498112
1765408129.68489,-8.16921500681579,-4.6865620097388865,-4.996433475536306,-0.1092237657727919,-0.33985909206300946,0.7561000046378084
1765408129.68512,-8.150939089582113,-4.679760308591802,-5.020259867595792,-0.10521012811933307,-0.3492573241774371,0.7610249935086528
1765408129.685453,-8.13157431360743,-4.672625037514732,-5.046442488628655,-0.10102729586235665,-0.358791513857015,0.7659283353611399
1765408129.685787,-8.11157671045262,-4.663684683138478,-5.07468719910306,-0.0967341611317899,-0.3684805064365868,0.7708066434155426
1765408129.686192,-8.091395461332839,-4.651657298190178,-5.104759402636064,-0.09240274651502324,-0.37833436426566913,0.775652458921667
1765408129.686442,-8.071510781385985,-4.635536634561486,-5.136426771396426,-0.08811095956380983,-0.3883510053024939,0.7804539988460559
1765408129.686692,-8.052474780967202,-4.61465641617236,-5.169393401213084,-0.08393491450308563,-0.3985139749446847,0.785195232826431
1765408129.686942,-8.034951686463835,-4.5887291379096995,-5.203233260990462,-0.07994154647304876,-0.4087917034257234,0.789856310460539
1765408129.687117,-8.019753332024104,-4.557857411561534,-5.237330555025482,-0.07618217952836964,-0.41913840888528964,0.7944143170689939
1765408129.68745,-8.007864717298371,-4.522517465238581,-5.270835382429295,-0.0726876084519424,-0.4294966049646172,0.7988442890736992
1765408129.687784,-8.000453325444667,-4.483516003112693,-5.302644235867106,-0.06946511754973081,-0.43980098421540165,0.8031203785523833
1765408129.688123,-7.998855450925376,-4.441923306521857,-5.331414570982595,-0.06649769143587403,-0.44998328346545385,0.8072170314579393
1765408129.688373,-8.004533272114546,-4.398987106809857,-5.355619651508255,-0.06374548281808716,-0.45997760921109604,0.8111100460558087
1765408129.688623,-8.018998113306543,-4.356033172306934,-5.373644342631047,-0.061149400858171755,-0.4697256424767859,0.8147774126641286
1765408129.688873,-8.043698905122227,-4.314359503501189,-5.383915543922562,-0.05863648291492223,-0.47918117971132296,0.8181998965138791
1765408129.689169,-8.079880444342919,-4.27513138478868,-5.38505413863802,-0.0561265284151893,-0.4883135899793886,0.8213613966691397
1765408129.689419,-8.12842258950797,-4.239284503759927,-5.37603068062045,-0.05353933172721118,-0.4971099440014609,0.8242491759318065
1765408129.689669,-8.189677376763328,-4.207443420868903,-5.3563056837699285,-0.05080178407321599,-0.5055757644542513,0.8268540873728291
1765408129.689919,-8.263324894738838,-4.179862946304049,-5.325936971876506,-0.047854143951807517,-0.5137345279108758,0.8291709033057547
1765408129.690199,-8.348269258690443,-4.156399658606078,-5.2856404496840215,-0.044654898319692646,-0.5216261742202242,0.8311987805900773
1765408129.690532,-8.442591954426883,-4.136518799533057,-5.23679666675691,-0.041183832930541536,-0.5293049115151741,0.8329417987839622
1765408129.690866,-8.543571895606407,-4.119337870387732,-5.181402825650543,-0.03744316863545617,-0.5368365468336543,0.8344094314829381
1765408129.691164,-8.647772890588783,-4.103703509712698,-5.121976509450119,-0.03345685802977531,-0.5442954732542128,0.8356167946313842
1765408129.691414,-8.751192693651442,-4.0882943388761195,-5.061421947764261,-0.029268327959476325,-0.5517613669729401,0.8365845601955019
1765408129.691664,-8.849463489631358,-4.071740430875474,-5.0028722348560954,-0.02493706742093477,-0.55931562217504,0.8373384937731027
1765408129.691914,-8.938090214892338,-4.05274952833378,-4.949521747437567,-0.020534489415459725,-0.567037560559806,0.837908629648282
1765408129.692149,-9.01271051601443,-4.030230091705163,-4.904461118193469,-0.01613945211451772,-0.5750004601104091,0.8383281208844483
1765408129.692399,-9.06935924613039,-4.003401190006256,-4.870522248316886,-0.011833741095216432,-0.5832674484837046,0.8386318038143267
1765408129.692649,-9.104721003680302,-3.971879288601921,-4.850135403821223,-0.007697731713023189,-0.5918873369584415,0.8388545108851353
1765408129.692899,-9.11635529316398,-3.9357324811908394,-4.845197907381061,-0.0038063934941887055,-0.6008905636530187,0.8390291725111519
1765408129.693163,-9.10288008312214,-3.895494219741574,-4.856955508805897,-0.00022576144023014118,-0.6102855495484151,0.8391847873777017
1765408129.693413,-9.064101313686912,-3.8521317504589634,-4.885901170222569,0.0029900316866012396,-0.6200558856560375,0.8393444080274346
1765408129.693663,-9.001078422161838,-3.8069693059531966,-4.931698935202567,0.005801095308566288,-0.6301588107112288,0.8395233515674793
1765408129.693913,-8.916118737058158,-3.7615719045936538,-4.993142022650008,0.008183449558000298,-0.6405253917445005,0.8397278725890601
1765408129.694199,-8.812696542372954,-3.7176011753531797,-5.068155031229833,0.010130003409264574,-0.6510626966057911,0.839954516644319
1765408129.694532,-8.695296575470026,-3.6766585364183344,-5.153849572745591,0.011650852364444799,-0.6616580570740873,0.8401903106314852
1765408129.694866,-8.569187311615124,-3.6401323817485696,-5.246639057888771,0.01277292852987249,-0.6721852749953324,0.8404138528357697
1765408129.695169,-8.440135860972841,-3.609065046723582,-5.342411944330828,0.013539037779818842,-0.6825123659382941,0.8405972582693813
1765408129.695419,-8.314082327781534,-3.5840531813648866,-5.436755810967362,0.014006299936024593,-0.6925102302804279,0.8407088069174826
1765408129.695669,-8.196796458195337,-3.565191872403819,-5.5252183064984886,0.01424399012502547,-0.7020615205301104,0.8407160416718388
1765408129.695919,-8.093543158979156,-3.5520679508536355,-5.603584671090849,0.014330785609074298,-0.71106891494823,0.8405889878494679
1765408129.696173,-8.008785012893284,-3.5438017570253986,-5.66814560179854,0.014351456522605145,-0.7194619948691494,0.8403031449707876
1765408129.696423,-7.945947542765822,-3.539130770750024,-5.71592664677127,0.014393090081005398,-0.7272019938524867,0.8398419502878434
1765408129.696673,-7.907265965632738,-3.536524683381625,-5.744853879103877,0.0145409937667407,-0.7342839003309776,0.8391985197332467
1765408129.696923,-7.893721893402916,-3.5343203454453826,-5.753840138909525,0.014874476617260459,-0.7407357532118859,0.8383765931611594
1765408129.697186,-7.9050673622465775,-3.5308657213772543,-5.742788721144223,0.015462757564192905,-0.7466153806476069,0.8373906988104085
1765408129.697436,-7.9399237610310625,-3.5246628831207967,-5.712523593318836,0.016361292595492027,-0.7520051673571548,0.8362655855115151
1765408129.697686,-7.995936123184612,-3.514499925748361,-5.664664339144761,0.017608831253569966,-0.757005614398572,0.8350349672617297
1765408129.697936,-8.069960207845819,-3.4995604754234915,-5.601468242835453,0.019225483151863523,-0.7617284698349864,0.8337396248937388
1765408129.698194,-8.158261540071047,-3.47949871611065,-5.525661135203001,0.02121198828726283,-0.7662900951697462,0.8324249500824302
1765408129.698527,-8.256711045618239,-3.454469786512456,-5.440274632475171,0.023550259468445415,-0.7708055388742641,0.8311380952037235
1765408129.698861,-8.360968568829724,-3.4251106927140467,-5.348502151823401,0.026205138584483423,-0.7753835582602305,0.8299249652583269
1765408129.699168,-8.466651219299598,-3.3924737103023563,-5.253579993732843,0.029127215235600686,-0.7801226003915367,0.8288273157096513
1765408129.699418,-8.569487504626881,-3.3579201050503866,-5.158692775832285,0.0322565004525714,-0.7851075707736739,0.8278802003527574
1765408129.699668,-8.665460614270538,-3.3229859397479578,-5.0668960289561005,0.03552670216104412,-0.7904071488190223,0.8271099630414389
1765408129.699918,-8.750944503899081,-3.2892341061095043,-4.981045425790698,0.0388697900426716,-0.7960714768183728,0.8265328955322016
1765408129.700171,-8.822834116304271,-3.2581077458290215,-4.9037232209010675,0.04222047742342485,-0.802130203458836,0.8261545977942372
1765408129.700421,-8.878667267641033,-3.230799703212843,-4.837156650608152,0.04552022103611729,-0.8085910177821864,0.8259699924494323
1765408129.700671,-8.916732769635415,-3.2081503499905817,-4.783127552039394,0.048720369962706254,-0.8154389068855324,0.8259638787765291
1765408129.700921,-8.93615860495009,-3.190582067723207,-4.742875905248776,0.0517841796789586,-0.8226363957685744,0.8261118791140274
1765408129.701172,-8.93697458523165,-3.1780735872714487,-4.717003177165007,0.05468752547633032,-0.8301249885583162,0.826381646741201
1765408129.701505,-8.920144173886964,-3.1701727031005755,-4.705385326656591,0.05741828451570231,-0.837827938624027,0.8267342675131478
1765408129.701839,-8.887559406596973,-3.166042786183979,-4.707109435703565,0.05997449931106993,-0.8456543393663821,0.8271258609344214
1765408129.702239,-8.841991894501941,-3.164537084033374,-4.720450310578569,0.06236157590319494,-0.8535043605633864,0.8275094204143949
1765408129.702489,-8.786992985649965,-3.164294317736096,-4.742902749645309,0.06458888775985713,-0.8612752840122141,0.8278369064322278
1765408129.702739,-8.726738268645281,-3.1638488909454767,-4.771281033252434,0.0666662350025143,-0.8688678500124527,0.8280615379412648
1765408129.702989,-8.665816501640482,-3.1617486107010366,-4.801889293846018,0.06860063748722124,-0.8761923390409735,0.8281401499236329
1765408129.703175,-8.60897092644376,-3.1566718274817336,-4.83075501936531,0.0703939115514435,-0.8831738018369497,0.8280354302374847
1765408129.703425,-8.560810179166559,-3.1475346407894262,-4.853905169160766,0.07204139410566364,-0.8897559352663194,0.8277178407656477
1765408129.703675,-8.525513188632974,-3.133578345000929,-4.8676546319187235,0.07353204360842079,-0.8959032855179665,0.8271670692174641
1765408129.703925,-8.506554677179226,-3.11442845000991,-4.868874058265551,0.07484997512764575,-0.9016017165508752,0.8263729237703009
1765408129.704167,-8.506475134846786,-3.090119348777727,-4.855208796237164,0.07597729034801298,-0.9068573453954842,0.8253356429732132
1765408129.704417,-8.526713559688762,-3.0610824441223405,-4.8252296823254035,0.07689786944969097,-0.9116943401024417,0.8240656363644931
1765408129.704667,-8.567514738221035,-3.0280996477543907,-4.778506519190316,0.07760163028598285,-0.916152053207435,0.8225826975028225
1765408129.704917,-8.62791612894438,-2.992227901727873,-4.715604467226946,0.07808865852899757,-0.9202819231198692,0.8209147425041033
1765408129.70522,-8.705812773113756,-2.954702972429987,-4.63801153913234,0.07837259697842523,-0.9241444541100916,0.8190961333311942
1765408129.705553,-8.79809230655698,-2.916831821359462,-4.548011549564436,0.07848276388369906,-0.9278064388874144,0.8171656612443657
1765408129.705887,-8.900826294299177,-2.879882753328251,-4.448521125504292,0.07846462637813562,-0.9313384678217127,0.815164295494267
1765408129.70616,-9.00949953592486,-2.844982139875761,-4.34291118663452,0.0783784468784806,-0.9348126920803279,0.8131328322390745
1765408129.70641,-9.119257401707783,-2.8130261214127557,-4.234831221867504,0.07829612337341538,-0.9383007530474068,0.8111095933625548
1765408129.70666,-9.2251538734545,-2.784614826194604,-4.128047916482927,0.07829644985099492,-0.9418717354865304,0.8091283207482306
1765408129.70691,-9.322388469759714,-2.760015002572105,-4.0263003576346215,0.07845921452954815,-0.9455899630041383,0.807216394937634
1765408129.707168,-9.406525367031946,-2.739154774367749,-3.933166591555884,0.07885870286893804,-0.9495124809552231,0.8053934816569114
1765408129.707418,-9.473690705817969,-2.721651529399355,-3.8519337969425553,0.07955725644820834,-0.953686194540505,0.8036706734135306
1765408129.707668,-9.520744865138903,-2.706870527555282,-3.7854664779725145,0.08059955208999157,-0.9581448134682501,0.8020501497673621
1765408129.707918,-9.54542648689513,-2.694007986328435,-3.7360719005724463,0.08200821290253604,-0.9629059189322058,0.8005253404546242
1765408129.708155,-9.546463870450124,-2.6821890101980164,-3.705368072048524,0.08378124914107749,-0.9679685540033822,0.7990815475636839
1765408129.708405,-9.52364659780335,-2.6705685275088986,-3.694165926826044,0.08589166103341422,-0.9733117389406826,0.7976969660180466
1765408129.708655,-9.477847771631644,-2.658422768980289,-3.7023820725717913,0.08828933372354487,-0.9788942517287562,0.7963440330293271
1765408129.708905,-9.410988418226175,-2.645219779905887,-3.728998647606436,0.09090512681454031,-0.9846559065452598,0.7949910314911763
1765408129.709161,-9.325941558876927,-2.6306600136785314,-3.772081671973617,0.09365681150907251,-0.9905204111351467,0.7936038644725932
1765408129.709494,-9.226381479800633,-2.614682456704175,-3.8288614919247443,0.09645625643165398,-0.996399698287147,0.7921479108297972
1765408129.709828,-9.116590255762853,-2.597437553868021,-3.8958717399039378,0.09921706042659725,-1.0021994328039574,0.7905898702272701
1765408129.710336,-9.001237428160612,-2.5792336020467603,-3.9691368176377178,0.10186174159540366,-1.0078252222693997,0.7888995077750148
1765408129.710586,-8.885150481795195,-2.560466332590045,-4.0443912721600075,0.10432765011687742,-1.0131889316864846,0.7870512128767411
1765408129.710836,-8.773093418595558,-2.5415418493928517,-4.117309147563876,0.10657095988705412,-1.0182144498997951,0.7850253010476124
1765408129.711086,-8.66956764023999,-2.522802133128419,-4.18372061875599,0.10856836358356822,-1.0228423205615758,0.7828090180138076
1765408129.711147,-8.578643807098818,-2.504461205298599,-4.239797877966463,0.11031639578468085,-1.0270328474477541,0.7803972424900403
1765408129.711397,-8.503827022729476,-2.4865592262927048,-4.282200232013647,0.11182858985322307,-1.030767559883626,0.7777929035927537
1765408129.711647,-8.447952673108276,-2.468940943677218,-4.308176935502995,0.11313090312179776,-1.034049177567587,0.7750071166492863
1765408129.711897,-8.413108161783105,-2.4512630565530826,-4.3156333884284,0.11425601622667585,-1.0369003704598172,0.7720590087892676
1765408129.712115,-8.400577276869292,-2.43303136442842,-4.303169933395743,0.11523723105183227,-1.0393616539459838,0.7689751800414593
1765408129.712448,-8.410807666493946,-2.4136635576440524,-4.270101374736965,0.1161027471786388,-1.0414887123547767,0.7657887497682432
1765408129.712782,-8.443404672810644,-2.392569215966395,-4.2164613342125925,0.11687106431352326,-1.0433493448271154,0.7625379780053221
1765408129.713115,-8.497154137464912,-2.3692367127082483,-4.142992507149249,0.11754812140962419,-1.0450201288112595,0.7592645098268742
1765408129.713365,-8.570073641655345,-2.3433170501456417,-4.051123328351279,0.11812655656809261,-1.0465828308139151,0.7560113404949694
1765408129.713615,-8.659489115187872,-2.314695655889036,-3.942931360388488,0.11858719955918434,-1.048120558990901,0.7528206231179667
1765408129.713865,-8.762133372462031,-2.2835438295874586,-3.821091978512818,0.1189026326553748,-1.0497136408589514,0.7497314409648036
1765408129.714124,-8.874263265388308,-2.250342162392606,-3.688809105211618,0.11904239302630011,-1.0514352396728095,0.74677765652839
1765408129.714374,-8.99179096447993,-2.2158698899069713,-3.5497251320508325,0.11897915660616092,-1.0533468207297354,0.7439859439073214
1765408129.714624,-9.110423472033371,-2.181157489345133,-3.4078091730661946,0.11869507932569648,-1.0554937342663364,0.7413741187371689
1765408129.714874,-9.22580504127672,-2.1474046657535104,-3.267224300397224,0.11818742611352921,-1.057901333467152,0.7389498931624733
1765408129.715096,-9.333659382394693,-2.1158710201569733,-3.132175421595224,0.11747270694561363,-1.0605721234971508,0.7367101800860558
1765408129.715346,-9.429930101236911,-2.0877507077195157,-3.0067415938056414,0.11658873130223782,-1.0634844155123055,0.7346410374886041
1765408129.715596,-9.510918169719726,-2.0640445817248416,-2.8946996312497766,0.11559424070206208,-1.0665928571937318,0.7327182927936657
1765408129.715846,-9.573415881771547,-2.04544400725847,-2.7993476805329047,0.11456605267445125,-1.0698310404698947,0.7309088404499064
1765408129.716093,-9.614837889446257,-2.032240120996487,-2.7233372978281225,0.1135939298338504,-1.0731161405364562,0.7291725628484622
1765408129.716426,-9.633349085528563,-2.0242704943170855,-2.668522452780374,0.11277364672849137,-1.076355239834421,0.7274647681950738
1765408129.71676,-9.627984494946034,-2.0209113720025123,-2.635835495885975,0.11219892811376539,-1.0794527111877834,0.7257389670952746
1765408129.717114,-9.59874996936636,-2.021117994466243,-2.6252020570882286,0.11195305227717015,-1.082317854822201,0.7239497479388826
1765408129.717364,-9.546688742740708,-2.0235089449934227,-2.635505973947599,0.11210095209581082,-1.084871932825828,0.722055491350976
1765408129.717614,-9.473900438412626,-2.0264846497066573,-2.6646104636209715,0.11268261264151617,-1.0870538117733057,0.7200206976317292
1765408129.717864,-9.383504655432159,-2.028366721705203,-2.7094350059303367,0.11370846311213527,-1.088823606997796,0.7178177730752086
1765408129.718166,-9.279547197428284,-2.0275441845529305,-2.766082343682557,0.11515729959934395,-1.0901640228081462,0.715428201560075
1765408129.718416,-9.166850734159537,-2.0226135632527917,-2.830008468149692,0.11697705814413294,-1.091079459801276,0.712843091496432
1765408129.718666,-9.050813516076383,-2.0125009642340648,-2.896229236171196,0.11908848334462808,-1.0915933121372738,0.7100631277545801
1765408129.718916,-8.937161871325028,-1.9965553728253596,-2.959557577928751,0.12139141640649219,-1.0917441004959274,0.7070979818983032
1765408129.71909,-8.831666163567643,-1.9746043316733939,-3.014863269959442,0.12377309746818098,-1.091581135875266,0.703965249578593
1765408129.719423,-8.73983522740426,-1.946966473804944,-3.0573433728821433,0.12611760434708594,-1.0911603059470922,0.7006889912665654
1765408129.719757,-8.666608970767527,-1.9144196130840014,-3.082787819329924,0.12831539832271774,-1.0905403809954146,0.6972979556692389
1765408129.720103,-8.61607070919484,-1.8781273825299398,-3.087823398240296,0.13027195130267397,-1.0897800298126292,0.6938235756188017
1765408129.720353,-8.591199165319836,-1.8395312096823342,-3.070120812971935,0.1319145736031721,-1.0889355733181811,0.6902978480709879
1765408129.720603,-8.593675920769034,-1.8002175071247197,-3.028552235479405,0.1331968036504056,-1.0880593846125186,0.6867512360218134
1765408129.720853,-8.623759271375512,-1.7617722740692459,-2.9632894244318173,0.13410001577308694,-1.0871987462276635,0.6832107513913133
1765408129.721142,-8.680231600039416,-1.7256369167467855,-2.875834259585998,0.13463221253593172,-1.0863949144873122,0.6796983826210107
1765408129.721392,-8.760425288304866,-1.6929798440931616,-2.76897448327455,0.13482426479296808,-1.0856821598860877,0.6762300045136647
1765408129.721642,-8.860330912235302,-1.6645975398911979,-2.646658942060977,0.1347241287019577,-1.085086655351196,0.672814846450495
1765408129.721892,-8.974788852985434,-1.640855618006144,-2.5137908396714805,0.13438978450174022,-1.0846252213116023,0.6694555151793551
1765408129.722143,-9.097760193746794,-1.6216751789991612,-2.3759448946726027,0.13388177166886833,-1.0843040573823692,0.6661484996878756
1765408129.722393,-9.222665807658256,-1.6065640549872517,-2.2390228006288764,0.1332562090001873,-1.0841176807764603,0.6628850496459687
1765408129.722643,-9.342775541159126,-1.5946876993455186,-2.108868941173924,0.13255908784100554,-1.0840483452287593,0.6596523140352462
1765408129.722893,-9.451622730395377,-1.5849710908177865,-1.9908746930022665,0.13182244120172867,-1.0840662072440563,0.656434637112319
1765408129.723112,-9.543412951008865,-1.5762207875407332,-1.8896048039699365,0.13106275372315213,-1.0841304262358196,0.6532149228219103
1765408129.723445,-9.613391833017472,-1.567254785854107,-1.8084813661958767,0.13028170947931772,-1.0841912601969417,0.6499759922959709
1765408129.723779,-9.65813821183156,-1.5570272661400912,-1.749557469819937,0.12946909396049164,-1.0841930905611308,0.6467018688458475
1765408129.724123,-9.675757093567574,-1.5447361483937891,-1.7134034977963257,0.12860740369310467,-1.084078187558614,0.6433789254807297
1765408129.724373,-9.665959720405127,-1.5299034962419853,-1.6991159717630422,0.1276775158388916,-1.0837908912861662,0.6399968196918873
1765408129.724623,-9.630031749407747,-1.5124211812995847,-1.7044438589281254,0.12666466015191202,-1.083281740343237,0.6365491276153413
1765408129.724873,-9.570702228739686,-1.4925562645819386,-1.7260123439873407,0.12556391335158196,-1.0825109931809844,0.6330335949524107
1765408129.72515,-9.491933841538867,-1.470913156851379,-1.759612407186885,0.12438448808608095,-1.0814510369661945,0.6294519670420845
1765408129.7254,-9.398658052808218,-1.4483541322396143,-1.8005196125992997,0.12315221745728605,-1.0800873859094362,0.6258094472745411
1765408129.72565,-9.296477932097613,-1.4258862006802915,-1.843808563488676,0.12190984425663592,-1.0784182708560754,0.622113928491806
1765408129.7259,-9.191358072539995,-1.4045290072116308,-1.884638447591139,0.1207149898170492,-1.0764531031646818,0.6183751923852241
1765408129.726115,-9.08931674856265,-1.3851829379830416,-1.918496154171976,0.1196359592574107,-1.0742102662293591,0.6146042439966687
1765408129.726448,-8.996131519373195,-1.3685170211007132,-1.9413931378433573,0.11874579928881725,-1.071714719215657,0.6108128592550911
1765408129.726782,-8.917066996654476,-1.3548919132555202,-1.9500183242853508,0.11811523881688579,-1.0689958245855908,0.6070133250463468
1765408129.727075,-8.856632936602638,-1.3443256288042356,-1.9418513657583965,0.11780529613720103,-1.066085689445115,0.6032182873644096
1765408129.727325,-8.818381271260211,-1.3365015413327803,-1.9152398938044963,0.11786040578113226,-1.0630181680347508,0.5994406058681583
1765408129.727575,-8.804750298049047,-1.3308121592315494,-1.8694433641289974,0.118302877970688,-1.059828502456647,0.5956931355169314
1765408129.727825,-8.816962156975526,-1.3264291492030353,-1.8046454957353244,0.11912935373967316,-1.0565533885433178,0.5919884064481802
1765408129.728144,-8.854977046650225,-1.3223894146539452,-1.721936238768168,0.12030968393624954,-1.0532310984365727,0.5883382341436032
1765408129.728394,-8.917505435799617,-1.3176877267887694,-1.6232625260717366,0.12178836945817581,-1.0499012388554836,0.5847533391876869
1765408129.728644,-9.002077042285961,-1.3113679442210178,-1.5113466726724332,0.12348838593991711,-1.0466037996337474,0.5812430706848839
1765408129.728894,-9.105161723427424,-1.302607002962558,-1.3895732524924653,0.12531693106118677,-1.043377322173959,0.5778153024223769
1765408129.729071,-9.222333948139092,-1.2907879343776387,-1.2618476933416418,0.12717243791956806,-1.040256236585707,0.5744765102679582
1765408129.729321,-9.348471083950578,-1.2755591280470073,-1.1324306116972505,0.1289521244906369,-1.0372676271293562,0.5712319602536311
1765408129.729571,-9.477976239279204,-1.2568763859640792,-1.0057518955656297,0.1305593767718647,-1.0344278536577165,0.5680858684842532
1765408129.729821,-9.605017587710941,-1.2350226464989948,-0.886209657418514,0.13191034623718492,-1.0317395626361745,0.565041370326493
1765408129.730085,-9.723777426410836,-1.2105992551587998,-0.7779613042465028,0.1329392506498293,-1.0291896455266252,0.5621001816099342
1765408129.730418,-9.828705240708327,-1.1844842303782552,-0.6847159167762836,0.133601994575087,-1.026748620350975,0.5592619413373732
1765408129.730752,-9.914768490484402,-1.1577577463227366,-0.6095390971162462,0.13387787172876878,-1.0243717202243217,0.5565233468392206
1765408129.731119,-9.977692333753904,-1.1316013668667233,-0.5546838958906347,0.13376927405616462,-1.0220017127861576,0.5538772728230484
1765408129.731369,-10.014177018041286,-1.1071826441950217,-0.5214625584469642,0.1332995121920144,-1.0195732121797199,0.5513120824221602
1765408129.731619,-10.022081267489522,-1.085538942767814,-0.510171013642986,0.13250904293779608,-1.0170180232228028,0.5488113062703301
1765408129.731869,-10.000561037310211,-1.0674739582701713,-0.5200715958401803,0.1314505774357968,-1.0142708969145768,0.5463538098373939
1765408129.732107,-9.950153289278397,-1.0534782144153318,-0.5494327829418953,0.1301836694582732,-1.0112750141748035,0.5439145035211784
1765408129.732357,-9.87279370735941,-1.0436814860193384,-0.5956204657342602,0.12876942354517193,-1.0079865935052224,0.5414655799382432
1765408129.732607,-9.771757969316619,-1.0378412002741753,-0.6552335004655881,0.12726590719937797,-1.0043782275158137,0.5389781946754303
1765408129.732857,-9.651520584126054,-1.035367068555171,-0.7242757480718685,0.1257247098501215,-1.000440810115611,0.5364244474774429
1765408129.733095,-9.517533167994728,-1.0353789423890392,-0.7983564115111551,0.12418888828042866,-0.9961841238352996,0.5337794765807616
1765408129.733345,-9.375933374912217,-1.0367922458885765,-0.872909598262496,0.12269231376863585,-0.9916362706317464,0.5310234541967706
1765408129.733595,-9.233204368799942,-1.0384232148659043,-0.9434224283572418,0.1212602400171831,-0.9868421616218531,0.5281432668678976
1765408129.733845,-9.095810639278346,-1.03910447432463,-1.005659470780553,0.11991078158340177,-0.9818612596831782,0.5251336797114801
1765408129.734092,-8.969837200661303,-1.0378002068134033,-1.055871542226066,0.11865693577704549,-0.9767647170428586,0.5219978211833683
1765408129.734425,-8.860655556348261,-1.033709499771892,-1.0909797679084652,0.11750877328620737,-0.9716319970314174,0.5187468904496446
1765408129.734759,-8.772633854440373,-1.0263467474367713,-1.1087295720372867,0.11647544453251191,-0.9665470452299684,0.5153990835851248
1765408129.735098,-8.708903974042048,-1.0155894393921872,-1.1078109990304015,0.11556670330159358,-0.9615940818781628,0.5119778461655605
1765408129.735348,-8.671196229574283,-1.0016864096525633,-1.0879404492348903,0.11479373894765535,-0.9568530991759338,0.5085096646749653
1765408129.735598,-8.659751388360206,-0.9852239938867635,-1.0498964750194097,0.11416921589502033,-0.9523951585027527,0.5050216827308648
1765408129.735848,-8.673317572667104,-0.9670537012512427,-0.995501379171961,0.1137065269549175,-0.9482776275375044,0.5015394517891769
1765408129.736169,-8.709235875525467,-0.948191644780452,-0.9275417853081918,0.11341837316325515,-0.944539595779689,0.4980850855760843
1765408129.736419,-8.76361402600062,-0.9297044152919886,-0.8496242356705359,0.11331488365502694,-0.9411978159492135,0.4946759861176809
1765408129.736669,-8.831582390675514,-0.9125965925423023,-0.7659659757693363,0.11340156589094393,-0.9382435740189395,0.4913241842470994
1765408129.736919,-8.9076201007814,-0.8977124901991599,-0.681127398835664,0.11367740949320872,-0.9356408793681714,0.4880362388120054
1765408129.737111,-8.985930954265314,-0.885661063116228,-0.5997012773536784,0.11413345291456549,-0.9333263164455969,0.48481358606266967
1765408129.737361,-9.060840686279581,-0.8767691743868142,-0.5259828813433276,0.11475207002664019,-0.9312108160937071,0.4816532095858536
1765408129.737611,-9.127182037222655,-0.8710645198562808,-0.4636514394548858,0.11550714263025763,-0.9291834659059641,0.4785484980481566
1765408129.737861,-9.180633955205924,-0.8682857253714062,-0.4154950941059966,0.11636514536846,-0.9271172806177013,0.47549017709582897
1765408129.738137,-9.21798650771691,-0.8679146438860483,-0.38320812266324844,0.1172869992699575,-0.9248766278451208,0.47246724614085694
1765408129.738387,-9.237311906584766,-0.8692256121221805,-0.36728152865291,0.11823040868334789,-0.9223257923766184,0.46946790143199696
1765408129.738637,-9.238032123580117,-0.8713478015069747,-0.36699722382988953,0.11915234043857623,-0.9193379863644647,0.4664804500668379
1765408129.738887,-9.220883369045671,-0.8733378643479589,-0.38052321403872247,0.12001133868885082,-0.9158039853593626,0.4634941987996476
1765408129.739162,-9.187786600240248,-0.8742592395376395,-0.40509467899023427,0.12076945468096553,-0.9116395246812264,0.46050026026879187
1765408129.739412,-9.141640708162736,-0.8732621840090785,-0.4372566526850492,0.12139366441160451,-0.9067906865230551,0.4574922016180656
1765408129.739662,-9.086060275287455,-0.8696567891222489,-0.47314065572484787,0.12185672541530825,-0.9012367734461982,0.4544664816994579
1765408129.739912,-9.02508213529353,-0.8629711924789455,-0.508750175730516,0.12213748506457665,-0.8949905369016535,0.4514226563970168
1765408129.740102,-8.962864610370584,-0.8529885056052099,-0.5402354898889494,0.12222070625835695,-0.8880959893903687,0.4483633501835256
1765408129.740352,-8.90340106763597,-0.8397578159782916,-0.5641433323311974,0.1220965242472073,-0.8806242842399731,0.4452939999552388
1765408129.740602,-8.850265805358744,-0.8235770233788078,-0.5776298768885465,0.12175968012126093,-0.8726682726820659,0.4422223913506783
1765408129.740852,-8.806405486161568,-0.8049486184259739,-0.5786276282970663,0.1212086883498276,-0.8643363566120228,0.43915803149210336
1765408129.741103,-8.773984354549004,-0.7845132590378134,-0.5659595466701574,0.12044509531572246,-0.8557461708461886,0.43611142459437485
1765408129.741436,-8.754287805755029,-0.7629688203963948,-0.5393968219875312,0.11947296868991145,-0.8470184833201043,0.4330933268887724
1765408129.74177,-8.747686849600958,-0.7409838467377171,-0.49965900487550347,0.11829870675424854,-0.83827153423562,0.43011405548068526
1765408129.742109,-8.753664197241774,-0.7191145986845925,-0.44835657053396316,0.11693117501942814,-0.8296158867639943,0.4271829209360844
1765408129.742359,-8.770899392934666,-0.6977347408753719,-0.38787774783451656,0.11538209300982886,-0.8211497701673646,0.4243078439400827
1765408129.742609,-8.797405388301085,-0.6769857654064966,-0.3212248368232837,0.11366653003801262,-0.8129548788161614,0.42149519074464425
1765408129.742859,-8.830703782527841,-0.656753949272647,-0.25180985380631704,0.1118033295820776,-0.8050926381762049,0.41874982247932147
1765408129.743148,-8.868022883879014,-0.6366763545131031,-0.18322312607585436,0.10981527022114927,-0.7976010371051949,0.4160753188198551
1765408129.743398,-8.906502576663351,-0.6161751030604457,-0.11898997608197134,0.10772879582423767,-0.7904922247932122,0.4134743199065052
1765408129.743648,-8.943390861417672,-0.5945166717054399,-0.06233121894601142,0.1055732103760873,-0.7837511516811196,0.4109489267606819
1765408129.743898,-8.976216722216735,-0.5708913309975833,-0.01594516642457149,0.10337932178155006,-0.7773355788661979,0.408501095756968
1765408129.74414,-9.002923732242513,-0.5445064892682905,0.018168634223928688,0.10117762052010788,-0.7711777714785861,0.40613294933389565
1765408129.74439,-9.021952053368798,-0.5146859722411329,0.038824520875343875,0.09899618053510222,-0.7651880906934669,0.40384691318468724
1765408129.74464,-9.032264555185249,-0.48096545096579585,0.04569167955930248,0.09685854755944219,-0.7592604781378989,0.4016455995721436
1765408129.74489,-9.03332290355986,-0.4431733841775751,0.03925794455723726,0.09478190286462639,-0.7532795226460689,0.3995313935763883
1765408129.745106,-9.025027661700172,-0.40148753589308783,0.02072383707056562,0.09277574821135211,-0.7471285099251528,0.3975057510489659
1765408129.745356,-9.007640466086086,-0.3564589651396986,-0.008156733955801387,0.09084127585385221,-0.7406976642289524,0.3955682701196738
1765408129.745606,-8.981705655824573,-0.30899804138184556,-0.0452662794507165,0.08897150157099211,-0.7338917234429646,0.39371564934022524
1765408129.745856,-8.947983692931762,-0.2603209094035018,-0.08831921931320329,0.08715216731982392,-0.726636041045003,0.39194069206241716
1765408129.746111,-8.907401091687358,-0.21185999071503211,-0.13504129734383852,0.08536336349602543,-0.7188805762582556,0.39023154525840936
1765408129.746361,-8.861014941661931,-0.16514737354251863,-0.1833171586477251,0.08358176860407354,-0.7106014022518738,0.388571355479127
1765408129.746611,-8.809987677504047,-0.12168361374297357,-0.23129606298039926,0.08178333668174803,-0.7017996916504295,0.38693847790602903
1765408129.746861,-8.755569456063427,-0.0828057885384014,-0.2774501282482928,0.07994616626364318,-0.6924984755094317,0.3853072933780883
1765408129.747152,-8.699088079538509,-0.04956810392157777,-0.32058391060106517,0.07805318281890031,-0.6827377635484222,0.38364959314703595
1765408129.747402,-8.64194664245978,-0.02264669447023036,-0.3597996973815491,0.07609422137266013,-0.6725688081254403,0.3819364058510107
1765408129.747652,-8.585626569499166,-0.002277553618162083,-0.3944289003327478,0.07406715285022339,-0.6620483452787669,0.3801400787787925
1765408129.747902,-8.531690386913812,0.011767402842292713,-0.4239445472219704,0.07197783915561319,-0.6512335398773964,0.37823638907360796
1765408129.74811,-8.481776393143091,0.020165759173528506,-0.44787184869853425,0.06983887158613235,-0.640178147832153,0.37620645729087315
1765408129.74836,-8.437577204105489,0.02399512956878359,-0.4657130731944504,0.06766720435106548,-0.6289301715487395,0.37403827476691437
1765408129.74861,-8.400796181000825,0.02465482294429152,-0.47689989567655733,0.06548093130488447,-0.6175310776780937,0.3717277297542729
1765408129.74886,-8.373079822396194,0.023765541744857333,-0.48078160141459086,0.06329557064946416,-0.6060164631413397,0.3692790972562092
1765408129.749124,-8.355929287704702,0.023054126504437774,-0.4766519306649688,0.06112031152203855,-0.5944178757337277,0.3667050176694545
1765408129.749374,-8.350598833035352,0.024230416359859622,-0.4638116801447497,0.05895472282894228,-0.5827653299092818,0.36402602237383
1765408129.749624,-8.357992117902754,0.028863428530636476,-0.4416586490627487,0.05678641386848298,-0.5710899486749885,0.3612696734236516
1765408129.749874,-8.378568784176563,0.03826409573298023,-0.40979153071013424,0.05459006018692561,-0.5594261483724684,0.35846937012197777
1765408129.750109,-8.412273336104876,0.05338187263788255,-0.36811111980689837,0.052328069419380153,-0.5478128722642863,0.35566284357295824
1765408129.750359,-8.458496217700509,0.07472286102131127,-0.3169020206689405,0.04995297545158971,-0.5362935480301823,0.35289033506204004
1765408129.750609,-8.516073358809596,0.10229726655073888,-0.2568811771461058,0.04741144007910575,-0.5249146561074222,0.3501924646637737
1765408129.750859,-8.58332559938265,0.13560299079936985,-0.1892054192707252,0.04464954028571202,-0.5137230101689211,0.3476078520630322
1765408129.751231,-8.658133589899982,0.17364943401108543,-0.1154379386595732,0.04161885494726505,-0.5027620362219536,0.3451706334047899
1765408129.751431,-8.738038097255727,0.2150214996002885,-0.037481397635458186,0.03828275508441193,-0.49206748024955344,0.34290809389654947
1765408129.751631,-8.820352394316458,0.25797922958279224,0.04250972732397568,0.034622255662479944,-0.48166307350604914,0.34083867623505193
1765408129.751831,-8.902274560661322,0.30058447535164984,0.12222522934375947,0.03064081074651144,-0.4715567249521799,0.33897061039273907
1765408129.752031,-8.980992527191384,0.34084334934560323,0.1992957992143651,0.026367525980110697,-0.461737767072566,0.3373013400674705
1765408129.752169,-9.053780466341024,0.37685210719908907,0.2713873471410339,0.02185840677821731,-0.4521756520781642,0.3358178165480837
1765408129.752419,-9.11808869037353,0.40693422425666903,0.3362929397213629,0.01719543665185451,-0.44282031845112196,0.33449762193780636
1765408129.752669,-9.171629912316437,0.42975756424849937,0.39202263686151056,0.012483472279184876,-0.4336042726106403,0.3333107907330266
1765408129.752919,-9.212463541030699,0.4444229052351467,0.4368905393313134,0.007845134341763964,-0.4244462760052656,0.3322221298115852
1765408129.753142,-9.239077422156635,0.450518664276464,0.46959653291430603,0.0034140453249074587,-0.4152563826239298,0.33119379808376015
1765408129.753392,-9.250463418410435,0.44814068223638415,0.489297723592924,-0.0006731004609533773,-0.405941933708543,0.3301879043984621
1765408129.753642,-9.24618019667483,0.4378792083570107,0.49566229694593894,-0.004285064149757997,-0.3964140118325942,0.329168913596021
1765408129.753892,-9.226394922348206,0.4207769157118886,0.4888979551242889,-0.007304582841821683,-0.3865938125610482,0.3281057023978741
1765408129.754106,-9.191896571220719,0.39826202931649685,0.46974921395569474,-0.00963629086727326,-0.37641840663143794,0.32697316080335603
1765408129.754356,-9.144077538100682,0.37206049773028654,0.4394625374951346,-0.011213495139640879,-0.3658454155503439,0.32575327719427266
1765408129.754606,-9.084885366859108,0.34409152055766556,0.3997237740935225,-0.012003332242776204,-0.35485619144671365,0.32443567517908584
1765408129.754856,-9.016749528879942,0.31635172728834826,0.35257569775098746,-0.012009934207310127,-0.34345718585814156,0.32301759750026776
1765408129.755098,-8.942487701703824,0.29079439618755565,0.3003229788007555,-0.011275347812911275,-0.33167934084054207,0.32150336580586436
1765408129.755348,-8.86519414000926,0.2692109320781431,0.24542933557071742,-0.009878083928798785,-0.3195755525281194,0.3199033821374144
1765408129.755598,-8.788112778853185,0.25312227421688865,0.19041015174413248,-0.007929319261408102,-0.3072164977030792,0.3182327723023798
1765408129.755848,-8.71449993598804,0.2436877350765389,0.13772417926922992,-0.005566934444728773,-0.29468529546795585,0.31650980148243124
1765408129.756117,-8.647483483923471,0.24163750077885376,0.08966823251710118,-0.002947747281184725,-0.2820715522422538,0.3147542123522791
1765408129.756367,-8.589925952615458,0.24723258321544075,0.048278261779683154,-0.00023847006402332057,-0.2694653307811621,0.3129856286642012
1765408129.756617,-8.544299363171701,0.2602531966880218,0.01524024528311444,0.0023939549585333636,-0.2569515339180423,0.3112221224690382
1765408129.756867,-8.51258035119481,0.2800144111914091,-0.008184438009370208,0.004791944658322031,-0.24460511268870155,0.3094789737722374
1765408129.757069,-8.496173908758829,0.3054069528139983,-0.021213529348080386,0.006816131562388153,-0.23248739504357796,0.30776758769656903
1765408129.757319,-8.495871635522123,0.33496080181853294,-0.023573108824752376,0.008352928042138061,-0.22064370697754024,0.30609450702893504
1765408129.757569,-8.511846792211646,0.3669290750484971,-0.015497587303647111,0.009320365568399408,-0.209102349329297,0.3044604802900936
1765408129.757819,-8.543685454800016,0.3993890609633305,0.0023019318819783928,0.009671914974915999,-0.19787489650397655,0.30285960243720783
1765408129.758131,-8.590450677619872,0.4303560276941896,0.028700927073942117,0.009398129891707697,-0.18695768452555558,0.3012786086874987
1765408129.758381,-8.650773702459583,0.4579036482722202,0.06225248768957859,0.00852608180594116,-0.17633427471508306,0.299696449244799
1765408129.758631,-8.722963189762801,0.48028303802988204,0.10129787065947674,0.007116672577723022,-0.16597864499995116,0.2980842872284532
1765408129.758881,-8.805121916570483,0.49603128478916836,0.14408560295322867,0.005260025164091177,-0.15585886024322299,0.29640603235108276
1765408129.759079,-8.895261168535045,0.504060723947361,0.18888787953957442,0.003069267299415122,-0.14594096666805392,0.294619455530757
1765408129.759279,-8.991405073972716,0.5037221865134304,0.23410430380806665,0.0006731238705849051,-0.13619283664117124,0.2926778508248948
1765408129.759479,-9.091679056432298,0.494838316529206,0.27834489548603064,-0.001792195502383763,-0.12658768812508828,0.29053214797099436
1765408129.759679,-9.194378152789406,0.4777057785813149,0.32048681175263233,-0.004191292255531082,-0.11710703482762215,0.28813334300417254
1765408129.759879,-9.298012467057747,0.45306725397107206,0.35970247650765874,-0.006397533777675255,-0.10774287596912485,0.2854350982332605
1765408129.760089,-9.401328680668993,0.422055839702497,0.39546006316054316,-0.008300173244839594,-0.09849899553542356,0.28239634962590454
1765408129.760339,-9.50330848619721,0.38611619362013916,0.4274998334151532,-0.009810206190660057,-0.08939131093435046,0.2789837438266365
1765408129.760589,-9.603147216419908,0.34690832502201063,0.45579176769978585,-0.010864632399145674,-0.0804472884292286,0.2751737202422781
1765408129.760839,-9.70021842587494,0.30620084528533137,0.48048143486511685,-0.011428909738155892,-0.0717045133294854,0.27095406665904814
1765408129.761156,-9.794031809854717,0.2657606975893504,0.5018318053631989,-0.011497516580783107,-0.06320855647066823,0.2663248073028777
1765408129.761406,-9.884191906911706,0.22724628701691008,0.5201682017038082,-0.011092669999814947,-0.055010322161287865,0.26129832457743446
1765408129.761656,-9.97036356581014,0.1921108722057753,0.5358317885398506,-0.010261367456674816,-0.04716310327223031,0.2558986710981402
1765408129.761906,-10.052247704938477,0.16152288601117856,0.5491445120090599,-0.009071026052021567,-0.03971959242967198,0.25016010043932196
1765408129.762191,-10.129568171473526,0.13630900947099228,0.5603860052479765,-0.007604082521913439,-0.03272908520973597,0.2441249288050103
1765408129.762391,-10.202068362213428,0.11692402049413794,0.5697813261958726,-0.005951980123528989,-0.02623506238631957,0.23784091903267232
1765408129.762591,-10.269515270071464,0.1034488838772488,0.5774976282076715,-0.004208992385217692,-0.0202732686727637,0.23135843393100836
1765408129.762791,-10.331708523654669,0.09561576408721109,0.583647579404894,-0.0024663109469114024,-0.014870331427842831,0.22472763135841262
1765408129.762991,-10.388492068070372,0.09285603789560667,0.5882971963054059,-0.0008067643207270015,-0.010042901786353824,0.21799597007240026
1765408129.763146,-10.439766127351525,0.09436515971761678,0.5914759191482962,0.0006995420242697355,-0.005797265266743155,0.21120625627305467
1765408129.763346,-10.48549736353132,0.09917672891416472,0.5931874824312305,0.0019984527505941094,-0.002129358792042096,0.2043953764330009
1765408129.763546,-10.525726020011705,0.10623793117993588,0.593421225491489,0.0030537301383246926,0.0009748622988960642,0.19759374470978852
1765408129.763746,-10.5605700138362,0.11447992932298781,0.592164385312812,0.003847729817566689,0.003538748844665427,0.1908253811934251
1765408129.763946,-10.590226690175026,0.1228790774113075,0.5894160044730582,0.004380848110661649,0.0055939992509393445,0.18410846802866057
1765408129.764201,-10.614972801074801,0.13050684664451037,0.5852021778705508,0.004669885589792871,0.007179430616197186,0.17745621272004103
1765408129.764451,-10.635162479915145,0.1365674632602584,0.579591078643626,0.004745529786782342,0.008339492034588426,0.17087786087370693
1765408129.764701,-10.651222197630249,0.14042283562506808,0.5727054418947881,0.004649195515247524,0.00912255121578052,0.16437971969660423
1765408129.764951,-10.663641300745285,0.14160515431107398,0.5647301365919862,0.004429477366620391,0.009579020073213056,0.15796607321606
1765408129.765167,-10.672956836730163,0.13981884518632628,0.5559127438478476,0.004138469167174104,0.009759418341907175,0.15163990191446908
1765408129.765367,-10.67973204673487,0.13493474657983134,0.5465556234661971,0.0038281934065226082,0.009712491743689025,0.14540337237196807
1765408129.765567,-10.684529153343961,0.12697959345315318,0.536999132565011,0.0035473611804643325,0.009483503349510434,0.13925812657329065
1765408129.765767,-10.687878566067075,0.11612292436053416,0.5275974953982303,0.00333864609125259,0.009112811913647439,0.13320544885670907
1765408129.765967,-10.69024777660304,0.10266212665169343,0.518690684119966,0.003236601375386874,0.00863483845260276,0.1272463984870611
1765408129.766158,-10.692013531849987,0.08700550904517103,0.5105766637689786,0.0032662854688299465,0.008077491235663658,0.12138196826480016
1765408129.766358,-10.693440269671532,0.06965345334913614,0.5034880030370278,0.0034425985051534476,0.007462065376672488,0.11561328594423208
1765408129.766558,-10.69466657575051,0.05117842971882185,0.49757540575622217,0.003770276010965533,0.006803571278529396,0.10994184068696637
1765408129.766758,-10.695700035927745,0.03220517039803058,0.4928988753991862,0.004244438454458926,0.0061113992039347345,0.1043697051157597
1765408129.766958,-10.69641978308029,0.013392120269505805,0.4894256828997547,0.0048515635723055195,0.005390207115033484,0.09889973056420523
1765408129.767155,-10.696585570051667,-0.004585408066949227,0.48703355028892764,0.005570740951200452,0.0046409252891226795,0.09353570266745742
1765408129.767355,-10.69585227883237,-0.021050671441835447,0.48551764233155487,0.006375084690646792,0.003861799442050337,0.08828244613771187
1765408129.767555,-10.693789035104528,-0.03534032717406442,0.4846007734771602,0.007233209669267995,0.0030494317328254974,0.08314586625718205
1765408129.767755,-10.689902244592778,-0.04681981343995114,0.4839470844035269,0.008110707574874244,0.0021998040374760853,0.07813291775389579
1765408129.767955,-10.683661904805733,-0.05490066435093688,0.4831798336858978,0.008971584089244634,0.0013092662281073576,0.0732514964544497
1765408129.768162,-10.674530569856937,-0.059061007640420826,0.4819037473242336,0.009779638441189316,0.00037545227005121736,0.06851025001995456
1765408129.768362,-10.661994317123382,-0.05886973715850324,0.4797316735391934,0.010499780291365227,-0.0006019324100087058,0.06391830427921008
1765408129.768562,-10.645594835148199,-0.05401362793525706,0.4763142382067866,0.011099282925601214,-0.0016205163592525407,0.059484907661933234
1765408129.768762,-10.624961256118892,-0.044325485276127334,0.47136995542387516,0.011548966266622662,-0.0026749169343425055,0.055219008053051744
1765408129.768962,-10.599839784927848,-0.029810697850295626,0.46471226900058776,0.011824294421075585,-0.0037566776313950933,0.05112878793639337
1765408129.769107,-10.570118924226934,-0.010669295000232963,0.4562699696361391,0.011906364786661662,-0.004854484759736548,0.04722119006945098
1765408129.769357,-10.535848375686944,0.012689390079780425,0.44609854756183553,0.011782759161625604,-0.005954622739839479,0.043501468357201686
1765408129.769607,-10.4972502748162,0.03964211155001623,0.43438157334601374,0.011448222264219064,-0.007041603387864694,0.03997280044547645
1765408129.769857,-10.454721884859593,0.06935927780406818,0.42142225442881626,0.010905131461752926,-0.008098902054163422,0.03663599808497404
1765408129.770167,-10.408829152632586,0.1008260372441495,0.4076258148654733,0.01016372370505159,-0.00910974652388626,0.03348934337494629
1765408129.770367,-10.360290873784145,0.1328774194875033,0.39347385824094827,0.009242049677644793,-0.010057918074126143,0.03052856253056038
1765408129.770567,-10.309953780270957,0.1642473851333999,0.379492675370332,0.008165627126832267,-0.010928525889006292,0.027746928392363816
1765408129.770767,-10.258759481728735,0.19363098928795497,0.36621822166456885,0.006966761725726199,-0.011708707203299187,0.025135465393957127
1765408129.770967,-10.207704687096664,0.2197579762491011,0.3541608415680088,0.005683496403711425,-0.012388198467630507,0.022683223934334373
1765408129.771213,-10.15779656757409,0.24147469842479033,0.3437727331607763,0.004358147992521225,-0.012959728438134366,0.020377602377629794
1765408129.771413,-10.110005582027094,0.2578290939509403,0.33542066430078926,0.00303540555254375,-0.013419202878956114,0.018204724564120867
1765408129.771613,-10.065218474150896,0.26815071737989754,0.3293655288552963,0.001760007259070785,-0.013765675676251747,0.01614991452483539
1765408129.771813,-10.024194377273284,0.27211536873498654,0.3257492293557969,0.0005740836269458963,-0.014001125373549982,0.01419832267888243
1765408129.772013,-9.987527085111285,0.269783177063351,0.3245886961121769,-0.0004856570302329444,-0.014130074574849287,0.012335730444009319
1765408129.772161,-9.955616566136674,0.26160123097075405,0.325776853657318,-0.001390643860871814,-0.01415909952161288,0.01054949796664968
1765408129.772361,-9.928652514978673,0.24836696043976786,0.32909054099963303,-0.002122756758121655,-0.01409627820866324,0.008829550471664931
1765408129.772561,-9.90661195616675,0.23115513597793452,0.3342051970599406,-0.002675943935739378,-0.013950621320173223,0.00716925507984304
1765408129.772761,-9.889271717603824,0.21121764109531826,0.3407155796758788,-0.003056915291034259,-0.01373152625144369,0.005566040706822483
1765408129.772961,-9.876235205350579,0.18986934641794212,0.34816132243302017,-0.0032847899604721616,-0.013448291119780171,0.004021657604043448
1765408129.773182,-9.866971436487967,0.1683744773421243,0.3560558060372363,-0.0033897010697131955,-0.01310971807410306,0.0025420417790758105
1765408129.773382,-9.860862753752299,0.1478459343245441,0.36391633319241834,-0.0034104780911559875,-0.012723821233663628,0.0011368154525934267
1765408129.773582,-9.857256376552053,0.1291662347998943,0.37129303537242875,-0.0033916191459413872,-0.012297640525914566,-0.00018150537922584261
1765408129.773782,-9.8555144937988,0.11293468624017645,0.37779388952356235,-0.003379823677298101,-0.011837156951972572,-0.0013985175237948635
1765408129.773982,-9.855058186270215,0.0994423099848658,0.3831039445158186,-0.0034203807614199486,-0.011347307311592789,-0.002499083230654704
1765408129.774175,-9.85540167804221,0.08867417704922899,0.38699785649340634,-0.003553705823697106,-0.010832098836882409,-0.0034685662139940466
1765408129.774375,-9.856174714655493,0.08033744928216935,0.3893454962278318,-0.003812295411416141,-0.010294820636281515,-0.004294074346739987
1765408129.774575,-9.85713211881005,0.07391162325180257,0.3901107267243353,-0.004218329352678336,-0.0097383403526404,-0.004965608090384396
1765408129.774775,-9.85815094052469,0.06871520378368859,0.38934389005260245,-0.004782091576069714,-0.009165462594455772,-0.005477004725238281
1765408129.774975,-9.859217002656266,0.0639812413607531,0.3871692090081958,-0.00550130569635033,-0.008579310975350796,-0.005826591196378814
1765408129.775151,-9.860403605102706,0.05893382246664408,0.3837688168006904,-0.006361396966873925,-0.007983683246952457,-0.006017503953780206
1765408129.775351,-9.861845411129492,0.05285873466643006,0.3793651361522116,-0.007336612270439433,-0.007383328057323312,-0.00605767810508647
1765408129.775551,-9.863710292020789,0.045163320869320595,0.37420296050543456,-0.008391866779455272,-0.006784105304537568,-0.00595953415774471
1765408129.775751,-9.86617152911037,0.03542220422043539,0.36853220545989457,-0.009485144358865844,-0.00619301257459359,-0.005739401151057962
1765408129.775951,-9.869382441551943,0.023406948116385586,0.3625921105732243,-0.010570256811723069,-0.0056180778231227305,-0.005416721743260926
1765408129.776118,-9.873455212866848,0.009099043576241087,0.3565976865059296,-0.011599761926334565,-0.005068130167793174,-0.0050130938139319806
1765408129.776368,-9.8784453908404,-0.007313058431576985,0.35072931463657586,-0.012527850419006333,-0.0045524693443593865,-0.00455121134957149
1765408129.776618,-9.88434315193878,-0.025451082563999954,0.34512639999479733,-0.013313033801274568,-0.004080461383561168,-0.004053770250866026
1765408129.776868,-9.891071820823784,-0.04477586200115278,0.3398856101750065,-0.013920492718190415,-0.0036610916937577704,-0.0035424023302305123
1765408129.777116,-9.898493315284368,-0.06462553994249175,0.33506350055628653,-0.014323973119390158,-0.003302507645991706,-0.003036696734598229
1765408129.777316,-9.906419375853767,-0.0842604859003842,0.33068257525575895,-0.014507143817592277,-0.0030115838578047963,-0.002553365067389249
1765408129.777516,-9.914626889534022,-0.10291218789868713,0.3267394393340639,-0.014464355074957533,-0.0027935438640247206,-0.002105603550426535
1765408129.777716,-9.922875362529364,-0.11983296721265303,0.3232136995207915,-0.014200767803261054,-0.0026516679615220585,-0.001702697577677569
1765408129.777916,-9.930924540342936,-0.13434299415848827,0.32007645949312313,-0.013731859277079752,-0.002587108480444112,-0.0013498956661776571
1765408129.778159,-9.938550324672523,-0.14587122581894796,0.3172975206863532,-0.01308235114552956,-0.0025988239928544515,-0.001048552113793398
1765408129.778359,-9.945557581698345,-0.15398773325669246,0.3148507578171938,-0.01228464273104101,-0.00268363455877008,-0.0007965101795023034
1765408129.778559,-9.951789103448894,-0.15842605988376496,0.3127175104855266,-0.011376862157031646,-0.00283638996715399,-0.0005886811266158007
1765408129.778759,-9.957130626426787,-0.15909514459928376,0.3108880710387007,-0.010400667534667573,-0.0030502329005546655,-0.0004177703243561865
1765408129.778959,-9.961512249724024,-0.15608075337461588,0.3093614716012469,-0.009398939208766444,-0.0033169328668853247,-0.0002751005957018502
1765408129.77916,-9.964906829933513,-0.1496366220029244,0.30814391471935293,-0.008413501632456619,-0.0036272666389967085,-0.00015147707618431562
1765408129.77936,-9.967326013916127,-0.1401659679296486,0.30724633063741463,-0.007483001613713497,-0.003971423720548945,-3.8030027565438566e-05
1765408129.77956,-9.968814523921202,-0.1281946403181635,0.30668152576136387,-0.006641052037236723,-0.004339416610798245,7.302815323240954e-05
1765408129.77976,-9.969443213095321,-0.11433769803811533,0.30646122869819287,-0.0059147301933470085,-0.004721475344747259,0.0001877845621550821
1765408129.77996,-9.969301401722069,-0.09926155938917597,0.30659323788728565,-0.005323500172224703,-0.005108406589384839,0.0003101832076940313
1765408129.780839,-9.96848910447229,-0.08364416707221263,0.3070788930345773,-0.004878610219544319,-0.005491898975790941,0.0004417821847403913
1765408129.781039,-9.96710982299574,-0.06813587693753193,0.30791111728056497,-0.004582995572643253,-0.005864756305255622,0.0005817228360619145
1765408129.781239,-9.965264503510845,-0.05332383864956059,0.30907325990414675,-0.0044316901209526145,-0.006221041313035445,0.0007269067548365375
1765408129.781439,-9.963047092563325,-0.03970234753262732,0.31053895292401407,-0.004412714588974412,-0.0065561193397582285,0.0008723547663037772
1765408129.781639,-9.96054192207371,-0.02765107525001904,0.31227312718075373,-0.0045083690227761776,-0.006866603171010094,0.0010117024975137142
1765408129.781157,-9.957822898460162,-0.017422392340259257,0.3142341274026905,-0.0046968213267800365,-0.007150213658816762,0.0011377772499569724
1765408129.781357,-9.954954188706427,-0.00913823783227359,0.3163766187508515,-0.004953859882101946,-0.007405582819840494,0.0012432012095502636
1765408129.781557,-9.951991913957386,-0.0027961712306558144,0.3186548699406078,-0.0052546710797239625,-0.00763203392985739,0.0013209727819782553
1765408129.781757,-9.948986343298477,0.0017165386093810897,0.3210260042277408,-0.005575509749960097,-0.0078293729122792,0.001364987663418439
1765408129.781957,-9.945984143660871,0.004602511238313463,0.32345276833595404,-0.005895147025142657,-0.007997717014030674,0.0013704716680400704
1765408129.782142,-9.94303029226031,0.006129586083088859,0.3259053077644118,-0.006196003423288725,-0.008137375270432488,0.0013343063340504383
1765408129.782342,-9.940169309699444,0.006604072157406408,0.32836154905457615,-0.0064649046718772115,-0.008248784969629833,0.0012552355825648982
1765408129.782542,-9.93744557598088,0.006344080252739074,0.3308061088597623,-0.006693433214180433,-0.008332499519854718,0.0011339480629910552
1765408129.782742,-9.934902658080404,0.005654864247659127,0.3332279968174032,-0.00687788639640649,-0.00838921500232886,0.0009730358614000071
1765408129.782942,-9.932581802095399,0.004807645075146442,0.33561762459147154,-0.007018887896279321,-0.008419816788842217,0.0007768370673618505
1765408129.783187,-9.93051998432956,0.004022879442112036,0.3379637681430167,-0.007120725798935259,-0.008425425944792534,0.0005511786175457405
1765408129.783387,-9.928748043528275,0.0034585372033301654,0.34025111512847667,-0.0071905041689077085,-0.008407427371435745,0.00030304507329202235
1765408129.783587,-9.927289327088314,0.0032036803237548914,0.34245882141139383,-0.007237194798351701,-0.00836746634809557,4.020378892150076e-05
1765408129.783787,-9.92615905344297,0.0032774010594422446,0.34456019823753464,-0.007270666252445243,-0.008307407223956129,-0.00022918522481668764
1765408129.783987,-9.92536438432395,0.003632933575605398,0.34652341774632767,-0.007300754867155895,-0.008229257817947104,-0.0004969531762052633
1765408129.784224,-9.924905072821959,0.004166502181070603,0.34831300613949956,-0.007336432631600043,-0.008135074292380256,-0.0007552849830753418
1765408129.784424,-9.924774476501964,0.00473017854432645,0.34989183646145733,-0.007385120284150143,-0.008026870497873574,-0.0009970474330928563
1765408129.784624,-9.924960702264045,0.005147689581214645,0.3512233104094025,-0.00745218534776257,-0.007906558576437205,-0.001216068158241458
1765408129.784824,-9.925447696058871,0.005231863761286929,0.35227345720480174,-0.007540650661622523,-0.007775940965094821,-0.0014073496243184075
1765408129.785024,-9.926216170444768,0.004802349219420776,0.3530127916703099,-0.007651121260868116,-0.0076367600395872565,-0.0015672066936245667
1765408129.785105,-9.927244340719556,0.0037023488311089267,0.3534179261395978,-0.007781919411818996,-0.007490797361748314,-0.0016933237230267542
1765408129.785305,-9.928508514349174,0.001813249456618468,0.3534730415851588,-0.007929400327062176,-0.007340004935736317,-0.0017847324225877836
1765408129.785505,-9.92998362724622,-0.0009338946219669793,0.3531713241814292,-0.008088405556824337,-0.007186645286853272,-0.0018417143345620434
1765408129.785705,-9.931643806458093,-0.0045509467845380415,0.35251637876221725,-0.008252799401039962,-0.007033412881194113,-0.0018656356614684486
1765408129.785905,-9.933462968330305,-0.00898998888834271,0.35152351879535637,-0.008416028402668975,-0.0068835067268961676,-0.0018587294791748323
1765408129.786148,-9.935415366603278,-0.01414553477261254,0.35022073640411616,-0.00857164721257892,-0.006740626197956211,-0.0018238491040867822
1765408129.786348,-9.937475904994699,-0.019861339117919374,0.3486490437486381,-0.008713765808022324,-0.006608872446377185,-0.0017642221397744097
1765408129.786548,-9.939619967201788,-0.02594104235335265,0.3468617776010101,-0.008837389170172207,-0.006492555674916211,-0.001683233641621005
1765408129.786748,-9.941822569678454,-0.032161593125080025,0.3449225029960563,-0.008938635836636398,-0.006395927766513001,-0.0015842581263569655
1765408129.786948,-9.944056828964646,-0.03828823858521565,0.34290142148934033,-0.009014834985431458,-0.006322872209714599,-0.0014705470522662712
1765408129.787074,-9.94629198581046,-0.04408985242380238,0.3408706037429371,-0.009064514878946344,-0.006276585525271775,-0.0013451666048023157
1765408129.787274,-9.948491450681596,-0.04935345230585682,0.3388987509641077,-0.009087307957419305,-0.006259279603627815,-0.0012109749195054757
1765408129.787474,-9.950611445785414,-0.05389689446165352,0.33704638115719826,-0.009083805161796944,-0.0062719281427984115,-0.0010706286718932313
1765408129.787674,-9.952600733091415,-0.05757888697649507,0.3353622237275793,-0.009055390749090484,-0.006314075924327962,-0.0009266118930537446
1765408129.787874,-9.95440163028515,-0.06030564870268644,0.33388121693647715,-0.00900407995057942,-0.006383726429427807,-0.0007812800831257788
1765408129.78809,-9.95595219013971,-0.062033803881768955,0.33262406434613484,-0.008932369835233673,-0.006477319394659219,-0.0006369097639035566
1765408129.78829,-9.957189269150891,-0.0627694591647979,0.33159807740346925,-0.008843103737272285,-0.006589804693054999,-0.0004957412393535153
1765408129.78849,-9.958052265015693,-0.06256380155292196,0.330799032855856,-0.008739344854973819,-0.006714813651404483,-0.000360003723372168
1765408129.78869,-9.958487376364918,-0.06150587343489994,0.3302138175229422,-0.008624255776094752,-0.006844925278684374,-0.00023191660582365232
1765408129.78889,-9.95845220069318,-0.05971335229498894,0.3298236269551708,-0.008500985750789372,-0.0069720224561171966,-0.0001136652945929176
1765408129.789184,-9.957920415577668,-0.05732221545144148,0.32960752205094196,-0.008372573045473897,-0.007087728773496445,-7.3524944895126795e-06
1765408129.789384,-9.956886281113611,-0.05447617660332483,0.32954623470626826,-0.008241872730971827,-0.007183907352593465,8.507335215038367e-05
1765408129.789584,-9.955368662116976,-0.051316760690277186,0.32962604417399605,-0.008111519067155371,-0.007253189217683855,0.00016190867203477415
1765408129.789784,-9.953414053463733,-0.04797479952405373,0.3298422161509532,-0.0079839257336648,-0.007289485553648336,0.00022179548401120603
1765408129.789984,-9.951097792603328,-0.04456395663270838,0.3302011557117622,-0.007861318293985007,-0.007288432211332111,0.00026381677876195666
1765408129.790128,-9.948522549315586,-0.041176642835404766,0.3307204154946073,-0.0077457852954850625,-0.007247719819889708,0.000287567639919439
1765408129.790328,-9.945813476366979,-0.037882409604340486,0.331426072624989,-0.007639330474085201,-0.007167277631408417,0.00029318585535741294
1765408129.790528,-9.943110009088883,-0.03472866226910733,0.33234753775393167,-0.007543909566187744,-0.0070492995018890895,0.0002813335413129955
1765408129.790728,-9.940555011920948,-0.03174336204765909,0.33351042632627204,-0.0074614401576887715,-0.006898120762982684,0.00025313087657907583
1765408129.790928,-9.93828260050954,-0.028939272747682453,0.334928642666534,-0.007393778929496076,-0.006719968842792225,0.00021005184633523334
1765408129.791225,-9.936406339383431,-0.02631920193705925,0.33659715165959186,-0.007342664858334077,-0.006522613825386408,0.00015379880130470468
1765408129.791425,-9.935009459986526,-0.023881576498143167,0.33848682853245193,-0.007309630102793705,-0.006314940041797308,8.617632205918006e-05
1765408129.791625,-9.934138277120516,-0.0216256432994634,0.34054230052902124,-0.0072958851220681084,-0.0061064553997334636,8.983297975469487e-06
1765408129.791825,-9.933799351836935,-0.01955565695764482,0.34268310592050805,-0.007302190618217572,-0.0059067585252326965,-7.606443538829295e-05
1765408129.792025,-9.933960385279986,-0.017683590850976472,0.3448079909872934,-0.007328732520761178,-0.005724992399595862,-0.00016737569046949358
1765408129.792149,-9.934554378952273,-0.016030127339448426,0.34680172292804323,-0.007375015720858087,-0.005569319882376667,-0.0002634882431862373
1765408129.792349,-9.935486298891318,-0.014623909031640892,0.3485434696053681,-0.007439789856324573,-0.005446458625723907,-0.0003630360210123154
1765408129.792549,-9.936641443335656,-0.013499234602306266,0.3499157829383924,-0.007521018594419035,-0.005361311279769108,-0.00046468302514913166
1765408129.792749,-9.937894875170771,-0.012692536529536669,0.35081349428776687,-0.007615902162111252,-0.005316720660469419,-0.0005670346435847814
1765408129.792949,-9.93912133723233,-0.012238099800611484,0.35115203908362913,-0.007720959736742306,-0.005313368335206638,-0.0006685445274276664
1765408129.793142,-9.940204859131201,-0.012163589335860257,0.35087466312356125,-0.007832172795967828,-0.0053498224949813196,-0.0007674404791488313
1765408129.793342,-9.941047045844401,-0.012485998113799097,0.349957826565599,-0.00794518206869672,-0.0054227296972816485,-0.000861693002644014
1765408129.793542,-9.941573157353956,-0.013208532984702669,0.3484141921083511,-0.008055520229009424,-0.005527132587039187,-0.0009490430029112859
1765408129.793742,-9.941735537118403,-0.014318743162021325,0.34629286651656066,-0.0081588542002617,-0.00565688058054115,-0.0010270915154535144
1765408129.793942,-9.941514450194095,-0.01578798157443318,0.343676914727562,-0.008251210164407236,-0.005805089062477866,-0.001093439895647841
1765408129.794167,-9.940916762757954,-0.017572160717929816,0.340678498591744,-0.008329161788290842,-0.0059646029053855,-0.001145859978031805
1765408129.794367,-9.939973090345717,-0.019613722896368754,0.3374322302164447,-0.008389972731766103,-0.006128430356707036,-0.0011824718141136502
1765408129.794567,-9.938734035589167,-0.02184472794286677,0.33408737402297733,-0.008431692903050805,-0.0062901239300445656,-0.0012019086977773613
1765408129.794767,-9.937265958830185,-0.02419089929488188,0.3307994160886005,-0.008453212733973111,-0.006444090858661575,-0.001203452753382462
1765408129.794967,-9.935646514459538,-0.026576340072533195,0.3277214056897896,-0.008454281296858017,-0.006585820053676256,-0.001187128820489934
1765408129.795129,-9.933960040363798,-0.02892849050266493,0.3249954334261924,-0.0084354926946482,-0.006712018873080748,-0.001153749027117476
1765408129.795329,-9.932292791902535,-0.031182828664288845,0.3227445988344438,-0.008398242664236968,-0.006820660727751434,-0.001104904500387363
1765408129.795529,-9.930727982465966,-0.033286838110413566,0.3210658545953732,-0.008344655690716333,-0.00691095166875977,-0.0010429044006586882
1765408129.795729,-9.929340718590709,-0.03520283053810342,0.3200242410893691,-0.008277481016297755,-0.00698322951366244,-0.0009706661163898308
1765408129.795929,-9.928193175975373,-0.03690929121374394,0.3196491351983949,-0.008199952788595567,-0.007038811543548566,-0.0008915634338726312
1765408129.796202,-9.927330573833586,-0.038400545941658835,0.31993304273210776,-0.008115609227103473,-0.007079805413554378,-0.000809241944191083
1765408129.796402,-9.926778539923246,-0.039684759088467816,0.32083316410050305,-0.00802807294227441,-0.007108894068474051,-0.0007274137350515854
1765408129.796602,-9.926542344083108,-0.04078051006392086,0.3222756445922527,-0.007940807941489774,-0.0071291019845265355,-0.0006496460166379361
1765408129.796802,-9.92660824928051,-0.041712379126776986,0.32416217728618857,-0.007856881424967458,-0.007143548570414359,-0.0005791592720765671
1765408129.797002,-9.926946850449516,-0.0425060807392358,0.3263783620355967,-0.007778763931013505,-0.00715519525382307,-0.000518649933536116
1765408129.797136,-9.927517802645598,-0.043183735098199394,0.32880290188614747,-0.007708197730592809,-0.0071665959246482915,-0.00047015186939942136
1765408129.797336,-9.928275027544093,-0.043759857049529394,0.3313165296722816,-0.007646152456231047,-0.007179666249907875,-0.00043494986936430983
1765408129.797536,-9.929171540260937,-0.04423854034491534,0.33380969761223267,-0.007592872487327416,-0.007195494151422149,-0.00041355446801705144
1765408129.797736,-9.930163393440214,-0.04461214902942791,0.3361884670007104,-0.007548006519389139,-0.007214216904023496,-0.000405739768911366
1765408129.797936,-9.931212644427045,-0.04486165705631169,0.3383784694283272,-0.007510799258116728,-0.007234985905461224,-0.00041063728752717003
1765408129.798143,-9.932289525397724,-0.044958617537010886,0.34032710779398906,-0.007480319387825148,-0.007256028770494915,-0.0004268733505858551
1765408129.798343,-9.933374080637785,-0.044868563145486186,0.34200427028383773,-0.007455694782083157,-0.007274804447562706,-0.0004527355195362991
1765408129.798543,-9.934457438408145,-0.04455544721634143,0.34340175318728206,-0.007436323161472985,-0.007288235479076656,-0.0004863516071304617
1765408129.798743,-9.935542670925873,-0.04398660260936496,0.34453143030381694,-0.007422026343982713,-0.007292995286591508,-0.0005258618223457219
1765408129.798943,-9.93664500712066,-0.04313766601871882,0.34542214147944733,-0.007413123896096256,-0.007285826478069269,-0.0005695631194137768
1765408129.799138,-9.937791113945774,-0.041996952444415384,0.3461153759941881,-0.0074104177180769806,-0.007263864494969198,-0.000616008567346312
1765408129.799338,-9.939017220684772,-0.04056883170444888,0.34665998593553204,-0.00741509555212546,-0.007224938315818386,-0.0006640543969529914
1765408129.799538,-9.940365947892788,-0.03887577181055121,0.34710627340611583,-0.007428570221177244,-0.00716782166846824,-0.0007128601203257999
1765408129.799738,-9.941881855104727,-0.03695886455207462,0.3474999151019569,-0.007452272375914224,-0.007092417694655679,-0.0007618570913025466
1765408129.799938,-9.9436059835959,-0.03487677871885901,0.3478763476156282,-0.007487415482639694,-0.0069998709600269556,-0.0008107037004240102
1765408129.800173,-9.945569898036439,-0.03270318410426216,0.3482562505685958,-0.007534758057367138,-0.006892604787120782,-0.0008592409253805682
1765408129.800373,-9.947789731302022,-0.030522805629149018,0.34864250572961614,-0.007594395373117618,-0.006774280153029363,-0.0009074541095593156
1765408129.800573,-9.950260562702312,-0.028426408831361074,0.3490186853203555,-0.007665613003447259,-0.006649672037239492,-0.0009554403776010442
1765408129.800773,-9.952951340729932,-0.026505127751074095,0.34934899439627953,-0.007746825752758298,-0.006524463549119374,-0.0010033780441640614
1765408129.800973,-9.955800584772888,-0.024844592683591873,0.34957960917177466,-0.007835612251221464,-0.006404966191300796,-0.0010514936450782154
1765408129.801178,-9.958713175083028,-0.023519316693515528,0.3496413278229593,-0.007928842086639193,-0.006297784484430975,-0.0011000227818368763
1765408129.801378,-9.961558619711113,-0.022587767667816935,0.34945341592619567,-0.008022880672960187,-0.006209451447122995,-0.0011491637568124408
1765408129.801578,-9.964171293302755,-0.022088488115278512,0.3489286135112398,-0.008113848683054516,-0.006146061506939243,-0.0011990279613028983
1765408129.801778,-9.966353194726915,-0.02203754744572168,0.34797936730765533,-0.008197909301443327,-0.006112916399984081,-0.0012495946149023384
1765408129.801978,-9.967879615800637,-0.02242753201929066,0.34652523731479007,-0.008271557494810544,-0.006114185489708978,-0.001300676307993502
1765408129.802248,-9.968507753386186,-0.02322817397520684,0.3445011255173996,-0.008331888793501462,-0.006152577590189076,-0.0013518970781918513
1765408129.802448,-9.967987912079296,-0.02438857502451283,0.34186571136436356,-0.00837682824982109,-0.0062290301222069485,-0.0014026808527315953
1765408129.802648,-9.966076675307125,-0.025840817591620383,0.338609334318463,-0.008405302074460316,-0.006342433555821861,-0.0014522479390191945
1765408129.802848,-9.962551272041772,-0.027504606621897378,0.33476044993859844,-0.008417335518347084,-0.006489414414248256,-0.0014996198947497329
1765408129.803048,-9.957224336122108,-0.029292483877104987,0.3303897458762518,-0.008414062353902553,-0.006664198339759708,-0.0015436350273476452
1765408129.803152,-9.949958409024136,-0.031115141770954816,0.32561125057933277,-0.00839763540895675,-0.006858570966094221,-0.0015829756180741894
1765408129.803352,-9.940679825398272,-0.03288644847681585,0.3205803194219834,-0.008371035916706633,-0.007061950502659399,-0.0016162052380388338
1765408129.803552,-9.929391783133994,-0.03452792615488,0.31548890725467693,-0.00833779348148749,-0.007261581159277312,-0.0016418138992377468
1765408129.803752,-9.916186221597526,-0.03597252175137651,0.31055872932127054,-0.008301646175342658,-0.007442851896533328,-0.0016582718195973956
1765408129.803952,-9.901253728376732,-0.03716755801724217,0.30603284271110254,-0.008266184274981221,-0.007589741973802185,-0.0016640966595063934
1765408129.804185,-9.884890356988675,-0.038076787120305385,0.30216606291904213,-0.008234523684005901,-0.007685390877620634,-0.0016579398221400201
1765408129.804435,-9.867500064226908,-0.03868149746877359,0.2992144888608227,-0.008209045676425941,-0.007712781280451398,-0.0016386926793274703
1765408129.804685,-9.849591378814901,-0.03898062374444998,0.2974242161142599,-0.008191225004902753,-0.0076555106704696,-0.0016056051889520944
1765408129.804935,-9.831766931234693,-0.03898980754296214,0.29701924302899874,-0.00818155545895521,-0.007498616361763788,-0.0015584015810631256
1765408129.805083,-9.814704791099675,-0.03873941970485934,0.2981887876896443,-0.008179572707833462,-0.007229413037669618,-0.0014973748075407353
1765408129.805283,-9.799131186221514,-0.03827168760413634,0.3010745792997635,-0.008183967075601307,-0.006838298054169082,-0.0014234452102440541
1765408129.805483,-9.785784901400548,-0.03763718052294642,0.30575884433122563,-0.008192771601220108,-0.006319473538296482,-0.0013381775358755788
1765408129.805683,-9.775374371913733,-0.03689091124619647,0.3122536167535792,-0.00820360278874013,-0.005671529182610531,-0.0012437590296742087
1765408129.805883,-9.768529382758286,-0.03608821631319837,0.3204919022825159,-0.008213924090434664,-0.004897831986719799,-0.0011429451087664228
1765408129.80608,-9.765750557492327,-0.03528045973235548,0.3303213096174547,-0.0082212979563331,-0.004006679850620679,-0.0010389766162722256
1765408129.80628,-9.76736135061985,-0.0345105858938165,0.34150100659503774,-0.00822359494192956,-0.003011189840300857,-0.0009354661984674499
1765408129.80648,-9.773468584359284,-0.033808754104726876,0.35370320001036404,-0.00821914005954037,-0.0019289051470936568,-0.0008362457931606692
1765408129.80668,-9.783938042982378,-0.033188742584894626,0.36652068960749523,-0.008206793708065267,-0.0007811197435376601,-0.0007451685756711321
1765408129.80688,-9.798390625490377,-0.03264625550833662,0.37948202064032316,-0.008185979263130673,0.00040805551923605405,-0.0006658715074625255
1765408129.80711,-9.816221818342498,-0.032160201842445606,0.3920747227574031,-0.008156675597736826,0.0016128239653795929,-0.0006015261510897586
1765408129.80731,-9.836643306509286,-0.03169716442678113,0.40377506893713455,-0.008119388482142933,0.002806933270193785,-0.0005546220456244237
1765408129.80751,-9.858741660661968,-0.031218029961452776,0.4140809455535459,-0.008075103976363948,0.003964895203696162,-0.0005268235143040819
1765408129.80771,-9.881546595494967,-0.03068493899331854,0.42254414589157857,-0.008025221367979297,0.005063105708523606,-0.000518916657385079
1765408129.80791,-9.904100827724003,-0.030066962882298466,0.42879936466189644,-0.007971471389003023,0.006080805715288937,-0.0005308340821295306
1765408129.808121,-9.925524453246569,-0.029344113300496646,0.432587750979782,-0.007915836484798967,0.007000836458855537,-0.0005617289845895775
1765408129.808321,-9.945068098377712,-0.028510462202342417,0.4337725708093922,-0.007860484520600067,0.007810145073260905,-0.000610076025045589
1765408129.808521,-9.962150703023639,-0.027577111792851466,0.43234475687349516,-0.007807707234792792,0.00850001534974302,-0.0006737953580165779
1765408129.808721,-9.976379966418335,-0.0265744923787152,0.42841793029554587,-0.0077598429007332045,0.0090660429657452,-0.0007504049294052867
1765408129.808921,-9.987555977064815,-0.02555251897501876,0.42221474549538857,-0.0077191717202992425,0.009507913603171022,-0.0008371901595283488
1765408129.809105,-9.9956605121374,-0.02457781365813188,0.4140474078615897,-0.007687790597028566,0.00982904445677624,-0.0009313569563288409
1765408129.809305,-10.000835445861,-0.02372878313771914,0.4042948768227458,-0.00766748431296388,0.01003612187118888,-0.0010301368148647775
1765408129.809505,-10.003353864599568,-0.02308997296836354,0.3933787003597024,-0.0076596101018296,0.010138543061843652,-0.0011308456306015641
1765408129.809705,-10.003587196715175,-0.022746211458166434,0.3817390567177151,-0.007665008678334391,0.010147767947776314,-0.0012309258998734968
1765408129.809905,-10.001971140044384,-0.022775904715164275,0.3698121451803004,-0.007683950090628789,0.0100766044148725,-0.0013279947495870147
1765408129.810213,-9.9989726661748,-0.023242920512417685,0.3580097277756206,-0.007716117076171363,0.009938473409317333,-0.0014198886392793291
1765408129.810413,-9.995060064786168,-0.024187815256468015,0.34670169613100243,-0.00776062342383423,0.009746714417941461,-0.001504675623642646
1765408129.810613,-9.99067765001142,-0.02562042733170429,0.33620262183511546,-0.007816061261837716,0.009513986135532834,-0.0015806186347733344
1765408129.810813,-9.986226075507043,-0.027515867107845895,0.32676276170594215,-0.007880567793558384,0.009251794145684146,-0.0016461071882475625
1765408129.811013,-9.982048352251498,-0.029814646998941353,0.31856323442702744,-0.007951899722757389,0.00897015293525734,-0.0016996001097513834
1765408129.811216,-9.97842115471542,-0.032426216235159885,0.31171483447328824,-0.008027506985856855,0.008677375089065935,-0.001739615787746898
1765408129.811416,-9.975551027735747,-0.035234663213895276,0.30626025519458194,-0.008104607082617744,0.008379974133825005,-0.0017647749330991834
1765408129.811616,-9.973575267646153,-0.03810596922166401,0.30217970493569596,-0.008180270074316895,0.008082663967667048,-0.0017738725284342407
1765408129.811816,-9.972567083290942,-0.040897005689394486,0.2993996405278275,-0.008251524715064655,0.007788437166903334,-0.0017659524422148248
1765408129.812016,-9.972544152667185,-0.043466433153851326,0.29780384425585205,-0.008315489097822638,0.007498706475081821,-0.0017403753088775563
1765408129.812138,-9.973479248366983,-0.045686653049382284,0.29724569036646936,-0.008369521484385247,0.0072134944679503685,-0.0016968868510685738
1765408129.812388,-9.97531148500738,-0.04745484178368993,0.29756030776682635,-0.008411382505161867,0.006931654916655942,-0.0016356944948198889
1765408129.812638,-9.977956942657078,-0.04870090882995849,0.29857546259566387,-0.00843939703105575,0.006651110428835305,-0.001557545333685019
1765408129.812888,-9.981317813223539,-0.04939125258901618,0.30012041187818805,-0.008452600472939862,0.006369096820918824,-0.0014637821088061913
1765408129.813128,-9.985289643983041,-0.04952867762141843,0.3020326048683107,-0.008450850510650563,0.006082410836462757,-0.0013563520679523604
1765408129.813328,-9.989766523092031,-0.049149656794439514,0.3041625192749568,-0.008434883572099055,0.005787658601798496,-0.001237760292828185
1765408129.813528,-9.9946441089889,-0.04831985409043591,0.30637685923284946,-0.008406298258144035,0.005481496963888427,-0.0011109812595901738
1765408129.813728,-9.999820496054578,-0.047128115505976585,0.30856016230258704,-0.00836745655796981,0.005160852708641732,-0.0009793519457514431
1765408129.813928,-10.005195314079137,-0.04567889851850119,0.31061506829028995,-0.008321305951345627,0.004823101264093946,-0.0008464617563349685
1765408129.814214,-10.010668038040528,-0.04408353919381262,0.31246197428319483,-0.008271136276172503,0.004466190990498045,-0.0007160409486478596
1765408129.814414,-10.016136767099086,-0.04245130241776596,0.3140389677508321,-0.008220291658878696,0.0040887107953448696,-0.0005918436760466014
1765408129.814614,-10.021498479543057,-0.04088127633383929,0.31530259559011714,-0.0081718621724998,0.0036899113057189434,-0.00047752527873833934
1765408129.814814,-10.026651155668956,-0.03945582115393464,0.3162294914000699,-0.008128385388828105,0.003269696520974674,-0.0003765180956370179
1765408129.815014,-10.03149742137913,-0.038235809005327075,0.31681835838570854,-0.0080915932750454,0.002828602002953808,-0.00029191052425354085
1765408129.815149,-10.03594866756512,-0.03725760195313019,0.31709130471029245,-0.008062239880610531,0.0023677696316309095,-0.00022633193789214605
1765408129.815349,-10.039928240792907,-0.03653166429948866,0.3170933026168729,-0.008040036253470426,0.0018889212574432494,-0.0001818455281824178
1765408129.815549,-10.043372608259178,-0.0360427894926127,0.31688899079134275,-0.008023702345037888,0.0013943281715465363,-0.00015985330590946313
1765408129.815749,-10.046230284803796,-0.03575203443532511,0.3165570358473331,-0.008011127087166897,0.0008867727431108231,-0.00016102021156292267
1765408129.815949,-10.048459203182885,-0.03560050217606442,0.3161830767993043,-0.007999613415705136,0.0003695003353041506,-0.00018522561290372958
1765408129.816183,-10.05002360009962,-0.03551499561644648,0.3158523604800471,-0.00798617719501401,-0.00015384132444125264,-0.00023155032484044436
1765408129.816383,-10.050891341956362,-0.03541524072969307,0.31564275952737675,-0.007967866446291137,-0.0006792817355498482,-0.00029830566710469794
1765408129.816583,-10.051032195885599,-0.03522196968450317,0.31561849039957907,-0.007942068063278091,-0.001202633495895396,-0.0003831063763352041
1765408129.816783,-10.05041712262806,-0.034864894373684514,0.315824744152626,-0.007906772920766237,-0.0017196266208354674,-0.00048298069761937285
1765408129.816983,-10.049018411849463,-0.03428963774284714,0.3162835366999219,-0.007860777040053769,-0.0022260638421403144,-0.0005945024768616496
1765408129.817112,-10.046810485822975,-0.03346296828613438,0.31699126479709716,-0.007803805194538244,-0.0027179795443301566,-0.0007139275461972638
1765408129.817312,-10.043771348896398,-0.03237601879793221,0.3179185317621077,-0.007736552208149782,-0.0031917800473674866,-0.0008373221377484856
1765408129.817512,-10.039884720003643,-0.031045401565471056,0.31901256409134876,-0.007660644946779395,-0.0036443463222027217,-0.0009606807132770584
1765408129.817712,-10.03514277432654,-0.029512205543832597,0.3202020426340291,-0.007578534147722742,-0.0040730896952992255,-0.001080038222880994
1765408129.817912,-10.029549281429505,-0.027838877985924684,0.3214037832530721,-0.00749332972719034,-0.004475959811222187,-0.0011915826333746516
1765408129.818139,-10.023122875645031,-0.026104165637784612,0.32253060764767066,-0.007408595996494701,-0.0048514077269687875,-0.0012917677212883115
1765408129.818472,-10.015900165968993,-0.02439670010235976,0.3234997302207055,-0.007328123801894925,-0.005198308339549117,-0.0013774195609243035
1765408129.818806,-10.00793829873981,-0.022808197703243212,0.3242408274786683,-0.007255694581091018,-0.00551585047424073,-0.0014458297577270877
1765408129.820154,-9.999316472392202,-0.02142722318761422,0.32470275636166285,-0.007194847724265889,-0.005803409357416841,-0.0014948348558161942
1765408129.821128,-9.990135892940796,-0.020333992571929225,0.3248579029835158,-0.007148659760145745,-0.006060419831617321,-0.0015228875076138105
1765408129.825133,-9.980517835209925,-0.019596138406068584,0.324703500525882,-0.0071195436223330565,-0.006286267644326127,-0.0015291233652835997
1765408129.828114,-9.970599832227462,-0.019265150862274948,0.3242598961095537,-0.007109078614571073,-0.006480213684456228,-0.0015134179964323053
1765408129.828614,-9.960530438271862,-0.019373443206941832,0.3235664522873423,-0.007117884674690013,-0.0066413644019767785,-0.0014764182973252074
1765408129.831062,-9.950463303512409,-0.019932412609242982,0.32267622496562515,-0.007145555138615664,-0.006768697908140502,-0.0014195315414878863
1765408129.835082,-9.940551309277405,-0.02093206965504963,0.32165055403690807,-0.007190658485729921,-0.0068611460086847155,-0.0013448638789685559
1765408129.83606,-9.930941264662396,-0.02234254498944236,0.32055430248264805,-0.007250811990176424,-0.006917720138118612,-0.0012551126058619989
1765408129.840063,-9.92176932322343,-0.024117191723823855,0.3194519582322069,-0.007322821101365602,-0.0069376600905383745,-0.0011534248165532294
1765408129.8411,-9.913157000426997,-0.02619654054843067,0.3184044127998936,-0.0074028700946249075,-0.006920581728289185,-0.0010432353351238165
1765408129.845066,-9.905207528955167,-0.028512380176681455,0.31746603967851217,-0.007486743461427137,-0.006866602227801755,-0.00092809245326292
1765408129.848072,-9.898002315736488,-0.0309916257061053,0.3166817294179065,-0.0075700544607142945,-0.006776427071066382,-0.0008114783474899188
1765408129.848572,-9.891597490295313,-0.03355997669380421,0.3160838053304879,-0.007648458223162027,-0.006651390742415635,-0.0006966353810368604
1765408129.853066,-9.886020905320803,-0.03614536141665224,0.31568915408904774,-0.007717832286975289,-0.00649345067049813,-0.0005864152508451968
1765408129.855083,-9.881270291892795,-0.03868091142806239,0.315497237634499,-0.007774415989345082,-0.0063051388405030535,-0.00048316779004803877
1765408129.85713,-9.877313381416679,-0.04110706273626215,0.31548971639860895,-0.007814908807564478,-0.006089477689221676,-0.00038867722637854886
1765408129.86009,-9.874090589577186,-0.0433725984841467,0.3156321861829886,-0.007836534214566255,-0.005849868481857491,-0.0003041403760638781
1765408129.863104,-9.871520374087366,-0.04543492713209383,0.31587810703723956,-0.007837079210963792,-0.00558996242269956,-0.00023017295867484494
1765408129.863604,-9.869506784944281,-0.04726020940944668,0.31617449785610285,-0.007814920913698077,-0.005313526124166225,-0.00016683272580719628
1765408129.868133,-9.867948201449664,-0.04882379861978576,0.31646850710821256,-0.007769050876885526,-0.005024312362042398,-0.00011365699097166089
1765408129.870106,-9.866745966783066,-0.05011099459117947,0.31671370020147666,-0.0076991046882806825,-0.004725944613272035,-6.971723550491365e-05
1765408129.871144,-9.865811718986896,-0.051117752304767027,0.31687496786298364,-0.007605398304639148,-0.004421820867575628,-3.36901890725502e-05
1765408129.875118,-9.865072656737297,-0.05185095406827514,0.3169313594401331,-0.007488965273651524,-0.0041150386240342155,-3.938405775354498e-06
1765408129.876149,-9.864474556494544,-0.052328044884271785,0.3168766920042398,-0.007351584222323632,-0.003808338429245053,2.14085930663771e-05
1765408129.880087,-9.86398282116926,-0.052576052622585086,0.31671825024940103,-0.007195785551108252,-0.003504059479846235,4.437773774821669e-05
1765408129.884086,-9.86358206456621,-0.05263015794443536,0.31647416207181206,-0.007024827639379344,-0.0032041008210651352,6.708024210682455e-05
1765408129.885157,-9.8632747174423,-0.05253200379954082,0.31617009130834745,-0.006842633495926125,-0.0029098862570341374,9.164053228832713e-05
1765408129.888061,-9.863078950579439,-0.052327858112819016,0.3158357462304337,-0.006653680208198936,-0.002622337412809078,0.00012012192507653662
1765408129.888561,-9.863026027466193,-0.052066632965008,0.3155014725200232,-0.0064628382249221445,-0.0023418641880593363,0.00015444484627162006
1765408129.893091,-9.863157225406617,-0.0517976779147193,0.3151950831578877,-0.006275164786643395,-0.0020683835642362467,0.00019629566176737845
1765408129.895086,-9.86352066981452,-0.0515682382754515,0.3149391529974647,-0.006095663784456773,-0.001801375532439324,0.0002470301365993634
1765408129.896055,-9.86416853521847,-0.05142055292424097,0.3147491196275138,-0.005929032137193595,-0.0015399788431500702,0.00030758307010123303
1765408129.900078,-9.865154889732194,-0.05138879577199262,0.3146324839750441,-0.005779418356459171,-0.0012831219331228714,0.0003783992046245774
1765408129.903114,-9.866534104966208,-0.0514963381839771,0.31458914725028325,-0.005650218261020169,-0.0010296789749407959,0.0004593966210474885
1765408129.905128,-9.868359451404542,-0.0517538836082371,0.3146125744360485,-0.005543924765376688,-0.0007786375657681574,0.0005499649588851392
1765408129.90808,-9.870681397514169,-0.05215874962919085,0.3146912562549412,-0.005462038398629721,-0.0005292618672153977,0.0006489931100934311
1765408129.910098,-9.873545284157315,-0.052695124846381294,0.314810038099853,-0.005405038949361862,-0.00028123516537529876,0.000754919552557978
1765408129.913059,-9.876988414120929,-0.05333490757447448,0.3149512453419925,-0.005372416952387779,-3.477152460596171e-05,0.0008658030831283325
1765408129.914132,-9.881036981483314,-0.05403895367051655,0.31509585196688017,-0.005362762044083537,0.00020930615411558008,0.0009794169621324986
1765408129.916053,-9.885703411551638,-0.05475900543817605,0.315224954013617,-0.005373899881559089,0.00044952188118347946,0.0010933693940481882
1765408129.92005,-9.890984528062168,-0.055440793720387946,0.3153215735424502,-0.00540306122618144,0.0006837397027584194,0.001205246379638699
1765408129.923034,-9.896860690382667,-0.05602852194383161,0.3153725714509391,-0.005447060241267699,0.0009092003866047435,0.0013127628624170625
1765408129.925077,-9.903295828868638,-0.056470274086197605,0.3153703201647987,-0.005502458737938858,0.0011226050000169923,0.0014139002052155013
1765408129.928094,-9.91023817426784,-0.05672328184431059,0.315313758256519,-0.005565700519634592,0.0013202421435504718,0.001507006649799787
1765408129.930039,-9.917621420039305,-0.056757893253983234,0.31520850854648874,-0.005633211522504477,0.0014981493944217108,0.0015908438645073002
1765408129.933026,-9.925366136724142,-0.056559601816334015,0.3150659349724312,-0.005701471020810421,0.001652295812773265,0.0016645744263650028
1765408129.93505,-9.933381463914602,-0.05612924618504361,0.3149013083941,-0.005767063744203878,0.001778771378997439,0.0017276968660740757
1765408129.938148,-9.94156726269622,-0.055481946563455925,0.31473149742556134,-0.005826724378097325,0.0018739700593867112,0.0017799425299777542
1765408129.940047,-9.949816877281654,-0.05464530206228649,0.3145726863244853,-0.005877387051551694,0.0019347542503074036,0.0018211517875451045
1765408129.943033,-9.958020494319797,-0.05365708438529877,0.3144385627739545,-0.0059162517533901835,0.0019585893163337796,0.001851148703794422
1765408129.945105,-9.96606893241327,-0.052562501142094674,0.31433924385970385,-0.005940874377967264,0.0019436404521216595,0.001869635005477312
1765408129.948105,-9.973857561519322,-0.051411199891398376,0.31428091934298064,-0.005949277149675192,0.0018888324139476006,0.0018761242733302023
1765408129.950116,-9.981289943980272,-0.05025438457941007,0.31426589785209297,-0.005940064488391524,0.0017938822521706653,0.0018699314641288654
1765408129.953136,-9.988280793518875,-0.049142462912827964,0.314292663561894,-0.005912520241795633,0.0016593185183651066,0.00185021938696049
1765408129.955038,-9.994757996397917,-0.04812340507911416,0.3143557508051685,-0.005866659230857777,0.001486494613160408,0.0018160882573915274
1765408129.957034,-10.000663606364265,-0.04724158260457323,0.31444551086135747,-0.005803210293685191,0.0012775941355271689,0.0017666865265239696
1765408129.960033,-10.005953815458476,-0.04653655343818,0.31454796642374894,-0.005723517881714466,0.0010356190578710588,0.0017013248867470418
1765408129.962131,-10.010598001611571,-0.0460413028938024,0.3146449606094319,-0.005629362515822961,0.0007643493315789014,0.0016195849840975787
1765408129.964165,-10.014577167518743,-0.04577984113216368,0.31471484601861366,-0.005522714857115484,0.00046826424309173313,0.0015214204135515388
1765408129.968052,-10.017882308754604,-0.045764548345305474,0.3147339917776381,-0.005405450475096578,0.00015242112183091924,0.0014072457247738671
1765408129.970112,-10.020513244509946,-0.0459939370530441,0.3146792539805797,-0.005279059224730515,-0.00017770565494937802,0.0012780029894370816
1765408129.973107,-10.022478146246048,-0.04645142876847073,0.3145312497712156,-0.005144384184178772,-0.0005164165605388149,0.0011351915216875784
1765408129.975051,-10.02379361463275,-0.0471054393453906,0.3142779925699166,-0.005001422975036229,-0.0008579982551631748,0.0009808483918275
1765408129.978071,-10.024484915827985,-0.04791077915358398,0.31391832918417134,-0.0048492205665298434,-0.0011969415567771198,0.0008174752345816089
1765408129.980087,-10.02458592379727,-0.04881125620087767,0.31346461401103015,-0.004685876148287418,-0.0015281512675139194,0.0006479177567990902
1765408129.983034,-10.024138342022189,-0.04974338400530987,0.3129440783879038,-0.004508676002501498,-0.001847131073785593,0.00047521421200038985
1765408129.985052,-10.023189892885936,-0.050641091360377526,0.31239845915051867,-0.004314350411844077,-0.002150126927281897,0.0003024343565418943
1765408129.98811,-10.021791407945173,-0.05144120007306855,0.3118817118743014,-0.00409943759242862,-0.002434216210658611,0.0001325297034074064
1765408129.990118,-10.019993056268245,-0.05208919088253512,0.31145596376736184,-0.0038607232672681867,-0.002697337071198567,-3.1789995127707535e-05
1765408129.992223,-10.01784016361347,-0.05254452846086702,0.31118609921436063,-0.003595712822671423,-0.0029382606700072557,-0.0001881477976483705
1765408129.995493,-10.015369148314198,-0.05278471476134761,0.3111334866609856,-0.0033030862793217764,-0.003156516900575945,-0.0003345595919417251
1765408129.998107,-10.012604091845178,-0.05280739330610463,0.31134942871832116,-0.002983085830150104,-0.0033522899786744866,-0.0004694681476403966
1765408130.000083,-10.009554423600935,-0.05263020221945795,0.3118689726235706,-0.00263779123168364,-0.0035263026172322022,-0.0005917564333982245
1765408130.001084,-10.006214110228626,-0.052288484586582064,0.312705709606414,-0.0022712483013162363,-0.0036797043748614073,-0.0007007451180015175
1765408130.005091,-10.002562573184093,-0.051831216648643035,0.31384812099261095,-0.00188942787939824,-0.00381397078051013,-0.0007961793887788645
1765408130.007025,-9.998567332360846,-0.051315586360038516,0.3152579364377195,-0.0015000060094475228,-0.003930808276383554,-0.0008782084259433535
1765408130.010067,-9.994188126233887,-0.05080070326127209,0.3168708164745388,-0.001111971713856809,-0.004032052000513639,-0.0009473554470992754
1765408130.013069,-9.989382029653505,-0.05034108209879238,0.3185993826246581,-0.0007350858680234314,-0.0041195439177553325,-0.0010044709654204451
1765408130.01502,-9.984108947226504,-0.04998075839818382,0.3203382554485595,-0.00037922997861166303,-0.0041949879167426955,-0.0010506627753486594
1765408130.017036,-9.97833687466893,-0.04974895902493066,0.3219705023342997,-5.369538326678874e-05,-0.004259790641988514,-0.0010872040823069612
1765408130.020065,-9.97204647517058,-0.04965801798360011,0.32337482344863594,0.00023352776907504787,-0.004314904519516281,-0.0011154306577439103
1765408130.023964,-9.965234700465247,-0.04970374052649582,0.3244328369494145,0.00047639748523557686,-0.00436068988982318,-0.0011366427645919277
1765408130.024464,-9.95791732630997,-0.04986787715249153,0.3250358885631861,0.0006713407224398872,-0.004396810208093842,-0.0011520258475676798
1765408130.028129,-9.950130399067755,-0.05012201071012059,0.3250909267652765,0.0008175954484109788,-0.004422171940508314,-0.0011625976380736896
1765408130.030086,-9.941930705536926,-0.05043211610311542,0.3245251645547252,0.0009173350386385276,-0.004434917709066194,-0.0011691822436067686
1765408130.033019,-9.93339540693395,-0.05076324092195703,0.32328943468061855,0.0009755515465307873,-0.004432473856061214,-0.001172408271578456
1765408130.035036,-9.924620915362366,-0.05108393837266085,0.3213603038128139,0.0009996930981149806,-0.004411642822819227,-0.0011727303461785252
1765408130.038155,-9.915721044459268,-0.05137009438609226,0.31874116327051594,0.0009990747647646294,-0.004368722945528713,-0.0011704781135544924
1765408130.038655,-9.906824501976244,-0.05160769239718821,0.31546264136773133,0.0009841104961738247,-0.004299639796760949,-0.0011659366249265615
1765408130.042032,-9.898071874393857,-0.0517940578540827,0.3115827111587582,0.0009654405983647274,-0.004200084423614044,-0.0011594539732605266
1765408130.04503,-9.88961232127634,-0.05193735347413552,0.30718674262379214,0.0009530479980946508,-0.004065668285297961,-0.0011515617964331676
1765408130.048078,-9.881600191701194,-0.0520544919037029,0.3023874693593073,0.0009554625117095468,-0.0038921129405299413,-0.0011430886252232664
1765408130.050067,-9.874191637453487,-0.05216798539032829,0.2973244728653422,0.0009791443095119293,-0.003675487934349966,-0.0011352458443793644
1765408130.053066,-9.867541055576329,-0.05230237712661992,0.29216249010380446,0.0010281170805017201,-0.0034124943965492456,-0.001129667925641814
1765408130.053566,-9.861797023220616,-0.05248077412956988,0.2870878144160504,0.0011038906396510504,-0.0031007745464385747,-0.0011283909306354352
1765408130.056102,-9.857097461119306,-0.05272176162333454,0.28230234143209665,0.001205674528073342,-0.002739218777848291,-0.0011337577025933036
1765408130.060075,-9.853564023093085,-0.05303679755468237,0.27801522490628655,0.001330842201631565,-0.00232824365742947,-0.0011482470333353744
1765408130.062078,-9.851295953235518,-0.05342816185379075,0.2744324144454309,0.0014755670937688472,-0.0018700199873306746,-0.0011742375302164322
1765408130.065131,-9.850363815486716,-0.05388764565559259,0.27174455703391426,0.0016355273019206266,-0.001368634800620415,-0.0012137320730178016
1765408130.0671,-9.850803667737537,-0.05439628644787329,0.2701140432623562,0.0018065716534507229,-0.0008301730290425845,-0.001268081345139248
1765408130.070198,-9.852612384187546,-0.05492543232025753,0.26966234645258763,0.0019852553885703257,-0.00026270341989917823,-0.001337751133653277
1765408130.071132,-9.85574475414522,-0.0554391704226287,0.27045896744856884,0.002169181546232084,0.00032384810444984423,-0.0014221753565988474
1765408130.07505,-9.860112717536571,-0.055897757638148735,0.2725131402231249,0.0023571166767098924,0.0009179499117306411,-0.0015197234241987863
1765408130.078165,-9.865586862981335,-0.05626138710647385,0.2757691459189658,0.0025488824105250785,0.0015068407282464557,-0.0016277869994958925
1765408130.078665,-9.872000189855857,-0.05649366672618564,0.28010575812081473,0.002745055952925995,0.002077016420665029,-0.0017429636753768783
1765408130.081047,-9.879153972643435,-0.05656457662408298,0.2853399695015917,0.0029465397085027024,0.0026148058983046936,-0.0018612954041929823
1765408130.085032,-9.886825353572181,-0.05645307668324863,0.2912348206180986,0.0031540777468413916,0.003107010371398216,-0.0019785170385128795
1765408130.087052,-9.894776257721373,-0.05614956982799681,0.2975110919180535,0.0033678014976534767,0.00354157164529625,-0.002090283662164069
1765408130.090037,-9.902763439844142,-0.05565805728105605,0.3038627620874268,0.003586879959913933,0.00390822107503043,-0.0021923642791303495
1765408130.092117,-9.910549616181113,-0.0549974309336016,0.30997599876934856,0.003809332692547299,0.004199048925801061,-0.002280803722124425
1765408130.094107,-9.917915391482527,-0.0542013814670349,0.3155506856865973,0.00403203795664777,0.004408930510147149,-0.0023520608255261496
1765408130.097133,-9.924671181041916,-0.053316914158364086,0.32032240353002456,0.0042509374549590945,0.004535751458909873,-0.0024031326444792617
1765408130.099247,-9.930667936329554,-0.05240201775606056,0.3240820612399361,0.004461410921876262,0.004580392844087806,-0.0024316771018352977
1765408130.103107,-9.935805382347485,-0.0515230950359396,0.32669042236444373,0.004658774197598718,0.0045464730813646785,-0.002436149021932086
1765408130.105098,-9.940036568712575,-0.05075224696471541,0.3280854937645483,0.004838842198978293,0.004439891360597626,-0.0024159596393241375
1765408130.108077,-9.943367796836473,-0.05016386164564227,0.3282818694227225,0.004998488726866655,0.004268254775051221,-0.0023716528452392706
1765408130.110025,-9.945853519194278,-0.049829788978669964,0.327362378101353,0.0051361283202050155,0.004040280725347474,-0.0023050679002825664
1765408130.111028,-9.947586594580878,-0.04981291842202623,0.3254634536409326,0.0052520475981414185,0.0037652516160052063,-0.002219439938468835
1765408130.115058,-9.948685126740024,-0.05015990961352281,0.3227563454270653,0.005348530343879055,0.0034525759283799487,-0.0021193880858571077
1765408130.118214,-9.949277825291245,-0.05089452120422612,0.3194267283502493,0.00542975117087653,0.0031114865546880794,-0.002010761534641897
1765408130.120029,-9.949490239963147,-0.052012977786329996,0.31565555540682083,0.0055014497634640344,0.0027508830515769627,-0.001900348725230816
1765408130.123033,-9.949434080526576,-0.05348218089140932,0.31160387653598676,0.005570430801563476,0.0023793000747431314,-0.001795485566690732
1765408130.123533,-9.949201008472771,-0.05524081267903799,0.30740355159377464,0.005643954931679681,0.0020049650739679802,-0.001703610179720594
1765408130.127089,-9.948861051027665,-0.05720296524223533,0.30315448795736355,0.0057290921304839855,0.0016358977108667867,-0.0016318041353138616
1765408130.130059,-9.948464688339369,-0.05926389472626078,0.2989277160726143,0.005832106170569298,0.0012800001759401623,-0.0015863470322987551
1765408130.131064,-9.948047047266764,-0.06130750181792927,0.29477262047437025,0.005957932828499376,0.0009450913102719153,-0.0015723056417474516
1765408130.135009,-9.947632509787814,-0.06321486592385896,0.2907260951168536,0.006109804044260529,0.000638850072421529,-0.001593181980258508
1765408130.13804,-9.94723833739584,-0.06487272102921855,0.2868213838639142,0.006289051519737371,0.00036865321343922347,-0.0016506477150667782
1765408130.140061,-9.946876582066757,-0.0661806060045143,0.2830949177689775,0.006495096481053894,0.00014131138191877384,-0.0017443886591526508
1765408130.141009,-9.94655439391839,-0.06705582835132737,0.2795903192369789,0.006725603832755951,-3.727571552298804e-05,-0.0018720751465203867
1765408130.145031,-9.946273432312584,-0.06743612432914331,0.2763594859922492,0.00697675659244112,-0.00016250894718179525,-0.002029466213479095
1765408130.146107,-9.946029160358728,-0.06728048972085986,0.27346107636177086,0.007243595779507469,-0.00023147379596334962,-0.0022106465085139446
1765408130.150003,-9.945810473394511,-0.06656881105541773,0.2709569186683575,0.00752037370727188,-0.00024326041625908888,-0.0024083814785851474
1765408130.153023,-9.94559970342159,-0.06530077432488886,0.2689070348061383,0.0078008818212894305,-0.00019916380037563564,-0.0026145609167320615
1765408130.155088,-9.945372765240643,-0.06349438795366738,0.26736407488474984,0.008078730649711475,-0.00010272248730437964,-0.0028206908279828483
1765408130.158021,-9.945099153612363,-0.061184450075152184,0.266367936478238,0.008347573787504359,4.042103734790774e-05,-0.0030183941292445614
1765408130.160013,-9.944741697562126,-0.058421237435158806,0.2659412358252907,0.008601280260743575,0.00022282584734063929,-0.0031998892567446312
1765408130.163026,-9.944256323847453,-0.0552694375031774,0.2660861500708958,0.008834070868972905,0.0004356863570491113,-0.0033584238974539563
1765408130.165033,-9.943592340775497,-0.05180701248151461,0.2667829317062108,0.00904064137909278,0.0006693420075703615,-0.0034886434923572978
1765408130.168067,-9.94269376204578,-0.048123534420883796,0.26799013897315865,0.009216295479166957,0.0009138082063011104,-0.003586872519061414
1765408130.170098,-9.941501968642887,-0.04431768434882691,0.26964641249435617,0.009357102824500824,0.0011592824251987553,-0.003651285283003476
1765408130.171089,-9.939959666676593,-0.04049396557319444,0.2716734635319978,0.009460084444437127,0.0013965950283361572,-0.003681946435228729
1765408130.173188,-9.938015743851036,-0.0367590186289765,0.2739797768945083,0.00952341336125825,0.001617591936466329,-0.003680713380226174
1765408130.17813,-9.935630347844885,-0.03321803906928369,0.27646441050656206,0.009546607286009565,0.0018154499770069979,-0.003651012371392105
1765408130.17863,-9.932779393382285,-0.02997163138721875,0.27902031593120463,0.00953068490762095,0.001984932619123494,-0.003597520342564769
1765408130.182129,-9.929457804709147,-0.02711312208198227,0.2815368875909164,0.009478257107569521,0.0021225950105027832,-0.0035257966757996423
1765408130.185126,-9.925681097463197,-0.024726148059558202,0.283901910184651,0.009393529547544483,0.0022269455346679195,-0.0034419082840525185
1765408130.188128,-9.921485296437664,-0.022882371004672237,0.2860035037910038,0.00928220429634535,0.0022985666241719985,-0.0033520788527757446
1765408130.19012,-9.916925532863763,-0.0216393504754948,0.28773283595871824,0.009151282947698899,0.002340189004197467,-0.0032623758476952687
1765408130.191185,-9.912073863648189,-0.021038754316020564,0.288988226832078,0.0090087857810793,0.002356703366893667,-0.0031784355409679808
1765408130.195025,-9.907016860152227,-0.02110513049330881,0.2896809261591916,0.008863407339445756,0.002355087558976173,-0.003105221393557119
1765408130.198056,-9.90185331033313,-0.021845450439188282,0.28974235327397235,0.008724131478550372,0.00234422694179567,-0.003046814109316896
1765408130.199029,-9.896692035300706,-0.023249562155346553,0.28913199512539844,0.008599833094790708,0.002334605383505623,-0.003006239575548869
1765408130.202088,-9.891649553489248,-0.025291534743921356,0.287844671597417,0.008498898740225302,0.00233784414274657,-0.002985349465742906
1765408130.205041,-9.886847327518016,-0.0279316837853111,0.2859157889865539,0.008428899306456981,0.0023660768394561708,-0.0029847728402397863
1765408130.208051,-9.882408558983371,-0.03111892207323133,0.28342350935889543,0.008396341063416184,0.0024311791704913067,-0.0030039512558665917
1765408130.210038,-9.878454752369832,-0.034793003402713074,0.2804872269943447,0.008406506941938624,0.002543912417421168,-0.0030412559016645547
1765408130.212077,-9.875102397607904,-0.038886238166978344,0.27726223188560484,0.00846338284505764,0.002713069649219378,-0.003094170149276227
1765408130.214023,-9.872460045507337,-0.04332442978850164,0.2739309421005172,0.00856965092302374,0.002944721100711524,-0.003159512180258966
1765408130.217057,-9.870625750202487,-0.048027103491376115,0.27069149865973957,0.008726727871782948,0.0032416443148372952,-0.00323367270405497
1765408130.217989,-9.869684457234404,-0.05290741849940229,0.26774469501451903,0.008934830396285781,0.003603003209714937,-0.0033128497602057873
1765408130.22308,-9.869704718365957,-0.05787230911515874,0.26528020401684904,0.009193056559221377,0.004024309732271252,-0.0033932719240681447
1765408130.225004,-9.870734343593554,-0.06282334491827626,0.26346308332500545,0.009499476155406033,0.0044976631191128115,-0.0034714088117628805
1765408130.227986,-9.872795175562246,-0.06765859312611304,0.2624216704260529,0.00985122489313373,0.005012224940694148,-0.0035441701343774893
1765408130.23002,-9.875877753991835,-0.07227550566885575,0.2622380469144,0.010244597827861579,0.005554866563178378,-0.00360909050600731
1765408130.231093,-9.8799369185853,-0.07657462574585035,0.2629420392122635,0.010675138663089083,0.006110923835299204,-0.0036644892787735745
1765408130.233005,-9.884889274683482,-0.08046375788762954,0.26450918454362976,0.011137723556666883,0.0066650037171174115,-0.0037095872577428374
1765408130.238038,-9.890613045006262,-0.08386217988283819,0.26686244688101307,0.011626640742688106,0.0072017968389282636,-0.0037445590660687145
1765408130.24001,-9.896950475427486,-0.086704469827549,0.2698771488073641,0.012135670575003954,0.007706853082705812,-0.003770503762687515
1765408130.242995,-9.903712885203925,-0.08894354740114702,0.27338877170706133,0.012658173952383207,0.00816727857708127,-0.003789327051057066
1765408130.245055,-9.910688449176533,-0.0905526184482899,0.2772034780465606,0.013187198290805538,0.008572317321675517,-0.0038035419804178785
1765408130.248013,-9.91765248322082,-0.09152593063180879,0.28111083213515115,0.013715607625998582,0.008913787984511154,-0.003816005982629681
1765408130.249992,-9.924379434423617,-0.091878528901169,0.28489747874739657,0.014236239039498536,0.009186354157458393,-0.0038296185738119445
1765408130.253051,-9.930655423087494,-0.09164532088123942,0.288360275131043,0.014742084760019293,0.009387618049718986,-0.0038470081549402467
1765408130.2551,-9.936290229885268,-0.0908795963186666,0.2913177620056172,0.01522649812201344,0.009518046192838579,-0.003870239225151209
