time,acc_x_g,acc_y_g,acc_z_g,gyro_x_rad_s,gyro_y_rad_s,gyro_z_rad_s
0.0,-8.518053,4.63295,-2.047465,-0.007636,-0.009468,-0.001069
0.0025,-8.173673318140644,4.757987329535161,-2.219996350131108,-0.00937101663885578,-0.0037890255065554223,-0.006040039904648391
0.005,-7.382388605301204,4.4802163466987945,-2.8794317516144576,-0.00016654640963855273,0.02233221532530121,-0.02683895363855422
0.0075,-7.519352307557251,4.777119307099236,-2.8273235512977104,-0.020290549847328233,0.06758097290076337,-0.10167268702290075
0.01,-8.486273770943757,5.0266611857769306,-2.884101080038131,-0.05318913807435653,0.07159704419447094,-0.18604071561487132
0.0125,-9.057893392366411,4.609511506488549,-3.1117327461832054,-0.09614562137404581,0.06099946145038165,-0.2497666896946565
0.015,-8.305704266889112,4.397641469244357,-4.854779929420995,-0.1227461657703631,0.01677355265947007,-0.31302347756624144
0.0175,-9.70110390204004,3.95692578775977,-2.8582273397902753,-0.12989471755958054,-0.07523186238322226,-0.3637689758627264
0.02,-10.313258152841804,3.645047445268432,-2.3050500587831073,-0.12165533191123837,-0.16062334508231926,-0.38556933268432353
0.0225,-10.100119096335876,2.7978550895419825,-2.2012659157251924,-0.09438271045801531,-0.2255645498473282,-0.40350456740458013
0.025,-9.708352205670105,3.2256397144329885,-1.959986106185568,-0.05558792242268049,-0.272859518556701,-0.40168028479381446
0.0275,-8.861540128198284,2.8938148025929453,-2.4596930264632983,0.009921772964728317,-0.34523320244041944,-0.4183762075881792
0.03,-9.078728058320609,4.292001835877864,-1.8343605514885526,0.04154157229007631,-0.36819290877862587,-0.42698718202290087
0.0325,-8.70084784439686,2.5948610861384696,-2.3087827573447544,0.08074372833690227,-0.3864510190149893,-0.37687957184867943
0.035,-9.069846357368926,3.6934928764918955,-1.7772059679313577,0.1614731360152525,-0.442572,-0.40317683797902754
0.0375,-8.500153513425706,2.942007974438605,-2.5248115582895356,0.1802533369326326,-0.41931010105112276,-0.38088342986144297
0.04,-9.925419236302048,3.4951222525899794,-1.1877712221594936,0.2694858003387438,-0.4447280460127029,-0.41479444781933666
0.0425,-9.455141414985704,2.8356115904289614,-1.4414818935748321,0.30370008301239304,-0.46451008301239305,-0.3709171254909437
0.045,-9.649582898893128,2.648882242175572,-1.1344844288931315,0.36358888332061073,-0.4998052721755725,-0.3837017069083969
0.0475,-9.88202516865586,2.3306974308102966,-0.9899238296663528,0.4340679205338418,-0.4868937661773118,-0.3979507352526216
0.05,-9.991909103816797,2.8484656622137416,-1.068377047709924,0.46282639599236663,-0.5142809553435116,-0.41752033110687004
0.0525,-9.418458525281943,2.710399044967884,-1.3649748011705893,0.49754533067808704,-0.5154637327623127,-0.3874337036402571
0.055,-9.615611460901935,2.9621203670150322,-0.7617151417036492,0.5346104973801002,-0.5268771994273442,-0.4015819601145312
0.0575,-9.24007253124911,3.4166099995146335,-1.5395099529193397,0.5832243522055673,-0.5290857456673805,-0.4185928457387581
0.06,-9.957842103812704,2.9604970092307634,-0.3841639474247591,0.6201752296989966,-0.5329639462207357,-0.44683543585284263
0.0625,-9.358719810307802,2.501102285612026,-1.3424454115962776,0.6237589219756622,-0.5160309763779527,-0.4073787401574803
0.065,-9.614361119425835,2.219351316586917,-1.360330533843706,0.632028610430622,-0.5068361155661881,-0.4202168364912281
0.0675,-9.502914615900867,2.2783300355004674,-1.160304637216377,0.625538351191611,-0.5222164873212587,-0.43845515534795043
0.07,-9.818766108721706,3.1714015712420753,-0.5437415367542506,0.6418745875249321,-0.5396846838440627,-0.478685487289212
0.0725,-9.588843023778642,3.9605118756488804,-0.2861925470228678,0.6278175115267176,-0.492935484465649,-0.45522295786259565
0.075,-8.716574773240424,3.3700978027874475,-1.545753208641106,0.6230678664808362,-0.4697750890592337,-0.5075650677351915
0.0775,-9.231932138074356,2.1769410711534793,-0.9750064703145866,0.6079338534604385,-0.4631021437178265,-0.4972835015061963
0.08,-9.713829435102038,2.54416197157263,-0.8872975875150098,0.5668174134453782,-0.45167140446578635,-0.5055327333493398
0.0825,-8.602889500985011,3.2961651922055686,-1.5092797249678815,0.520251798372591,-0.42867606620985016,-0.5137040451391863
0.085,-9.468541394427488,3.3064179716793767,-0.5637487133587766,0.48363514293893123,-0.41724763511450375,-0.531946535267175
0.08750000000000001,-10.302039585128682,2.229154599046726,0.12400024041944128,0.4656339014299327,-0.4060303540514763,-0.5633395759771213
0.09,-9.320840465281217,2.538729717635846,-0.24792441326977924,0.4118323247664443,-0.3795495063489034,-0.5623396801525261
0.0925,-9.880030496472832,2.7479698544518616,-0.052063708102953424,0.35889481994280276,-0.3714082228789323,-0.5627580253574834
0.095,-10.412843744415936,2.143743360270089,0.6715596819716413,0.30571888207967585,-0.35459250630654954,-0.6001172018906146
0.0975,-10.07796940502498,2.0632681976017038,-0.05514253239115226,0.25687022855103486,-0.352317,-0.5745518344896502
0.1,-9.799236959771202,2.1732581346043807,0.15781504099141408,0.2091232484270731,-0.335976,-0.5907992793136321
0.10250000000000001,-9.403514416017128,1.4908605164882203,-0.06824587331905119,0.1717588722055671,-0.32688049910064293,-0.5892759883511783
0.105,-9.506243305352111,1.8757190913078465,0.7753585108249426,0.10241677456740449,-0.2948834343259556,-0.5881448210865193
0.1075,-8.987105798473278,0.9373785404580133,0.7545920442748038,0.07201774229007628,-0.251066,-0.588439269923664
0.11,-9.313957695595805,2.128683926177312,1.0943036418303145,0.02732506875119161,-0.178984,-0.5527183289609151
0.1125,-9.098785092850333,1.366571,0.9273675365109636,-0.032558594280267014,-0.11715158207816966,-0.4741988730219257
0.115,-9.589693372898125,0.18172941424332326,1.5549799074184047,-0.055752556478733964,-0.06245811145400554,-0.4152046360830863
0.11750000000000001,-9.671926976984734,0.24522132225190763,1.6153711952290029,-0.06095511095419855,0.004815718702290582,-0.32998607061068685
0.12,-10.046604238625948,-0.4847491477099223,0.8575658027480826,-0.05162412061068714,0.0490245613358777,-0.21721059755725197
0.1225,-10.841159886596756,-0.31227506509056563,1.1586975577121035,-0.021927209037178253,0.05338129334604379,-0.13610189548141086
0.125,-10.676462665416356,-0.5073274126031508,0.5897660697674418,-0.0013279594898724682,0.013167768192048011,-0.03641203075768942
0.1275,-10.336266408772348,0.036828372157330765,0.4860552823837907,0.019393819213349168,-0.01856865811680573,0.006630757759237235
0.13,-10.131175694064366,0.19848668924910737,0.503711791227656,0.0033120943504171734,-0.011824503218116693,0.003334404576877262
0.1325,-9.709526631084625,0.11812071504170962,0.28323193015494724,-0.011420848772348134,-0.01264867899880807,-0.002715205148986757
0.135,-10.09182818725275,-0.012304231516484448,0.4806716852747226,-0.016878787340659254,-0.004734,-0.008660298813186695
0.1375,-9.839210369487482,-0.1581039427890373,0.15031966817640013,-0.011711932061978344,-0.005759358760429192,-0.002046290822407535
0.14,-10.082744435619217,-0.09007525755686813,0.5523130073125635,-0.005988097152485314,-0.011884665577085247,0.00557633189553507
0.14250000000000002,-9.776724106174013,0.11021411871275952,0.221593088438614,-0.0014118396662693208,-0.004022178927294577,0.0011369334445769366
0.145,-9.933352702359963,0.057660463504171096,0.27543940038142,-0.010213518235995202,-0.0039449005959476405,-0.002640111466030936
0.1475,-9.886694840238377,-0.05957140710369392,0.2699831685816439,-0.012174957044100078,-0.005104028843861675,-0.003998756376638713
0.15,-10.001068894398099,-0.1536360250297978,0.4022175103694926,-0.008356832657926078,-0.006187858164481542,0.0016067382598331517
0.1525,-9.921503234278902,0.013105480905840027,0.3616485977115592,-0.007551659165673408,-0.008977947318235945,8.027232419552431e-05
0.155,-10.019057885906735,-0.026611767253885907,0.42663822870466245,-0.0071907298445595905,-0.007019911398963729,-0.0024277175129533623
0.1575,-9.904509503218117,-0.02807240696066744,0.3547282823361151,-0.009511185363528003,-0.006078130727056015,-0.0011358033373063095
0.16,-9.960051179761342,-0.027106712744632108,0.38962409011933863,-0.005947167923627731,-0.008943623293556167,0.00045538930787591026
0.1625,-9.564987227264053,-0.16809366558627675,0.4222675809342309,-0.00578331935176351,-0.008333397712106859,-0.0014991540514776216
0.165,-9.610603505918125,-0.43659213492396914,-0.05673604865497117,-0.004893280982455902,-0.005651,-0.008463959766082538
0.1675,-9.990348994898696,-0.12064131594754612,0.333803133158532,-0.00900504333730634,0.005373094970202493,-0.007244059261025426
0.17,-10.102029051082754,-0.1174407490339028,0.39705939594604206,-0.006486104527889177,0.009291912679547938,-0.004806104527889177
0.17250000000000001,-10.129363954946367,-0.05235787480332782,0.4588568596901051,-0.009089785506555488,0.0006686999284861721,-0.0016038330393328142
0.17500000000000002,-9.965443843287673,-0.11043494557077649,0.28300588420091466,-0.00884963963470306,-0.004700616621004947,-0.003318256255708006
0.1775,-9.83370057785308,0.0009306828222195274,0.2618759237613453,-0.00673528773084837,-0.003308797211666461,0.0008997122691516303
0.18,-9.893193506703254,-0.03286946354527625,0.3453832157898861,-0.006261,-0.007345517892591129,0.0007526051336730715
0.1825,-9.899535695740695,-0.08291988052340926,0.29176345835294143,-0.005676294689075632,-0.004598773483793531,0.0003407524081632656
0.185,-9.795337058428908,-0.07841965125216027,0.20326025406755704,-0.007136755956009425,-0.005153651569520815,0.00010040705420267105
0.1875,-9.789792200865266,-0.008341289864029669,0.2103094981458591,-0.006752809023485785,-0.006109,-0.0015445704573547588
0.19,-9.995772174127247,0.009880055475402083,0.450964423819773,-0.007000002819299905,-0.008783578230842005,-0.0014454912890255424
0.1925,-10.061747767542574,0.010620978086565754,0.4950719498746453,-0.0058641281551561,-0.0071740091106906306,0.0005429093921475911
0.195,-9.978390321081417,-0.054119090500310975,0.3633032944251083,-0.007975129844623997,-0.004244780329397133,0.002129021072094473
0.1975,-9.814366817660634,-0.09327250283493253,0.2533114979375689,-0.0077928796113203086,-0.006261,-0.00109743698287383
0.2,-9.867287,-0.083692,0.349115,-0.009774,-0.006447038212010043,-0.006109
0.2025,-9.867287,-0.083692,0.349115,-0.009774,-0.006911193547016801,-0.006109
0.20500000000000002,-9.858856152337433,-0.027484259486818152,0.29353199887990544,-0.008497358631517262,-0.005981279306385454,-0.00387539996250729
0.20750000000000002,-9.735608477516555,0.013037937705770924,0.14121448869914738,-0.007909060681173138,-0.0038448423604541034,-0.0024113027483443775
0.21,-9.760085585135766,-0.0058813885488678795,0.20066239317379708,-0.0079899678897752,-0.004446929095157518,-0.000934885978567406
0.2125,-10.008368,-0.037661,0.505739,-0.009621,-0.004887,-0.00168
0.215,-9.98345242104286,-0.027241808410392462,0.4497166477039004,-0.008888211142323228,-0.0036911977069142244,-0.00168
0.2175,-9.921104846799688,-0.0011693128723853224,0.3095289452601122,-0.0070545147314485515,-0.0006988782277412755,-0.00168
0.22,-9.82729604822424,0.02603227166109254,0.20192759794234746,-0.0072408717502787075,-0.0046360468991877716,-0.001158445586876891
0.2225,-9.821324520094235,0.028836656133186728,0.25351798177477636,-0.008574437750903096,-0.007109507485471966,-0.0016955254656824267
0.225,-9.946128815265514,-0.023066188145639537,0.42718688704487773,-0.009699700520140317,-0.007168712301923307,-0.0006364887141647414
0.2275,-10.03098726985359,-0.045359837186049176,0.47354554467801435,-0.008714858826330194,-0.0011079611617664268,1.062911082013525e-05
0.23,-9.908727512678048,-0.035914710075373,0.3265873294200885,-0.007796229447777262,-0.0004945180433779473,0.0001970894447008178
0.2325,-9.795104419604108,-0.04538332092207477,0.21514804468053084,-0.008523410924580314,-0.001069,0.0006895387221247828
0.23500000000000001,-9.854584005825956,-0.031094926556592357,0.3157143494679756,-0.007296779529392986,-0.0045035487437186175,-0.001525699162479078
0.23750000000000002,-9.968427201759184,-0.012567548532033648,0.4408074125995491,-0.007273864994651142,-0.001394766100083154,-0.002596
0.24,-9.901000076236318,-0.021887477969101725,0.3631228781212643,-0.007076727927955905,0.0005080063224904877,-0.0009715766415651027
0.2425,-9.74169110086222,-0.009767972215182094,0.17761204108833456,-0.007808687518946449,-0.0005237537085352159,0.0007836875189464487
0.245,-9.733788021833865,-0.023087634747603794,0.19054219623003182,-0.007673987277955273,-0.000916,0.00012448693929712666
0.2475,-9.745934,-0.031683,0.215208,-0.007483,-0.0023608208107459804,-0.000305
0.25,-9.92353615909985,-0.0033815946966716456,0.4022444182862538,-0.0066445516563065545,-0.0024347534031001652,-0.000305
0.2525,-9.942779991900458,-0.014141806122784397,0.45817187365653245,-0.00882340328677075,-0.0020576382720976635,-0.003450044986500768
0.255,-9.888548561575396,-0.04652842403263774,0.2941384927161459,-0.009621,-0.001478357464302525,-0.0027052201537737294
0.2575,-9.832154505141874,-0.012720263358309579,0.2071514300159685,-0.009039609183147031,-0.0007564301584571899,-0.0015998340891782326
0.26,-9.82006,0.001793,0.204448,-0.008858,0.00020602814861165784,-0.001527
0.2625,-9.906476209528172,-0.011468167292716545,0.3537493790196988,-0.011371259917544682,-0.00015399853412735348,-0.0009809814017407198
0.265,-9.993259598431182,-0.0423767336419003,0.43755295267235095,-0.009888978962241153,-0.000458,-0.0021533197953715077
0.2675,-9.934386160416667,-0.04935876321759252,0.3328527376435173,-0.007678875342592584,0.0015061732268518723,0.0002625410046296628
0.27,-9.85073695730352,-0.03154216800993775,0.22460973715279448,-0.008445698086956532,0.001682014794202893,5.53314451344337e-06
0.2725,-9.83480927516563,-0.01695599479424021,0.2063898422944372,-0.00901,0.0009879768730820628,-0.000764
0.275,-9.928344824207961,-0.05909626206336314,0.36380106677498014,-0.006719323314378588,-0.0003929280259951163,0.0015488560519902324
0.2775,-9.97035458919036,-0.06164245899810454,0.41302422825886864,-0.010513419388031449,0.0006909980178716598,-0.0006189960357433195
0.28,-9.94498407201768,-0.04281446686209478,0.3319475194276728,-0.010710425659279932,0.001727918897225626,-0.0009950573861455235
0.28250000000000003,-9.84198557748789,-0.015300402278552602,0.18906241988037253,-0.010079,0.0035714541270294104,-0.0016126877698661875
0.28500000000000003,-9.877695641201985,-0.0483865146113867,0.2725896164143636,-0.009887375178923475,-0.0014497484819881738,-2.9123216440677378e-05
0.28750000000000003,-9.967570362435033,-0.057373861449310115,0.42687480510186004,-0.010174278702431452,-0.001641435115598306,-0.0024208211482167714
0.29,-10.030258375873016,-0.033634983336572985,0.4648083056300615,-0.008471025643019131,0.0030853485584709604,-0.0030051078976352434
0.2925,-9.944526433858327,0.0027498518662348904,0.3126525108905688,-0.008708770715569927,0.0028410875656239053,0.00016509291142271284
0.295,-9.855105040606015,0.0014822771511129075,0.16231819360249983,-0.008907242064818431,0.0010022544006247646,0.0007593741163607989
0.2975,-9.902362564435455,-0.021322641108863605,0.23920276395002865,-0.008511910177275435,-0.0010387065318262804,-0.0006557339916716128
0.3,-10.053489034797407,-0.015264640291734265,0.42614720497568803,-0.0104830843598055,-0.0007977410210696961,-0.002631892722852504
0.3025,-10.10060203745376,-0.025588599207302335,0.45513715335094906,-0.010611233576747543,0.002310751803987493,-0.001313394167667559
0.305,-10.018990794911925,-0.026638493449727213,0.349242005708496,-0.010385,0.0012888575900233882,-0.000764
0.3075,-9.980229355087213,-0.0255661438181162,0.27996614641645623,-0.009329811139179602,-0.0004797751184891106,0.0005252489354023781
0.31,-10.056063621569109,-0.04412679890314639,0.4077176862998769,-0.008217648596707096,-0.0003485422417530913,0.000305
0.3125,-10.073692256459834,-0.07975331587273686,0.42571433960274213,-0.00699808841624187,0.00030823853049745126,0.000305
0.315,-10.057296972422238,-0.03143198673064189,0.36616752531436125,-0.008969362908669757,-0.0005645594407677047,-0.0010242603077432182
0.3175,-9.978098623970553,0.030055077036333505,0.254120294015673,-0.009019783367371166,-9.783367371167745e-06,-0.0007379601709807621
0.32,-9.90309305508286,0.013026498727083412,0.1961655734720998,-0.009018727983348011,-0.003983757431750876,-0.0011902602930109701
0.3225,-9.970815474992301,-0.029551681544474885,0.279797873286747,-0.011414701774250871,-0.005956,-0.0008162629823522404
0.325,-10.094389430759728,-0.04024223565472515,0.4139732695336633,-0.010950300802964786,-0.00453741256948733,-0.0003071117665225432
0.3275,-10.0624938767691,-0.03813398189724278,0.38205438580347306,-0.00993025213652374,-0.0034771251694400555,-0.001744245388072406
0.33,-9.888833888118365,-0.03460923965262117,0.2032676900868447,-0.009623003911225482,-0.005188794004503042,-0.0018342020842714746
0.3325,-9.905467257973626,0.005714898835638756,0.2133487247089097,-0.01091053651978129,-0.003128910466387892,-0.0026065530138308195
0.335,-9.99396751929076,0.03842038586536978,0.32831557784403065,-0.009406231865683335,-0.004798060047073612,-0.0013145237784402812
0.3375,-10.062607977461784,0.039670926057589595,0.41052897746178496,-0.008780134802701746,-0.007396961464628534,-0.0025464181301102316
0.34,-10.092584129419055,0.006909799333849373,0.4181110459240898,-0.009646624133230064,-0.007744005437645234,-0.0017272801890007568
0.3425,-10.056180841955143,-0.04904446238420358,0.36468931865918963,-0.011290082593856679,-0.0025718004631885933,7.449254997564045e-05
0.34500000000000003,-9.989371266276777,-0.08291978318155929,0.2593286999136584,-0.009108707290054535,-0.0025476496603405027,-5.136356113057686e-05
0.34750000000000003,-9.948573655212867,-0.054933629120150616,0.26680661933774935,-0.008598668893093677,-0.006635549593188333,-0.0011146688930936779
0.35000000000000003,-10.01544887301512,0.013234068708937848,0.3945126301432774,-0.010794847494656883,-0.007941782886091988,-0.0008645844059209921
0.3525,-10.044946759361258,0.01585609069647497,0.4330616334750033,-0.010815269559022246,-0.00656101724603859,-0.00025729415550915593
0.355,-10.023243408975885,-0.019104187284685013,0.3577254053679931,-0.010537,-0.006934209389289062,-4.959538365173907e-05
0.3575,-9.888567301456828,0.002471312590448465,0.2416915596333817,-0.011240698581765568,-0.004963408567293749,0.00014272443801256274
0.36,-9.83892149274183,0.004604148456200878,0.24065784567226126,-0.010041340852855702,-0.008733318175671655,-0.0013409535116541197
0.3625,-9.83074233874622,-0.028855009335151977,0.27002804836012084,-0.009946812917383311,-0.011487688084929707,-0.00010587140738984018
0.365,-9.920009254741174,-0.022534709909767355,0.3691253959854357,-0.00962589396548995,-0.0124651627038151,-0.0009490874465727352
0.3675,-9.978494432938586,0.03205372586738417,0.36891850168828016,-0.010959740141913378,-0.00992211600195744,-0.0021008617665769485
0.37,-9.872379909988116,0.02460636949845501,0.2093917917946283,-0.010942397851200382,-0.012384967054908479,-0.0002452610411219445
0.3725,-9.797373309163016,-0.045179648771039804,0.07165222194143427,-0.01024508154945815,-0.015718262144339405,0.001097506792713857
0.375,-9.83459221341853,-0.055311224281150165,0.1649962198083067,-0.009781665814696486,-0.01653900638977636,-0.0001659923322683708
0.3775,-9.975828665227624,-0.03473048409841909,0.3450020948959945,-0.009731821975514084,-0.015097389649352191,-0.0013585635754189951
0.38,-10.006191987180188,-0.015553309161373291,0.38838266929967036,-0.010375474014633755,-0.010296368635523027,0.0008795526895553649
0.3825,-9.92157479883988,0.021265304821752394,0.28874233209425937,-0.01000200042537764,-0.008323082827794563,-0.0003856665619335459
0.385,-9.817646103790425,0.026303,0.19754796894911192,-0.011428207503763922,-0.007873790265582667,-0.001512704806985839
0.3875,-9.850111229196026,0.026303,0.2602130935260466,-0.010174715567600115,-0.010863226449864512,0.0008976623065341874
0.39,-9.94403412323802,0.014149251708417158,0.3884628692517124,-0.010858150337494972,-0.007521346864277058,0.0025125244301248562
0.3925,-9.948270162649006,-0.016851818013245284,0.43185825377483433,-0.013717081589403999,-0.0036944786754966688,0.002248639470198667
0.395,-9.883580560637514,-0.0455280880954671,0.2942900674195087,-0.01399627541886913,-0.005202037606919769,0.0014739452154412898
0.3975,-9.760064601694273,-0.020942666209180803,0.18605599728348265,-0.013629571263606245,-0.004537040747751988,0.003405932659725537
0.4,-9.795065314921194,0.03300379367949484,0.28380873601088213,-0.01184805459636769,-0.0045863520761661,0.0030971892791423197
0.4025,-9.922724761216806,0.009119250564943754,0.4502911166586208,-0.013937246393046884,-0.004651207126991788,0.002360977691936259
0.405,-9.92233620215177,-0.024075646988605794,0.4004772286799462,-0.012171117479265138,-0.004581,0.0016807717200216957
0.40750000000000003,-9.847383430115167,-0.03271886612104873,0.25745602044106636,-0.01234351602548398,-0.0037729135358980483,0.0016053138054398478
0.41000000000000003,-9.830966721500348,-0.0005391588268884515,0.2326104592760671,-0.012928295355406346,-0.004413347148259642,0.001079538917959395
0.41250000000000003,-9.969483603497542,0.024922350975161843,0.34223935536190775,-0.008801066476969585,-0.006244996893710335,0.0024094444009721645
0.41500000000000004,-10.03525565586342,0.047961310524631304,0.43959673720078385,-0.008515752359950201,-0.004631324894184575,-5.892675084478039e-05
0.4175,-9.99595809421014,0.047411582924320475,0.4064215167376937,-0.015466337095273001,-0.003971,-0.0007215504090129848
0.42,-9.880419603638401,-0.03028143583679943,0.254512749968001,-0.015842451574400014,-0.0027224073248000094,0.0019897238591999804
0.4225,-9.921655684662415,-0.0481954195864371,0.3722761948775396,-0.010953701691198367,-0.006647928497705748,0.000916
0.425,-9.993375758631785,-0.03848323511113764,0.46640871385495464,-0.01295762471843155,-0.0048345874858470965,0.000916
0.4275,-10.00247840558981,-0.015631922304487674,0.4947338189929771,-0.013396672339007262,-0.00539704032853231,0.00010531600523747651
0.43,-9.91925684033389,0.006508867289927604,0.3818831435058434,-0.01256740832498609,-0.005803,0.0009763115191986604
0.4325,-9.811945730065437,0.04059402784533009,0.30330300774301017,-0.012217,-0.0027977595954788905,0.001527
0.435,-9.793897222973753,0.030935985921021904,0.3224386923062543,-0.013422425572085053,-0.006352195052574183,0.0037366180699431395
0.4375,-9.868484,-0.040053,0.338355,-0.016799,-0.00845167162995057,0.00504
0.44,-9.868484,-0.040053,0.338355,-0.016799,-0.006985700057362543,0.00504
0.4425,-9.905346154917728,-0.05147614193245071,0.2553025564072743,-0.01460515896078189,-0.0031546634863293295,0.0022709628157862208
0.445,-9.809823642795152,-0.0026892150186224595,0.1695086721442507,-0.015307725673071239,-0.0027217425693171786,0.003051882939402896
0.4475,-9.797965404365355,0.021398587305941557,0.17469669020159623,-0.015023807370972508,-0.00452071836121786,0.0026731185669524077
0.45,-9.843922765260901,0.012029505694543642,0.22174507576840627,-0.01618171093638314,-0.004887,0.0052297087443412115
0.4525,-9.900957392512556,-0.0679413220629677,0.27391265578341323,-0.015981101722405973,-0.003718683190003665,0.0043466624868308025
0.455,-9.89550618750704,-0.10917039459259993,0.30613902204914073,-0.016238424154608144,0.0010876712052054326,-2.045103233954456e-05
0.4575,-9.808704703201029,-0.08845387733921331,0.2185075868945233,-0.015849399864020577,0.0024766001359794233,0.0007108004079382707
0.46,-9.808460147015998,-0.040401401159285456,0.22620122052399752,-0.01494056476698353,0.00022834031996287916,0.0015625585253883658
0.4625,-9.972369635369738,0.07023987549708663,0.3867437215594409,-0.01896287845257403,-0.001069,0.0011157794197152735
0.465,-10.047679148531268,0.07814750035682112,0.47523239952423946,-0.018289527251757066,-0.001069,0.0021739927194089127
0.4675,-10.083090366349584,0.027527830877525805,0.47601699957193755,-0.01744830705350772,-0.0003823681426872649,0.004886022187871621
0.47000000000000003,-9.99013501821823,-0.033431915873798596,0.3522220521815131,-0.017663906674084087,-0.0005599066740840876,0.0057522271922435045
0.47250000000000003,-9.928187034036593,-0.06772364555681074,0.2598550042557029,-0.014616694772983893,-0.0015225432753557871,0.0035273701739326384
0.47500000000000003,-9.951710724950164,-0.06463200886691636,0.3190412528187558,-0.012033302129016803,-0.0019289244717327183,0.003270626712383394
0.47750000000000004,-10.041264291346895,-0.01790030514441582,0.4188513512935175,-0.01316820934701382,-0.001985,0.004834407432536607
0.48,-10.051301665547713,0.002175065151532981,0.41438988149694567,-0.013357887112270919,-0.001985,0.003694475158057063
0.4825,-10.094689364665308,0.048567493684588264,0.4004527675919053,-0.014426463575619676,-0.0013266909495868828,0.0017804241647707017
0.485,-10.007412814688884,0.01873283356999146,0.33936331087821014,-0.013212957907107796,-0.001469174260645574,0.004322531832890586
0.4875,-9.946221544830752,-0.025376908042070302,0.32004258518348405,-0.012978730519450692,-0.0014191968401230902,0.005912437900151565
0.49,-9.934130148315804,-0.06021257441050831,0.33760441516373485,-0.014008379850273272,-0.0009780561539521442,0.005838753920911221
0.4925,-9.980135568978692,-0.04918440598089675,0.357231160911094,-0.012232042894930188,-0.006878383203526788,0.0033827025863335846
0.495,-9.99710049675002,0.02540874119410269,0.36001055147348715,-0.01396369520892726,-0.005634926679156153,0.0024868126350085537
0.4975,-9.984456,0.047824,0.333572,-0.014355,-0.004886120013728405,0.002291
0.5,-9.888968474288006,-0.019812525952667463,0.26514014953870835,-0.017302692258323305,-0.0053956563176895305,0.0033072849578820703
0.5025000000000001,-9.859666538437464,-0.027297918748129237,0.1534112100057501,-0.019560966567713757,-0.006719051294442574,0.0037067971142561227
0.505,-9.933430147817129,-0.002504923992272987,0.1883514511268514,-0.020052784700579522,-0.0049842856406954236,0.0043629406696716055
0.5075000000000001,-9.927012586629719,-0.011233469757245363,0.2987647741389068,-0.018245685375579752,-0.003746219921691455,0.0058483886223721325
0.51,-9.868863075327992,-0.08448598734534091,0.27875207491355936,-0.016991259777121855,-0.0033602914017227866,0.00526981165953858
0.5125,-9.791039219863125,-0.08982693865987655,0.20224399964985085,-0.015341111411746015,-0.004282431354448481,0.003733687919783581
0.515,-9.862070344122067,0.02762277613064852,0.24903196590296967,-0.013894145290261051,-0.0068887680581714355,0.0019026306305876671
0.5175,-10.097477085785199,0.13523238898329315,0.47439307067302805,-0.014438992649164656,-0.005242439894988151,0.003530302119331685
0.52,-10.147449354853855,0.06170775177837619,0.5112316269515188,-0.015272,-0.0025953096936260204,0.008243087259068011
0.5225,-10.05195011184657,-0.05797371807228842,0.3937293946987962,-0.017062351453159534,-0.005545300555692097,0.007417270567986313
0.525,-9.979178651043116,-0.034844892141862614,0.3333512241075564,-0.018066647148817786,-0.005628659550301297,0.004282759805285121
0.5275,-9.870431078582657,-0.06075443926956214,0.19181813213689491,-0.018485454555569002,-0.007542042413834781,0.006715552028056617
0.53,-9.976179505333173,0.02945429151771775,0.347220164092395,-0.017711291237150796,-0.009478401770468034,0.005069583170879169
0.5325,-10.015076631907514,0.09346971603161446,0.451963712388816,-0.020871219214344636,-0.004000898742479759,0.00685208011796622
0.535,-9.937265982377802,0.031015606868848702,0.3470129505629922,-0.020954733805452475,-0.004990647004355588,0.007532169791901918
0.5375,-9.824150157490724,-0.05391386913265234,0.16254222622912984,-0.022651739192949875,-0.010558793274582503,0.00817354758812615
0.54,-9.984019060634177,-0.08635275447246804,0.35753360144352053,-0.023469089799691836,-0.012326393865866522,0.006120851071283717
0.5425,-10.175413553979602,-0.04863755077247737,0.5283328687797438,-0.019201243699449116,-0.008439272136912482,0.0028227917196108564
0.545,-10.127463255034339,-0.018677784782505407,0.4996063218157408,-0.016641946282466225,-0.009424761831530792,0.004589438556880131
0.5475,-9.942956162965139,0.028804884452599037,0.36649109908256977,-0.01803286889785931,-0.005013615916819621,0.0021597367633027845
0.55,-9.899168510378681,0.09594497377279224,0.32876417854137435,-0.017300521037868135,-0.005816526647966393,0.0046515743338009195
0.5525,-9.924397253793103,0.01385679172413859,0.3063252882758622,-0.019495017931034465,-0.011241068965517216,0.005730474482758625
0.555,-9.989911721999876,0.05463679975788318,0.3316461835094695,-0.020502807885721213,-0.008120784155922631,0.005692141216633416
0.5575,-9.85559675906059,0.017453321179105447,0.16204547350886778,-0.02098771319653774,-0.001238809960656147,0.007727601074995457
0.56,-9.719086320269218,-0.03441667394093078,0.021625468252432015,-0.01743594759680092,-0.0011437994457201978,0.00830165406603849
0.5625,-9.828508621740134,-0.06717243653357952,0.20699941264712673,-0.016753444495730442,-0.005888487191322409,0.0055551054696515115
0.5650000000000001,-10.02605565737864,-0.005719503266990555,0.46951313837378406,-0.01729236550728154,-0.0035024620291261507,0.006032930327669907
0.5675,-9.99828875407767,-0.017130402529126235,0.3675760261407765,-0.016612190905339805,-0.0007817636213592184,0.006226993240291263
0.5700000000000001,-9.81943430193253,-0.005683178764186227,0.24173423480768905,-0.0177423929098361,-0.0024909263839849338,0.0061573951324085715
0.5725,-9.82369477585514,0.060470114752336795,0.28042906992523414,-0.020625790439252348,-0.003512,0.005073567172897191
0.5750000000000001,-9.943981903084735,0.08166821544709103,0.3870460294416269,-0.020381660398281886,-0.010201594502147821,0.007629642499023915
0.5775,-10.073450871139332,0.004470402031867007,0.3968144707655442,-0.020517208093925966,-0.013744,0.009827208093925966
0.58,-10.107549682672014,-0.021573317327987243,0.40226097032558106,-0.02207356788452283,-0.009530758101042588,0.0053645570457097995
0.5825,-9.994255042186666,-0.019727,0.31503563183999883,-0.024477934933333355,-0.005261725706666642,0.002786886879999999
0.585,-9.956359,-0.019727,0.283357,-0.025045,-0.009203243055599728,0.002749
0.5875,-10.111070773206976,0.0502720298818309,0.5018267064701096,-0.02527322365742366,-0.010542597028197015,0.003660402971802985
0.59,-10.222963171674477,0.0438108383866629,0.5326799929273557,-0.020929414675664934,-0.010219286154823362,0.006722115506153233
0.5925,-10.005970795957124,-0.07911856727590443,0.2504902502294531,-0.02181939303533149,-0.008693252166732814,0.006976038237395794
0.595,-9.852174002571097,-0.07916929662329598,0.18819376554109868,-0.02068201661082978,-0.00749293290845346,0.00571601661082978
0.5975,-9.881865230140468,-0.026770799648221932,0.33681846008550465,-0.021032201949432047,-0.006454389891291059,0.00412732257481371
0.6,-9.95048835090909,-0.013549059272727268,0.43071481563636316,-0.020669017818181826,-0.007682964363636348,0.004731834909090899
0.6025,-9.966970922894168,0.036006580969523624,0.3488386072666162,-0.019165995521958214,-0.009200578118550535,0.002901991043916432
0.605,-9.890097229669566,0.1304184423304341,0.2652149370086961,-0.01726253693913045,-0.0089612883826087,0.0031520873391304256
0.6075,-9.851745,0.11082277266954753,0.18827150248795413,-0.018140192321185963,-0.006704947957998711,0.00731224436318725
0.61,-9.891786513345233,-0.06790507561585082,0.32484978327740077,-0.019518772152802556,-0.006375477429489469,0.00931683850053552
0.6125,-9.94064768418422,-0.1917363732000498,0.35804533100083363,-0.022853675592050517,-0.006280016208496964,0.00969805945495657
0.615,-9.993545611366917,-0.16346643616127224,0.37850307276709655,-0.026222983220572715,-0.007717372230064081,0.005612644549363205
0.6175,-9.973855552768073,-0.05119748979525464,0.3586903540960084,-0.02586770105725848,-0.002493164562174483,0.0033176871301330143
0.62,-9.893906085546355,0.07937212839746689,0.32137933924987827,-0.026079676499431725,-0.006232510842669252,0.0023740321026140625
0.6225,-9.96698906046512,0.1427611307178974,0.4008887926794774,-0.025744475470171866,-0.008858,0.003561715551061732
0.625,-10.016447867792756,0.12293545273672242,0.4980905107195063,-0.026211429023875264,-0.007038802257592984,0.007155216826376482
0.6275000000000001,-9.886026546489965,-0.005039662564474329,0.26964979945557743,-0.02253951597421188,-0.008413632406876878,0.013084103424068936
0.63,-9.766215835388191,-0.12952475241593076,0.06444693294281702,-0.021228,-0.00926294340306834,0.014508
0.6325000000000001,-9.846356770052024,-0.08141304270002069,0.18260363041863562,-0.021909869764676772,-0.00681481833044329,0.006322585226653099
0.635,-9.996382502611128,0.014755289219770255,0.4321186003978871,-0.022543896366179674,-0.005956,0.005211723179981356
0.6375000000000001,-10.053802,0.048422,0.530846,-0.022755,-0.012768783242523625,0.006109
0.64,-10.076918204659286,0.08887761395914576,0.4826845548105408,-0.023935752995477944,-0.007003506452518267,0.005517978986433802
0.6425,-9.898286164341398,0.0010804421904323097,0.252067891090287,-0.022801356221016332,-0.0050107309028119655,0.010996986857424602
0.645,-9.913025046787997,-0.06838074609833998,0.26372690113665465,-0.02335832587484037,-0.010005299546615616,0.011008266877394616
0.6475,-10.107274662706063,-0.03472973225505558,0.49863849897355683,-0.024090614370139967,-0.011607291632970463,0.006379947433903661
0.65,-10.027017210785013,0.010933734287759882,0.34396790944881805,-0.023819310737294194,-0.0033683785254116166,0.007791459508470539
0.6525,-9.864361581255071,0.055804080229061706,0.2497405582677177,-0.02267278257695062,-0.005661434846098754,0.008555811615366251
0.655,-9.835314544211652,0.04103145168986052,0.2880546208227565,-0.0254057248692461,-0.006109,0.0077196401406942824
0.6575,-9.836799,0.028097,0.319225,-0.027031,-0.009380002481364435,0.007178
0.66,-9.987997729877936,-0.0541962988450717,0.4649107684694858,-0.024717136985915458,-0.010436884093896712,0.00798222053521128
0.6625,-10.01799474627523,-0.058335117137615265,0.42891493433639316,-0.02214575916819574,-0.009812733626911324,0.009886592954128418
0.665,-9.846797810725006,-0.07280832769083409,0.24059063382305707,-0.023434249709358066,-0.009209528284892998,0.007402335145320932
0.6675,-9.829825354982706,0.021030594512334466,0.1726738697348397,-0.020227957094766012,-0.009235634254092687,0.005505468858658064
0.67,-9.873876200545167,0.06501387532171168,0.21265932528684706,-0.021664492450079297,-0.01567272458954054,0.006934506332805104
0.6725,-10.066780825247776,0.12384968441738656,0.3578054013393389,-0.02264802883720931,-0.014911136072080885,0.008127686901254106
0.675,-9.947921834572357,-0.03775742085889562,0.2393429805485391,-0.021408548213641295,-0.006973796535546682,0.01446521598700824
0.6775,-9.96526439613136,-0.033232890470347665,0.2781761154264404,-0.021889760464332973,-0.003988136254059917,0.01109420749428607
0.68,-9.921427439818801,-0.029113845979615614,0.3685176694903753,-0.026725,-0.003950582650056657,0.011148
0.6825,-10.032395743491685,-0.06311428372176188,0.44810119409667987,-0.026725,-0.0055731035393693715,0.011148
0.685,-10.072565013523299,-0.014930212079876978,0.4431125770103929,-0.02736820068901088,-0.010813919385729438,0.009147762802755987
0.6875,-10.088473,0.031636710232158215,0.44801616852966464,-0.028160121238177127,-0.016341,0.007772246775580395
0.6900000000000001,-10.068537375386578,0.02750887884584794,0.49657230822891757,-0.027845483551729625,-0.01012754135501337,0.00926504585365854
0.6925,-9.881559523865725,-0.01654685116234636,0.2529362570493363,-0.02798710144068809,-0.007025,0.011846995063911129
0.6950000000000001,-9.732211826114083,-0.028420491585564416,0.014716574159094803,-0.02520498423593317,-0.009920015764066835,0.010878769853317757
0.6975,-9.785050151381942,0.022435140149266272,0.1391357646092033,-0.025406334988928084,-0.012585203280570827,0.008493483877634699
0.7000000000000001,-10.11101557527907,0.12869724087679976,0.6002407273797375,-0.024381187538055644,-0.008582436411609521,0.010499976090927614
0.7025,-9.951983322132467,0.07017320713618805,0.3462144833962506,-0.025572993018063737,-0.009449333016710646,0.013207786517826954
0.705,-9.788282104373344,0.029160567644764126,0.2092098214078369,-0.02781321907913216,-0.009621,0.013744
0.7075,-9.664262560105225,-0.09535632234365793,0.029044688217145315,-0.02753087772808799,-0.010620818844912125,0.013522222001674036
0.71,-9.856225005537674,-0.1386420476405926,0.22771589377727763,-0.024535997521108854,-0.012891757514736304,0.011043980595826074
0.7125,-10.043229723194724,0.017389169442810742,0.390984771304041,-0.024316670773942766,-0.010033790905878137,0.008118132453763669
0.715,-10.023022991796978,0.04297714789421869,0.49075664009198283,-0.02474,-0.0053901576675427585,0.007483
0.7175,-9.847708674553683,-0.01720856733139947,0.3676938850284359,-0.027023718453859587,-0.005759235463726093,0.008167965980266988
0.72,-9.828373962291169,0.011409065298328774,0.2865471036945111,-0.02638008294033415,-0.010655751178997558,0.009611212334128861
0.7225,-10.055666438090858,0.0821909255820725,0.4230922367147215,-0.026923609351907962,-0.0116758336426408,0.010001868540278614
0.725,-10.129834145178059,0.07606713765226186,0.4485153431608351,-0.028940063433935896,-0.009196158988284606,0.010929211482659622
0.7275,-10.148547513644246,0.053815048155612576,0.45223198674478593,-0.029490935570658537,-0.007371575476915849,0.010442511047574383
0.73,-10.059548999705408,0.05301225627761805,0.3950568027562117,-0.028384485507427303,-0.005069417870428191,0.009743747187617018
0.7325,-9.927582783025652,0.024778622315990262,0.396073003155121,-0.030789077525773288,-0.008139114303524464,0.012166296964756705
0.735,-9.956887578699574,0.0415931219553866,0.4027067050213575,-0.030100241689606087,-0.013409516620787827,0.011818281214997634
0.7375,-10.102369712786114,-0.018001110879669713,0.42847889574580816,-0.03184115959988226,-0.014565018170049954,0.012598803271550437
0.74,-10.094255665727568,0.02589038631832876,0.4601990138605471,-0.02844894374345397,-0.01107840270903208,0.011468475979994121
0.7425,-9.973425506326999,-0.0022315805650779813,0.4523359179249646,-0.02800195151459012,-0.009081818045391366,0.012075070569708234
0.745,-9.858890185390313,-0.021521,0.371590449842898,-0.027416523242979246,-0.010142955050875048,0.013906996926332923
0.7475,-9.892769887557536,-0.008519663469520895,0.16454596909426067,-0.03019947881296458,-0.016799296147487344,0.011758703852512653
0.75,-9.867793013024086,0.00862859191198335,0.14441505596193877,-0.028485214510853403,-0.016037262325304787,0.012520737674695213
0.7525000000000001,-9.755169826110372,-0.04697741715041723,0.0602839351593093,-0.02561127043886008,-0.010788950352290298,0.012368279985571703
0.755,-9.689496511352113,-0.0328651227605633,0.17677355690140875,-0.025698068929577465,-0.008357271718309857,0.011512152591549295
0.7575000000000001,-9.667148110263488,0.010143698419072585,0.2373356507904637,-0.026114,-0.002279465345043674,0.011148
0.76,-9.733524268354554,0.06355202701808471,0.1786600345730271,-0.026600432127159193,-0.0049036020338983285,0.01318986888978997
0.7625000000000001,-9.913332721968372,0.05506569968365401,0.3560567910017671,-0.027630220292911574,-0.010367940480375048,0.01403272039835968
0.765,-10.162569910017162,0.19808527635204817,0.7828960704388355,-0.027500309085560184,-0.0050491545084579105,0.010471719450845771
0.7675000000000001,-10.007030863889907,0.008256756655726866,0.5150528052516121,-0.0315100794335548,-0.0022482437603007477,0.013526494020321717
0.77,-9.820761824254529,-0.02949435672654044,0.2532053219782503,-0.03125675598872331,-0.009106983474828904,0.013795941612565442
0.7725,-9.901458673450668,-0.013890039962946127,0.17027904061139373,-0.03091997651690597,-0.018211514247336604,0.013479644566929136
0.775,-10.052119288010966,0.03169907972264821,0.3854131006853204,-0.030194586745142298,-0.01511578000483748,0.014952098089171991
0.7775,-10.13056282963138,-0.008991550784497773,0.5063247645935725,-0.02989267754253308,-0.0072019513137997326,0.01573
0.78,-10.047643128407502,0.0006575049340987286,0.5022755084602263,-0.029735821011009456,-0.007309362729105314,0.015336998812218944
0.7825,-9.925089832404522,-0.02224089462462743,0.2722235593146979,-0.03208555878167753,-0.009147348330755489,0.011911392842355801
0.785,-9.891469018265413,-0.019001512267502275,0.19510098127481745,-0.03200945074190176,-0.00996226449320795,0.01364406959247654
0.7875,-9.915535751329479,-0.027372654913292355,0.27387008843930205,-0.030371852485549158,-0.010483211329479773,0.01639213479768793
0.79,-10.008019483711633,0.03164137564103954,0.4560560726796249,-0.03147041195812148,-0.008737579553694294,0.011226913921627278
0.7925,-9.814137373549508,-0.07036251677654728,0.15791859581693302,-0.03386554397606938,-0.009216856887825304,0.01103557938378702
0.795,-9.636919968947552,0.06205301315733956,-0.06488783719505334,-0.025229804846198994,-0.010662743467295253,0.011743864094284046
0.7975,-9.721195366305716,0.15270233896499436,0.14480358684953237,-0.02944313685033089,-0.010062282376206048,0.013141130547803198
0.8,-10.039882694462184,0.18063355376635834,0.5741795872965295,-0.030994908011490598,-0.007107883562081009,0.015049641126715644
0.8025,-10.065776900759799,0.006179084481847674,0.5168280896465511,-0.032105853238759315,-0.006106847030536184,0.018507230521760024
0.805,-9.897770712504723,-0.04729404450850644,0.24132930441713465,-0.030863153235664742,-0.005353688147447993,0.01717624612476365
0.8075,-9.679578,-0.016141,0.094452,-0.031612,-0.00682533293918917,0.016035
0.81,-9.787825148678763,0.013793737373952467,0.19376139780478333,-0.031612,-0.014026772300287633,0.015346531417503044
0.8125,-10.068553876562776,0.09142664359922521,0.4513109153019898,-0.031612,-0.015154313083289312,0.013561053354463814
0.8150000000000001,-10.152062542353786,0.12521595245511893,0.569990571706696,-0.03219570748583741,-0.012702153533870499,0.01498060350754015
0.8175,-10.066334550014627,0.08089809804973166,0.4867691514870791,-0.032896705733788396,-0.008425146270112132,0.016255719824475868
0.8200000000000001,-9.688763619019946,-0.08199857689655844,0.1192299107350118,-0.03243786740471864,-0.010054927940109183,0.017632465099818584
0.8225,-9.668818,-0.08967,0.101626,-0.032376,-0.012188745405763503,0.017715
0.8250000000000001,-9.88734380459307,0.02677152163861035,0.2587418062999508,-0.034617338195360454,-0.010078206998215452,0.016798452773682956
0.8275,-10.055245311659515,0.01703519057404554,0.45912135927171627,-0.03299323877072942,-0.008858,0.017547872410993863
0.8300000000000001,-10.028775106565456,0.09029065835129328,0.4990713393796928,-0.03131495050277504,-0.006547735132223224,0.016815558638589575
0.8325,-9.90590823061133,0.10274707164386693,0.4069092007388505,-0.03330320757400111,-0.005642074726022107,0.017747277653605398
0.835,-9.758941472991623,0.019704088053229797,0.14960568697881366,-0.0360968023558403,-0.010144239142434536,0.018672922414982775
0.8375,-9.856398684789959,-0.049597236310961246,0.10225542617093394,-0.037185402897151144,-0.009549578657653228,0.016379794591984527
0.84,-10.09895667681576,0.022413117097277453,0.4656844228339019,-0.03651146069440101,-0.007789,0.013070112030028195
0.8425,-10.089620920899318,0.053140422142062806,0.6619446254478079,-0.036962914841260054,-0.0022582653835700036,0.014947375476219951
0.845,-9.877546525973276,0.06827488343830561,0.32815033464093607,-0.03564005565992032,-0.004108960712666984,0.017556344305696626
0.8475,-9.880311997670457,0.09347426035037912,0.18619044810606128,-0.03660879026515155,-0.011883398693181942,0.015753359573863583
0.85,-10.131328991123638,0.09765106601691505,0.48260781628674665,-0.03685823895287958,-0.013443189657672178,0.015825233846153836
0.8525,-10.071735,0.016141,0.50275,-0.035277,-0.004276,0.018173
0.855,-10.071735,0.016141,0.50275,-0.035277,-0.004276,0.018173
0.8575,-9.86770024513618,-0.009692293866290048,0.2781363543261347,-0.03594863194906263,-0.015461565022992873,0.017949610965688003
0.86,-9.927973382676866,0.0021767537471408006,0.28595402047480023,-0.03381895050082816,-0.019548,0.017868
0.8625,-10.081553975915382,0.03760585691038083,0.38834038377310404,-0.03327743668487739,-0.0170884508194815,0.01669178519121233
0.865,-10.03399620043363,0.11158338029390477,0.4238105947867983,-0.036118409636232224,-0.008278867877619887,0.015315062153697908
0.8675,-9.986848,0.148254,0.431014,-0.037568,-0.004478739404834227,0.014813
0.87,-10.104539575078533,0.030129291011955887,0.4544495920325073,-0.03706615555833398,-0.014966,0.020881781545674775
0.8725,-10.27424989930646,0.050310786011858434,0.5991723201796708,-0.03790448307121042,-0.014293335523746668,0.017110975947775074
0.875,-10.13722160831287,0.051061877163562315,0.4974333812660957,-0.039343237108462596,-0.009018741390668982,0.018357561178654846
0.8775000000000001,-9.728147787208398,0.06745383437114777,0.1211468240082164,-0.037075656895685906,-0.007585474453321379,0.021274556142433183
0.88,-9.742307313596232,0.06305300497856155,0.17185693712422284,-0.037161372657769184,-0.014867269569418449,0.019342402661996494
0.8825000000000001,-9.963000931442725,0.08084504548342336,0.388387026255214,-0.03774205035086661,-0.01805878055438138,0.01789165828371275
0.885,-10.011592424326583,0.09189448588878177,0.452381759614272,-0.03896794946962392,-0.011127004873031143,0.019053808473159763
0.8875000000000001,-9.715409265023585,0.0065416312735853185,0.03467816219339924,-0.039885810283018894,-0.008471953443396494,0.02023003985849049
0.89,-9.79312223555132,0.022792147114712516,0.18499873654591786,-0.040566955497299016,-0.014661,0.018139178929138855
0.8925000000000001,-10.009215675269507,0.03342022224757772,0.35411021532061515,-0.04006829990372604,-0.01417835351993812,0.01765132324003094
0.895,-10.027095743711891,0.013303665266535782,0.33548423526475296,-0.036166752191121386,-0.0115137603209128,0.018983619839543598
0.8975,-9.79280287493888,0.0625061072167365,0.31360010977667974,-0.03705435260225667,0.001339048690644049,0.020215273453220505
0.9,-9.81453667074518,0.11113277162670471,0.3858030959920082,-0.039030600387870255,0.0049150280794546634,0.01974509039727315
0.9025,-9.93678155658788,-0.042334367443307624,0.4719804776820624,-0.04108657106178761,-0.005079864763047145,0.022337801377324475
0.905,-10.141968146448654,-0.07347206354893229,0.5505231024953693,-0.03941018229238821,-0.016006475109142257,0.020324452530003985
0.9075,-10.088407240873114,-0.051058983286159855,0.4637151950395799,-0.03925655138402493,-0.011456575725593806,0.01963184188054688
0.91,-9.799447963281052,-0.03327804241001881,0.19777845066004276,-0.03935118441159875,-0.005513320379104197,0.01898553733950125
0.9125,-9.733109221281138,0.06689729926453007,0.05935114256227721,-0.04159111330960849,-0.01637484559905087,0.018481146120996425
0.915,-10.053895541058337,0.17905877918451202,0.39726066778571456,-0.040516825465583675,-0.020159,0.018537528611042735
0.9175,-10.10479536672137,0.06021558548698014,0.3406024090902632,-0.037882150153407075,-0.011738122140563781,0.02094294744202637
0.92,-9.917826293943072,-0.03150203015989842,0.1254724008666426,-0.03782252937959706,-0.00957100966741287,0.02031059856092098
0.9225,-9.98901057772727,0.037292312636362866,0.3424011702424217,-0.03896654166666666,-0.008255229939393954,0.018503485727272735
0.925,-10.179225559722937,0.05644077528647118,0.7057402740379739,-0.04068532589362069,-0.008372646399863199,0.020194325277920352
0.9275,-10.194564408076076,0.019270441363794653,0.63951975664618,-0.039809597532181384,-0.013924902600023164,0.02284432895280064
0.93,-10.038190944366548,0.03426655622442937,0.298696690833825,-0.044054156076085774,-0.016630846933843785,0.019160736365593865
0.9325,-9.820658778593373,0.11329184414807844,-0.014745905352245466,-0.04391282197398623,-0.01243917802601377,0.019201028407980693
0.935,-9.796310289685128,0.08746716561473666,0.07453332729562898,-0.04278161144605965,-0.013570388553940346,0.019766325103878536
0.9375,-9.844738602440051,0.07921650868441613,0.47004294897529897,-0.043867284091592046,-0.006775987258849691,0.020114355369914058
0.9400000000000001,-9.891829678586456,0.11161466491976756,0.4647688744852454,-0.044059492565659,-0.00706461506580925,0.021461705263537502
0.9425,-9.793523119228086,-0.019894241646129254,0.32730890373866506,-0.045604139990699843,-0.010455255354568715,0.020635098507323875
0.9450000000000001,-9.781736807828944,0.010034188858815712,0.13047078713541613,-0.0411759105277487,-0.0137248954881077,0.0187464030079282
0.9475,-9.75642402817942,0.08635705866154975,0.07530715156632299,-0.04138378958982971,-0.012982056761813375,0.021797554636603524
0.9500000000000001,-9.837729587050363,0.10160994436450821,0.24563472901679262,-0.04733701966426853,-0.00794334436450842,0.02092346570743407
0.9525,-9.978351683388258,0.09482141450916683,0.4725706828498504,-0.04523126945462983,-0.008934571928521703,0.02154318572290555
0.9550000000000001,-10.080800377793768,0.04098384180498629,0.6903119527263833,-0.042648373554485114,-0.00938482627721204,0.02336096490761633
0.9575,-10.06054180507104,-0.02285019638758508,0.6046898620915904,-0.04557753182998966,-0.009970530049393259,0.02375164722726996
0.96,-10.022713575570553,-0.009604609312883875,0.479946214576689,-0.04742123207361961,-0.0149818799631901,0.021222191055214768
0.9625,-9.872293285762181,0.06189863568435009,0.14609417284157156,-0.04744829874266554,-0.018000228427733213,0.020729456855466424
0.965,-9.815793413178914,0.17643629942491865,0.09602725650159649,-0.047189,-0.017182113600638996,0.019786912571885005
0.9675,-9.93559305312432,0.2029626068538093,0.3659513750200554,-0.04730223227123588,-0.012238082304046584,0.022706031877506447
0.97,-10.006506273440475,0.04929317399282454,0.4721238610828519,-0.04704375760337027,-0.010889262387267902,0.026163979154314215
0.9725,-10.068599715110059,-0.027476678686081925,0.4761007140941414,-0.04449891925499487,-0.01286169937013211,0.025054795529969472
0.975,-10.036782388867879,-0.0017377183918444242,0.3738630331661609,-0.045674163068321935,-0.009906651385349055,0.024647598832524865
0.9775,-9.822477603674612,0.01838514002201848,0.15863066724403277,-0.045142330456269066,-0.012092157710091854,0.022260266211620725
0.98,-9.891481480656934,0.20086321810218818,0.30137714884798295,-0.047147534915899694,-0.01264168401459855,0.018620914366867684
0.9825,-10.058202714827834,0.29443942690572306,0.5699440432628874,-0.0481173446354785,-0.009943569774400321,0.02239244015673251
0.985,-10.014522858134518,0.1744593506503815,0.4726153682709402,-0.04884885061548223,-0.009859990034898472,0.02826507962880708
0.9875,-9.811105824725532,-0.01947913178998012,0.2032494860859132,-0.049327,-0.010232,0.02883515852028635
0.99,-9.70897007712169,-0.04109170884615397,0.17874492608764164,-0.04764844702395966,-0.010034789423076925,0.02519138661727618
0.9925,-9.771974978640102,-0.0068123630294648855,0.33854174837184325,-0.04597406165996521,-0.013674830477105026,0.02442793834003479
0.995,-9.867902408793135,0.07481962153033654,0.4118980184888674,-0.046934978392846424,-0.01694207322570965,0.023467021607153575
0.9975,-9.81801842798499,0.06741868157811778,0.2343870301052809,-0.0489059096115213,-0.01754404519423935,0.023506935815079285
1.0,-9.734902327425445,0.11141775025044309,0.012342861215997536,-0.0485072243970101,-0.016284224397010095,0.0212387424674424
1.0025,-9.632566934874621,0.07473219604648591,-0.1617687474006081,-0.04741322255168198,-0.012600845132721835,0.024600780697247523
1.0050000000000001,-9.769615931078812,0.03611359262270006,0.16030173814766394,-0.04659399218250458,-0.00852343075588384,0.024687942482126968
1.0075,-10.003163275109092,0.05829136162071562,0.6708722963222384,-0.04784235658595068,-0.003213915157036519,0.024007185835531065
1.01,-10.0984768637989,0.09377162868813838,0.6977712226928512,-0.04672512130086409,-0.011452769326001616,0.025517447095051066
1.0125,-10.003930283157041,0.16242877200976236,0.39511572888528046,-0.049770459723352194,-0.016646,0.026159887550854355
1.0150000000000001,-9.853369929313011,0.1098931883795602,0.2611398786617421,-0.050405222135968604,-0.014725576125729159,0.029487269486843652
1.0175,-9.779483336718656,-0.06661315151804287,0.19397058951779783,-0.05126290961304919,-0.012819187803309864,0.029105866977021062
1.02,-9.85421554717376,-0.03107688877498195,0.24464317079708547,-0.05109237018810251,-0.015272775290383223,0.024706813338819637
1.0225,-10.035133122381845,0.027140898876086644,0.3920305991535366,-0.05052715493298849,-0.010189536240301037,0.021883202560545538
1.025,-10.09445035541005,0.059562207971843945,0.49360446393844837,-0.050496838746112285,-0.00901,0.02233458990014727
1.0275,-10.073955030904878,0.10843490409203418,0.5261214637492279,-0.05040016508647312,-0.008563007276096333,0.02357797706917854
1.03,-9.953476427753037,0.1660873301432187,0.43272198357443475,-0.050597916663858475,-0.007952526104224332,0.026548829274280965
1.0325,-9.874176554326853,0.1299459246652278,0.3258637583297337,-0.05189129749940003,-0.012651188951283808,0.03027401005039595
1.035,-9.933619025143193,0.07061401691076506,0.3495031930530665,-0.05126818046605404,-0.019478365476430493,0.029698402684850363
1.0375,-10.062591697029355,-0.027510065105251044,0.41194584722205974,-0.048799223871924015,-0.018908845395790075,0.02713494057515556
1.04,-10.106328994858995,0.0708337101572026,0.4523109867825268,-0.048258,-0.013450284183584703,0.026573
1.0425,-9.918923420000002,0.11528219200000027,0.2915971760000022,-0.05202791999999995,-0.012593251999999973,0.027715195999999987
1.045,-9.758192584000003,0.08381538412015896,0.2013615526450604,-0.05105100199209494,-0.013286,0.03014236068932799
1.0475,-9.711261,0.071736,0.185916,-0.049938,-0.015144219246376933,0.031154
1.05,-9.931203659951745,0.15599429354713346,0.351663923530789,-0.051858330224955285,-0.014820126099478458,0.029637984650112834
1.0525,-9.966461809978618,0.048637980000000886,0.3753503397101453,-0.05150303793300072,-0.010233976716559777,0.03198184877167971
1.055,-9.888014665079316,-0.020405433137689936,0.3005542041085042,-0.04941662405139599,-0.01029537594860401,0.03005719904187827
1.0575,-9.734954978461175,-0.009089985573316646,0.21234899829326756,-0.050487977518114,-0.011148,0.026267558261069423
1.06,-9.735955585557281,0.08468399254269104,0.24352320812170297,-0.05280645345544866,-0.013482017721204661,0.024603967612542667
1.0625,-9.905123108651672,0.34166826484588836,0.4373075500416518,-0.05087625639652505,-0.015264587885279067,0.029319738248244676
1.065,-10.03902462915625,0.29802876040223825,0.604404618269662,-0.0543059971272164,-0.016884308994406724,0.031797362487206896
1.0675000000000001,-10.047487113321361,0.09824943175582043,0.5634855194111222,-0.0567446463195692,-0.015890472675044752,0.0336142893931778
1.07,-9.722878305047267,-0.17287278194840427,-0.03627433153340944,-0.05258910930940558,-0.020026496340330095,0.03098572385515124
1.0725,-9.721344641896003,-0.05539016274495788,0.025926877453132727,-0.05316735550524701,-0.019330257780922032,0.02445656963565616
1.075,-9.914222249818284,0.20876082571987667,0.4213082229801508,-0.05081668990774393,-0.01405,0.023846540732457292
1.0775000000000001,-9.944597828549064,0.2271614730556341,0.4324071424620265,-0.05029440505824245,-0.01405,0.02809908266890339
1.08,-9.933896380247557,0.20154992087752788,0.2583983161316293,-0.052017366126597624,-0.014602823033108607,0.030925290510214334
1.0825,-9.81928227587294,0.16152816836875947,0.2346373993694759,-0.05398349504657273,-0.015028224905660368,0.030780976307618838
1.085,-9.754907047251015,0.021548781963221464,0.08866945944112936,-0.05532207606400762,-0.01359385207547172,0.033075597181753014
1.0875000000000001,-9.843990511502101,0.006293513345304894,0.1565502540036056,-0.05327190326750438,-0.01196315286654676,0.03050993369239975
1.09,-9.947901820294438,0.05656052739677002,0.4363957982190395,-0.05135547531777372,-0.007842895526032184,0.03031854190305206
1.0925,-9.99163,0.077714,0.554161,-0.050549,-0.007881172976588661,0.030238
1.095,-10.092691900138192,0.15078926770550294,0.6066354481486769,-0.05382609278055749,-0.015304501691684444,0.029245118913509664
1.0975,-10.147927429333652,0.17183325332216873,0.5922401359732049,-0.057144514573513494,-0.01927022061490607,0.029933293958607422
1.1,-10.074087484352873,0.12127450396945152,0.46073782017340975,-0.056829175642351404,-0.01750010088298456,0.029493175642351405
1.1025,-9.93916970867979,-0.03725406550549913,0.20390734058219118,-0.05883706070781501,-0.01976869460562878,0.03048410878125381
1.105,-9.905546,-0.084888,0.135103,-0.059712,-0.020215727436548227,0.031001
1.1075,-10.237266294520483,0.11763707618101558,0.6415170388594569,-0.05744566300711315,-0.01827508804513129,0.025388256754966795
1.11,-10.179994549688494,0.11302496209713006,0.5927011580058847,-0.05469626947265135,-0.01601693320578848,0.028530512649006745
1.1125,-9.961820812960605,0.17399768182973502,0.25489427598474285,-0.05505199771283359,-0.015119,0.030002529860228725
1.115,-9.817130459989036,0.23240037563013982,0.1450694308655654,-0.05950081375159896,-0.014391829150271068,0.0334087716732655
1.1175,-9.902276721781078,0.13579942541512086,0.3642356749491326,-0.05647714390692582,-0.012441198033745555,0.0374077570762014
1.12,-10.020380887758837,0.047069531059679606,0.6372150113702924,-0.055500334783800225,-0.012458020919610253,0.037883912161997546
1.1225,-10.067851053531172,-0.05056145202493992,0.6670910067082256,-0.05849332917206995,-0.011125285895261785,0.03484264887281784
1.125,-9.799624674247697,-0.04077154018720507,0.09944173884118512,-0.06137458869033805,-0.012786874448828034,0.029838177303318635
1.1275,-9.607559793067008,0.06504273110297293,-0.1626439186757932,-0.05911548951774642,-0.014404465293649516,0.028422474041063156
1.1300000000000001,-9.72265941745775,0.2104518689794486,0.2584403565065567,-0.05397019697846958,-0.0108347182727157,0.03134587769857708
1.1325,-10.17423355739354,0.28230203464277487,1.0585413743030172,-0.05361999671864097,-0.009961044817314572,0.0351416974726554
1.135,-9.954440715318059,-0.07525327546429458,0.30232053114306445,-0.05885098542042407,-0.018590233960516712,0.03723441152571288
1.1375,-9.76423457464051,-0.12337775148671618,-0.13652756431878338,-0.05592350843285406,-0.02376155625152318,0.03362394176212534
1.1400000000000001,-9.772823960082022,-0.08949491992744196,-0.013573523255506537,-0.055677719492113587,-0.021932926820189085,0.031156926675078758
1.1425,-9.975344287522706,0.13690605298432793,0.5917058166490041,-0.056002193604527774,-0.013615725178634262,0.028509730918523674
1.145,-10.115279683559447,0.2760273233552157,0.7213491164113779,-0.05961255927060543,-0.010644553085339166,0.029180534325310006
1.1475,-10.016206033487483,0.2752480315514564,0.3215837981742031,-0.06390744517551211,-0.014924503419192419,0.0315069634503414
1.1500000000000001,-9.95369719056715,0.17368198792594602,0.02541980808865754,-0.05908035392052786,-0.014553265770545795,0.03341364461738012
1.1525,-9.952415540624951,0.047053549789869545,0.5176738820904248,-0.05760808587733577,-0.008779647663797595,0.03673533110645897
1.155,-9.879025600749099,0.026854725176470747,0.5648046603313315,-0.05832801564465788,-0.006848743932773102,0.03448556435054017
1.1575,-9.97742971905625,-0.0022661463553948213,0.5642229843983599,-0.06150951924003472,-0.013916146717993155,0.029117622679746748
1.16,-9.995088942624816,0.1924882643414512,0.40280493020952507,-0.057719742020406764,-0.014275371010203382,0.028090894599267845
1.1625,-9.936667387564764,0.27431074487046436,0.33071619813471664,-0.05360958590673565,-0.014139969326424943,0.03288935170984485
1.165,-9.809264951512814,0.2363197433529906,0.30435511473341953,-0.05664527580214244,-0.013492675450716017,0.036166344782765605
1.1675,-9.887406879162032,0.08154854419458034,0.2868702560018954,-0.06979953446325012,-0.009565244488105062,0.03314040119540772
1.17,-9.672252090325488,-0.07276860727896355,0.04649205773938425,-0.06487126449520668,-0.015061922324535291,0.03645714798200961
1.1725,-9.894783249303437,-0.008737695113905902,0.38623053735769514,-0.05724434036761653,-0.0157247411718514,0.02873171339480106
1.175,-10.019323714246626,0.18590223670216274,0.7110034226161499,-0.05962579487240502,-0.006484597894235751,0.029684170447921022
1.1775,-9.905079683369507,0.27688385126083215,0.5325095433773148,-0.06091768526504801,-0.005564918379264561,0.03080897610430166
1.18,-9.597274754329604,0.30087884438810236,0.033196438883481894,-0.061239,-0.012278179761091912,0.031612
1.1825,-9.592277138487836,0.3004475449421145,0.00157215495729629,-0.061239,-0.012958074091816117,0.03470069562634753
1.185,-9.908246836288718,0.19364595882726457,0.4433900629365518,-0.05987534896502995,-0.009316,0.039820698259743416
1.1875,-10.098615381151708,0.0019094373019195136,0.6943178954135024,-0.06421295186270407,-0.008719428093045505,0.036622963702684926
1.19,-10.054759911085332,0.13385206325180607,0.49340551695509605,-0.0646913728924236,-0.008815363109489922,0.03135657021826239
1.1925000000000001,-9.80170009443297,0.12357635381442726,0.1342289942267817,-0.064904,-0.010650042886598087,0.029016
1.195,-9.886653105109117,0.19382740924475067,0.1849474119250483,-0.06100330346069591,-0.016720068052243218,0.03447748605175649
1.1975,-10.239356278991313,0.18997622160231664,0.7632754643194977,-0.06713828738899615,-0.011000035135135124,0.03629105583976834
1.2,-10.224230494280889,0.20169932152509631,0.6449115020028979,-0.0678145227557915,-0.007811797297297354,0.03590517784749035
1.2025000000000001,-9.702705855597843,-0.02494091685814145,-0.0952238964680715,-0.06720856077301551,-0.004918616482305122,0.04059493894125297
1.205,-9.708280358868931,-0.010820043663524403,0.02591525618353538,-0.06559426717410631,-0.010994128856482478,0.03622820327227447
1.2075,-9.88199704813042,0.06657189844837642,0.29177708326974483,-0.06670622011330793,-0.011790473848999863,0.03372533052607237
1.21,-10.037334113236266,0.18251139298975266,0.4605438123780896,-0.06667067837608814,-0.011087788281334256,0.032799462679300534
1.2125000000000001,-9.951577686874986,0.18884359062499487,0.3641630704687348,-0.06548866437499994,-0.010510664374999933,0.03471382500000024
1.215,-9.852405853626372,0.2054013679120895,0.3422023018315035,-0.06570513948717951,-0.010331287472527477,0.036627640439560474
1.2175,-9.876242813852668,0.08446674127010748,0.4753987547502137,-0.06810627715495347,-0.010385,0.03901833476714652
1.22,-9.994308840100839,0.03953888634071802,0.5270481521986247,-0.06655228035141333,-0.016288447074102288,0.039222443358288776
1.2225,-10.103257908342854,0.09764645237203326,0.4399315899088201,-0.06721747083768985,-0.020439740201823663,0.036195096967781316
1.225,-10.042682066261094,0.06528197793488719,0.24219761486352442,-0.06721272660309105,-0.016975200493258617,0.03676920055902672
1.2275,-9.867382406590089,0.06181525102216097,0.18093597189001093,-0.06562542762269402,-0.009963560329504465,0.033718757085508665
1.23,-9.869623586233095,0.21781501904166206,0.2973231164042826,-0.06579290336277652,-0.008094,0.03406970912530288
1.2325,-9.855766817769283,0.2544788276665878,0.2005062021877217,-0.06658182629090033,-0.010063356379269169,0.035360683496536864
1.235,-9.974786579890141,0.227905677936469,0.27835614580368107,-0.06935478013852411,-0.009968190656794837,0.0367944302364462
1.2375,-9.998315259923663,0.13795472881679144,0.47700735267176086,-0.06795522805343504,-0.005918456679389188,0.04077377767175583
1.24,-10.01083630849791,0.1835802897008681,0.6401634845416528,-0.06580265255709232,-0.011491326960437406,0.03918438929559345
1.2425,-9.794621471639307,0.09256038414359088,0.3761502778069166,-0.07139932384709635,-0.016525297892673194,0.04032403213428086
1.245,-9.7366376083901,0.14785600274687813,0.11234322753490672,-0.06904446007841206,-0.023392044670424206,0.03845992557216361
1.2475,-9.946885009248161,0.25928198124815927,0.30610151489926996,-0.06764694177886982,-0.012828,0.040008470889434905
1.25,-10.090630952416053,0.3537448524160524,0.6367189876330877,-0.06948302325962327,-0.012828,0.04092651162981163
1.2525,-9.898536964451052,0.11654743751329877,0.3886481464591858,-0.069486,-0.013328188642477312,0.040928
1.2550000000000001,-9.662539070959397,-0.03970387949448079,-0.1055929899144498,-0.0716572346366647,-0.019956109997688213,0.03819229820759799
1.2575,-9.826467237284179,0.14480743217375633,0.2019687294056168,-0.06831123962280218,-0.01935178411388932,0.037070181196082026
1.26,-9.976722302690272,0.2248926873225044,0.5040048039982976,-0.06675212315142666,-0.016331793371053102,0.03775213516821804
1.2625,-10.089171733960248,0.272686687240863,0.6790116366745016,-0.06919835879461414,-0.015119,0.03792407976063261
1.2650000000000001,-10.114776,0.280368,0.705404,-0.070708,-0.014929238471977871,0.037874
1.2675,-9.946512278505935,0.1565435918311847,0.43186773555661984,-0.07103854869755034,-0.013931777380548101,0.040519111302449805
1.27,-9.741039637428218,0.0770522944365542,0.2749986453318921,-0.0689450009231244,-0.010695154634146315,0.043373078656992914
1.2725,-9.895791604577457,0.02847908669014163,0.4278778308098544,-0.07029039932595567,-0.020216429159959467,0.04026519686619729
1.2750000000000001,-10.086341802390445,0.08227053492696326,0.4201384725880737,-0.07476567111944402,-0.020746331489727106,0.03578100254667585
1.2775,-10.015683635619535,0.18899806889705556,0.38128152583097236,-0.0663323814926813,-0.013285071937834854,0.03774810836696596
1.28,-9.814427281346905,0.22486920895849685,0.3276633585591224,-0.07009439501957718,-0.006532270289741509,0.041316841816758064
1.2825,-9.808244951416489,0.1843470083720941,0.3374593048907675,-0.07312828280479207,-0.010062147681465695,0.0408339986469345
1.285,-9.925320605465574,0.1371578693827369,0.3938706960342997,-0.07251462799126289,-0.017068406119245844,0.03870714463878332
1.2875,-9.99660345809927,0.213939649967942,0.35325871489033833,-0.06773764152879287,-0.019395,0.041142616339618
1.29,-10.029710019104025,0.22401023567198147,0.5006439695398662,-0.06921810783295373,-0.014319931264996116,0.041453473041761564
1.2925,-9.932005637529105,0.22276485101449295,0.5173061950867206,-0.0742767035685436,-0.007586878137324744,0.04300937530054643
1.295,-9.79126875135187,0.1967024185507254,0.281254522803523,-0.0737062024899026,-0.012722633480636585,0.045387293551912504
1.2975,-9.743376151040039,0.22394442010340534,0.12126588635324842,-0.07258932563664776,-0.018544624215462553,0.04469065127329554
1.3,-10.054211430247673,0.21297505167749603,0.38901220587856444,-0.07565793065167745,-0.01772611761812742,0.04135504948767501
1.3025,-9.985577867121027,0.06469723277006903,0.39635266764798877,-0.07265752611277008,-0.01181924385736872,0.04641773330757068
1.305,-9.83205127520185,0.0036679868610982012,0.2659652847223639,-0.07103023782501239,-0.011983017462514366,0.04165394392486426
1.3075,-9.741260808337028,0.12465717924612925,0.13072166687360953,-0.07660621339246163,-0.014396751574279491,0.03714004133037684
1.31,-9.729854580317664,0.23906502357773324,0.13848037620407594,-0.07689210873736557,-0.015870927803625888,0.03805908046847429
1.3125,-9.915803092392608,0.23346042836573072,0.3883233525317974,-0.07202250923926085,-0.015314122150227982,0.04415067578593713
1.315,-10.01796657730607,0.3200213081879168,0.6816089777930331,-0.07310359547370057,-0.012271036797253077,0.042474287092242956
1.3175000000000001,-9.961695893139792,0.2818407594098678,0.6466805946079596,-0.08063637437239789,-0.008754968704342486,0.04161161302558009
1.32,-9.669725255030219,0.10694647712912278,0.03972868890402825,-0.0817310566857851,-0.016119050122461898,0.046230610416989754
1.3225,-9.51578,0.025108,-0.282759,-0.08094,-0.026919087612423204,0.048717
1.325,-9.8031115441529,0.07734972653448637,0.13871412472988576,-0.07920220486762444,-0.024102072135819066,0.04468520605485001
1.3275000000000001,-10.170839607951809,0.2740885743132649,0.7494066014457925,-0.07354143826505992,-0.0054262677783126385,0.0418119690891568
1.33,-9.860163374111664,0.30043200588197866,0.38148984162435035,-0.07521479646573614,-0.005728796465736156,0.04388047820431477
1.3325,-9.674057466344681,0.29630465732595135,-0.04560182382377437,-0.08104325423960425,-0.01734742737660514,0.04416402027565084
1.335,-10.07212939274956,0.24901631918927222,0.5545597676922108,-0.07828230864736943,-0.012860580307057565,0.04702907575702401
1.3375000000000001,-10.116634854954793,0.17750329600096715,0.8018109214758309,-0.07400630238485321,-0.005961066035560042,0.052762232963165547
1.34,-10.098634685680473,0.12561451457514644,0.8765869420307703,-0.07780016994082858,-0.001448021992899283,0.05107912801893479
1.3425,-9.94102058915809,0.037075279027126914,0.5263961638540627,-0.08050799216089805,-0.02320460567820435,0.04697633783910192
1.345,-9.885631087094168,0.12973440525924568,0.17221778893232412,-0.07993184778549509,-0.03207,0.04496436240994994
1.3475,-10.115453480353036,0.38720856726579217,0.4460205025797607,-0.07665918841672124,-0.026271250865287463,0.046664531130061346
1.35,-10.002936504466572,0.25861872030532074,0.43181604649054756,-0.07942866966426153,-0.016053121927365608,0.049051950277297474
1.3525,-9.780057693462435,0.08561291345167578,0.2242864276564458,-0.08322695315043929,-0.01454183778614554,0.04904954552148704
1.355,-9.826515043980635,0.033535706982248885,0.20180700385153325,-0.08236583102743411,-0.018944590998744813,0.04751845283844362
1.3575,-9.872163662729305,-0.0053483930648761165,0.25261777447427003,-0.078711990604027,-0.020769,0.04695906583892617
1.36,-9.943201691955554,0.07943381494788514,0.48365992268073627,-0.07500128332684153,-0.017533011492725074,0.04286581458128037
1.3625,-9.932751688359302,0.3130289671860716,0.49630570504124094,-0.07714171310724113,-0.012254748670944036,0.04136132410632457
1.365,-9.87791283223135,0.30922099396648073,0.4220740643969766,-0.08236157693066051,-0.015567794965494557,0.04463506827472888
1.3675,-9.90233470534634,0.29294508257560886,0.40843882540487897,-0.08143955914146356,-0.017467685112195146,0.04643620630243899
1.37,-9.784117812456934,0.07595047845993946,0.14070546216441138,-0.07968422933980814,-0.01903304419932958,0.05154726997803192
1.3725,-9.85296872623656,0.12052314193548483,0.1243985232258061,-0.08116574150537638,-0.02319873634408611,0.04627104989247301
1.375,-10.073281007748776,0.2039967681892333,0.45989840913539964,-0.0797144079934747,-0.01896588254486134,0.04460851215334421
1.3775,-10.00446593028654,0.1606961171060204,0.4173586687965706,-0.0749392490544414,-0.01173568167621792,0.04815046545845258
1.3800000000000001,-9.832004002390596,0.2701875558968784,0.24950756763541318,-0.07599072580619742,-0.013977874294725457,0.047000988608373255
1.3825,-10.097953403839329,0.4366118172769807,0.7859862172474085,-0.08188093805322812,-0.01080743197387879,0.048889838486939514
1.385,-10.070921176574668,0.3149667945860025,0.6214756764095608,-0.07882280671759485,-0.012089728277476595,0.054118506638738316
1.3875,-10.067844844341312,0.17698930414374067,0.5310275420672286,-0.0771386656235497,-0.016945598674003706,0.0543698896108202
1.3900000000000001,-10.055085875905716,0.07106852095649097,0.4667343989196444,-0.0774460152898679,-0.02151406488904064,0.04995690579735034
1.3925,-9.92666223841704,0.1257679262059747,0.3368643025438722,-0.08035994922909352,-0.017293426261648637,0.05092379696962387
1.395,-9.88143533888341,0.1199289443486562,0.20554534261809948,-0.08037000464450453,-0.01893738425322092,0.04832989164307296
1.3975,-10.005665549445325,0.3274369984033256,0.3398072289408541,-0.080481,-0.018326,0.045772714524305126
1.4000000000000001,-10.033319225337241,0.2535038812316615,0.47421186277615207,-0.08723762170088023,-0.014640423734115096,0.04728858701857293
1.4025,-10.127666865780908,0.23261619159881627,0.6527330514026712,-0.08252715008882285,-0.013744,0.04884649131014069
1.405,-10.155428,0.236729,0.69823,-0.080787,-0.013448486090118571,0.049175
1.4075,-9.97591316239259,0.11676490331929457,0.4690913495871989,-0.08288181860151639,-0.01659353233361409,0.04774139912384165
1.41,-9.752780295334754,0.12420449332323319,0.0584418162859871,-0.08236535714026058,-0.016827906452590167,0.04586535714026058
1.4125,-9.823255762268941,0.3418301211446062,0.11865011992911359,-0.07965183013421107,-0.01956422522157531,0.04420746183844006
1.415,-10.092059,0.420851,0.759206,-0.082161,-0.004178800065983294,0.048106
1.4175,-10.092059,0.420851,0.759206,-0.082161,-0.005971522790149628,0.048106
1.42,-9.794239852676583,0.24005894331294872,0.37474076351792984,-0.08484396493842844,-0.009000965491379898,0.05098033638515918
1.4225,-9.560268134266515,0.1432931403200203,0.035993753457913294,-0.0827610360962499,-0.016267595500183623,0.05203846707707336
1.425,-9.62297547254576,0.13423683760399305,0.20209038920846698,-0.07997180675065364,-0.017945335726170655,0.05157472940337532
1.4275,-9.876525192494741,0.23449579835086204,0.4677557978965086,-0.08156713233487589,-0.011884523533866206,0.04832991379049222
1.43,-9.867483201721257,0.34902116950056805,0.3487094313600606,-0.08166292147605024,-0.015349317600817272,0.047848447317747476
1.4325,-9.704437348084106,0.3859260251376778,0.13370750271173412,-0.08332628542814001,-0.01441827584524207,0.04905417802718728
1.435,-9.646221008625936,0.2885002921130136,0.0381192360879007,-0.083994,-0.013439,0.053555159053368856
1.4375,-9.80777681055384,0.11356798740194914,0.29306881198003326,-0.08563859710007131,-0.01015052365105776,0.055303110767768004
1.44,-10.2320609360454,0.07423862506332023,0.7891643206045401,-0.08563898176105134,-0.009932837020310711,0.04830196385663087
1.4425000000000001,-10.246665206917564,0.1285346921218663,0.7861682996917562,-0.08716925127598574,-0.006297898831541051,0.04638897036559131
1.445,-9.9837072766416,0.2669923260014284,0.3758054533037774,-0.08444229995093762,-0.00905613748832804,0.04497912512146867
1.4475,-9.808264877557795,0.4658158086828698,0.259652431881447,-0.08386308358980439,-0.010996,0.0481505416384114
1.45,-9.830608028020933,0.40589317535680564,0.3415405882492855,-0.08527766146527115,-0.015006078163653572,0.05227372069457653
1.4525000000000001,-10.122982256330234,0.3684567193784864,0.5854316810675084,-0.08733624389514899,-0.013267880612026692,0.05321738770252634
1.455,-9.926945197051957,0.1841664746582605,0.1401198551810824,-0.08594324659527551,-0.009873608869291273,0.05857662017637816
1.4575,-9.684870365432936,0.04600834974533076,-0.13946339667232552,-0.08711739809847202,-0.007463012020373496,0.05455546315789464
1.46,-9.809626753585967,0.16218207878483948,0.29332059749451145,-0.08638825523332293,-0.004086765161290374,0.04877598122142191
1.4625000000000001,-9.898373,0.236729,0.539813,-0.085368,-0.0025512073855243826,0.047189
1.465,-9.950252446517121,0.38817231517985673,0.555835006680835,-0.08653768051003546,-0.01175690201967767,0.05449806740968153
1.4675,-10.027580787881883,0.37952380574067146,0.536261761895734,-0.09244585594847501,-0.016952,0.05820580941548183
1.47,-10.046627,0.341942,0.524868,-0.094531,-0.017828836568204953,0.058032
1.4725,-9.81336115460914,0.18560374470464283,0.14105474317653421,-0.08533898667138362,-0.02677841809692205,0.057504113038556806
1.475,-9.956566790994444,0.2822033918218058,0.4122683249642214,-0.08669680922832165,-0.019161526237071853,0.05114769231503551
1.4775,-10.018262860032184,0.396987425194722,0.491243441725132,-0.08995,-0.006893417006758791,0.0513354544061797
1.48,-9.854582786519545,0.3649455636154488,0.28915821640568123,-0.08974323496185,-0.006195461838243816,0.058154462650545795
1.4825,-9.890229852424607,0.4005426263839127,0.48146412963960833,-0.09275602146114227,-0.009934294964452228,0.05259954668301098
1.485,-9.996363172380267,0.28751693667387923,0.6623018310950717,-0.09197862446209376,-0.006909727672683424,0.05775168660409189
1.4875,-9.726374307432758,-0.020878534690198878,0.10779553543468044,-0.09038726615033624,-0.019459790501921218,0.06131776193563863
1.49,-9.837019346894811,0.13982064778818384,0.23424727891210329,-0.09125289535302594,-0.01888249451729107,0.05083829742074932
1.4925,-9.7456357872777,0.3494240979497806,0.3164843034358197,-0.08984553350128449,-0.000928093859285528,0.052464426962791
1.495,-9.689274066936271,0.34215132358001127,0.195968449327914,-0.09024351792823404,-0.006037588248943617,0.055649605820833815
1.4975,-9.632912346594845,0.3348785492102426,0.07545259522001896,-0.09064150235518356,-0.011147082638601251,0.058834784678876345
1.5,-10.144033365628914,0.3721070964394346,0.7232945647700841,-0.0960224052603328,-0.012779952138128468,0.05537203784219002
1.5025,-9.847114034561551,0.17003902619452158,0.19341270250269232,-0.09196861936595287,-0.02306,0.06162205399210442
1.5050000000000001,-9.837740324596243,0.13741889184352044,0.16454142492403262,-0.09216054678310803,-0.02306,0.056832649556166785
1.5075,-9.946259794198152,0.26344161141839517,0.34230554092659404,-0.09411916190068909,-0.013337111793774828,0.04874846617723899
1.51,-10.079780334452554,0.4213053268993975,0.4055867892827673,-0.09009195150428434,-0.01288318038717869,0.053641632332592865
1.5125,-10.09557929729416,0.3851551158285942,0.29570099593543464,-0.09189819923353837,-0.014232441435373373,0.055645837161769886
1.5150000000000001,-10.058208750811776,0.2766402980836135,0.4350331897576174,-0.09661927592646839,-0.004808621376280504,0.05600503810639344
1.5175,-9.959798079224411,0.20051152835906458,0.6298856323447083,-0.09429056308797108,0.0018675747648115662,0.05788584172351891
1.52,-9.696385074305379,0.18073631724342926,0.2870660342866049,-0.09127726411764704,-0.005625266251564527,0.05735346790988735
1.5225,-9.722135560913541,0.25919032760865923,0.10528278616405813,-0.09184131889995255,-0.01172773912754856,0.052724994202623776
1.5250000000000001,-9.954984743597985,0.2980700009630739,0.24809855676011056,-0.09310677493517713,-0.013592,0.05045197523151041
1.5275,-10.022716,0.236729,0.37781,-0.092699,-0.00989397570822711,0.053145
1.53,-9.913443914618451,0.30519498927681005,0.2896256225635883,-0.09108962549127178,-0.006012818822942649,0.051326264788029874
1.5325,-9.729279471214841,0.35103434157749913,0.06802240856493331,-0.09513407764452414,-0.009964769622980183,0.0507461625900658
1.5350000000000001,-9.901612678238447,0.23755752180615664,0.276123539351774,-0.09275377255076818,-0.011904321353826595,0.05503435987895225
1.5375,-10.188120270347751,0.2083751396289315,0.8723989691367906,-0.08693672169758895,-0.004012661282079276,0.054544125119431026
1.54,-10.084037295630726,0.20873334456396508,0.8372685177512729,-0.08812886189989459,-0.0018284920937779155,0.05354575073578324
1.5425,-9.749588848140997,0.2304826345485269,0.23076064798165724,-0.09184385584741668,-0.015997842259777715,0.05177197388701112
1.545,-9.65633518922945,0.3571382089598711,-0.1194122306630249,-0.09059303001168688,-0.02249008814647445,0.05244294560810279
1.5475,-9.79116778777724,0.34466836601280837,0.02930314767867695,-0.0897677720354855,-0.022202455929029016,0.05779905374075932
1.55,-10.068014499599686,0.47045586008006773,0.5059919274940037,-0.09626139029623713,-0.008131034395516098,0.05468303461969564
1.5525,-9.93257446115094,0.29569312410631615,0.425582559324556,-0.09913524256278956,0.0019803426188734785,0.06419912995854671
1.555,-9.744568440687642,0.1214443900804725,0.1439557820117115,-0.09825631547183616,-0.007293456825164364,0.06253971561082668
1.5575,-9.978628946987579,0.21329156671989927,0.4307003494153852,-0.09360651175393254,-0.018508457309228055,0.0554786580934487
1.56,-10.246466132495769,0.23863464541647314,0.8631721591593609,-0.09307730753810627,-0.017097437314857467,0.05660937241878378
1.5625,-10.015684648089374,0.2805517921797639,0.39336885248190934,-0.09452676336168593,-0.014508,0.05836231953789514
1.565,-9.85872878590488,0.39734290777640274,0.15715237253860342,-0.10063798833230374,-0.017118223168622538,0.05528418928968507
1.5675000000000001,-9.867284430972955,0.3396442943972493,0.1302820238355124,-0.10174967584873312,-0.017666876088605964,0.057675616580590235
1.57,-10.076490560506747,0.1818338221302079,0.42912036095953704,-0.0947040442604106,-0.01863418481173005,0.05993416268152475
1.5725,-10.15369650413607,0.2873488577571851,0.6820621071835786,-0.09601891551436952,-0.012341498810557162,0.052984041053372406
1.575,-10.030081229430493,0.3925964453012616,0.5528205803560915,-0.09308526784577295,-0.004539567951892254,0.061520323240183895
1.5775000000000001,-10.007907945638484,0.3970313493361634,0.4729966350666155,-0.09081897871949052,-0.016434804004245372,0.06435225736116039
1.58,-10.012284256991837,0.39356822398124935,0.38615686221288037,-0.09365748366604718,-0.01725611410328934,0.065057
1.5825,-9.980803214867608,0.3419812412665484,0.31987493032656633,-0.09812276119152696,-0.016035,0.06404802767431597
1.585,-9.937405603941412,0.2947124945805597,0.2435354147769653,-0.09715761979027968,-0.014151452616511356,0.062870696741012
1.5875000000000001,-10.095646,0.169775,0.455524,-0.096364,-0.020207399575496603,0.062919
1.59,-10.095646,0.169775,0.455524,-0.096364,-0.017847006221331216,0.062919
1.5925,-10.233709297038649,0.24133197767149897,0.7808975050579772,-0.09754692289855076,-0.014218397367149709,0.06055315420289851
1.595,-9.624319870813077,0.27162811493713335,-0.13835907091366337,-0.09098290246437547,-0.017383939044425693,0.0620154506957251
1.5975000000000001,-9.583787530293375,0.2656236957873305,-0.10758359760507549,-0.09596900627948778,-0.029176809110286864,0.058659153667824024
1.6,-9.892800568169939,0.3323581953209205,0.34093560926583544,-0.09665478331537632,-0.021512807480375075,0.056176906479913725
1.6025,-10.127012706739293,0.323793690170833,0.7048051129586557,-0.09437371226541218,-0.011976512612032596,0.061415288942807796
1.605,-9.917877007008183,0.28333521236121056,0.5231017388166171,-0.09693254754666028,-0.014778920609959455,0.06005207939004055
1.6075,-9.82737860900697,0.35423602007693744,0.37704034740562714,-0.09981834995912474,-0.017257,0.05467794690550628
1.61,-9.788936069218442,0.3163252874935806,0.27157852145578465,-0.09647174409829672,-0.018778852781709387,0.0588737296212772
1.6125,-9.682377327642273,0.3410912715447177,0.08671968130080887,-0.0922700991869918,-0.024434735772357878,0.062156
1.615,-9.79367291765207,0.49754485906745505,0.20854214688757308,-0.09665273742011832,-0.02457514062958581,0.05682726257988168
1.6175,-9.988522253107451,0.5872095696896248,0.4639927569481819,-0.10255317754420663,-0.0189008920588601,0.05723692195375276
1.62,-9.97617560012758,0.42681019251414426,0.3958356770018266,-0.10049224808866898,-0.016952,0.06719605349493707
1.6225,-9.896620309175633,0.1745777351247723,0.3095505695659369,-0.09844099036782969,-0.017485625324659984,0.06733688482081591
1.625,-9.985901626098661,0.1133988158999129,0.5793822312138728,-0.1000781991448254,-0.013968506690949404,0.06276888676854858
1.6275,-10.10098357459247,0.22129329384568674,0.646754313999157,-0.09755808709081024,-0.019786793013110864,0.06003021442088098
1.6300000000000001,-10.125601764555618,0.32998952715123453,0.5134411578152316,-0.09736422312126156,-0.02568887386381515,0.0569340927895594
1.6325,-9.99479555904682,0.4029779466793768,0.23841484527581555,-0.100841135613011,-0.020483506507803784,0.055589
1.635,-9.878234537055969,0.35587823924943357,0.13312546922031698,-0.10083336261404076,-0.012500539048851483,0.05955250115820125
1.6375,-9.854796510782842,0.2755650399399651,0.31152465066750357,-0.09750875340864215,-0.013262734702583042,0.062438705853542914
1.6400000000000001,-10.016738,0.408895,0.651602,-0.098502,-0.016828827879799675,0.056963
1.6425,-10.016738,0.408895,0.651602,-0.098502,-0.016995676627712862,0.056963
1.645,-9.855262184518969,0.43688397327784634,0.40239159620072934,-0.09643966407833533,-0.018135393057527562,0.06005672897919223
1.6475,-9.70247143159047,0.4756805427881518,0.12168823026400456,-0.093921,-0.02484705938828061,0.063835
1.6500000000000001,-9.911592789166589,0.5194775667822605,0.3789793807246523,-0.10014188207581097,-0.02484513141217186,0.06361289491809156
1.6525,-10.050356327274766,0.42647503137887754,0.4396535962750937,-0.10177331638281135,-0.018631,0.06898764129249442
1.655,-10.035867,0.367049,0.357484,-0.099571,-0.019018080859828368,0.071471
1.6575,-9.948932923740298,0.3012153934180205,0.404749334453069,-0.09967900842625264,-0.017840714208421576,0.06414054576334995
1.6600000000000001,-9.986198151993024,0.143121865182472,0.5630620958267321,-0.09914300730879082,-0.023062491853380312,0.06253789777848313
1.6625,-9.962806467197295,0.453311989375308,0.32967887823203107,-0.09692635545103714,-0.02444490894838386,0.05585392051374838
1.665,-9.876626469126867,0.6358751155885216,0.33497044392426445,-0.09663677042450555,-0.020872517245537816,0.06106834783646896
1.6675,-9.65553697387838,0.49116341581081346,0.2767230102837845,-0.1027559379729729,-0.015587932189189234,0.06502258967567566
1.67,-9.74950549861443,0.408359276477824,0.35718215233732187,-0.10370569202330858,-0.02098955735513084,0.06812117013596625
1.6725,-9.89721087847978,0.11277680103861655,0.510042055438121,-0.1024490094715718,-0.025552259254484753,0.06775910179142577
1.675,-9.851470775494072,0.18939203146245198,0.35452315478260593,-0.09991699652173909,-0.028278748142292538,0.06269571351778648
1.6775,-9.753485251920972,0.32353849406331764,0.1828539412330404,-0.10169751071649605,-0.021874143622946967,0.05908401302547014
1.68,-9.612147786265009,0.6018720862614314,0.11206095220368446,-0.0991888105648197,-0.022408643026716888,0.06847311042495967
1.6825,-9.923113775626097,0.5820155125909978,0.48559366839281976,-0.10349630135915384,-0.02183456161138005,0.06818544299085529
1.685,-10.13695920594053,0.529224658658109,0.7680751243110121,-0.10345449353807365,-0.019577836122156588,0.06947146485990952
1.6875,-10.303083,0.469871,0.999522,-0.102014,-0.016914300275482092,0.071166
1.69,-9.997206126312221,0.19970528021041462,0.459967158054559,-0.10290682754713924,-0.020963797008982647,0.0663070701561869
1.6925000000000001,-9.873637306233237,0.3051119293196358,0.3312485824966981,-0.10167739009546796,-0.016890743792144995,0.060201729232628634
1.695,-9.958897582868099,0.3012727661962395,0.5932721349946068,-0.09862453654726258,-0.017388923622858564,0.06284650573858869
1.6975,-10.030615809584283,0.3530897817083984,0.512917320282736,-0.10227011885467834,-0.019403290001198042,0.061408121265125196
1.7,-10.046627,0.364658,0.494978,-0.103084,-0.01736246288643286,0.061087
1.7025000000000001,-10.064535022342428,0.4874536258804515,0.6028512249146928,-0.10362820188972727,-0.012549397594892334,0.06337435971213021
1.705,-9.767829158967709,0.3554110013429267,0.31091758077500575,-0.1007773029787233,-0.018575188356929326,0.0706311670868055
1.7075,-9.66075829338744,0.33978334028228674,-0.11451051825687818,-0.10327750833450951,-0.023671,0.06070516453775583
1.71,-9.988112694629494,0.37296111371912444,0.24454659538225795,-0.10186473039049637,-0.023671,0.06192924320159961
1.7125000000000001,-9.997982856071733,0.3369603062777685,0.3397997609759981,-0.101251,-0.019134285060999817,0.062461
1.715,-9.92449803471273,0.39508183182235695,0.4488465952861148,-0.1015409834285043,-0.01499986117260023,0.06267836892022091
1.7175,-10.126602119777,0.4831510779621608,0.7880275532578137,-0.11313096481821949,-0.011027222342684438,0.06176914822845629
1.72,-10.175304529057588,0.44151276617519764,0.7746437657624105,-0.10752769706423113,-0.023848195485439636,0.07031646365695976
1.7225000000000001,-9.997446958710475,0.19447842617661046,0.4254855731801632,-0.10279111994613838,-0.029474,0.07456527169584162
1.725,-9.89239408347576,0.012210829245404481,0.15138553137562866,-0.10355506874473495,-0.027959432181971205,0.0651547276206513
1.7275,-9.979215788320488,0.472735098935789,0.5268965990997,-0.10246508997186532,-0.01140023954006079,0.05542633766850159
1.73,-9.895815340252208,0.624140374763556,0.5516990441708707,-0.09919898406368224,-0.014820409303278607,0.0632884686948297
1.7325,-9.944312118288815,0.6777408610093145,0.5490437669285698,-0.10222013896583833,-0.02370468990993769,0.06575533007453423
1.735,-10.057811628325027,0.6199762789979936,0.5689348086141557,-0.10782751198903305,-0.027145390408773555,0.06657765168993048
1.7375,-9.934796103615566,0.2971118552616322,0.33731809312694283,-0.10637810537137567,-0.02462556740210231,0.07213026836086413
1.74,-9.778512323564357,0.5356973195222385,0.20506685167373817,-0.10657986445387393,-0.025646242533396205,0.06581874541568442
1.7425,-9.899006721464623,0.40627443058655927,0.36611333295414017,-0.112399,-0.023635766128688167,0.06857
1.745,-10.05141291001795,0.5202222185213581,0.4536027658739147,-0.11070194261993041,-0.02565636365115448,0.06833242085656177
1.7475,-10.159397797932769,0.6117095023399948,0.6017073833257598,-0.1059125381839932,-0.02651815538700803,0.06766192932408181
1.75,-10.016284534719436,0.6271665191458617,0.5355298225897086,-0.11033176816247893,-0.018616540900698402,0.06955258408926708
1.7525,-9.835517855866351,0.4467993956849708,0.15734552553700476,-0.11412431812887826,-0.019843063178997398,0.07289381850119322
1.7550000000000001,-9.800770295,0.2608944904385896,0.09325142795739727,-0.11331874736842099,-0.02359803855889733,0.07288995766917288
1.7575,-9.942192108203708,0.2662669192839031,0.42691036408371963,-0.10904830385387669,-0.022176763038587052,0.07034453144308689
1.76,-9.995722788209296,0.3636478708389238,0.6591163196369668,-0.10644600148370294,-0.017061087942545954,0.06677277996685343
1.7625,-9.87951856489937,0.5741996328694597,0.4605097395514747,-0.10686088262219663,-0.018260069120183898,0.06634123220241515
1.7650000000000001,-9.724971716603767,0.5801885864150891,0.06440601396224577,-0.10726567886792451,-0.025278119748428033,0.07122075786163551
1.7675,-9.646549247424494,0.26488469402614545,-0.02970697225683326,-0.11032781033531526,-0.028558,0.07412278152199762
1.77,-9.722326509466965,0.25455901411107673,0.1678572259782971,-0.10941010377912541,-0.020092739278646583,0.06936954013405677
1.7725,-9.746461752537419,0.384867774048319,0.24470961708426692,-0.10703745478373602,-0.016313914701237442,0.06694985443959929
1.7750000000000001,-9.81194200439701,0.6261398532738722,0.37474757259838515,-0.10782292416759608,-0.014686053401306192,0.0663457335988529
1.7775,-9.835731641374952,0.6739360331397983,0.4152176179472826,-0.1066806539973277,-0.01867042888861929,0.07331661720879432
1.78,-9.667658204985914,0.3553586945070383,0.21097977546478616,-0.10659160208450705,-0.021075,0.078467277943662
1.7825,-9.779819914311211,0.3443702464544889,0.19363809182383843,-0.10867564494656486,-0.023810696446271234,0.0681146207680566
1.7850000000000001,-10.035989209126699,0.48379203761262446,0.4563637226671171,-0.1121476874808914,-0.017437935378109656,0.06325422843389177
1.7875,-9.93306674847415,0.4789605510516691,0.3843322655562179,-0.113774,-0.011165169094224827,0.063835
1.79,-9.931930720579436,0.44949864226074543,0.49652589831394334,-0.11182265955829965,-0.013951047352172943,0.06763931544051302
1.7925,-10.109086000362767,0.4144902155608596,0.8829768234653903,-0.11222986694033411,-0.009946653212410577,0.06914368750357996
1.795,-10.031961813889891,0.46881575513339835,0.5494151970436107,-0.10884416356121188,-0.022287597010916947,0.07081600445326645
1.7975,-10.109543827308077,0.5101680567131781,0.5307515359495585,-0.1122098421460682,-0.0296733576741202,0.06894645509019784
1.8,-10.188046232131626,0.49288837585289064,0.5410488241955,-0.11705112862327617,-0.024173631938059333,0.06702820943624482
1.8025,-10.150366346434655,0.4335460763124771,0.594574714579785,-0.1133468791065038,-0.013222776650623266,0.06982189302727383
1.805,-9.950670940737137,0.47181800194029666,0.4972480550045728,-0.11288876964361856,-0.010630041056960094,0.06914923035638144
1.8075,-9.973397976488828,0.6062455303411303,0.635827022626533,-0.11815459415219325,-0.015071402619018237,0.06683836735224284
1.81,-10.154811718177555,0.6116707080780113,0.8128536005179271,-0.11742505458282747,-0.016096672580723444,0.06913879762401885
1.8125,-10.007832704651706,0.42303571949509117,0.4262251297335204,-0.11134441970546985,-0.020522969261337072,0.0777183002571295
1.815,-9.830466940211927,0.40291664824608425,0.15641626592440533,-0.11591146909062136,-0.02246958262849914,0.07060358238494414
1.8175000000000001,-9.862802105687166,0.5383071027391496,0.33936881079517756,-0.1171867158319485,-0.01420978967006815,0.0680747893899837
1.82,-9.805282166060792,0.4953211841462812,0.5153297052652988,-0.11433369204657336,-0.01502751137610393,0.07220527614909752
1.8225,-9.845595425567327,0.3915641355864707,0.5231130041250796,-0.11470158320357372,-0.022923940262922816,0.0724825168704531
1.825,-9.79189695564366,0.2965854980876883,0.28625823236940806,-0.11896387308768648,-0.025045,0.06961563969216424
1.8275000000000001,-9.840789263937632,0.4914623957066494,0.25614717136453147,-0.11586958315302097,-0.02194757947368393,0.0666614276364521
1.83,-9.629568357004972,0.6664550833830141,0.29304610172226975,-0.11171594672817606,-0.013717504490182268,0.07488038061509343
1.8325,-9.784164478623138,0.6727572062313698,0.5785120493541539,-0.113609932476934,-0.017411210816181716,0.07459634476933995
1.835,-9.761868245979322,0.3590189376606317,0.3622593844504251,-0.11517632790867259,-0.024282,0.0794398108564939
1.8375000000000001,-9.651719194680528,0.2398782421851589,0.10074900487716015,-0.11029475569900159,-0.024282,0.08087564112127196
1.84,-9.778154561387774,0.2700865383120891,0.21829942037438266,-0.11047865892851386,-0.023130147177666566,0.0751030417427785
1.8425,-9.895817187832861,0.34839462287535494,0.4761329661898045,-0.11270841339943345,-0.014181295864022506,0.07083523631728045
1.845,-9.814548039573562,0.3774837830150832,0.36720293291637296,-0.1131252452594172,-0.01301244795704016,0.07188778965805889
1.8475000000000001,-9.775393435914786,0.48304078443789433,0.3777219125189621,-0.11461237423761286,-0.01597079936806845,0.06837438933056685
1.85,-9.897553355539749,0.6703425563226642,0.5809534116251549,-0.11705447537366553,-0.017648402348754443,0.06694750400949029
1.8525,-9.945456786019415,0.6067363846697398,0.5095602204711085,-0.11739637171096609,-0.021667476425274657,0.07525556092630917
1.855,-9.851176588707252,0.40296503129759925,0.23383231170507096,-0.11731826339558574,-0.019822427814698174,0.07549700406985213
1.8575,-9.660448,0.36944,0.0544,-0.116675,-0.01028786287789397,0.073304
1.86,-9.660448,0.36944,0.0544,-0.116675,-0.003655131802087803,0.073304
1.8625,-9.938586854340453,0.7151027243037761,0.6199198908844119,-0.11359494495313126,-0.0032330550468687475,0.07453575307702762
1.865,-10.115752625458109,0.5922906965605104,0.6907588378637932,-0.12236099913767762,-0.013965504968152834,0.08205288356687898
1.8675,-10.122279253268006,0.36732272305733044,0.41857026583048207,-0.11971322914257723,-0.02289008891719723,0.08126812127388537
1.87,-10.068286284415757,0.23729743012382304,0.4341020318379029,-0.11716171194296425,-0.019953090572607607,0.07755032784690412
1.8725,-9.986933168217208,0.23849496479837562,0.48834296163658797,-0.11646093919991435,-0.00783531436619724,0.07364218240025694
1.875,-9.83620731735661,0.40902656487977296,0.5057991998072082,-0.11826181920419858,-0.010493676056338028,0.06823954238740428
1.8775,-9.86540993727385,0.6281805220619523,0.5759774996480768,-0.11724724098636935,-0.009991416733581237,0.06670771481040888
1.8800000000000001,-9.901298281523957,0.7127455587160121,0.414859582251644,-0.11571114952239965,-0.01678692928710604,0.07481892928710604
1.8825,-9.82110408857108,0.7737201566034568,0.2563527832588458,-0.12073800933929245,-0.01896832225631103,0.07700032225631102
1.885,-9.767824210143848,0.7341258023932601,0.20426073859361552,-0.1212874923285002,-0.013975887846867999,0.08105004845435271
1.8875,-9.715485813797248,0.58144962243553,0.1968425611277668,-0.118661,-0.010716796160767521,0.08788011481703654
1.8900000000000001,-10.048295161996169,0.5464469106392332,0.5907053870124305,-0.1212771588133971,-0.02030869373397127,0.07703688893205755
1.8925,-10.009004668078468,0.5218535388956931,0.3963555882449706,-0.12043428432535883,-0.019849126453588502,0.07994831789282304
1.895,-9.957409931956798,0.5082486908883986,0.26800620760887234,-0.11859986618046682,-0.019548,0.08018889017767968
1.8975,-9.880827291663348,0.5419528132569712,0.39124014508963806,-0.11453145338645425,-0.012032277808765144,0.08226894344621502
1.9000000000000001,-9.99077862948679,0.45329995670294765,0.7484180138102855,-0.11733602668740307,-0.011948105194401483,0.08411060202177292
1.9025,-10.071613071605098,0.4566324602935998,0.7146349747701111,-0.12103317094370068,-0.017068271482497357,0.08001485893853823
1.905,-10.073988674941305,0.508455943739561,0.3456831861406238,-0.12357725711726979,-0.024554471058937547,0.07804248760014532
1.9075,-10.060153573052025,0.36091517733876977,0.16798669357947832,-0.1210015631023736,-0.026738010539439035,0.08105735506113643
1.9100000000000001,-10.161209449302113,0.495318947159374,0.45691834768161826,-0.1168063810951098,-0.01702731735717613,0.07613331419528371
1.9125,-10.211502894838858,0.7035067828818375,0.843253301377874,-0.1183374818542739,-0.005678035684259286,0.07795858949089239
1.915,-9.946319314573326,0.7046866752829726,0.5948524418013903,-0.12144916221241073,-0.012876291810227373,0.08231646749297587
1.9175,-9.777651989155807,0.6442751297593063,0.3298433373183072,-0.12205152460255961,-0.023320022061758844,0.0837956188493601
1.92,-9.696693599337797,0.44408661883762457,-0.03630938026768943,-0.11941931198309272,-0.022098099225079288,0.08445367200422682
1.9225,-9.82799301889338,0.35438721429094927,0.16558614310494943,-0.11872798511786983,-0.018379154679369503,0.07886958283620331
1.925,-10.031370904683868,0.46065385910480683,0.7008814698789291,-0.1203944330928213,-0.0046803157881864545,0.0737399947535771
1.9275,-9.958928498676777,0.4974501952085116,0.7231122556634462,-0.11872994532469122,-0.009086463685948376,0.0741317520826709
1.93,-9.746999814402164,0.5634977989533759,0.2329350789407073,-0.12071572262924192,-0.016571792388201504,0.0745150098128766
1.9325,-9.769270957747885,0.7638396458357066,0.027906888059495198,-0.12256084923512753,-0.02372619803116174,0.07640815121813044
1.935,-9.869343935162034,0.617802016559696,0.21404699091989982,-0.1206512239600665,-0.018412471468187752,0.08216258765866427
1.9375,-9.849637117917304,0.40523183920367534,0.3073608851454824,-0.11889585911179174,-0.012182241960183767,0.0842171439509954
1.94,-9.788821624119603,0.4611566182059773,0.3929716866002191,-0.12037230710963451,-0.009436070143964612,0.07927626888150621
1.9425000000000001,-9.733561701058289,0.4654356828351415,0.3451908926359442,-0.12236955419772708,-0.013093490333618875,0.07736467071245272
1.945,-9.886491696045615,0.5699165878596922,0.29185791393459465,-0.11812952835537241,-0.019482646540502163,0.07821749684377229
1.9475,-9.898963718127941,0.5360057602163693,0.37071335330197674,-0.11770133314205082,-0.020506046020696122,0.07746940662276573
1.95,-9.987047677939792,0.6668428663687653,0.7016757019755351,-0.12212609205079955,-0.014197820696143103,0.0721032227657574
1.9525000000000001,-9.97895822781544,0.6912464832749936,0.7233905728747891,-0.12193238674336046,-0.011301,0.07716319673479448
1.955,-9.583859476877267,0.5342650046176706,-0.14554302849142572,-0.12540059914575558,-0.027468092277392192,0.07714243248976675
1.9575,-9.72813960317257,0.6885855089256699,-0.06894105892626155,-0.12853569022957823,-0.02784815986711752,0.07324782826837513
1.96,-9.88521748449171,0.7163527773037209,0.46781478131998394,-0.12726172530497348,-0.016990956021269883,0.07584335150453536
1.9625000000000001,-9.985489242265745,0.7880568575583413,0.6588975595402774,-0.12403983086665932,-0.021333282795825317,0.08300174661662925
1.965,-10.015392906142145,0.7585530357998578,0.5862234566389356,-0.12951220329213214,-0.024134711392916498,0.0803232886070835
1.9675,-10.075365122505348,0.770472580786784,0.6011233552079869,-0.1286554217375802,-0.021945712410268575,0.08251228758973142
1.97,-9.803388779836322,0.6676786783601003,0.12871876047869735,-0.12586685493514518,-0.021746820775169852,0.08903718660284117
1.9725000000000001,-9.827986143977546,0.4155383986195585,0.23010468501640713,-0.13114767948993927,-0.03186147197472965,0.08366150627515188
1.975,-9.934651074162511,0.4505677256117901,0.5976633307674059,-0.12999718480636704,-0.017177566310287537,0.08227356916132107
1.9775,-10.019540513592304,0.6155060647517248,0.6736172036303171,-0.12267347063197899,-0.01879440124495132,0.08493673795200764
1.98,-9.92562525576281,0.6198126931106952,0.43987345284353113,-0.1250795097955526,-0.021694698160788443,0.08378768920094487
1.9825000000000002,-9.87542464699061,0.6729101302238286,0.16732849411108566,-0.13305484817812885,-0.023828235866867747,0.0799528584854456
1.985,-9.897442968187004,0.6253717711141411,0.25454158643104635,-0.1307293662109404,-0.017180423693468984,0.08231112905775584
1.9875,-9.883817065340232,0.5994762799044976,0.3996147909006518,-0.1257108990847592,-0.011559766016713052,0.08316389364637215
1.99,-9.921234015752974,0.6864218236467124,0.5959616473486251,-0.1244177203243056,-0.009902313845092275,0.08113448899085733
1.9925,-10.057085610234711,0.5038175307162835,0.5705538075519958,-0.13580241478292615,-0.014975030477927793,0.084758
1.995,-9.938166660907207,0.5076290273282258,0.2717326006931649,-0.12742834377234552,-0.013806333039036797,0.084758
1.9975,-9.625763618373613,0.6653102308454152,0.003909040195704969,-0.1263537547640356,-0.013523783129884885,0.08013671989976735
2.0,-9.911489161088241,0.6772780483264721,0.5940594494361913,-0.12778638947556828,-0.01514785287274029,0.08195159906926794
2.0025,-10.237779634425257,0.46723494424776796,1.0257849476783893,-0.1308010594830257,-0.008507805684335656,0.08556135183323409
2.005,-10.03430967564027,0.40078058152710233,0.5800164919023418,-0.12717694600595608,-0.020619826496723722,0.08479818335676001
2.0075,-9.974999619129603,0.4410897940927385,0.4625175069869104,-0.13593630973602733,-0.021952948604043294,0.07727370946967979
2.0100000000000002,-9.710065,0.588235,0.186514,-0.130725,-0.014955056650899155,0.079871
2.0125,-9.72482205337343,0.6103041956704883,0.2160281067468609,-0.13048726159951882,-0.018597047961515314,0.07922568887552577
2.015,-9.850340320716782,0.7980169545881031,0.4670646414335663,-0.12846514299939857,-0.018308263951894155,0.07373690109440742
2.0175,-9.935659261109578,0.8900001841800018,0.6014302757273992,-0.13166693137519314,-0.018588210091787856,0.07393165238892062
2.02,-9.744223882486537,0.6422222089435536,0.24912774673226548,-0.13346638494780927,-0.019162754197194383,0.08306880977062699
2.0225,-9.771312153915298,0.5409507235263628,0.2974712762316329,-0.12856894036300784,-0.025444729023336124,0.08785959114952456
2.025,-9.778812,0.512912,0.310856,-0.127213,-0.0234487702013847,0.089186
2.0275,-10.0077470064763,0.749464813257171,0.6315927467618011,-0.12750484069474183,-0.022576188741375024,0.0798445489412335
2.0300000000000002,-9.875739222698249,0.6502788248080434,0.31531731728979306,-0.13542644125343867,-0.02556086350675814,0.08564836603994665
2.0325,-9.946586766178692,0.7121305117545796,0.26733502632938266,-0.136192713153929,-0.031306648632939096,0.07827472342303494
2.035,-9.992666881416042,0.7075019958458633,0.4937869892199426,-0.1342766210526314,-0.018368359063282137,0.08147265720864699
2.0375,-9.984844543991363,0.5970219657231886,0.5749980449508235,-0.13259864698968574,-0.010608706020628503,0.08987622300311861
2.04,-10.120692348430772,0.5533909800205128,0.7405930670769267,-0.1326884057025641,-0.014303431179487243,0.08870748828717942
2.0425,-10.005116269286786,0.48859303644887864,0.5125496439900296,-0.13383234413965087,-0.016341,0.08697560285286782
2.045,-10.004649676464776,0.5168097431387585,0.3708521377450441,-0.12899134945075627,-0.01915804482018324,0.08506340501449511
2.0475,-9.930481297872015,0.5845649449999968,0.4148680429571211,-0.12838175886506914,-0.011205504069988244,0.08433324214691042
2.05,-9.85808708206578,0.6585673339228799,0.5944955298903164,-0.1298721674566681,-0.0019010076406080296,0.08707325999292492
2.0525,-9.821664337442957,0.5352163925385016,0.5776237596695544,-0.1354623674664048,-0.024091360981386423,0.09048102015534468
2.055,-9.903863347910283,0.4642062601747345,0.42796787128216685,-0.13953393506493514,-0.032681,0.08531475950885432
2.0575,-9.8888642674602,0.42589361472664056,0.19239457708879687,-0.13809947832064576,-0.02195312262975696,0.08226336141176471
2.06,-9.667372835999032,0.43355060904551734,0.06983087280083414,-0.13340455399213283,-0.0073086621754833905,0.08175395537930479
2.0625,-9.67499304960548,0.799212984647379,0.6871110411034314,-0.13271,-0.00222703174506086,0.078038
2.065,-9.648921354455931,0.8678434351067329,0.5095919794752011,-0.13271,-0.008789530755397745,0.078038
2.0675,-9.85342210964428,0.4816472387994422,0.44428260897029237,-0.13862249663936377,-0.024909800053826574,0.0903635672501755
2.07,-9.790709387641007,0.3895950020383864,0.11898049369765717,-0.13094038297683175,-0.01975710298853298,0.09111325123800604
2.0725000000000002,-9.771606662442053,0.2706572827946324,0.2250512898988394,-0.1280201506105127,-0.016382439977146432,0.09060243997714644
2.075,-9.774535205801964,0.32157598077202687,0.5598786527930951,-0.13084043792855468,-0.013609783217453507,0.08337514672740225
2.0775,-9.811638020474241,0.5778843718163916,0.5422226598419198,-0.1336382258428333,-0.016414450186958952,0.07865942322541448
2.08,-9.748263074181072,0.6542119604343972,0.2905038050157628,-0.13244239294860444,-0.024071334370501452,0.08247299341330973
2.0825,-9.66168412,0.7312436270610699,0.1388132653816821,-0.12872676694656487,-0.024152060343511424,0.08097561709923662
2.085,-9.772613401147657,0.6536907454260148,0.5022256985622522,-0.12809350962669416,-0.01888572917492281,0.08452615124673052
2.0875,-9.802043015902779,0.6243076483333302,0.5284156100694537,-0.1256832005555557,-0.024961613819443867,0.08764666090277774
2.09,-9.768176690245431,0.7299307560928943,0.38724547916324037,-0.12860671560204218,-0.030568498247405627,0.08495183566792974
2.0925000000000002,-9.770890682694615,0.7589844795367122,0.3400359644878654,-0.13272642918373806,-0.027576551641978562,0.08462096982981433
2.095,-9.833380979807083,0.7242944918327953,0.3996179358771139,-0.13078619692747326,-0.023366,0.09078720964630324
2.0975,-9.92146355676176,0.5359063568914876,0.6807789646699826,-0.1316506736292116,-0.02948275669929728,0.08980137695513771
2.1,-9.989979632298363,0.7045595197285508,0.5527835474866329,-0.13395866176205642,-0.02842479760975313,0.0875891089303945
2.1025,-9.935345471611477,0.6888252828844715,0.16952980400293488,-0.13413925171449595,-0.029777686210448906,0.09079014139808694
2.105,-10.025497821916037,0.6556071125941872,0.3016797966415476,-0.1306477686544672,-0.028455719569429515,0.09169219728740582
2.1075,-10.03370847115499,0.5381580944323856,0.7202719335834019,-0.13198888858835126,-0.015864361559724198,0.09211496005922996
2.11,-9.976888510082707,0.6672372583822931,0.6846182871863641,-0.13273546640624093,-0.024587,0.08447132190509705
2.1125,-9.90408969593525,1.003286523479359,0.30518433616050555,-0.131138831239369,-0.024587,0.08494120991260481
2.115,-9.833600470547019,1.0413657303550807,0.18084267449135977,-0.13082004941458733,-0.03132308367562458,0.09189413309021192
2.1175,-10.112912941616079,0.8490307097361134,0.752300566750391,-0.13170198942652758,-0.02523532230796175,0.09760313730503126
2.12,-10.154123933890668,0.5034849968874444,0.9644945659163946,-0.13418141353054674,-0.014160326971060736,0.098349
2.1225,-10.087276,0.33955,0.920612,-0.135459,-0.020791617933192227,0.098349
2.125,-9.838046779760916,0.48930548812883945,0.3252091334052798,-0.1335184535115391,-0.02648042013946538,0.08661314120869998
2.1275,-9.92661794309488,0.7616054923698229,0.3832546564379387,-0.13076196485644775,-0.025036595060827303,0.08310491174695847
2.13,-10.114861415291612,0.8243523689917363,0.8968354663234769,-0.130114,-0.015786068288076043,0.08587085258087362
2.1325,-9.99565411147543,0.8517660494426189,0.662949672852508,-0.13032093626229507,-0.01915883272131049,0.08963910196721274
2.1350000000000002,-9.84520166842861,0.5947258029601155,0.4630538579336435,-0.132992684363286,-0.02425950248918768,0.09200136461316714
2.1375,-9.56544623196805,0.5810781933225947,0.10890491937043326,-0.1253790873189056,-0.022825451678292745,0.09531435549991044
2.14,-9.64168476519168,0.48129499348476223,0.3413583333285753,-0.1284342300554464,-0.02635758928039128,0.09340512572348408
2.1425,-9.753674545272943,0.5463790028710858,0.5874443321626089,-0.13117279367247395,-0.025287289746805903,0.08729490314517975
2.145,-9.87570894609408,0.7478259267320357,0.6349934657813053,-0.1343184641975922,-0.024585397041082348,0.08281172346530971
2.1475,-9.774310189407684,0.7547748048342697,0.14418521051094896,-0.13460227502692357,-0.03478298530094545,0.08547165500538471
2.15,-9.66967467622353,0.8271569132463777,0.14043482919708042,-0.1326856783534762,-0.02501053803996684,0.08508833567069524
2.1525,-9.564435694838005,0.8231264632253372,0.3452491272478079,-0.13388844734075048,-0.01481002055019011,0.08983109427558329
2.1550000000000002,-9.758563993574493,0.8270819745962014,0.5431844506472187,-0.135139694278611,-0.019874699719304882,0.08908331284946629
2.1575,-10.10938781024072,0.8495002390564018,0.6153187263704962,-0.13856042609028904,-0.029271154831757365,0.08811320377439838
2.16,-9.90204270197289,0.8913962474970281,0.32513776663656324,-0.13061677628238655,-0.016516755830758026,0.09425441886855257
2.1625,-9.703873801758965,0.8802219466840975,0.41602764639886225,-0.13156827114333258,-0.012424767126218064,0.09682351730449261
2.165,-9.761494362411817,0.8109859661029906,0.6285635883510633,-0.13571933462697994,-0.011547023209120823,0.09528367427347154
2.1675,-9.963211719930502,0.6683416386200063,0.6588527229138756,-0.14036308171258374,-0.02279266830975413,0.09463936057086125
2.17,-10.097997455209123,0.6590587363371341,0.3917074817490579,-0.14132056975918886,-0.02891711794359947,0.08939190197401796
2.1725,-10.139708593354838,0.8149260498387124,0.3967542145345412,-0.13590826838709671,-0.010363274294931207,0.08995973161290328
2.1750000000000003,-10.146930237741937,0.7607637169354781,0.818859208156727,-0.13692301935483883,-0.0037214876036859275,0.08894498064516118
2.1775,-10.146094710881913,0.713944519133031,0.9620489246188211,-0.1346357958594913,-0.005438822152467269,0.08822891183856499
2.18,-10.042730931099062,0.6957130038560446,0.6478562655592157,-0.13777113298503885,-0.012875101683785275,0.088117
2.1825,-9.944789449054616,0.8247163548228525,0.038556640223025525,-0.13188394616389912,-0.019392725014087737,0.08950563075594999
2.185,-10.006041348830406,0.827347066746598,0.4447750203393169,-0.13370815787302923,-0.015936654725735792,0.09190564464480552
2.1875,-10.039232798832456,0.7888581967308815,0.8017551148861646,-0.13717966981903093,-0.010501916403969644,0.09128030449503795
2.19,-9.83126560640515,0.6642126129453407,0.6075587892797509,-0.141595632045016,-0.008552,0.09414399725401919
2.1925,-9.528005843898278,0.4604276614024354,0.017104328043769157,-0.13965385850249615,-0.015324263855478429,0.0913862323841221
2.195,-9.547383349207834,0.6153868475733141,-0.07183702438902935,-0.13580686486588253,-0.01946411843137248,0.08814058492862752
2.1975000000000002,-9.61382,0.759804,0.001196,-0.134543,-0.017407965994967793,0.087659
2.2,-10.059511501010554,0.8519228601925373,0.7611731959815419,-0.14234158685642515,-0.007325821694672281,0.08672051591221734
2.2025,-9.644193139166397,0.6832465283382085,0.19329621207196834,-0.1402347786521556,-0.011156325063684936,0.0956255427327637
2.205,-9.550924330723593,0.7145299064699446,0.012053512899072194,-0.13801004447025578,-0.020404795912729867,0.09141127991837993
2.2075,-9.946149504915214,0.8384951536278957,0.5468036123525204,-0.13603570524002864,-0.020379664399331268,0.0925159947743014
2.21,-10.030736806028182,0.8066816282588971,0.6452381521757807,-0.13574895589204683,-0.02095378918557439,0.090985830131359
2.2125,-10.031899249388514,0.8731983113773879,0.49161553047561585,-0.139022389623224,-0.018954406917850677,0.09087550144533658
2.215,-9.963872834317465,0.8913375168476206,0.29420343867302357,-0.13912578794920646,-0.017868,0.09012288533333342
2.2175000000000002,-9.926308681263544,0.8771798689278301,0.4345972305557202,-0.1376003479455844,-0.01969161953885207,0.09354389819691104
2.22,-9.99390964074223,0.7794272913956546,0.5614229432840144,-0.13969495204990828,-0.018768342605774414,0.09615489978085266
2.2225,-10.230062086639176,0.6872119135790469,0.6602610311590539,-0.14076041547041707,-0.01724658854995165,0.09204410422405437
2.225,-10.09098401564015,0.6423728307468461,0.3969251785887394,-0.14037266610087293,-0.019867392895247426,0.09301474895732302
2.2275,-10.073097613085395,0.8571721698262833,0.4252671337313535,-0.1367859985906534,-0.02514182687545856,0.0898053399461708
2.23,-10.088308184889803,1.0314157153708834,0.8594661840872112,-0.14364898491192032,-0.015396006152144722,0.09246099106406505
2.2325,,,,,,
2.235,,,,,,
2.2375000000000003,,,,,,
2.24,,,,,,
2.2425,,,,,,
2.245,,,,,,
2.2475,,,,,,
2.25,,,,,,
2.2525,,,,,,
2.255,,,,,,
2.2575,,,,,,
2.2600000000000002,,,,,,
2.2625,,,,,,
2.265,,,,,,
2.2675,,,,,,
2.27,,,,,,
2.2725,,,,,,
2.275,,,,,,
2.2775,,,,,,
2.2800000000000002,,,,,,
2.2825,,,,,,
2.285,,,,,,
2.2875,,,,,,
2.29,,,,,,
2.2925,,,,,,
2.295,,,,,,
2.2975,,,,,,
2.3000000000000003,,,,,,
2.3025,,,,,,
2.305,,,,,,
2.3075,,,,,,
2.31,,,,,,
2.3125,,,,,,
2.315,,,,,,
2.3175,,,,,,
2.32,,,,,,
2.3225000000000002,,,,,,
2.325,,,,,,
2.3275,,,,,,
2.33,,,,,,
2.3325,,,,,,
2.335,,,,,,
2.3375,,,,,,
2.34,,,,,,
2.3425000000000002,,,,,,
2.345,,,,,,
2.3475,,,,,,
2.35,,,,,,
2.3525,,,,,,
2.355,,,,,,
2.3575,,,,,,
2.36,,,,,,
2.3625000000000003,,,,,,
2.365,,,,,,
2.3675,,,,,,
2.37,,,,,,
2.3725,,,,,,
2.375,,,,,,
2.3775,,,,,,
2.38,,,,,,
2.3825,,,,,,
2.3850000000000002,,,,,,
2.3875,,,,,,
2.39,,,,,,
2.3925,,,,,,
2.395,,,,,,
2.3975,,,,,,
2.4,,,,,,
2.4025,,,,,,
2.4050000000000002,,,,,,
2.4075,,,,,,
2.41,,,,,,
2.4125,,,,,,
2.415,,,,,,
2.4175,,,,,,
2.42,,,,,,
2.4225,,,,,,
2.4250000000000003,,,,,,
2.4275,,,,,,
2.43,,,,,,
2.4325,,,,,,
2.435,,,,,,
2.4375,,,,,,
2.44,,,,,,
2.4425,,,,,,
2.445,,,,,,
2.4475000000000002,,,,,,
2.45,,,,,,
2.4525,,,,,,
2.455,,,,,,
2.4575,,,,,,
2.46,,,,,,
2.4625,,,,,,
2.465,,,,,,
2.4675000000000002,,,,,,
2.47,,,,,,
2.4725,,,,,,
2.475,,,,,,
2.4775,,,,,,
2.48,,,,,,
2.4825,,,,,,
2.485,,,,,,
2.4875000000000003,,,,,,
2.49,,,,,,
2.4925,,,,,,
2.495,,,,,,
2.4975,,,,,,
2.5,,,,,,
2.5025,,,,,,
2.505,,,,,,
2.5075,,,,,,
2.5100000000000002,,,,,,
2.5125,,,,,,
2.515,,,,,,
2.5175,,,,,,
2.52,,,,,,
2.5225,,,,,,
2.525,,,,,,
2.5275,,,,,,
2.5300000000000002,,,,,,
2.5325,,,,,,
2.535,,,,,,
2.5375,,,,,,
2.54,,,,,,
2.5425,,,,,,
2.545,,,,,,
2.5475,,,,,,
2.5500000000000003,,,,,,
2.5525,,,,,,
2.555,,,,,,
2.5575,,,,,,
2.56,,,,,,
2.5625,,,,,,
2.565,,,,,,
2.5675,,,,,,
2.57,,,,,,
2.5725000000000002,,,,,,
2.575,,,,,,
2.5775,,,,,,
2.58,,,,,,
2.5825,,,,,,
2.585,,,,,,
2.5875,,,,,,
2.59,,,,,,
2.5925000000000002,,,,,,
2.595,,,,,,
2.5975,,,,,,
2.6,,,,,,
2.6025,,,,,,
2.605,,,,,,
2.6075,,,,,,
2.61,,,,,,
2.6125000000000003,,,,,,
2.615,,,,,,
2.6175,,,,,,
2.62,,,,,,
2.6225,,,,,,
2.625,,,,,,
2.6275,,,,,,
2.63,,,,,,
2.6325,,,,,,
2.6350000000000002,,,,,,
2.6375,,,,,,
2.64,,,,,,
2.6425,,,,,,
2.645,,,,,,
2.6475,,,,,,
2.65,,,,,,
2.6525,,,,,,
2.6550000000000002,,,,,,
2.6575,,,,,,
2.66,,,,,,
2.6625,,,,,,
2.665,,,,,,
2.6675,,,,,,
2.67,,,,,,
2.6725,,,,,,
2.6750000000000003,,,,,,
2.6775,,,,,,
2.68,,,,,,
2.6825,,,,,,
2.685,,,,,,
2.6875,,,,,,
2.69,,,,,,
2.6925,,,,,,
2.695,,,,,,
2.6975000000000002,,,,,,
2.7,,,,,,
2.7025,,,,,,
2.705,,,,,,
2.7075,,,,,,
2.71,,,,,,
2.7125,,,,,,
2.715,,,,,,
2.7175000000000002,,,,,,
2.72,,,,,,
2.7225,,,,,,
2.725,,,,,,
2.7275,,,,,,
2.73,,,,,,
2.7325,,,,,,
2.735,,,,,,
2.7375000000000003,,,,,,
2.74,,,,,,
2.7425,,,,,,
2.745,,,,,,
2.7475,,,,,,
2.75,,,,,,
2.7525,,,,,,
2.755,,,,,,
2.7575,,,,,,
2.7600000000000002,,,,,,
2.7625,,,,,,
2.765,,,,,,
2.7675,,,,,,
2.77,,,,,,
2.7725,,,,,,
2.775,,,,,,
2.7775,,,,,,
2.7800000000000002,,,,,,
2.7825,,,,,,
2.785,,,,,,
2.7875,,,,,,
2.79,,,,,,
2.7925,,,,,,
2.795,,,,,,
2.7975,,,,,,
2.8000000000000003,,,,,,
2.8025,,,,,,
2.805,,,,,,
2.8075,,,,,,
2.81,,,,,,
2.8125,,,,,,
2.815,,,,,,
2.8175,,,,,,
2.82,,,,,,
2.8225000000000002,,,,,,
2.825,,,,,,
2.8275,,,,,,
2.83,,,,,,
2.8325,,,,,,
2.835,,,,,,
2.8375,,,,,,
2.84,,,,,,
2.8425000000000002,,,,,,
2.845,,,,,,
2.8475,,,,,,
2.85,,,,,,
2.8525,,,,,,
2.855,,,,,,
2.8575,,,,,,
2.86,,,,,,
2.8625000000000003,,,,,,
2.865,,,,,,
2.8675,,,,,,
2.87,,,,,,
2.8725,,,,,,
2.875,,,,,,
2.8775,,,,,,
2.88,,,,,,
2.8825,,,,,,
2.8850000000000002,,,,,,
2.8875,,,,,,
2.89,,,,,,
2.8925,,,,,,
2.895,,,,,,
2.8975,,,,,,
2.9,,,,,,
2.9025,,,,,,
2.9050000000000002,,,,,,
2.9075,,,,,,
2.91,,,,,,
2.9125,,,,,,
2.915,,,,,,
2.9175,,,,,,
2.92,,,,,,
2.9225,,,,,,
2.9250000000000003,,,,,,
2.9275,,,,,,
2.93,,,,,,
2.9325,,,,,,
2.935,,,,,,
2.9375,,,,,,
2.94,,,,,,
2.9425,,,,,,
2.945,,,,,,
2.9475000000000002,,,,,,
2.95,,,,,,
2.9525,,,,,,
2.955,,,,,,
2.9575,,,,,,
2.96,,,,,,
2.9625,,,,,,
2.965,,,,,,
2.9675000000000002,,,,,,
2.97,,,,,,
2.9725,,,,,,
2.975,,,,,,
2.9775,,,,,,
2.98,,,,,,
2.9825,,,,,,
2.985,,,,,,
2.9875000000000003,,,,,,
2.99,,,,,,
2.9925,,,,,,
2.995,,,,,,
2.9975,,,,,,
3.0,,,,,,
3.0025,,,,,,
3.005,,,,,,
3.0075000000000003,,,,,,
3.0100000000000002,,,,,,
3.0125,,,,,,
3.015,,,,,,
3.0175,,,,,,
3.02,,,,,,
3.0225,,,,,,
3.025,,,,,,
3.0275,,,,,,
3.0300000000000002,,,,,,
3.0325,,,,,,
3.035,,,,,,
3.0375,,,,,,
3.04,,,,,,
3.0425,,,,,,
3.045,,,,,,
3.0475,,,,,,
3.0500000000000003,,,,,,
3.0525,,,,,,
3.055,,,,,,
3.0575,,,,,,
3.06,,,,,,
3.0625,,,,,,
3.065,,,,,,
3.0675,,,,,,
3.0700000000000003,,,,,,
3.0725000000000002,,,,,,
3.075,,,,,,
3.0775,,,,,,
3.08,,,,,,
3.0825,,,,,,
3.085,,,,,,
3.0875,,,,,,
3.09,,,,,,
3.0925000000000002,,,,,,
3.095,,,,,,
3.0975,,,,,,
3.1,,,,,,
3.1025,,,,,,
3.105,,,,,,
3.1075,,,,,,
3.11,,,,,,
3.1125000000000003,,,,,,
3.115,,,,,,
3.1175,,,,,,
3.12,,,,,,
3.1225,,,,,,
3.125,,,,,,
3.1275,,,,,,
3.13,,,,,,
3.1325000000000003,,,,,,
3.1350000000000002,,,,,,
3.1375,,,,,,
3.14,,,,,,
3.1425,,,,,,
3.145,,,,,,
3.1475,,,,,,
3.15,,,,,,
3.1525,,,,,,
3.1550000000000002,,,,,,
3.1575,,,,,,
3.16,,,,,,
3.1625,,,,,,
3.165,,,,,,
3.1675,,,,,,
3.17,,,,,,
3.1725,,,,,,
3.1750000000000003,,,,,,
3.1775,,,,,,
3.18,,,,,,
3.1825,,,,,,
3.185,,,,,,
3.1875,,,,,,
3.19,,,,,,
3.1925,,,,,,
3.1950000000000003,,,,,,
3.1975000000000002,,,,,,
3.2,,,,,,
3.2025,,,,,,
3.205,,,,,,
3.2075,,,,,,
3.21,,,,,,
3.2125,,,,,,
3.215,,,,,,
3.2175000000000002,,,,,,
3.22,,,,,,
3.2225,,,,,,
3.225,,,,,,
3.2275,,,,,,
3.23,,,,,,
3.2325,,,,,,
3.235,,,,,,
3.2375000000000003,,,,,,
3.24,,,,,,
3.2425,,,,,,
3.245,,,,,,
3.2475,,,,,,
3.25,,,,,,
3.2525,,,,,,
3.255,,,,,,
3.2575000000000003,,,,,,
3.2600000000000002,,,,,,
3.2625,,,,,,
3.265,,,,,,
3.2675,,,,,,
3.27,,,,,,
3.2725,,,,,,
3.275,,,,,,
3.2775,,,,,,
3.2800000000000002,,,,,,
3.2825,,,,,,
3.285,,,,,,
3.2875,,,,,,
3.29,,,,,,
3.2925,,,,,,
3.295,,,,,,
3.2975,,,,,,
3.3000000000000003,,,,,,
3.3025,,,,,,
3.305,,,,,,
3.3075,,,,,,
3.31,,,,,,
3.3125,,,,,,
3.315,,,,,,
3.3175,,,,,,
3.3200000000000003,,,,,,
3.3225000000000002,,,,,,
3.325,,,,,,
3.3275,,,,,,
3.33,,,,,,
3.3325,,,,,,
3.335,,,,,,
3.3375,,,,,,
3.34,,,,,,
3.3425000000000002,,,,,,
3.345,,,,,,
3.3475,,,,,,
3.35,,,,,,
3.3525,,,,,,
3.355,,,,,,
3.3575,,,,,,
3.36,,,,,,
3.3625000000000003,,,,,,
3.365,,,,,,
3.3675,,,,,,
3.37,,,,,,
3.3725,,,,,,
3.375,,,,,,
3.3775,,,,,,
3.38,,,,,,
3.3825000000000003,,,,,,
3.3850000000000002,,,,,,
3.3875,,,,,,
3.39,,,,,,
3.3925,,,,,,
3.395,,,,,,
3.3975,,,,,,
3.4,,,,,,
3.4025,,,,,,
3.4050000000000002,,,,,,
3.4075,,,,,,
3.41,,,,,,
3.4125,,,,,,
3.415,,,,,,
3.4175,,,,,,
3.42,,,,,,
3.4225,,,,,,
3.4250000000000003,,,,,,
3.4275,,,,,,
3.43,,,,,,
3.4325,,,,,,
3.435,,,,,,
3.4375,,,,,,
3.44,,,,,,
3.4425,,,,,,
3.4450000000000003,,,,,,
3.4475000000000002,,,,,,
3.45,,,,,,
3.4525,,,,,,
3.455,,,,,,
3.4575,,,,,,
3.46,,,,,,
3.4625,,,,,,
3.465,,,,,,
3.4675000000000002,,,,,,
3.47,,,,,,
3.4725,,,,,,
3.475,,,,,,
3.4775,,,,,,
3.48,,,,,,
3.4825,,,,,,
3.485,,,,,,
3.4875000000000003,,,,,,
3.49,,,,,,
3.4925,,,,,,
3.495,,,,,,
3.4975,,,,,,
3.5,,,,,,
3.5025,,,,,,
3.505,,,,,,
3.5075000000000003,,,,,,
3.5100000000000002,,,,,,
3.5125,,,,,,
3.515,,,,,,
3.5175,,,,,,
3.52,,,,,,
3.5225,,,,,,
3.525,,,,,,
3.5275,,,,,,
3.5300000000000002,,,,,,
3.5325,,,,,,
3.535,,,,,,
3.5375,,,,,,
3.54,,,,,,
3.5425,,,,,,
3.545,,,,,,
3.5475,,,,,,
3.5500000000000003,,,,,,
3.5525,,,,,,
3.555,,,,,,
3.5575,,,,,,
3.56,,,,,,
3.5625,,,,,,
3.565,,,,,,
3.5675,,,,,,
3.5700000000000003,,,,,,
3.5725000000000002,,,,,,
3.575,,,,,,
3.5775,,,,,,
3.58,,,,,,
3.5825,,,,,,
3.585,,,,,,
3.5875,,,,,,
3.59,,,,,,
3.5925000000000002,,,,,,
3.595,,,,,,
3.5975,,,,,,
3.6,,,,,,
3.6025,,,,,,
3.605,,,,,,
3.6075,,,,,,
3.61,,,,,,
3.6125000000000003,,,,,,
3.615,,,,,,
3.6175,,,,,,
3.62,,,,,,
3.6225,,,,,,
3.625,,,,,,
3.6275,,,,,,
3.63,,,,,,
3.6325000000000003,,,,,,
3.6350000000000002,,,,,,
3.6375,,,,,,
3.64,,,,,,
3.6425,,,,,,
3.645,,,,,,
3.6475,,,,,,
3.65,,,,,,
3.6525,,,,,,
