time,acc_x_g,acc_y_g,acc_z_g,gyro_x_rad_s,gyro_y_rad_s,gyro_z_rad_s
1765408288.875042,0.000598,-0.011358,-9.558823,0.108734,-0.088881,0.005345
1765408288.875242,-9.901959,0.388570,-0.326997,-0.006872,-0.006720,-0.001680
1765408288.875442,-9.977880,0.392157,-0.258250,-0.008858,-0.007941,0.000611
1765408288.875642,-9.991032,0.423242,-0.156624,-0.009774,-0.007025,0.000305
1765408288.875842,-9.929459,0.407700,-0.283955,-0.009010,-0.005651,-0.001680
1765408288.876021,-9.859515,0.399330,-0.386777,-0.006872,-0.006567,0.001069
1765408288.876221,-9.852941,0.411286,-0.366451,-0.004887,-0.006567,-0.000305
1765408288.876421,-9.878048,0.536227,-0.307269,-0.006567,-0.006414,0.000916
1765408288.876621,-9.904947,0.590029,-0.275586,-0.003818,-0.006261,-0.001527
1765408288.876821,-9.977283,0.796270,-0.185916,-0.010079,-0.006109,-0.003512
1765408288.876987,-9.986848,1.110713,-0.286944,-0.013439,-0.011759,-0.005345
1765408288.877237,-10.052606,1.279292,-0.206839,-0.017868,-0.011759,0.002138
1765408288.877487,-10.128527,1.337279,-0.160210,-0.024893,-0.014813,0.001527
1765408288.877737,-10.241510,1.545911,-0.118364,-0.034972,-0.016493,0.000916
1765408288.877969,-10.151840,1.741392,-0.241511,-0.043066,-0.014813,0.001833
1765408288.878219,-10.151840,1.741392,-0.241511,-0.043066,-0.019700,0.001833
1765408288.878469,-10.468675,2.070779,0.329986,-0.075289,-0.029780,0.005956
1765408288.878719,-10.468675,2.070779,0.329986,-0.075289,-0.043830,0.005956
1765408288.878983,-10.508130,2.013391,-0.022716,-0.113010,-0.066279,0.009468
1765408288.879183,-10.358081,2.067193,-0.324008,-0.131489,-0.066279,0.007483
1765408288.879383,-10.379602,2.231587,-0.108800,-0.153938,-0.070860,0.008552
1765408288.879583,-10.271400,2.149689,-0.412482,-0.174555,-0.083383,0.007941
1765408288.879783,-10.341940,2.198709,-0.399928,-0.193339,-0.087506,0.003054
1765408288.879969,-10.228956,2.279412,-0.325203,-0.203876,-0.079107,-0.000458
1765408288.880219,-10.209826,2.354136,-0.184122,-0.220522,-0.086896,0.005040
1765408288.880469,-10.191295,2.111430,-0.374223,-0.237779,-0.108581,0.005956
1765408288.880719,-10.248685,2.120995,-0.475849,-0.249080,-0.116064,-0.003818
1765408288.881038,-10.141678,2.110234,-0.799856,-0.255800,-0.119424,0.001527
1765408288.881288,-9.980272,2.064801,-0.859636,-0.269544,-0.119730,-0.004734
1765408288.881538,-9.883428,2.299737,-0.616930,-0.281609,-0.119119,-0.009010
1765408288.881788,-9.660448,2.001434,-1.107126,-0.301767,-0.125075,-0.005345
1765408288.882068,-9.636537,1.768292,-1.511836,-0.309403,-0.142484,-0.013744
1765408288.882401,-10.067551,2.042085,-1.114897,-0.318719,-0.137445,-0.029169
1765408288.882735,-10.274986,2.109039,-0.713773,-0.331089,-0.122478,-0.023366
1765408288.883068,-9.989238,2.166427,-1.148972,-0.331242,-0.122478,-0.019242
1765408288.883318,-9.680773,1.706121,-1.282281,-0.336892,-0.133474,-0.018937
1765408288.883568,-9.704685,1.640363,-1.463415,-0.344528,-0.138056,-0.030696
1765408288.883818,-10.035269,1.797585,-1.341463,-0.342848,-0.138056,-0.031918
1765408288.884088,-10.035269,1.797585,-1.341463,-0.342848,-0.129656,-0.031918
1765408288.884338,-10.312649,1.860354,-0.842898,-0.360869,-0.138666,-0.037874
1765408288.884588,-9.829028,1.769488,-1.580583,-0.366977,-0.133474,-0.034819
1765408288.884838,-9.623384,1.848398,-2.008608,-0.365145,-0.143401,-0.037263
1765408288.885003,-10.057388,2.393591,-1.110713,-0.373391,-0.140346,-0.038790
1765408288.885336,-10.545790,2.367288,-0.523673,-0.389732,-0.134543,-0.031918
1765408288.885670,-10.282160,2.149689,-1.408417,-0.399353,-0.135307,-0.030696
1765408288.886045,-10.064561,2.050454,-1.929101,-0.414014,-0.156076,-0.035430
1765408288.886295,-10.322213,2.187948,-1.139407,-0.430507,-0.144622,-0.045357
1765408288.886545,-10.456717,2.437828,-0.787303,-0.431271,-0.135001,-0.031612
1765408288.886795,-10.248685,1.966762,-1.260760,-0.450055,-0.145539,-0.022907
1765408288.887011,-10.086082,1.708512,-1.753945,-0.455553,-0.163559,-0.030696
1765408288.887261,-10.289932,2.048063,-1.631994,-0.460898,-0.163865,-0.039859
1765408288.887511,-10.673720,2.318269,-0.840507,-0.475864,-0.155160,-0.037415
1765408288.887761,-10.846484,2.346365,-0.498565,-0.489150,-0.145844,-0.023824
1765408288.887974,-10.341940,1.791607,-1.125657,-0.502284,-0.159436,-0.024282
1765408288.888224,-9.989238,1.641559,-1.734218,-0.514043,-0.173791,-0.026878
1765408288.888474,-10.325800,1.819703,-1.190818,-0.517403,-0.179900,-0.027184
1765408288.888724,-10.943327,2.009804,-0.361669,-0.524886,-0.175929,-0.021838
1765408288.889018,-10.767575,1.557867,-0.597800,-0.536340,-0.175929,-0.013286
1765408288.889351,-9.892993,1.190818,-1.877092,-0.547793,-0.173791,-0.012065
1765408288.889685,-9.882831,1.105930,-1.601506,-0.551000,-0.190590,-0.014050
1765408288.890037,-10.587636,1.563845,-0.241511,-0.554360,-0.186467,-0.020006
1765408288.890287,-10.865612,1.299617,-0.122549,-0.567188,-0.181427,-0.004887
1765408288.890537,-10.163795,0.665949,-1.301411,-0.568410,-0.196393,-0.006567
1765408288.890787,-9.916306,0.906863,-1.401243,-0.562607,-0.202502,-0.012523
1765408288.891043,-10.416666,1.010282,-0.388570,-0.574672,-0.199447,-0.012370
1765408288.891293,-10.634863,1.340865,-0.283357,-0.577420,-0.200058,-0.018173
1765408288.891543,-9.994021,0.637255,-1.526781,-0.594525,-0.208763,0.000153
1765408288.891793,-9.577354,0.325203,-1.941654,-0.590859,-0.220675,-0.011301
1765408288.892080,-9.577354,0.325203,-1.941654,-0.590859,-0.201891,-0.011301
1765408288.892413,-10.369438,0.975610,-0.136298,-0.593608,-0.195324,-0.008858
1765408288.892747,-9.763867,0.517695,-1.304400,-0.599411,-0.199600,-0.002138
1765408288.892991,-9.421328,0.233142,-1.957197,-0.601244,-0.214566,-0.006567
1765408288.893241,-9.607842,0.718556,-1.127451,-0.598648,-0.198226,-0.019242
1765408288.893491,-9.905546,0.783716,-0.503348,-0.611018,-0.189368,-0.003971
1765408288.893741,-9.699903,0.659971,-1.242229,-0.610407,-0.196699,-0.004429
1765408288.894084,-9.564202,0.301291,-1.951219,-0.619875,-0.196699,-0.004734
1765408288.894334,-9.622189,0.304280,-1.158536,-0.608422,-0.191659,-0.006872
1765408288.894584,-10.062170,0.852463,-0.361669,-0.605520,-0.177609,-0.011759
1765408288.894834,-10.045432,0.596604,-0.297704,-0.624610,-0.173486,0.002138
1765408288.894978,-9.183404,0.218197,-1.793400,-0.628580,-0.187077,-0.003665
1765408288.895228,-9.668220,0.200861,-1.359397,-0.625984,-0.201127,-0.000764
1765408288.895478,-10.167980,0.206839,-0.236131,-0.617737,-0.183718,-0.000764
1765408288.895728,-10.253465,0.499761,0.074127,-0.614836,-0.167530,-0.000153
1765408288.896055,-9.649688,-0.103419,-0.834529,-0.620028,-0.177456,0.008705
1765408288.896305,-9.759085,-0.106408,-1.396461,-0.619570,-0.204029,-0.007483
1765408288.896555,-9.885221,0.115375,-0.929579,-0.615141,-0.195935,-0.001833
1765408288.896805,-9.885221,0.115375,-0.929579,-0.615141,-0.176387,-0.001833
1765408288.896973,-10.003586,0.159613,-0.278575,-0.615141,-0.197768,0.000458
1765408288.897223,-9.823050,-0.361071,-0.576877,-0.617127,-0.197768,0.003512
1765408288.897473,-9.823050,-0.361071,-0.576877,-0.617127,-0.205709,0.003512
1765408288.897723,-9.705284,0.200861,-1.002511,-0.605062,-0.198837,-0.004123
1765408288.898688,-10.022716,0.071138,-0.022716,-0.606436,-0.184787,0.001374
1765408288.898938,-10.137493,0.219990,-0.352702,-0.603382,-0.201738,0.010690
1765408288.899188,-9.777617,-0.292922,-1.096963,-0.617432,-0.201738,0.004123
1765408288.899438,-9.709468,0.236729,-1.147776,-0.615905,-0.200364,-0.004887
1765408288.900130,-9.647895,0.542205,-0.801650,-0.608575,-0.181732,0.010690
1765408288.900380,-9.631754,0.315638,-0.475849,-0.621708,-0.183870,0.017868
1765408288.900630,-9.823050,0.362267,-0.741272,-0.621555,-0.189979,0.009774
1765408288.900880,-9.448828,0.101626,-1.109517,-0.620334,-0.185550,0.017410
1765408288.900193,-8.928741,0.248685,-1.542324,-0.621403,-0.185092,0.016952
1765408288.900443,-9.768052,0.526064,-0.374821,-0.632856,-0.186619,0.013286
1765408288.900693,-10.231348,-0.150646,-0.107604,-0.634536,-0.186619,0.024282
1765408288.900943,-10.119559,-0.081899,-0.609756,-0.622319,-0.188605,0.022755
1765408288.901048,-9.827832,0.032281,-0.670732,-0.624610,-0.175318,0.009163
1765408288.901298,-9.862504,0.461502,0.258250,-0.624610,-0.170431,0.009621
1765408288.901548,-10.096842,0.345528,0.151841,-0.623999,-0.193644,0.023824
1765408288.901798,-9.372309,-0.001196,-0.954687,-0.628122,-0.205251,0.023671
1765408288.902054,-9.372309,-0.001196,-0.954687,-0.628122,-0.195324,0.023671
1765408288.902304,-9.303562,0.257054,-0.193687,-0.621403,-0.180358,0.019395
1765408288.902554,-9.184600,0.289335,-0.576877,-0.624304,-0.190743,0.022602
1765408288.902804,-9.408176,0.083094,-0.820182,-0.628122,-0.193033,0.021686
1765408288.903052,-9.310138,-0.267814,-1.235055,-0.627359,-0.193033,0.020617
1765408288.903302,-9.310138,-0.267814,-1.235055,-0.627359,-0.170126,0.020617
1765408288.903552,-9.413557,0.126734,-0.496174,-0.626900,-0.171195,0.023671
1765408288.903802,-9.379482,-0.077714,-0.318030,-0.631177,-0.171195,0.020769
1765408288.904069,-9.637732,-0.279770,-0.789694,-0.629191,-0.177304,0.013134
1765408288.904319,-9.415350,-0.214610,-0.539813,-0.618959,-0.167835,0.011454
1765408288.904569,-9.066236,0.280966,-1.166906,-0.613309,-0.151647,0.005192
1765408288.904819,-9.366330,0.203850,-0.052606,-0.618807,-0.160658,0.017868
1765408288.904999,-9.882831,-0.190100,-0.054400,-0.618959,-0.163101,0.015272
1765408288.905249,-9.557029,0.109397,-0.192492,-0.614989,-0.150731,0.004887
1765408288.905499,-8.940698,0.277379,-1.029412,-0.618654,-0.132405,0.010690
1765408288.905749,-8.928741,0.493783,-0.694644,-0.605215,-0.144928,0.015730
1765408288.905976,-9.600669,0.044237,-0.095648,-0.613156,-0.155007,0.017868
1765408288.906226,-9.736369,0.438785,0.116571,-0.612392,-0.138514,0.003971
1765408288.906476,-9.346603,0.653993,-0.392157,-0.612392,-0.122326,0.003971
1765408288.906726,-8.935317,0.486609,-0.400526,-0.618807,-0.131031,0.019090
1765408288.906996,-9.726804,0.549976,0.353898,-0.631177,-0.152716,0.005956
1765408288.907246,-9.833213,0.211023,0.393352,-0.635300,-0.135612,0.006720
1765408288.907496,-8.992107,0.300096,-0.532640,-0.616363,-0.135307,0.017104
1765408288.907746,-8.608320,0.380799,-0.356289,-0.628580,-0.125838,0.017104
1765408288.908034,-8.514465,0.621114,-0.189503,-0.634689,-0.121868,0.011454
1765408288.908284,-8.912003,0.429220,-0.582855,-0.621861,-0.142790,0.021075
1765408288.908534,-8.564083,0.282162,-1.263749,-0.626900,-0.145539,0.019395
1765408288.908784,-9.065040,0.430416,-0.200263,-0.637743,-0.109039,0.006720
1765408288.909094,-8.605929,0.364060,0.061573,-0.636369,-0.090561,0.016646
1765408288.909344,-8.679459,0.206241,-0.526662,-0.647517,-0.114690,0.021686
1765408288.909594,-9.139167,0.326997,-0.142276,-0.643088,-0.129045,0.003665
1765408288.909844,-9.141558,0.626494,-0.115973,-0.640339,-0.070097,0.013286
1765408288.910039,-8.430176,0.175753,-0.043639,-0.638660,-0.070097,0.025351
1765408288.910239,-8.029052,0.051411,-0.978001,-0.652251,-0.078649,0.014661
1765408288.910439,-8.853418,-0.179340,-0.109397,-0.645074,-0.099266,0.012981
1765408288.910639,-8.977162,0.008369,0.016738,-0.626595,-0.071013,0.008552
1765408288.910839,-9.078191,0.239120,0.234935,-0.629344,-0.055436,0.009163
1765408288.911987,-9.112266,0.000000,0.499761,-0.633620,-0.055436,0.010996
1765408288.912237,-9.157101,-0.321616,0.566117,-0.619417,-0.061239,0.003665
1765408288.912487,-8.543160,-0.361071,0.011956,-0.610254,-0.049175,-0.002138
1765408288.912737,-8.547345,0.043042,0.369440,-0.612392,-0.049175,-0.009163
1765408288.912037,-8.926350,0.344333,0.662960,-0.613614,-0.060323,-0.004734
1765408288.912287,-8.739837,0.077714,0.468675,-0.609185,-0.058338,-0.008094
1765408288.912537,-7.690099,0.232544,-1.046748,-0.609796,-0.033445,-0.008552
1765408288.912787,-7.494619,0.234338,-1.102941,-0.610713,-0.032070,0.000916
1765408288.912970,-8.272357,0.208034,0.368245,-0.601244,-0.034514,-0.000458
1765408288.913220,-8.842658,0.000598,0.453132,-0.611171,-0.021838,0.001680
1765408288.913470,-8.218554,-0.069345,-0.726925,-0.622472,-0.012981,-0.016952
1765408288.913720,-8.002151,0.362865,-0.662362,-0.618043,0.010079,-0.022297
1765408288.913975,-8.551529,0.687470,0.295911,-0.613309,0.020922,-0.005956
1765408288.914175,-9.452414,0.667145,1.447872,-0.612698,0.010232,-0.004276
1765408288.914375,-9.597081,0.356887,0.688068,-0.625526,0.022144,-0.006872
1765408288.914575,-8.828311,-0.040053,-0.461502,-0.616516,0.022602,-0.000305
1765408288.914775,-8.675274,0.416667,-0.089670,-0.610407,0.034819,-0.012675
1765408288.914998,-9.472739,0.575681,1.604495,-0.630260,0.045051,-0.014813
1765408288.915248,-9.149927,0.416069,0.997130,-0.627053,0.045051,-0.006414
1765408288.915498,-8.717119,0.150646,0.042444,-0.624304,0.029322,-0.004276
1765408288.915748,-8.561692,0.254663,-0.086681,-0.628733,0.039401,-0.018479
1765408288.915975,-8.800215,0.616332,0.911047,-0.619417,0.054214,-0.014966
1765408288.916225,-8.186274,0.011956,0.100430,-0.623846,0.059559,0.004887
1765408288.916475,-7.925633,-0.014347,-0.883548,-0.623999,0.053145,-0.007330
1765408288.916725,-8.333332,0.071736,-0.448350,-0.627206,0.063225,-0.018937
1765408288.916975,-8.570062,0.200861,0.020325,-0.621555,0.082161,-0.010232
1765408288.917225,-8.635818,0.555954,-0.108800,-0.619723,0.082314,-0.016799
1765408288.917475,-8.635818,0.555954,-0.108800,-0.619723,0.085368,-0.016799
1765408288.917725,-8.593973,-0.228360,-1.090387,-0.619112,0.092852,-0.014355
1765408288.918000,-9.386058,0.383788,0.344931,-0.602924,0.095753,-0.023824
1765408288.918250,-10.046627,0.219393,1.973936,-0.623693,0.130267,-0.021686
1765408288.918500,-9.416546,-0.026303,0.887733,-0.623083,0.130267,-0.028558
1765408288.918750,-9.416546,-0.026303,0.887733,-0.623083,0.102167,-0.028558
1765408288.919117,-8.352462,-0.105213,-0.182927,-0.619417,0.089644,-0.042608
1765408288.919317,-8.944283,0.750239,0.569106,-0.605978,0.122326,-0.047647
1765408288.919517,-8.732662,0.443568,0.367647,-0.608269,0.133474,-0.018021
1765408288.919717,-8.374580,0.185318,-0.573290,-0.607353,0.111025,-0.025962
1765408288.919917,-8.374580,0.185318,-0.573290,-0.607353,0.107207,-0.025962
1765408288.920119,-8.795432,0.286944,-0.118364,-0.610560,0.142332,-0.036957
1765408288.920369,-9.039932,0.436394,0.212817,-0.598953,0.147066,-0.037110
1765408288.920619,-8.890482,0.139885,0.148254,-0.618807,0.141568,-0.039401
1765408288.920869,-9.166666,0.517097,-0.600789,-0.617127,0.141568,-0.055436
1765408288.921514,-9.685556,0.968436,-0.032281,-0.611171,0.153022,-0.040775
1765408288.921764,-9.618603,0.914036,0.490794,-0.603535,0.158367,-0.024893
1765408288.922014,-9.323289,0.292922,0.570301,-0.629497,0.158367,-0.035888
1765408288.922264,-8.895264,-0.045433,-0.665949,-0.638965,0.166614,-0.039095
1765408288.922097,-8.874939,0.292922,-0.576279,-0.617737,0.147219,-0.045509
1765408288.922347,-9.462577,0.862028,0.481827,-0.625679,0.154396,-0.052840
1765408288.922597,-9.507411,0.735294,0.564921,-0.634231,0.174402,-0.040470
1765408288.922847,-8.431372,0.297704,-0.974414,-0.627206,0.181122,-0.027947
1765408288.923040,-8.799616,-0.023912,-0.729316,-0.627206,0.153785,-0.027947
1765408288.923373,-9.543877,0.151841,0.726925,-0.636827,0.163101,-0.060476
1765408288.923707,-9.461381,0.663558,0.367647,-0.631482,0.193797,-0.049480
1765408288.924063,-8.562888,0.350311,-1.331898,-0.636063,0.199142,-0.036805
1765408288.924313,-9.192370,0.456719,-0.574486,-0.629955,0.177151,-0.044440
1765408288.924563,-9.192370,0.456719,-0.574486,-0.629955,0.194255,-0.044440
1765408288.924813,-9.814083,-0.051411,1.257771,-0.623388,0.211207,-0.036957
1765408288.925054,-8.753586,-0.102822,-0.766380,-0.632398,0.196546,-0.042608
1765408288.925304,-9.031563,-0.148852,-0.463893,-0.624915,0.164475,-0.049175
1765408288.925554,-9.532519,-0.010760,0.138690,-0.613003,0.174707,-0.054062
1765408288.925804,-9.221663,0.045433,0.216404,-0.614530,0.197615,-0.049327
1765408288.926099,-8.448110,0.062769,-0.886537,-0.623388,0.213345,-0.050091
1765408288.926349,-8.752390,-0.190698,-0.957676,-0.618501,0.169362,-0.048258
1765408288.926599,-9.717837,-0.422047,0.043042,-0.612851,0.172722,-0.058948
1765408288.926849,-9.612624,0.062171,-0.059780,-0.605826,0.209985,-0.071319
1765408288.927013,-9.094930,0.094452,-0.355093,-0.622166,0.239917,-0.054214
1765408288.927263,-9.802725,0.136298,0.022716,-0.622472,0.213497,-0.054214
1765408288.927513,-10.810018,0.090866,1.190220,-0.615752,0.198073,-0.054062
1765408288.927763,-10.554757,-0.193687,1.147776,-0.611323,0.221744,-0.050855
1765408288.928070,-8.858201,-0.399330,-0.370636,-0.603535,0.237016,-0.055589
1765408288.928320,-8.208990,-0.365854,-1.064084,-0.610560,0.218232,-0.060476
1765408288.928570,-9.464370,0.288140,-0.179938,-0.603840,0.188910,-0.068875
1765408288.928820,-9.464370,0.288140,-0.179938,-0.603840,0.220217,-0.068875
1765408288.929023,-9.784193,0.329388,0.494978,-0.601091,0.246331,-0.053756
1765408288.929273,-8.781084,0.291726,-0.583453,-0.619417,0.248622,-0.060018
1765408288.929523,-9.112864,-0.179340,-0.741272,-0.623235,0.217773,-0.055436
1765408288.929773,-10.244500,0.237924,0.034672,-0.606436,0.220522,-0.059712
1765408288.930044,-10.698827,0.659971,0.652798,-0.604298,0.245110,-0.062919
1765408288.930294,-10.267813,0.520684,0.743663,-0.629038,0.266337,-0.052076
1765408288.930544,-9.495455,-0.117767,-0.401124,-0.631177,0.232434,-0.043219
1765408288.930794,-9.732184,-0.391559,-0.114778,-0.627206,0.207236,-0.049022
1765408288.931019,-10.081299,-0.001196,-0.010760,-0.622014,0.217926,-0.064446
1765408288.931269,-9.943806,0.424438,0.321616,-0.614072,0.237627,-0.059865
1765408288.931519,-9.710664,-0.045433,0.234338,-0.622624,0.233809,-0.051465
1765408288.931769,-9.970109,-0.071736,0.198470,-0.624762,0.213039,-0.053909
1765408288.932052,-10.161406,-0.276184,0.141679,-0.616821,0.217926,-0.055894
1765408288.932302,-9.967119,0.361071,-0.247489,-0.616974,0.230602,-0.066890
1765408288.932552,-9.769248,0.197274,-0.223577,-0.622472,0.230449,-0.065515
1765408288.932802,-9.730989,0.044237,-0.164993,-0.618654,0.227853,-0.061850
1765408288.933006,-10.052606,0.011956,-0.027499,-0.609644,0.232740,-0.055436
1765408288.933256,-10.238522,-0.056193,0.506934,-0.611782,0.235641,-0.052076
1765408288.933506,-10.273791,0.037661,0.222382,-0.613767,0.224188,-0.064752
1765408288.933756,-9.890601,-0.089670,0.181731,-0.612240,0.212581,-0.062308
1765408288.934029,-9.890601,-0.089670,0.181731,-0.612240,0.217315,-0.062308
1765408288.934279,-9.485890,-0.057389,-0.456121,-0.599411,0.226326,-0.069944
1765408288.934529,-10.101624,-0.108202,-0.003587,-0.599106,0.224493,-0.066279
1765408288.934779,-10.494978,0.231946,0.025108,-0.591928,0.213345,-0.072082
1765408288.934993,-10.269009,0.084290,-0.630679,-0.596510,0.212123,-0.081703
1765408288.935243,-9.876254,0.267814,-0.493783,-0.599259,0.233503,-0.077122
1765408288.935493,-9.799736,0.066954,-0.455524,-0.593456,0.222966,-0.067806
1765408288.935743,-10.716761,0.455524,0.697633,-0.597121,0.222966,-0.069639
1765408288.936051,-11.254183,0.616930,0.787900,-0.597121,0.219148,-0.069639
1765408288.936301,-10.345527,0.332377,-0.188307,-0.613920,0.220217,-0.072693
1765408288.936551,-9.481109,0.108202,-0.584051,-0.593761,0.209985,-0.065515
1765408288.936801,-9.479913,0.474653,0.065160,-0.608269,0.199447,-0.074678
1765408288.936983,-10.423241,0.578670,0.413678,-0.619723,0.199447,-0.069486
1765408288.937233,-10.292920,0.443568,-0.368245,-0.609491,0.187383,-0.063225
1765408288.937483,-10.259443,0.225371,-0.243305,-0.615294,0.219148,-0.074678
1765408288.937733,-9.753705,0.383190,-0.283357,-0.624304,0.219148,-0.079565
1765408288.937974,-9.935436,0.269608,-0.308465,-0.615447,0.206625,-0.060781
1765408288.938224,-10.584648,0.137494,-0.260043,-0.614225,0.181274,-0.067959
1765408288.938474,-11.523194,0.439981,0.875777,-0.604298,0.177304,-0.081856
1765408288.938724,-10.657579,0.573888,0.240316,-0.612392,0.192575,-0.082772
1765408288.938973,-9.540888,0.400526,-0.762793,-0.614225,0.192575,-0.069486
1765408288.939223,-9.568387,0.376614,-1.216523,-0.632398,0.165086,-0.079260
1765408288.939473,-11.126254,0.565519,0.349115,-0.615294,0.148440,-0.075136
1765408288.939723,-11.284074,0.290531,0.804639,-0.615294,0.186619,-0.075136
1765408288.939981,-9.962935,-0.014347,-0.749043,-0.616668,0.173638,-0.070708
1765408288.940231,-9.660448,0.059780,-1.406026,-0.623235,0.173638,-0.074526
1765408288.940481,-10.718554,0.219990,-0.120756,-0.616668,0.153938,-0.078496
1765408288.940731,-11.506455,0.338355,1.289455,-0.615294,0.169973,-0.077122
1765408288.940984,-10.401721,-0.100430,-0.069345,-0.618196,0.187994,-0.078343
1765408288.941234,-9.409969,-0.009565,-1.872908,-0.621861,0.175624,-0.086590
1765408288.941484,-10.238522,-0.004782,-0.939742,-0.607658,0.140652,-0.079412
1765408288.941734,-11.796389,-0.044835,1.594930,-0.598648,0.153480,-0.086590
1765408288.942005,-11.306789,0.114778,1.114299,-0.601855,0.163559,-0.092699
1765408288.942255,-9.927068,-0.216404,-0.866810,-0.605367,0.163559,-0.085216
1765408288.942505,-10.080104,0.175155,-0.575084,-0.602313,0.120646,-0.101251
1765408288.942755,-11.046148,0.383788,0.829149,-0.608727,0.116064,-0.094990
1765408288.943008,-11.052724,0.267814,0.613343,-0.602313,0.141873,-0.085979
1765408288.943258,-10.364656,-0.129125,-0.962458,-0.602160,0.134849,-0.082772
1765408288.943508,-10.615732,-0.157819,-0.551172,-0.601244,0.103542,-0.094684
1765408288.943758,-11.132232,0.356887,-0.081301,-0.600175,0.113010,-0.105985
1765408288.944071,-10.803441,0.344931,-0.087279,-0.606436,0.132100,-0.087048
1765408288.944321,-10.364058,0.430416,-0.944524,-0.603535,0.122020,-0.086590
1765408288.944571,-11.177067,0.384983,0.117169,-0.613309,0.102778,-0.089339
1765408288.944821,-11.236249,0.072932,0.254663,-0.609796,0.111177,-0.077733
1765408288.944993,-11.236249,0.072932,0.254663,-0.609796,0.116217,-0.077733
1765408288.945243,-10.432806,-0.002391,0.113582,-0.620028,0.106443,-0.084299
1765408288.945493,-10.671329,0.162004,-0.037064,-0.618807,0.081245,-0.084452
1765408288.945743,-10.331181,-0.075323,-0.802248,-0.614836,0.071166,-0.081398
1765408288.946028,-10.520682,0.059780,-0.188905,-0.615752,0.082009,-0.084910
1765408288.946278,-10.448348,0.047824,0.225968,-0.614378,0.093004,-0.081703
1765408288.946528,-10.308464,-0.113582,-0.259445,-0.618654,0.077122,-0.071624
1765408288.946778,-10.584049,-0.020923,-0.339550,-0.615141,0.053603,-0.083841
1765408288.947025,-10.675513,-0.407700,-0.343735,-0.619723,0.066279,-0.076511
1765408288.947275,-10.717359,-0.180536,-0.324008,-0.603688,0.072846,-0.075442
1765408288.947525,-11.434122,0.053204,0.740076,-0.616516,0.070097,-0.087201
1765408288.947775,-11.330701,-0.169775,0.020325,-0.621708,0.058643,-0.074678
1765408288.948022,-10.985173,-0.097441,-0.637255,-0.609185,0.049327,-0.077274
1765408288.948272,-11.004304,-0.448350,-0.215208,-0.609491,0.047037,-0.074678
1765408288.948522,-11.150166,-0.441176,0.811812,-0.596815,0.033292,-0.080940
1765408288.948772,-10.791486,-0.282759,-0.276781,-0.597884,0.030696,-0.088881
1765408288.949026,-10.377808,-0.489000,-0.425634,-0.597121,0.008552,-0.079718
1765408288.949276,-10.017335,-0.188905,-1.091583,-0.591623,0.005498,-0.088117
1765408288.949526,-10.988760,0.007174,0.487805,-0.589943,-0.005345,-0.078038
1765408288.949776,-11.264346,-0.420253,0.757413,-0.590554,0.007483,-0.078802
1765408288.950054,-10.931969,-0.341942,-0.318030,-0.583071,-0.007178,-0.080940
1765408288.950254,-10.521279,-0.394548,-0.561932,-0.581086,-0.006567,-0.089950
1765408288.950454,-10.702414,0.389168,-0.279770,-0.570854,-0.006567,-0.090866
1765408288.950654,-11.049736,0.046031,0.615734,-0.574519,-0.004123,-0.072846
1765408288.950854,-10.773552,-0.148254,-0.219393,-0.579558,-0.022907,-0.078191
1765408288.951049,-11.139406,0.075323,-0.520086,-0.577268,-0.029780,-0.084299
1765408288.951299,-11.370156,0.023912,0.199665,-0.572686,-0.021686,-0.077274
1765408288.951549,-11.681013,0.530846,0.850669,-0.569785,-0.022907,-0.080023
1765408288.951799,-11.555474,0.389766,1.003108,-0.585056,-0.027184,-0.075136
1765408288.952051,-11.004304,0.080703,-0.219990,-0.582765,-0.058185,-0.072846
1765408288.952301,-10.754423,0.348517,-0.703013,-0.578948,-0.083078,-0.078191
1765408288.952551,-10.705403,0.295911,-0.316236,-0.592845,-0.050396,-0.081551
1765408288.952801,-10.704206,0.544596,-0.041846,-0.585667,-0.050396,-0.070097
1765408288.953033,-10.673121,-0.405308,0.019130,-0.591318,-0.073457,-0.056810
1765408288.953283,-10.549377,-0.266619,-0.871592,-0.591318,-0.096822,-0.079718
1765408288.953533,-11.291245,0.554161,0.483620,-0.586583,-0.094379,-0.084147
1765408288.953783,-10.847081,0.585844,0.302487,-0.594066,-0.058185,-0.070097
1765408288.954012,-10.643232,0.241511,-0.154232,-0.600022,-0.101709,-0.062461
1765408288.954262,-10.801051,-0.185318,0.160210,-0.611934,-0.108429,-0.075900
1765408288.954512,-10.843494,-0.155428,-0.119560,-0.596510,-0.115759,-0.072388
1765408288.954762,-11.208750,0.297107,0.389766,-0.590707,-0.107512,-0.079565
1765408288.955022,-11.287660,0.464491,0.740674,-0.594983,-0.104458,-0.081703
1765408288.955272,-11.065876,0.113582,0.274390,-0.595135,-0.119577,-0.068417
1765408288.955522,-10.884743,-0.025705,-0.112984,-0.595135,-0.137597,-0.068417
1765408288.955772,-11.472978,-0.145265,0.823768,-0.590707,-0.131336,-0.078802
1765408288.956009,-11.250596,0.131516,0.766380,-0.585972,-0.131336,-0.082620
1765408288.956259,-11.250596,0.131516,0.766380,-0.585972,-0.151647,-0.082620
1765408288.956509,-10.215207,-0.072334,-0.652200,-0.586889,-0.156687,-0.078191
1765408288.956759,-10.584648,0.008369,0.115375,-0.586889,-0.169973,-0.078191
1765408288.957011,-10.701816,-0.116571,0.554758,-0.576199,-0.173333,-0.074373
1765408288.957344,-10.500956,-0.049020,-0.020923,-0.580169,-0.173333,-0.084299
1765408288.957678,-10.457315,0.113582,-0.227164,-0.591776,-0.175776,-0.094990
1765408288.958026,-10.475847,0.338355,-0.193687,-0.578031,-0.171348,-0.086132
1765408288.958276,-10.398134,0.083094,0.404113,-0.579100,-0.167835,-0.082314
1765408288.958526,-10.494978,0.245098,0.670134,-0.585056,-0.171195,-0.090255
1765408288.958776,-10.685675,0.402319,0.188307,-0.587958,-0.171195,-0.098807
1765408288.960012,-10.691055,0.318030,0.438785,-0.586889,-0.183260,-0.087048
1765408288.960262,-10.760999,0.370636,0.489000,-0.582918,-0.168752,-0.092088
1765408288.960512,-10.755618,0.882353,0.882353,-0.593914,-0.168752,-0.095448
1765408288.960762,-11.011477,0.636059,1.278096,-0.611323,-0.170431,-0.093310
1765408288.960098,-10.511715,0.453132,0.218795,-0.593608,-0.187994,-0.074984
1765408288.960348,-10.952294,0.082496,0.983979,-0.603229,-0.201738,-0.081551
1765408288.960598,-11.113103,0.265423,1.041368,-0.607811,-0.182801,-0.093921
1765408288.960848,-10.774747,0.335964,0.705404,-0.606284,-0.182801,-0.085216
1765408288.960985,-10.576279,0.198470,0.263032,-0.606284,-0.193339,-0.085216
1765408288.961235,-10.846484,-0.029292,0.735294,-0.615752,-0.207389,-0.091324
1765408288.961485,-11.061093,0.237924,1.166308,-0.613614,-0.193950,-0.099724
1765408288.961735,-10.559540,0.345528,0.498565,-0.609796,-0.200211,-0.088270
1765408288.961965,-10.349113,0.272597,0.271401,-0.613156,-0.207541,-0.092241
1765408288.962215,-10.349113,0.272597,0.271401,-0.613156,-0.210443,-0.092241
1765408288.962465,-10.347919,0.075323,0.453730,-0.602619,-0.209832,-0.081245
1765408288.962715,-10.332376,0.192492,0.441176,-0.607964,-0.207083,-0.095600
1765408288.962959,-10.396938,0.254663,0.775347,-0.618043,-0.196546,-0.092393
1765408288.963209,-9.791367,0.025108,-0.065758,-0.607505,-0.196546,-0.085979
1765408288.963459,-9.791367,0.025108,-0.002391,-0.607505,-0.203418,-0.085979
1765408288.963709,-10.163795,-0.257054,0.640842,-0.606589,-0.200822,-0.092088
1765408288.964016,-10.549974,-0.310856,1.113104,-0.601397,-0.189216,-0.093615
1765408288.964266,-10.056191,-0.477044,0.412482,-0.597121,-0.187077,-0.084299
1765408288.964516,-10.121352,-0.273195,0.468675,-0.591318,-0.199600,-0.102473
1765408288.964766,-10.370635,-0.318030,1.012673,-0.596357,-0.189368,-0.094531
1765408288.964953,-10.425035,-0.214012,0.792085,-0.585056,-0.193950,-0.094837
1765408288.965286,-10.517693,-0.227164,1.011478,-0.586125,-0.201127,-0.094226
1765408288.965620,-10.662361,-0.322214,1.482544,-0.588263,-0.193492,-0.100029
1765408288.965957,-10.396339,-0.094452,1.000119,-0.570243,-0.189979,-0.099113
1765408288.966207,-9.854136,-0.321019,0.346724,-0.571923,-0.195019,-0.090255
1765408288.966457,-9.838593,0.008369,0.240913,-0.575893,-0.202502,-0.105222
1765408288.966707,-10.404112,0.153635,0.993544,-0.578795,-0.201127,-0.096975
1765408288.966961,-10.404112,0.153635,0.993544,-0.578795,-0.199142,-0.096975
1765408288.967211,-10.414873,0.396939,0.930775,-0.573450,-0.200517,-0.095142
1765408288.967461,-10.459108,0.149450,0.820182,-0.587805,-0.197920,-0.085979
1765408288.967711,-10.375418,-0.066954,0.504543,-0.581544,-0.198989,-0.082772
1765408288.967994,-10.353896,-0.193687,0.353898,-0.583834,-0.211054,-0.086285
1765408288.968244,-10.872787,0.236729,1.465208,-0.591776,-0.187077,-0.095906
1765408288.968494,-10.516498,-0.085485,0.896102,-0.586736,-0.183718,-0.080023
1765408288.968744,-10.248086,-0.444763,0.436394,-0.584903,-0.205556,-0.074067
1765408288.968988,-9.972500,-0.380201,-0.063965,-0.581544,-0.203571,-0.092546
1765408288.969238,-10.344332,0.035270,0.902678,-0.578184,-0.203571,-0.088575
1765408288.969488,-10.292323,-0.209230,1.055715,-0.565356,-0.197309,-0.073915
1765408288.969738,-10.160210,-0.163797,0.671329,-0.571770,-0.204487,-0.082620
1765408288.970003,-10.015541,-0.465088,0.505739,-0.580016,-0.202044,-0.080176
1765408288.970253,-9.718434,-0.480631,0.104017,-0.568410,-0.207236,-0.078038
1765408288.970503,-10.190698,-0.555954,0.866810,-0.559705,-0.207236,-0.076358
1765408288.970753,-10.223577,-0.530846,1.111908,-0.556956,-0.187688,-0.081703
1765408288.971003,-10.178144,-0.615136,0.897896,-0.553749,-0.190132,-0.082161
1765408288.971336,-9.762074,-0.711980,0.337757,-0.540921,-0.186925,-0.078649
1765408288.971670,-9.982065,-0.737685,0.776542,-0.531300,-0.201891,-0.085216
1765408288.971976,-10.341342,-0.472262,1.183046,-0.534813,-0.194102,-0.089339
1765408288.972226,-10.245097,-0.756815,1.113104,-0.530995,-0.193950,-0.088423
1765408288.972476,-9.709468,-0.726925,0.358680,-0.519388,-0.197309,-0.086285
1765408288.972726,-9.892395,-0.854256,0.582257,-0.512974,-0.197309,-0.092088
1765408288.973027,-10.101027,-0.656384,1.010880,-0.506407,-0.183260,-0.089950
1765408288.973277,-10.391558,-0.661167,1.077236,-0.498466,-0.197615,-0.088881
1765408288.973527,-10.133308,-0.546389,0.766380,-0.499230,-0.185856,-0.095142
1765408288.973777,-9.836202,-0.576279,0.327594,-0.488845,-0.183412,-0.091019
1765408288.974031,-10.127929,-0.523673,1.302009,-0.483653,-0.172417,-0.085674
1765408288.974364,-10.312051,-0.811812,1.118484,-0.481056,-0.180358,-0.086743
1765408288.974698,-10.463293,-0.816595,1.021640,-0.479835,-0.185398,-0.093768
1765408288.975051,-9.974891,-0.846485,0.398135,-0.470214,-0.176082,-0.096364
1765408288.975301,-9.962337,-0.426829,0.670732,-0.459982,-0.170890,-0.093921
1765408288.975551,-10.156623,-0.340148,1.336681,-0.466090,-0.170890,-0.094531
1765408288.975801,-10.156623,-0.340148,1.336681,-0.466090,-0.172722,-0.094531
1765408288.976006,-9.751911,-0.795672,0.336561,-0.461509,-0.170737,-0.089034
1765408288.976256,-9.793160,-0.493783,0.502750,-0.451582,-0.167988,-0.094379
1765408288.976506,-9.839788,-0.389766,0.850072,-0.447612,-0.161574,-0.085216
1765408288.976756,-10.084887,-0.661167,0.936155,-0.448375,-0.180053,-0.087354
1765408288.977026,-10.179338,-0.744859,0.894309,-0.439670,-0.164781,-0.089339
1765408288.977276,-9.570778,-0.683883,0.151243,-0.430507,-0.159436,-0.087812
1765408288.977526,-9.613222,-0.730512,0.591822,-0.438907,-0.155618,-0.089492
1765408288.977776,-9.722619,-0.493783,0.509326,-0.425009,-0.158214,-0.085827
1765408288.978004,-10.028693,-1.025825,0.827953,-0.422413,-0.166155,-0.079107
1765408288.978337,-10.044236,-0.997728,0.621712,-0.401033,-0.153785,-0.083689
1765408288.978671,-10.095646,-0.939742,1.247011,-0.394314,-0.143859,-0.087659
1765408288.979007,-9.901959,-0.870995,0.832138,-0.397215,-0.143859,-0.089034
1765408288.979257,-9.901959,-0.870995,0.832138,-0.397215,-0.163254,-0.089034
1765408288.979507,-10.028095,-0.767575,0.395744,-0.385761,-0.150578,-0.089339
1765408288.979757,-9.923481,-0.972023,0.831540,-0.371101,-0.144622,-0.086132
1765408288.980020,-9.807508,-0.667145,0.894907,-0.369421,-0.148898,-0.104305
1765408288.980270,-10.105211,-0.631277,1.054519,-0.369726,-0.148898,-0.099724
1765408288.980520,-10.105211,-0.631277,1.054519,-0.369726,-0.153480,-0.099724
1765408288.980770,-9.935436,-0.285748,0.483022,-0.348804,-0.148288,-0.093921
1765408288.980962,-9.820060,-0.628886,0.997130,-0.346361,-0.130878,-0.087812
1765408288.981212,-9.644308,-0.754424,0.640842,-0.341932,-0.135918,-0.097586
1765408288.981462,-10.039454,-0.802248,0.815399,-0.334601,-0.148440,-0.095448
1765408288.981712,-10.039454,-0.802248,0.815399,-0.334601,-0.143859,-0.095448
1765408288.981985,-10.004781,-0.729914,0.787900,-0.307265,-0.121409,-0.098349
1765408288.982235,-9.805116,-0.955284,0.669536,-0.296728,-0.121409,-0.097280
1765408288.982485,-9.849353,-0.939144,0.613343,-0.288023,-0.138972,-0.095753
1765408288.982735,-10.029292,-0.952893,0.657580,-0.281303,-0.134543,-0.099113
1765408288.983028,-9.777617,-1.007891,0.479436,-0.267406,-0.131794,-0.092546
1765408288.983361,-9.615016,-1.342659,0.429220,-0.254273,-0.120493,-0.086743
1765408288.983695,-9.520563,-1.227881,0.147059,-0.233961,-0.116064,-0.092241
1765408288.984120,-9.715446,-1.309780,0.371832,-0.227700,-0.121104,-0.089492
1765408288.984370,-9.604854,-1.404232,0.141679,-0.211818,-0.116675,-0.085368
1765408288.984620,-9.744739,-1.269727,0.345528,-0.190590,-0.102473,-0.082772
1765408288.984870,-9.541486,-1.419177,0.304878,-0.177609,-0.088117,-0.074831
1765408288.985066,-9.803921,-1.470588,0.533835,-0.167683,-0.091935,-0.076205
1765408288.985316,-9.675991,-1.547106,0.142276,-0.167683,-0.087812,-0.076205
1765408288.985566,-9.472141,-1.484337,-0.154232,-0.141110,-0.080940,-0.067806
1765408288.985816,-9.599473,-1.321138,0.211621,-0.126449,-0.069791,-0.064141
1765408288.986032,-9.799137,-1.455643,0.550574,-0.120951,-0.061239,-0.056658
1765408288.986282,-9.565398,-1.574007,0.118364,-0.108276,-0.060628,-0.050702
1765408288.986532,-9.405785,-1.615256,-0.090866,-0.098655,-0.051160,-0.047037
1765408288.986782,-9.469152,-1.414395,0.156624,-0.084910,-0.038332,-0.041386
1765408288.986992,-9.658057,-1.540531,0.469871,-0.071624,-0.039554,-0.028405
1765408288.987242,-9.658057,-1.660688,0.249880,-0.062766,-0.036805,-0.023213
1765408288.987492,-9.348397,-1.644548,-0.325203,-0.052687,-0.028100,-0.019700
1765408288.987742,-9.409969,-1.483142,-0.337159,-0.037874,-0.023671,-0.018784
1765408288.988007,-9.815877,-1.310975,0.230751,-0.035125,-0.015577,-0.016341
1765408288.988257,-10.022716,-1.223099,0.643233,-0.028711,-0.003665,-0.007178
1765408288.988507,-9.863700,-1.408417,0.327594,-0.021228,0.002291,0.000153
1765408288.988757,-9.820659,-1.360593,0.140483,-0.016341,-0.006567,-0.003512
1765408288.989001,-10.011955,-0.880559,0.289933,-0.007025,-0.011301,-0.004276
1765408288.989201,-10.226564,-0.567910,0.639646,-0.001222,-0.002749,0.007330
1765408288.989401,-9.998802,-0.592420,0.428623,-0.002291,0.001069,0.019853
1765408288.989601,-9.953370,-0.708393,0.296509,-0.004276,-0.005192,0.020464
1765408288.989801,-9.873264,-0.760999,0.104017,0.004734,-0.010232,0.026573
1765408288.989987,-10.093256,-0.628886,0.462697,0.009468,-0.011759,0.021380
1765408288.990187,-10.285748,-0.310258,0.827953,0.011454,0.002902,0.017410
1765408288.990387,-10.285748,-0.310258,0.827953,0.011454,0.003360,0.017410
1765408288.990587,-9.864896,-0.082496,0.170971,0.011454,-0.006109,0.023824
1765408288.990787,-10.032877,-0.051411,0.452535,0.011759,-0.005803,0.028711
1765408288.991027,-10.142276,-0.210426,0.626494,0.011454,-0.007636,0.030543
1765408288.991227,-9.904350,-0.304878,0.215208,0.017104,-0.000153,0.025962
1765408288.991427,-9.814680,-0.197872,0.123147,0.019548,-0.003512,0.019853
1765408288.991627,-9.873264,0.057389,0.266619,0.020159,-0.004429,0.016035
1765408288.991827,-10.068149,0.396939,0.601387,0.022144,-0.005345,0.011148
1765408288.992048,-9.996411,0.572692,0.364658,0.020159,-0.002902,0.013439
1765408288.992248,-9.782400,0.322812,0.115973,0.020159,-0.004581,0.013439
1765408288.992448,-9.794952,0.270206,0.135103,0.018937,-0.009927,0.015882
1765408288.992648,-9.936632,0.349115,0.326399,0.017104,-0.004581,0.010079
1765408288.992848,-9.909132,0.502152,0.296509,0.018631,-0.000458,0.009010
1765408288.993035,-9.949186,0.584648,0.288140,0.015730,-0.001985,0.006872
1765408288.993285,-10.059779,0.559541,0.466284,0.013744,-0.004734,0.008705
1765408288.993535,-9.949782,0.438785,0.264825,0.011912,-0.000764,0.008858
1765408288.993785,-9.915112,0.456719,0.208034,0.009774,-0.003971,0.001680
1765408288.994014,-10.027497,0.619321,0.338953,0.009010,-0.003512,-0.003207
1765408288.994214,-10.105211,0.637255,0.437590,0.005040,-0.003512,-0.001527
1765408288.994414,-10.074127,0.624103,0.389766,0.001222,-0.004887,-0.004581
1765408288.994614,-10.032280,0.596604,0.314443,-0.005651,-0.003360,-0.002902
1765408288.994814,-9.977283,0.500956,0.368843,-0.003665,-0.008552,-0.002138
1765408288.995035,-9.985652,0.491989,0.306074,-0.006261,-0.008705,-0.004581
1765408288.995235,-10.014346,0.420851,0.338355,-0.009927,-0.006109,-0.003207
1765408288.995435,-9.995216,0.353898,0.298900,-0.014966,-0.008858,-0.005345
1765408288.995635,-9.978478,0.289335,0.343137,-0.019090,-0.008094,-0.009316
1765408288.995835,-9.931252,0.321616,0.282162,-0.020006,-0.007483,-0.006720
1765408288.996051,-9.945002,0.288140,0.328790,-0.023518,-0.010537,-0.010232
1765408288.996251,-9.898373,0.192492,0.304280,-0.024129,-0.010537,-0.008552
1765408288.996451,-9.910329,0.124342,0.304878,-0.024129,-0.007330,-0.008552
1765408288.996651,-9.832614,0.123147,0.209230,-0.027794,-0.007178,-0.011759
1765408288.996851,-9.845766,0.131516,0.217001,-0.030391,-0.008094,-0.012675
1765408288.997041,-9.869080,0.038259,0.251076,-0.029627,-0.008399,-0.011454
1765408288.997291,-9.972500,0.035868,0.346724,-0.029169,-0.009774,-0.012065
1765408288.997541,-9.952174,0.001196,0.396939,-0.031612,-0.004734,-0.008858
1765408288.997791,-9.900764,-0.039455,0.357484,-0.027947,-0.004429,-0.007636
1765408288.998011,-9.956957,-0.146461,0.361071,-0.030696,-0.004429,-0.005803
1765408288.998211,-9.900764,-0.219990,0.273792,-0.028405,-0.003665,-0.003971
1765408288.998411,-10.015541,-0.318030,0.450741,-0.028405,-0.006261,-0.007483
1765408288.998611,-10.069344,-0.252272,0.514108,-0.025198,-0.007330,-0.008858
1765408288.998811,-10.033475,-0.274988,0.425634,-0.024435,-0.009010,-0.009774
1765408288.998978,-9.832614,-0.310258,0.161406,-0.020311,-0.009010,-0.010843
1765408288.999228,-9.903154,-0.353898,0.370636,-0.023518,-0.008094,-0.012981
1765408288.999478,-9.959349,-0.325203,0.487207,-0.021686,-0.011454,-0.011454
1765408288.999728,-10.008368,-0.272597,0.408895,-0.016952,-0.008399,-0.010996
1765408289.004154,-9.820060,-0.253467,0.199665,-0.016188,-0.004276,-0.007483
1765408289.004354,-9.820659,-0.422047,0.218795,-0.012217,-0.007636,-0.001680
1765408289.004554,-9.949782,-0.388570,0.486609,-0.012217,-0.009163,-0.006414
1765408289.004754,-10.028693,-0.332377,0.517695,-0.011912,-0.004581,-0.009468
1765408289.004954,-9.863102,-0.180536,0.246294,-0.006872,-0.004581,-0.006414
1765408289.004275,-9.819464,-0.172166,0.213415,-0.007330,-0.004276,-0.003054
1765408289.004475,-9.900764,-0.236729,0.350311,-0.005345,-0.006261,-0.000764
1765408289.004675,-9.960544,-0.260641,0.401722,-0.003512,-0.005956,-0.000764
1765408289.004875,-9.907339,-0.268412,0.356289,-0.003971,-0.003971,0.000000
1765408289.005075,-9.802725,-0.279770,0.199665,-0.005040,-0.003207,-0.000916
1765408289.004994,-9.802725,-0.279770,0.199665,-0.005040,-0.005345,-0.000916
1765408289.005194,-9.959349,-0.142276,0.445361,-0.003360,-0.006720,-0.000611
1765408289.005394,-9.955761,-0.054998,0.388570,-0.002902,-0.003665,-0.000916
1765408289.005594,-9.840386,-0.054400,0.229555,-0.003207,-0.004734,0.005803
1765408289.005794,-9.927666,-0.142276,0.296509,-0.001374,-0.004734,0.005803
1765408289.005984,-9.973696,-0.243902,0.349115,-0.001374,-0.007636,0.005498
1765408289.006184,-10.057388,-0.147059,0.459110,-0.004429,-0.004734,0.001680
1765408289.006384,-10.013748,-0.032281,0.424438,-0.002902,-0.004734,0.003360
1765408289.006584,-9.904350,-0.020325,0.289335,-0.002902,-0.005803,0.005345
1765408289.006784,-9.890601,-0.044835,0.255858,-0.002749,-0.007025,0.008399
1765408289.007002,-9.934240,-0.098039,0.334768,-0.002291,-0.005803,0.007483
1765408289.007202,-9.983260,-0.190100,0.371832,-0.004276,-0.007483,0.008399
1765408289.007402,-9.973696,-0.118962,0.290531,-0.002443,-0.005498,0.008247
1765408289.007602,-9.894188,-0.046628,0.227164,0.001985,-0.005192,0.005803
1765408289.007802,-9.894188,-0.043042,0.295911,0.000153,-0.006720,0.006414
1765408289.008008,-9.939023,-0.106408,0.368245,-0.001833,-0.007941,0.005651
1765408289.008208,-10.014943,-0.044237,0.395744,0.001833,-0.008705,0.003665
1765408289.008408,-9.983260,0.034672,0.302487,0.002291,-0.005192,0.003971
1765408289.008608,-9.862504,0.095050,0.208034,0.000611,-0.007025,0.003818
1765408289.008808,-9.915112,0.081301,0.350311,-0.000611,-0.011606,0.002596
1765408289.009020,-10.005977,0.095648,0.436394,0.001374,-0.007330,0.004429
1765408289.009220,-9.999999,0.077116,0.411286,0.001222,-0.007636,0.006109
1765408289.009420,-9.838593,0.028694,0.220588,-0.002749,-0.001374,0.004887
1765408289.009620,-9.833811,0.059780,0.220588,-0.002749,-0.005345,0.004887
1765408289.009820,-9.947392,0.114778,0.329388,0.002443,-0.011759,0.000458
1765408289.010008,-10.063366,0.188905,0.514108,-0.000611,-0.007636,-0.002902
1765408289.010208,-9.930056,0.212817,0.304878,-0.003818,-0.004581,0.001069
1765408289.010408,-9.864896,0.221186,0.248087,-0.001985,-0.008858,0.002749
1765408289.010608,-9.883428,0.197274,0.279173,-0.007636,-0.007789,0.000611
1765408289.010808,-9.942610,0.108800,0.384983,-0.007025,-0.010079,-0.001680
1765408289.010995,-9.903154,0.107006,0.331779,-0.008247,-0.008552,-0.001527
1765408289.011195,-9.815877,0.203252,0.237327,-0.008858,-0.006414,-0.003818
1765408289.011395,-9.792562,0.221784,0.173362,-0.008858,-0.006414,-0.001985
1765408289.011595,-9.890003,0.168580,0.333572,-0.009621,-0.007330,-0.002291
1765408289.011795,-10.013748,0.107604,0.447154,-0.011148,-0.005803,-0.000611
1765408289.011987,-10.013748,0.107604,0.447154,-0.011148,-0.002596,-0.000611
1765408289.012187,-9.875656,0.051411,0.248685,-0.013744,-0.003054,-0.001680
1765408289.012387,-9.866689,-0.019727,0.265423,-0.010079,-0.005498,-0.003360
1765408289.012587,-9.995216,-0.003587,0.406504,-0.011759,-0.006872,-0.005345
1765408289.012787,-10.054399,-0.013152,0.462697,-0.013744,-0.005803,-0.004276
1765408289.012961,-9.916306,0.000598,0.273792,-0.011301,-0.004581,-0.005498
1765408289.013161,-9.806311,-0.074725,0.101626,-0.012523,-0.007025,-0.006109
1765408289.013361,-9.958152,-0.012554,0.383788,-0.010537,-0.006720,-0.007025
1765408289.013561,-10.098038,-0.052009,0.530846,-0.010079,-0.006261,-0.003360
1765408289.013761,-10.001194,-0.074127,0.335964,-0.010843,-0.006720,-0.004276
1765408289.014029,-9.898373,-0.049617,0.195481,-0.011606,-0.005651,-0.005040
1765408289.014229,-9.836202,-0.028694,0.276184,-0.011454,-0.006261,-0.005651
1765408289.014429,-10.034670,-0.065758,0.461502,-0.012675,-0.009621,-0.006109
1765408289.014629,-10.044834,-0.071736,0.405308,-0.009774,-0.009927,-0.005345
1765408289.014829,-9.979075,-0.033477,0.298900,-0.012065,-0.005803,-0.003818
1765408289.015007,-9.869678,-0.043042,0.266619,-0.012981,-0.004123,-0.006261
1765408289.015207,-9.895982,-0.050813,0.314443,-0.014355,-0.009774,-0.003360
1765408289.015407,-9.941415,-0.057987,0.320421,-0.012981,-0.006261,-0.001985
1765408289.015607,-9.953967,-0.111191,0.331779,-0.012981,-0.009163,-0.001985
1765408289.015807,-9.974294,-0.127929,0.337159,-0.011301,-0.005803,-0.001374
1765408289.016008,-9.903752,-0.111191,0.280966,-0.012675,-0.005803,-0.001985
1765408289.016208,-9.903752,-0.111191,0.280966,-0.012675,-0.006720,-0.001985
1765408289.016408,-9.855330,-0.155428,0.233142,-0.011301,-0.008858,-0.001222
1765408289.016608,-9.912720,-0.148254,0.303085,-0.011301,-0.007330,-0.001222
1765408289.016808,-9.965326,-0.119560,0.416667,-0.008858,-0.004429,-0.000611
1765408289.017006,-9.879243,-0.159015,0.307269,-0.009316,-0.004429,-0.001527
1765408289.017256,-9.848158,-0.158417,0.288140,-0.004887,-0.008247,-0.002749
1765408289.017506,-9.894786,-0.103419,0.252272,-0.008858,-0.007025,-0.001527
1765408289.017756,-9.955164,-0.149450,0.354495,-0.005498,-0.006414,0.000764
1765408289.018045,-9.955164,-0.149450,0.354495,-0.005498,-0.006720,0.000764
1765408289.018245,-10.014346,-0.102822,0.443568,-0.006109,-0.007178,-0.000764
1765408289.018445,-9.898373,-0.077714,0.253467,-0.007330,-0.004581,0.000153
1765408289.018645,-9.844571,-0.057389,0.239120,-0.006109,-0.008705,-0.001374
1765408289.018845,-9.867287,-0.005380,0.309063,-0.006720,-0.008705,0.001222
1765408289.019034,-9.956957,-0.016738,0.383788,-0.007636,-0.006261,0.002138
1765408289.019234,-10.001194,-0.065758,0.387374,-0.007483,-0.005192,0.000458
1765408289.019434,-10.018531,-0.044835,0.329986,-0.004123,-0.006109,-0.000916
1765408289.019634,-9.962935,0.001196,0.374223,-0.004581,-0.005498,0.001680
1765408289.019834,-9.949782,0.015543,0.269010,-0.005651,-0.005498,0.002902
1765408289.019984,-9.945002,-0.047824,0.369440,-0.005651,-0.006872,0.002902
1765408289.020151,-9.971304,-0.003587,0.359876,-0.007789,-0.003971,0.001680
1765408289.020317,-9.900167,-0.047226,0.297704,-0.004887,-0.005498,0.000764
1765408289.020484,-9.840983,-0.025108,0.180536,-0.006567,-0.008552,-0.000153
1765408289.020651,-9.890003,0.057389,0.310258,-0.007636,-0.008552,0.000916
1765408289.020817,-9.890003,0.057389,0.310258,-0.007636,-0.006261,0.000916
1765408289.021999,-9.948587,-0.016738,0.304878,-0.007178,-0.005956,0.002596
1765408289.022199,-9.927666,0.033477,0.254065,-0.005040,-0.005956,0.000916
1765408289.022399,-9.915709,0.013152,0.283357,-0.006109,-0.010385,0.000916
1765408289.022599,-9.954566,-0.013749,0.355093,-0.007025,-0.010385,0.000611
1765408289.022799,-9.979673,-0.025108,0.362267,-0.007330,-0.007636,0.000153
1765408289.022046,-10.001194,0.040650,0.336561,-0.006109,-0.006261,0.001222
1765408289.022246,-9.928861,0.053802,0.280966,-0.005803,-0.005956,0.001680
1765408289.022446,-9.902557,0.034075,0.276781,-0.005803,-0.006567,0.001680
1765408289.022646,-9.933643,-0.015543,0.361071,-0.005345,-0.007789,0.000000
1765408289.022846,-9.939023,-0.023912,0.344931,-0.007330,-0.007025,-0.000153
1765408289.022998,-9.833213,0.056193,0.224773,-0.006720,-0.005956,-0.001985
1765408289.023198,-9.838593,0.096844,0.263032,-0.008094,-0.007330,-0.001833
1765408289.023398,-9.892395,0.065758,0.298900,-0.006872,-0.008858,-0.001222
1765408289.023598,-9.972500,-0.011956,0.379005,-0.010537,-0.009163,-0.000305
1765408289.023798,-9.986848,-0.031086,0.375418,-0.010996,-0.007025,-0.002596
1765408289.023949,-9.912720,0.038259,0.292922,-0.009163,-0.005040,-0.004734
1765408289.024149,-9.891200,0.043042,0.244500,-0.010232,-0.005040,-0.002443
1765408289.024349,-9.909132,-0.032281,0.331181,-0.009621,-0.010232,-0.001680
1765408289.024549,-10.021520,-0.026303,0.419058,-0.009927,-0.007483,-0.002902
1765408289.024749,-10.007771,-0.035868,0.412482,-0.007636,-0.008858,-0.004123
1765408289.024987,-9.920491,-0.049020,0.224773,-0.010996,-0.005651,-0.002749
1765408289.025237,-9.900764,-0.050215,0.233740,-0.010537,-0.005651,-0.001985
1765408289.025487,-9.941415,-0.017934,0.343137,-0.009010,-0.008399,-0.001833
1765408289.025737,-10.049617,-0.075323,0.460306,-0.009468,-0.003207,-0.002291
1765408289.026007,-9.998802,-0.101626,0.379603,-0.007330,-0.002902,-0.001833
1765408289.026207,-9.829028,-0.144668,0.285748,-0.010079,-0.006720,-0.001069
1765408289.026407,-9.288019,-0.233740,0.245696,-0.008705,-0.006720,-0.002596
1765408289.026607,-9.515780,0.174558,0.363462,-0.010079,-0.015119,-0.012828
1765408289.026807,-9.521759,0.303682,0.028694,-0.009774,-0.001985,-0.003818
1765408289.026985,-9.514585,0.044835,0.379005,-0.005040,0.005192,0.011454
1765408289.027185,-9.732184,-0.149450,0.541607,-0.008399,0.004581,0.003665
1765408289.027385,-10.193686,-0.251076,0.817193,-0.014661,-0.001374,-0.001222
1765408289.027585,-10.088473,-0.477044,-0.001196,-0.009163,-0.001527,-0.000153
1765408289.027785,-9.930056,-0.258250,0.147059,-0.001527,0.003971,-0.008399
1765408289.027977,-9.984456,0.383190,0.759804,-0.004887,0.016799,-0.012828
1765408289.028177,-10.229554,0.529651,1.072453,-0.013134,0.012981,0.003818
1765408289.028377,-10.005977,-0.246294,0.364658,-0.012217,-0.002138,0.016341
1765408289.028577,-9.745934,-0.758608,-0.197274,-0.003665,-0.006414,0.004734
1765408289.028777,-9.931850,-0.380201,0.344333,-0.004734,0.002291,-0.012828
1765408289.029031,-10.034670,0.327594,0.621712,-0.008705,0.017715,-0.015730
1765408289.029231,-9.936033,0.396939,0.221784,-0.009163,0.007789,0.003207
1765408289.029431,-9.858918,-0.001196,0.142276,-0.005040,0.005345,0.008094
1765408289.029631,-10.142276,-0.280966,0.663558,-0.006567,0.007789,0.007330
1765408289.029831,-10.203251,-0.316236,0.832138,-0.010232,0.004734,0.001374
1765408289.030051,-9.820659,-0.205643,0.109397,-0.009927,0.004734,-0.006872
1765408289.030251,-9.645503,0.083692,-0.133907,-0.005192,0.001374,-0.006414
1765408289.030451,-9.887612,0.279770,0.332377,-0.003971,0.005651,-0.001222
1765408289.030651,-10.141678,0.272597,0.714969,-0.008858,0.009774,0.004429
1765408289.030851,-9.982663,-0.128527,0.317432,-0.008858,0.011454,0.009774
1765408289.030968,-9.790769,-0.302487,0.016738,-0.008858,0.001833,0.001069
1765408289.031168,-9.790769,-0.302487,0.016738,-0.008858,0.009163,0.001069
1765408289.031368,-9.912720,0.038259,0.438785,-0.005956,0.007178,-0.006109
1765408289.031568,-9.849353,0.190698,0.304878,-0.009163,0.005956,-0.006109
1765408289.031768,-9.881634,0.282162,0.161406,-0.009621,0.010843,0.003818
1765408289.031950,-9.913916,-0.008967,0.221186,-0.007789,0.011148,0.009621
1765408289.032150,-9.990434,-0.351506,0.395744,-0.008247,0.004734,0.003360
1765408289.032350,-10.060975,-0.284553,0.509326,-0.008399,0.006872,-0.005345
1765408289.032550,-9.950979,0.027499,0.271401,-0.005956,0.006872,-0.008858
1765408289.032750,-9.839190,0.274988,0.180536,-0.009163,0.005192,-0.006261
1765408289.032965,-10.022716,0.280966,0.313247,-0.010385,0.006109,0.001222
1765408289.033165,-10.126732,0.008369,0.496772,-0.007483,0.007483,0.009010
1765408289.033365,-10.069344,-0.304878,0.401124,-0.008858,0.005651,0.004734
1765408289.033565,-9.934838,-0.294118,0.243902,-0.008705,0.005651,-0.005040
1765408289.033765,-9.934838,-0.294118,0.243902,-0.008705,0.004123,-0.005040
1765408289.033971,-9.922284,0.153037,0.218795,-0.007178,0.005345,-0.004887
1765408289.034171,-9.953967,0.178144,0.306671,-0.009316,0.005345,-0.000153
1765408289.034371,-10.014346,0.116571,0.358680,-0.008552,0.002902,0.002902
1765408289.034571,-10.076518,-0.080105,0.438785,-0.007025,0.005192,0.001833
1765408289.034771,-10.076518,-0.080105,0.438785,-0.007025,0.006720,0.001833
1765408289.035027,-10.087276,-0.200861,0.285748,-0.008705,0.002291,-0.004581
1765408289.035227,-9.984456,0.043639,0.239718,-0.007483,0.002291,-0.007941
1765408289.035427,-9.901959,0.180536,0.169775,-0.008399,0.002291,-0.005498
1765408289.035627,-9.963533,0.167982,0.310856,-0.005192,0.001527,0.000305
1765408289.035827,-10.102820,-0.034672,0.387972,-0.006872,0.001222,0.005956
1765408289.035991,-10.057388,-0.276184,0.389766,-0.008247,-0.000764,0.003054
1765408289.036241,-10.011356,-0.217599,0.326997,-0.007178,-0.000764,-0.002291
1765408289.036491,-10.020923,0.022716,0.287542,-0.007330,-0.002291,-0.005956
1765408289.036741,-10.015541,0.084290,0.252272,-0.009163,-0.002138,-0.004429
1765408289.037056,-10.020324,0.078312,0.312052,-0.011301,-0.004734,-0.000305
1765408289.037256,-10.017933,0.045433,0.246294,-0.010690,-0.002443,0.001374
1765408289.037456,-10.001194,-0.136298,0.291726,-0.010690,0.001985,0.005803
1765408289.037656,-9.979673,-0.249880,0.286346,-0.009163,-0.002138,0.000764
1765408289.037856,-10.075322,-0.165591,0.353898,-0.011454,-0.009010,-0.001833
1765408289.038041,-10.032280,0.057389,0.288140,-0.005345,-0.009010,-0.005651
1765408289.038291,-9.878646,0.107604,0.143472,-0.007025,-0.004734,-0.004276
1765408289.038541,-9.864896,0.053802,0.246294,-0.005803,-0.005956,0.000916
1765408289.038791,-9.991630,0.008369,0.377810,-0.005803,-0.005651,0.000916
1765408289.038952,-10.074724,-0.166188,0.441176,-0.007330,-0.006414,0.003207
1765408289.040966,-10.022716,-0.193687,0.341942,-0.007789,-0.008247,-0.000153
1765408289.044008,-10.023911,-0.054400,0.329986,-0.008705,-0.007483,-0.005040
1765408289.044964,-9.958152,0.043042,0.294118,-0.007178,-0.005956,-0.004734
1765408289.048959,-9.923481,0.080105,0.276184,-0.007636,-0.008705,-0.000153
1765408289.052097,-9.988043,0.050215,0.329986,-0.007025,-0.010232,0.000153
1765408289.052597,-10.028693,-0.075921,0.405906,-0.006567,-0.009316,0.002902
1765408289.057005,-9.909132,-0.206839,0.255858,-0.007789,-0.007483,-0.000458
1765408289.059014,-9.818267,-0.147059,0.156624,-0.003971,-0.010385,-0.000458
1765408289.061024,-9.842180,0.101028,0.261836,-0.007789,-0.011301,-0.005498
1765408289.064025,-9.919296,0.151841,0.447154,-0.008247,-0.007941,-0.002596
1765408289.066012,-9.920491,0.047226,0.368245,-0.009010,-0.007941,0.004887
1765408289.069032,-9.894786,-0.050215,0.227762,-0.009621,-0.009010,0.004581
1765408289.072010,-9.849353,-0.159015,0.241511,-0.009316,-0.004276,0.001985
1765408289.074027,-9.897178,-0.182927,0.293520,-0.006261,-0.007025,-0.001374
1765408289.076034,-10.048421,0.064562,0.454328,-0.006567,-0.003971,-0.005345
1765408289.079030,-10.069344,0.185318,0.439383,-0.008552,-0.003971,-0.005345
1765408289.081013,-9.913916,0.039455,0.295313,-0.010843,-0.005040,0.002138
1765408289.082075,-9.948587,-0.073529,0.256456,-0.010079,-0.007789,0.003512
1765408289.086148,-10.046627,-0.069345,0.447154,-0.007636,-0.004276,0.000916
1765408289.089033,-10.029889,-0.126734,0.417862,-0.008094,-0.006720,-0.000305
1765408289.091072,-9.952772,-0.062171,0.309660,-0.008399,-0.007483,-0.002291
1765408289.094132,-9.999999,0.098637,0.391559,-0.004734,-0.004429,-0.003512
1765408289.096168,-9.937828,0.106408,0.425036,-0.008247,-0.001985,0.001527
1765408289.099024,-9.863700,-0.065758,0.221784,-0.008247,-0.007025,0.000305
1765408289.101016,-9.863700,-0.065758,0.221784,-0.008247,-0.009010,0.000305
1765408289.104152,-9.992825,-0.117169,0.408297,-0.009163,-0.005803,-0.002749
1765408289.106107,-9.935436,-0.120158,0.347920,-0.007330,-0.002902,-0.002291
1765408289.107093,-9.868484,0.017934,0.212817,-0.007330,-0.003971,-0.001833
1765408289.111097,-9.889405,0.109995,0.271401,-0.006109,-0.003971,-0.001680
1765408289.114110,-9.909132,-0.019130,0.365256,-0.009010,-0.006567,0.002596
1765408289.116118,-9.990434,-0.102822,0.379005,-0.007483,-0.003971,0.001833
1765408289.119123,-9.986848,-0.093257,0.344931,-0.006720,-0.004276,-0.002138
1765408289.121057,-9.894188,-0.045433,0.258250,-0.007483,-0.005040,-0.001985
1765408289.124247,-9.853538,-0.035270,0.164993,-0.007483,-0.003818,0.000458
1765408289.126131,-9.953370,-0.008369,0.322214,-0.007330,-0.005956,-0.001374
1765408289.127057,-10.028693,0.024510,0.456121,-0.004276,-0.003665,-0.001985
1765408289.130148,-9.911524,-0.009565,0.285748,-0.009468,-0.006872,-0.000611
1765408289.134055,-9.868484,-0.047824,0.208632,-0.009163,-0.004734,-0.000153
1765408289.136102,-10.005379,-0.029890,0.468077,-0.009316,-0.004734,-0.001222
1765408289.139033,-10.092059,-0.070540,0.484218,-0.007789,-0.002291,-0.000764
1765408289.141993,-10.007172,-0.066954,0.313247,-0.004887,-0.007636,-0.001069
1765408289.143996,-9.912122,0.023314,0.198470,-0.010232,-0.005192,-0.002138
1765408289.146992,-9.909132,0.029890,0.316834,-0.007941,-0.007025,0.000611
1765408289.149002,-9.983260,-0.054998,0.403515,-0.007789,-0.007025,-0.000153
1765408289.151994,-10.085484,-0.038259,0.457317,-0.009163,-0.005651,-0.001222
1765408289.153985,-10.013150,-0.023314,0.380201,-0.007483,-0.001985,-0.001069
1765408289.157010,-9.858320,-0.076518,0.167384,-0.006872,-0.004429,0.000458
1765408289.158997,-9.862504,-0.066356,0.160210,-0.009316,-0.007941,-0.001374
1765408289.162011,-10.039454,0.035868,0.421449,-0.007178,-0.006109,-0.001527
1765408289.163948,-10.093256,0.035868,0.447752,-0.007178,-0.003818,-0.001527
1765408289.164949,-9.967718,-0.029292,0.258250,-0.009774,-0.007483,0.001374
1765408289.168989,-9.935436,-0.038857,0.277379,-0.009468,-0.007483,0.002902
1765408289.171038,-9.935436,-0.038857,0.277379,-0.009468,-0.008552,0.002902
1765408289.174012,-9.960544,-0.086681,0.307269,-0.006261,-0.010232,-0.001222
1765408289.177048,-9.955761,-0.006576,0.255858,-0.008094,-0.006261,-0.004734
1765408289.178991,-9.895982,0.093257,0.257054,-0.009774,-0.005651,-0.003207
1765408289.179979,-9.878646,0.023912,0.219990,-0.008858,-0.005651,0.000305
1765408289.184018,-9.910329,-0.030488,0.305476,-0.009468,-0.010232,-0.000611
1765408289.186119,-10.063366,-0.048422,0.398135,-0.009163,-0.009621,0.000458
1765408289.188975,-10.014346,-0.093257,0.388570,-0.005956,-0.009316,-0.000764
1765408289.192140,-9.897178,-0.078910,0.209828,-0.004123,-0.010232,0.000153
1765408289.194114,-9.915112,0.091463,0.323410,-0.007941,-0.010232,-0.004581
1765408289.196069,-9.947989,0.104615,0.352702,-0.009163,-0.004429,-0.004734
1765408289.199065,-9.940218,-0.069345,0.298302,-0.009316,-0.009468,0.002596
1765408289.201068,-9.945002,-0.081899,0.300096,-0.008705,-0.010690,0.000764
1765408289.204034,-10.028693,-0.057389,0.435198,-0.009621,-0.006567,-0.002443
1765408289.206025,-9.897178,-0.127331,0.249880,-0.008399,-0.008247,-0.002443
1765408289.208963,-9.858320,-0.072932,0.147059,-0.007636,-0.011912,-0.001985
1765408289.211107,-10.016738,0.114180,0.439383,-0.008247,-0.007789,-0.003665
1765408289.213972,-10.017933,0.039455,0.496772,-0.008094,-0.007789,0.000153
1765408289.216573,-10.017933,0.039455,0.496772,-0.008094,-0.011301,0.000153
1765408289.218989,-9.935436,-0.040053,0.269608,-0.006261,-0.012065,0.000458
1765408289.220050,-9.977283,-0.046628,0.359876,-0.007636,-0.010537,-0.005498
1765408289.223961,-9.950979,-0.078910,0.296509,-0.009010,-0.010385,-0.000764
1765408289.226985,-9.945600,-0.030488,0.307269,-0.007178,-0.011301,0.000000
1765408289.229039,-9.945600,-0.030488,0.307269,-0.007178,-0.008858,0.000000
1765408289.231025,-9.927666,0.039455,0.327594,-0.009927,-0.006872,-0.000764
1765408289.233936,-9.883428,-0.029890,0.271401,-0.007178,-0.008858,-0.000153
1765408289.236965,-9.909132,-0.037064,0.337159,-0.007636,-0.010079,0.000458
1765408289.237465,-9.972500,-0.086083,0.378407,-0.008705,-0.010079,0.000764
1765408289.241937,-9.930654,-0.096246,0.167384,-0.009927,-0.012370,0.000305
1765408289.243978,-9.900764,-0.054998,0.144668,-0.008399,-0.010537,-0.003054
1765408289.247037,-9.866092,0.032281,0.245098,-0.006872,-0.007178,-0.003207
1765408289.248953,-9.983858,0.052606,0.389766,-0.007178,-0.008858,-0.000458
1765408289.250973,-10.082495,-0.007174,0.447752,-0.007483,-0.008705,-0.000305
1765408289.253994,-10.076518,-0.023314,0.432209,-0.011759,-0.008552,-0.001069
1765408289.254983,-9.937828,-0.108800,0.253467,-0.011759,-0.004887,0.002749
1765408289.256995,-9.867287,-0.114778,0.150646,-0.010079,-0.012217,-0.000764
1765408289.261997,-9.989238,-0.066356,0.322214,-0.009621,-0.012217,-0.003971
1765408289.263960,-10.016139,-0.010760,0.353300,-0.008399,-0.010385,-0.003360
1765408289.266982,-10.025107,0.047824,0.380201,-0.009163,-0.007330,-0.001680
1765408289.268954,-10.001792,0.071736,0.374223,-0.010537,-0.006414,0.001985
1765408289.269990,-9.998206,-0.011956,0.372429,-0.009316,-0.011912,0.002596
1765408289.273976,-9.998206,-0.011956,0.372429,-0.009316,-0.015730,0.002596
1765408289.277011,-9.977283,-0.153635,0.251076,-0.010079,-0.017410,0.001527
1765408289.278963,-9.958152,-0.075323,0.226566,-0.007636,-0.014813,-0.001680
1765408289.281063,-9.851745,0.023912,0.181731,-0.008399,-0.016035,-0.004123
1765408289.284000,-9.895982,0.065758,0.222382,-0.005651,-0.013592,-0.001069
1765408289.286052,-10.053802,0.095648,0.387972,-0.007178,-0.010537,-0.000764
1765408289.289065,-10.115973,-0.007174,0.457915,-0.010385,-0.012217,0.003665
1765408289.292013,-9.970109,-0.144668,0.309660,-0.011301,-0.011759,0.002291
1765408289.294000,-9.935436,-0.063367,0.286944,-0.007025,-0.014203,-0.004123
1765408289.296032,-9.940218,-0.019130,0.205643,-0.007941,-0.014203,-0.006109
1765408289.299025,-9.961740,0.012554,0.316834,-0.008094,-0.018784,-0.000916
1765408289.301032,-10.072930,0.062171,0.427427,-0.007636,-0.013134,-0.001374
1765408289.304030,-10.127929,0.097441,0.460306,-0.007941,-0.012065,-0.000153
1765408289.305103,-10.091461,-0.050215,0.401124,-0.008552,-0.013897,0.003818
1765408289.309037,-10.114178,-0.132114,0.439981,-0.008094,-0.020006,-0.002443
1765408289.312166,-10.107603,-0.102224,0.470469,-0.008247,-0.015882,-0.002596
1765408289.314005,-9.941415,-0.015543,0.248685,-0.006872,-0.017104,-0.004276
1765408289.315070,-9.941415,-0.015543,0.248685,-0.006872,-0.019548,-0.004276
1765408289.316956,-9.902557,0.118364,0.233142,-0.009621,-0.017562,-0.000305
1765408289.321993,-10.073528,-0.039455,0.444763,-0.012675,-0.018784,0.003818
1765408289.323946,-10.120754,-0.173362,0.468077,-0.008705,-0.018631,0.001680
1765408289.326983,-10.096842,-0.139287,0.346724,-0.006872,-0.018784,-0.003512
1765408289.328972,-9.971304,-0.001196,0.259445,-0.008705,-0.016188,-0.003360
1765408289.331975,-9.857722,0.142276,0.199665,-0.008858,-0.022602,0.000611
1765408289.333937,-9.973696,0.138690,0.350311,-0.010079,-0.024587,-0.000153
1765408289.336989,-10.084887,0.032879,0.420851,-0.010079,-0.020464,0.005192
1765408289.338972,-10.089071,-0.170971,0.460306,-0.007483,-0.020769,0.007483
1765408289.341959,-9.912122,-0.251076,0.323410,-0.005192,-0.017562,0.000000
1765408289.343951,-10.002390,-0.014347,0.317432,-0.010232,-0.022907,-0.004887
1765408289.344987,-10.096244,0.150646,0.376614,-0.007941,-0.023366,-0.003512
1765408289.348944,-10.020923,0.092061,0.331181,-0.007941,-0.021686,0.003971
1765408289.351959,-9.991630,-0.008369,0.340746,-0.007025,-0.020006,0.005803
1765408289.352971,-10.064561,-0.119560,0.511119,-0.010079,-0.020006,0.005803
1765408289.356948,-9.959349,-0.244500,0.280966,-0.010079,-0.023671,0.005803
1765408289.359026,-9.948587,-0.148254,0.266619,-0.005803,-0.028558,-0.004123
1765408289.361997,-10.019128,0.056193,0.404113,-0.005803,-0.020922,-0.004123
1765408289.364034,-9.913916,0.105213,0.389766,-0.009927,-0.023976,0.000916
1765408289.365050,-9.849353,0.004782,0.288140,-0.007941,-0.023976,0.001374
1765408289.368992,-9.863700,-0.126734,0.226566,-0.007330,-0.023671,0.002749
1765408289.371039,-9.913916,-0.267814,0.393950,-0.004887,-0.027794,0.001833
1765408289.372040,-9.946795,-0.157819,0.422047,-0.005651,-0.025198,-0.003207
1765408289.375006,-10.005379,0.117169,0.419656,-0.007789,-0.025809,-0.007636
1765408289.378991,-9.870276,0.183525,0.158417,-0.005651,-0.029016,-0.001985
1765408289.380978,-9.840386,0.063367,0.156624,-0.001527,-0.028253,0.004123
1765408289.383970,-9.980869,-0.068747,0.418460,-0.005498,-0.027947,0.005040
1765408289.384959,-10.078310,-0.163199,0.500359,-0.008247,-0.027947,0.003054
1765408289.389001,-10.078310,-0.163199,0.500359,-0.008247,-0.027794,0.003054
1765408289.391960,-9.915709,0.032281,0.159015,-0.004734,-0.027794,-0.000611
1765408289.393988,-9.928861,0.166188,0.303682,-0.009010,-0.026725,-0.001374
1765408289.397044,-9.982065,0.056791,0.273792,-0.004429,-0.023060,0.004123
1765408289.398941,-9.945002,-0.198470,0.303682,-0.007636,-0.023060,0.005192
1765408289.400014,-10.001194,-0.145265,0.298302,-0.007789,-0.022297,-0.000611
1765408289.404035,-10.008368,-0.082496,0.429220,-0.007636,-0.021380,-0.000764
1765408289.406083,-9.885221,-0.074127,0.289335,-0.003207,-0.024282,-0.000764
1765408289.408997,-9.867287,0.070540,0.283357,-0.007941,-0.023366,-0.004123
1765408289.411995,-10.063366,0.136298,0.527260,-0.007025,-0.023366,-0.000153
1765408289.414111,-10.063366,0.136298,0.463893,-0.007025,-0.020922,-0.000153
1765408289.416938,-9.931252,-0.126734,0.335964,-0.004276,-0.023824,-0.001069
1765408289.419087,-9.964130,0.038259,0.297704,-0.006109,-0.023824,0.000305
1765408289.421067,-10.058583,0.010760,0.524271,-0.005498,-0.030696,0.001069
1765408289.424867,-10.086082,-0.013749,0.359876,-0.006414,-0.030696,0.001069
1765408289.426962,-9.961142,0.080703,0.382592,-0.006261,-0.029627,-0.000305
1765408289.429059,-9.780008,0.014347,0.204448,-0.008094,-0.022755,0.001374
1765408289.431978,-9.763269,-0.060976,0.138690,-0.007941,-0.031154,0.003512
1765408289.433940,-10.014346,-0.071736,0.484218,-0.008247,-0.032987,-0.001374
1765408289.436954,-10.106407,-0.017336,0.541607,-0.009163,-0.024282,0.001833
1765408289.437454,-9.954566,-0.059780,0.384983,-0.003512,-0.025351,0.002596
1765408289.441033,-9.845168,-0.008369,0.241511,-0.006567,-0.031001,-0.001527
1765408289.443947,-9.964130,0.082496,0.394548,-0.006414,-0.029932,-0.002443
1765408289.446956,-9.964130,0.082496,0.394548,-0.006414,-0.030849,-0.002443
1765408289.448949,-9.986848,-0.048422,0.336561,-0.005040,-0.033750,0.002596
1765408289.451945,-10.086082,0.005978,0.414873,-0.003818,-0.030543,-0.000305
1765408289.452445,-9.980869,-0.057987,0.422047,-0.005498,-0.030391,0.002138
1765408289.456023,-9.892395,-0.087279,0.252272,-0.010079,-0.030238,0.001527
1765408289.457061,-9.940218,0.027499,0.318627,-0.009010,-0.032376,-0.004123
1765408289.461996,-10.062768,0.040650,0.451339,-0.008858,-0.031765,0.000000
1765408289.463995,-9.967718,-0.038259,0.391559,-0.004887,-0.034056,0.001833
1765408289.466980,-9.836799,-0.037661,0.259445,-0.006720,-0.034056,0.000764
1765408289.468938,-9.719033,-0.045433,0.107604,-0.007483,-0.034056,0.000764
1765408289.471951,-9.794952,-0.063367,0.058584,-0.003818,-0.040164,-0.000916
1765408289.473940,-9.967119,-0.016141,0.231946,-0.001833,-0.038332,-0.000764
1765408289.475975,-10.033475,0.027499,0.494978,-0.003207,-0.027184,-0.002443
1765408289.478960,-9.782400,0.016738,0.176949,-0.003360,-0.029016,0.001985
1765408289.480975,-9.901959,-0.052009,0.349115,-0.003054,-0.029016,0.001069
1765408289.483945,-10.167382,0.016738,0.619321,-0.003818,-0.028100,0.001222
1765408289.486950,-10.160808,-0.019130,0.547585,-0.003818,-0.026878,0.005651
1765408289.488970,-9.858918,-0.063367,0.277379,-0.005651,-0.026420,0.001985
1765408289.489970,-9.787182,-0.038857,0.093257,-0.008247,-0.033139,-0.001680
1765408289.493960,-10.082495,0.102822,0.514706,-0.009468,-0.038332,-0.001374
1765408289.497012,-10.080104,0.030488,0.533238,-0.010079,-0.030391,0.001985
1765408289.499012,-9.978478,-0.101028,0.407700,-0.007941,-0.033139,0.001374
1765408289.502026,-9.965326,-0.101626,0.215806,-0.010079,-0.032529,0.000153
1765408289.502526,-10.138689,-0.064562,0.481827,-0.007789,-0.039248,-0.000305
1765408289.506997,-10.185914,-0.104017,0.516499,-0.006414,-0.040470,-0.001680
1765408289.508935,-9.953370,0.027499,0.272597,-0.005345,-0.034208,-0.002902
1765408289.512051,-9.805714,0.038259,0.130320,-0.003971,-0.034208,-0.001833
1765408289.512551,-9.839788,0.029890,0.228360,-0.004581,-0.038637,0.002291
1765408289.516001,-10.070539,-0.043042,0.423242,-0.002902,-0.036499,0.002138
1765408289.518940,-9.997607,-0.012554,0.368245,-0.002749,-0.031307,0.000611
1765408289.521043,-9.817670,-0.014945,0.325203,-0.002902,-0.031307,0.003665
1765408289.524108,-9.790769,-0.038259,0.202056,-0.003818,-0.036957,0.001680
1765408289.526090,-9.972500,0.084888,0.383788,-0.003360,-0.039554,-0.000611
1765408289.527975,-10.098636,0.065160,0.508130,-0.006261,-0.031001,0.003054
1765408289.530986,-10.084289,-0.016738,0.564323,-0.004887,-0.034361,0.003665
1765408289.532015,-10.003586,-0.130320,0.466284,-0.012217,-0.031001,0.001833
1765408289.535970,-9.909132,-0.074127,0.252272,-0.009774,-0.037110,0.001833
1765408289.538949,-10.052606,-0.112386,0.384983,-0.005192,-0.040775,0.003054
1765408289.540994,-10.052606,-0.112386,0.384983,-0.005192,-0.036041,0.003054
1765408289.544014,-10.148253,0.032281,0.549378,-0.006567,-0.039554,0.001833
1765408289.547142,-9.890003,-0.059780,0.222382,-0.005803,-0.038485,0.005498
1765408289.548950,-9.780008,-0.113582,0.115375,-0.007636,-0.039859,0.004887
1765408289.551950,-9.923481,-0.109995,0.279770,-0.004581,-0.038026,0.001069
1765408289.554090,-10.139884,-0.052009,0.589431,-0.002443,-0.039706,-0.000611
1765408289.556977,-10.043638,-0.104017,0.510521,-0.003360,-0.035736,-0.000916
1765408289.559001,-9.780008,-0.027499,0.106408,-0.002596,-0.040164,-0.001527
1765408289.561001,-9.862504,0.129723,0.269608,-0.003512,-0.040623,-0.003665
1765408289.563995,-9.976685,0.051411,0.451937,-0.002138,-0.042761,0.003818
1765408289.566998,-10.076518,-0.058584,0.490196,-0.001985,-0.045662,0.002443
1765408289.568945,-10.172762,0.095648,0.433405,-0.003207,-0.041081,-0.000458
1765408289.570979,-10.005379,0.019130,0.276184,-0.004429,-0.041081,0.008399
1765408289.573996,-9.952174,-0.059780,0.292922,-0.003971,-0.048106,0.005803
1765408289.574990,-10.094451,-0.050215,0.538020,-0.005345,-0.049786,0.001069
1765408289.578984,-10.108798,-0.044835,0.451937,-0.008094,-0.042761,0.003818
1765408289.581021,-9.866092,-0.117169,0.095050,-0.004429,-0.041386,0.003512
1765408289.582019,-9.921089,-0.083692,0.306074,-0.001985,-0.041386,-0.001374
1765408289.586957,-9.921089,-0.083692,0.306074,-0.001985,-0.042608,-0.001374
1765408289.587457,-10.039454,-0.089670,0.466284,-0.001222,-0.046120,0.000000
1765408289.590995,-9.987445,-0.052606,0.430416,-0.007941,-0.046120,-0.001985
1765408289.594015,-9.987445,-0.052606,0.430416,-0.007941,-0.045204,-0.001985
1765408289.595997,-9.769248,0.128527,0.215208,-0.006414,-0.040928,0.000000
1765408289.599007,-9.769248,0.128527,0.215208,-0.006414,-0.043219,0.000000
1765408289.599988,-10.147655,-0.001196,0.615734,-0.007941,-0.046884,0.005956
1765408289.603997,-10.261834,-0.066954,0.569106,-0.007178,-0.046884,0.005651
1765408289.606994,-10.088473,-0.147059,0.447154,-0.003360,-0.045357,0.005651
1765408289.608977,-9.838593,-0.151841,0.213415,-0.002138,-0.048564,0.000153
1765408289.611997,-9.918698,0.059780,0.248685,-0.000153,-0.053451,-0.002749
1765408289.614018,-10.077712,0.153037,0.389766,-0.001985,-0.048564,-0.002291
1765408289.616931,-10.127929,0.072932,0.520086,0.002902,-0.046578,0.005956
1765408289.618945,-10.204447,0.015543,0.645624,-0.001985,-0.044899,0.006414
1765408289.621974,-10.188903,-0.114778,0.543400,-0.004276,-0.049022,0.008094
1765408289.623991,-10.016139,-0.153037,0.329986,-0.001833,-0.049022,0.001985
1765408289.626940,-9.997607,0.017934,0.333572,-0.002291,-0.048106,-0.001527
1765408289.628951,-10.052007,0.066356,0.395744,-0.005345,-0.048106,0.000916
1765408289.631959,-10.015541,-0.007174,0.435198,-0.008094,-0.050244,0.003360
1765408289.633928,-9.992825,-0.045433,0.442372,-0.007330,-0.048717,0.003512
1765408289.635955,-10.063366,0.011956,0.538618,-0.009316,-0.045968,0.001527
1765408289.639201,-9.995216,-0.083692,0.424438,-0.007330,-0.051007,0.004887
1765408289.641931,-10.029889,-0.142276,0.526064,-0.003360,-0.054672,0.003818
1765408289.643989,-10.149448,-0.029292,0.565519,-0.003512,-0.054825,-0.000458
1765408289.646957,-9.955761,0.066356,0.345528,-0.001374,-0.056200,0.002749
1765408289.647457,-9.827832,0.034672,0.235533,-0.001985,-0.056200,0.004429
1765408289.650939,-9.827832,0.034672,0.235533,-0.001985,-0.051771,0.004429
1765408289.653937,-10.145862,-0.076518,0.499761,-0.004123,-0.055436,0.007941
1765408289.656027,-10.096842,-0.163797,0.490794,0.000000,-0.057269,0.003665
1765408289.657036,-9.848158,-0.093855,0.147059,0.002138,-0.054520,0.002291
1765408289.660972,-9.781204,0.069943,0.184720,0.000458,-0.060170,0.000916
1765408289.664027,-9.837397,0.184122,0.194883,0.001680,-0.056658,0.001069
1765408289.666001,-10.104613,0.032281,0.593018,-0.002138,-0.057269,0.006261
1765408289.668970,-10.205642,-0.036466,0.674318,-0.002138,-0.050396,0.002596
1765408289.671010,-10.084887,-0.041846,0.554758,-0.001985,-0.053909,0.005803
1765408289.673960,-9.894188,-0.156624,0.354495,-0.004887,-0.053909,0.004581
1765408289.675930,-9.914514,0.005978,0.312649,-0.002138,-0.057269,0.000000
1765408289.679013,-10.083690,0.139885,0.579268,-0.005192,-0.057269,0.000916
1765408289.681967,-10.039454,0.080105,0.521282,-0.003054,-0.058338,0.003512
1765408289.683997,-9.958152,0.057389,0.496174,-0.003207,-0.054825,0.003207
1765408289.685992,-9.831419,-0.059182,0.190698,-0.003512,-0.054825,0.005345
1765408289.689005,-9.831419,-0.190100,0.320421,-0.002902,-0.061087,0.006109
1765408289.692039,-10.070539,-0.101626,0.607365,0.000611,-0.062003,0.001374
1765408289.693936,-10.095646,-0.022716,0.527857,-0.003971,-0.063835,0.000153
1765408289.696975,-10.095646,-0.022716,0.527857,-0.003971,-0.059101,0.000153
1765408289.698973,-9.735771,0.053802,0.120756,-0.003971,-0.060170,0.003207
1765408289.701139,-10.031085,0.037064,0.594213,-0.004276,-0.062919,0.005345
1765408289.703940,-10.410688,0.050813,0.940937,-0.003054,-0.054214,0.003360
1765408289.704950,-10.175752,-0.122549,0.627690,-0.000916,-0.054214,0.009468
1765408289.708955,-9.748923,-0.194883,0.127929,-0.003665,-0.062156,0.003360
1765408289.711014,-9.859515,-0.032281,0.257054,-0.006261,-0.069180,-0.004123
1765408289.713996,-10.020324,0.098039,0.520086,-0.003665,-0.066126,0.000305
1765408289.716049,-10.107603,0.137494,0.575084,0.000611,-0.063835,0.004429
1765408289.720103,-10.058583,0.109995,0.644428,-0.003360,-0.054672,0.004429
1765408289.722034,-9.956359,-0.046628,0.423242,-0.002138,-0.057574,0.008094
1765408289.723969,-9.897178,-0.295313,0.340148,-0.004123,-0.068417,0.007178
1765408289.726922,-10.022118,-0.172166,0.440579,-0.000916,-0.072693,0.000305
1765408289.728954,-9.974891,0.011956,0.411884,-0.003054,-0.064752,-0.003665
1765408289.730978,-9.762672,0.198470,0.124342,-0.001374,-0.063683,0.001222
1765408289.733956,-9.864896,0.142276,0.473458,-0.003512,-0.064752,0.003054
1765408289.736931,-10.204447,0.108202,0.783118,-0.001527,-0.060476,0.008705
1765408289.737431,-10.207435,-0.219393,0.584648,-0.003818,-0.065973,0.010537
1765408289.739950,-9.994618,-0.367647,0.456719,-0.005192,-0.063530,0.003665
1765408289.743965,-10.001194,0.035270,0.389766,-0.000153,-0.063530,-0.005040
1765408289.744968,-9.906742,0.068747,0.489000,-0.003512,-0.066432,0.000916
1765408289.748984,-10.001194,0.151841,0.461502,-0.004276,-0.069639,0.003054
1765408289.751930,-10.026302,0.195481,0.555356,-0.001222,-0.065668,0.009316
1765408289.753932,-9.867287,-0.219393,0.264228,-0.001069,-0.066584,0.014966
1765408289.755971,-10.059779,-0.338355,0.538020,0.002443,-0.071013,0.005498
1765408289.758955,-10.174556,-0.338355,0.700622,0.002443,-0.067959,0.005498
1765408289.760063,-10.162600,0.051411,0.600191,-0.002596,-0.067348,-0.005345
1765408289.763971,-9.850550,0.313247,0.189503,0.000458,-0.066890,0.002902
1765408289.765972,-9.827832,0.232544,0.377810,-0.002902,-0.070708,0.008094
1765408289.768918,-9.979075,0.048422,0.528455,-0.005651,-0.068111,0.012675
1765408289.770951,-10.217599,-0.214012,0.813008,-0.000916,-0.073457,0.010690
1765408289.774004,-9.832614,-0.463893,0.367049,-0.004276,-0.076511,0.006414
1765408289.776936,-9.751313,-0.054998,0.142874,-0.001374,-0.076511,-0.002596
1765408289.778960,-9.751313,-0.054998,0.142874,-0.001374,-0.079565,-0.002596
1765408289.782048,-9.996411,0.240316,0.441176,-0.002902,-0.083230,0.003665
1765408289.783925,-10.263031,0.170373,0.786705,-0.001222,-0.070402,0.009927
1765408289.786928,-10.037660,-0.094452,0.601387,-0.000305,-0.072235,0.012217
1765408289.788962,-9.930654,-0.235533,0.419058,0.000000,-0.072235,0.010537
1765408289.790987,-9.984456,-0.233142,0.407700,0.001374,-0.078191,0.001374
1765408289.793962,-10.223577,0.068149,0.645624,-0.002291,-0.081245,-0.002138
1765408289.794967,-10.111190,0.212219,0.410091,0.000764,-0.073304,-0.000611
1765408289.798957,-9.990434,0.168580,0.469871,-0.001833,-0.073457,0.005345
1765408289.801112,-10.132710,0.160210,0.567910,0.000000,-0.072235,0.010843
1765408289.803980,-10.181131,-0.135701,0.670732,-0.002749,-0.073762,0.013439
1765408289.806958,-10.130917,-0.339550,0.578670,-0.003360,-0.081245,0.005192
1765408289.809078,-9.983260,-0.184122,0.355093,0.001527,-0.081245,-0.001833
1765408289.811014,-9.983260,-0.184122,0.355093,0.001527,-0.076205,-0.001833
1765408289.813972,-9.863700,0.180536,0.454328,-0.000458,-0.077885,0.003207
1765408289.816026,-9.810495,0.235533,0.436394,-0.000764,-0.078954,0.006567
1765408289.818963,-9.845766,0.105213,0.244500,0.001069,-0.083383,0.010996
1765408289.822061,-9.955164,-0.161406,0.399330,-0.000305,-0.083994,0.011301
1765408289.823991,-9.955164,-0.161406,0.399330,-0.000305,-0.078802,0.011301
1765408289.826945,-9.754900,-0.157819,0.430416,-0.000916,-0.074831,0.001680
1765408289.827445,-9.629362,0.095648,0.228360,-0.000611,-0.082620,-0.000305
1765408289.831925,-9.922284,0.234338,0.484218,-0.001222,-0.088575,0.000916
1765408289.832425,-10.163795,0.204448,0.767575,-0.001069,-0.088575,0.010079
1765408289.836917,-10.239119,-0.023314,0.699426,-0.000916,-0.080176,0.013744
1765408289.837417,-9.994021,-0.282162,0.581062,-0.002443,-0.087659,0.012065
1765408289.842031,-9.939621,-0.236729,0.485414,0.000305,-0.087659,0.004276
1765408289.844007,-10.164991,0.118364,0.634864,-0.000458,-0.086437,-0.004734
1765408289.847045,-10.120754,0.294118,0.673123,-0.002749,-0.086437,0.001374
1765408289.848991,-9.956359,0.243902,0.384983,-0.002902,-0.082314,0.007941
1765408289.851023,-9.882831,0.205643,0.365854,-0.002749,-0.079260,0.012981
1765408289.853975,-9.955164,-0.132712,0.692252,0.000458,-0.081703,0.014508
1765408289.855989,-10.150645,-0.316834,0.750239,-0.000916,-0.085063,0.010385
1765408289.858013,-10.038258,-0.276781,0.512912,-0.001527,-0.083078,-0.001833
1765408289.861919,-9.965924,0.031086,0.430416,0.002138,-0.083689,-0.001069
1765408289.863945,-9.833811,0.216404,0.360473,0.001069,-0.078802,0.002138
1765408289.866960,-9.881634,0.187709,0.564921,-0.000611,-0.082620,0.006872
1765408289.868971,-9.881634,0.187709,0.564921,-0.000611,-0.084605,0.006872
1765408289.871923,-10.088473,-0.125538,0.659373,-0.005651,-0.085063,0.011454
1765408289.873923,-9.962935,-0.274988,0.584051,-0.000153,-0.086743,0.009010
1765408289.876006,-9.831419,-0.066356,0.418460,0.001222,-0.090255,-0.001374
1765408289.878953,-9.777617,0.148254,0.298900,0.000000,-0.086743,0.000611
1765408289.881940,-9.766856,0.204448,0.404113,0.001069,-0.088117,0.006720
1765408289.883914,-10.019128,0.148254,0.688068,0.000305,-0.088423,0.013134
1765408289.886963,-10.227761,-0.068747,0.891918,-0.003207,-0.085979,0.014813
1765408289.888961,-10.039454,-0.396939,0.499761,0.000611,-0.093768,0.014661
1765408289.891002,-9.839788,-0.473458,0.205045,0.004429,-0.093768,0.003818
1765408289.893986,-10.089668,-0.014347,0.569106,0.002443,-0.089034,-0.006414
1765408289.895973,-10.124939,0.245098,0.824964,0.003512,-0.080787,0.000458
1765408289.898984,-10.053204,0.209230,0.784314,0.001680,-0.086590,0.009621
1765408289.901003,-10.086082,0.123147,0.673123,0.001069,-0.089186,0.008858
1765408289.903980,-10.108798,-0.020325,0.585844,0.003512,-0.089186,0.011148
1765408289.905961,-9.970109,-0.209828,0.508728,0.004276,-0.087506,0.010843
1765408289.906978,-9.998802,-0.209230,0.601985,-0.000458,-0.091324,0.004734
1765408289.911992,-10.124939,-0.038259,0.728120,-0.000458,-0.095142,0.004734
1765408289.912492,-10.087276,0.103419,0.558345,0.003971,-0.094531,-0.000916
1765408289.914961,-9.997607,0.088474,0.570899,0.004581,-0.093615,0.007941
1765408289.920110,-9.903154,0.147657,0.461502,0.002749,-0.087812,0.007025
1765408289.921971,-9.855330,-0.071736,0.407700,0.003207,-0.096975,0.011148
1765408289.923936,-9.907339,-0.291129,0.457915,-0.000611,-0.103389,0.009316
1765408289.926996,-10.007172,-0.049617,0.573290,0.005040,-0.100487,-0.000458
1765408289.928929,-9.899570,0.175155,0.642037,0.002138,-0.090713,0.002596
1765408289.931932,-9.856527,0.351506,0.593018,0.001985,-0.096975,0.007025
1765408289.933945,-10.034073,0.142276,0.661167,0.000000,-0.100335,0.013592
1765408289.936007,-10.178144,-0.020325,0.636059,0.001680,-0.104611,0.016493
1765408289.938946,-10.240315,-0.185916,0.695241,0.001680,-0.106138,0.015272
1765408289.942047,-10.261834,-0.160210,0.828551,-0.000764,-0.104611,0.006567
1765408289.943911,-9.961740,0.000000,0.431612,0.000000,-0.106138,0.002138
1765408289.946903,-9.790769,0.070540,0.148254,0.002596,-0.104305,0.006720
1765408289.948905,-9.820659,0.111191,0.329388,0.004734,-0.100793,0.007178
1765408289.951895,-10.151840,0.096844,0.807030,0.001833,-0.100182,0.009163
1765408289.953918,-10.456717,0.072334,1.180057,0.000000,-0.095448,0.008858
1765408289.956928,-10.238522,-0.124940,0.921210,0.002902,-0.095600,0.011912
1765408289.958934,-9.857722,-0.130320,0.490196,0.000153,-0.109650,0.005803
1765408289.961954,-9.907937,0.141679,0.417862,0.002749,-0.109650,0.004123
1765408289.963931,-10.001194,0.096844,0.729316,0.001069,-0.111330,0.011606
1765408289.964953,-10.088473,0.092659,0.746652,0.002291,-0.109192,0.010537
1765408289.968917,-10.072930,0.040650,0.648613,0.000611,-0.108276,0.011301
1765408289.971941,-10.004781,-0.124342,0.527857,-0.000305,-0.109498,0.009927
1765408289.973929,-9.950979,-0.212219,0.591822,-0.001680,-0.108276,0.010843
1765408289.976919,-10.059181,-0.146461,0.704208,0.001374,-0.106138,0.003665
1765408289.978930,-10.103418,0.082496,0.714969,0.005956,-0.100335,0.003971
1765408289.981932,-10.072333,0.190100,0.807030,-0.000764,-0.109650,0.008399
1765408289.982432,-10.072333,0.190100,0.807030,-0.000764,-0.108276,0.008399
1765408289.986926,-9.884624,-0.004782,0.553563,0.003818,-0.104763,0.013134
1765408289.988901,-9.675991,-0.175753,0.345528,0.000764,-0.105680,0.013286
1765408289.990968,-9.830821,-0.148254,0.475849,0.000000,-0.116523,0.009468
1765408289.993959,-10.099234,-0.071736,0.722740,0.001833,-0.116523,0.000916
1765408289.994940,-10.099234,-0.071736,0.722740,0.001833,-0.103389,0.000916
1765408289.998929,-9.848158,0.089670,0.632472,0.001527,-0.096364,0.009927
1765408290.001932,-9.899570,0.152439,0.879962,-0.001069,-0.104000,0.011606
1765408290.004117,-10.330583,-0.068149,1.094572,-0.000764,-0.116675,0.014508
1765408290.006022,-10.296508,-0.303085,0.899091,0.004887,-0.118050,0.012065
1765408290.009016,-10.054996,-0.115375,0.559541,0.004734,-0.110872,0.002902
1765408290.011001,-9.959349,0.108800,0.792683,0.002443,-0.108887,0.003360
1765408290.014015,-9.885818,0.230153,0.554758,0.006261,-0.114690,0.007483
1765408290.016063,-10.044236,0.094452,0.720349,0.002291,-0.110872,0.012370
1765408290.020127,-10.081299,0.187709,0.677905,0.006720,-0.110872,0.013744
1765408290.021030,-10.081299,0.187709,0.677905,0.006720,-0.108734,0.013744
1765408290.024045,-9.962935,-0.288737,0.841702,0.007330,-0.115301,0.016035
1765408290.026927,-9.928861,-0.166188,0.642037,0.005956,-0.115301,0.006567
1765408290.027427,-9.887612,0.087877,0.607365,0.005040,-0.114385,0.002749
1765408290.031929,-9.947392,0.212817,0.467480,0.005651,-0.118813,0.007178
1765408290.032956,-10.123145,0.148852,0.901482,0.003360,-0.120799,0.014203
1765408290.035982,-9.962935,0.071736,0.514108,0.003207,-0.110872,0.011606
1765408290.036972,-9.900764,-0.058584,0.612745,0.005498,-0.111941,0.014661
1765408290.040974,-9.900764,-0.058584,0.612745,0.005498,-0.118355,0.014661
1765408290.041976,-10.240315,0.126136,0.912841,0.004734,-0.126296,0.001527
1765408290.044979,-10.042442,0.151243,0.631277,0.001069,-0.115301,0.003512
1765408290.048991,-9.954566,0.179340,0.496174,0.008247,-0.115912,0.012217
1765408290.050921,-9.962337,0.069345,0.722142,0.009621,-0.114079,0.013744
1765408290.053928,-9.962337,0.069345,0.722142,0.009621,-0.117897,0.013744
1765408290.056950,-10.280965,-0.206839,1.003706,0.001069,-0.124311,0.013592
1765408290.058938,-9.953370,-0.129125,0.634864,0.005651,-0.124311,0.010079
1765408290.059975,-9.820659,0.010760,0.423840,0.003360,-0.125991,0.005803
1765408290.063914,-9.851147,0.222979,0.467480,0.002138,-0.128587,0.007941
1765408290.064960,-10.025107,0.105811,0.763988,0.000305,-0.124922,0.009163
1765408290.068928,-10.066355,0.155428,0.766380,0.005040,-0.119577,0.011606
1765408290.071902,-9.864896,-0.054998,0.576279,-0.001069,-0.117744,0.013744
1765408290.073912,-9.799137,-0.068149,0.578670,0.006109,-0.126907,0.013286
1765408290.077522,-9.956957,-0.063367,0.618125,0.004429,-0.126907,0.009316
1765408290.078947,-10.176947,0.127929,1.099952,0.003665,-0.123242,0.008399
1765408290.082094,-10.050812,0.078910,0.878766,-0.000764,-0.116981,0.010537
1765408290.083945,-10.046627,0.008967,1.003108,0.002749,-0.122173,0.016188
1765408290.085954,-10.059779,-0.126136,0.820182,0.000611,-0.130267,0.014661
1765408290.088892,-10.178144,-0.139885,0.994739,0.005345,-0.131489,0.011606
1765408290.091924,-9.916306,-0.187111,0.573888,0.004123,-0.129809,0.008399
1765408290.093959,-9.907937,0.111191,0.527260,0.007483,-0.134849,0.003971
1765408290.096012,-9.680773,0.211621,0.398135,0.003512,-0.127213,0.011759
1765408290.098908,-9.818267,0.077714,0.631875,0.006567,-0.132863,0.014966
1765408290.101960,-10.009563,0.031683,0.792085,0.004276,-0.130878,0.013439
1765408290.103921,-10.156623,0.043042,1.027618,0.004123,-0.130420,0.011759
1765408290.106001,-9.848756,-0.134505,0.652798,0.004276,-0.124006,0.016035
1765408290.108961,-9.703490,-0.157819,0.450741,0.007483,-0.134238,0.007941
1765408290.110969,-9.946198,0.078910,0.711382,0.007483,-0.135307,0.005498
1765408290.113929,-10.055594,0.142276,0.723338,0.007025,-0.133321,0.010843
1765408290.116113,-10.069344,0.017934,0.904471,0.005040,-0.127976,0.012217
1765408290.119055,-10.084887,0.109995,0.836920,0.008399,-0.126296,0.009774
1765408290.121031,-10.124342,-0.052606,0.918819,0.006720,-0.129045,0.017104
1765408290.124001,-10.001194,-0.169775,0.781922,0.009621,-0.134543,0.011912
1765408290.127016,-10.155428,0.027499,0.834529,0.005803,-0.140652,0.005345
1765408290.128959,-10.225968,0.139885,1.064084,0.005345,-0.132710,0.008858
1765408290.131945,-10.008965,0.137494,0.789096,0.006261,-0.130725,0.012217
1765408290.133925,-9.937828,0.005978,0.857245,0.005803,-0.138208,0.012217
1765408290.136906,-10.004781,0.010760,0.730512,0.002596,-0.134696,0.010843
1765408290.138911,-10.102820,-0.034672,0.963654,0.009163,-0.135765,0.020311
1765408290.141904,-10.087276,-0.215208,0.960067,0.008858,-0.138208,0.014050
1765408290.143929,-10.184121,-0.032879,0.887135,0.004734,-0.138208,0.003665
1765408290.144960,-9.823647,0.059780,0.649211,0.004123,-0.133321,0.010537
1765408290.148931,-9.617407,0.126734,0.653993,0.005651,-0.135459,0.012675
1765408290.151922,-9.892395,0.198470,0.979196,0.003818,-0.137292,0.012523
1765408290.153918,-10.160210,0.113582,1.105930,0.005345,-0.143706,0.014508
1765408290.156888,-10.015541,-0.121951,0.663558,0.005498,-0.144928,0.020311
1765408290.158890,-9.591104,-0.179938,0.343137,0.005192,-0.147066,0.011912
1765408290.159900,-9.659851,0.092061,0.515304,0.006567,-0.142026,0.004581
1765408290.163899,-9.749520,0.220588,0.673123,0.006414,-0.146760,0.010690
1765408290.165949,-9.882831,0.178144,0.771162,0.008094,-0.146760,0.015577
1765408290.168952,-10.156623,0.118364,1.108321,0.005651,-0.137750,0.017257
1765408290.171906,-10.137493,-0.082496,1.158536,0.007789,-0.136223,0.018326
1765408290.173943,-9.956957,-0.273195,0.827355,0.000153,-0.142179,0.014966
1765408290.175973,-9.907339,-0.007174,0.643233,0.002902,-0.144164,0.004581
1765408290.179061,-10.080702,0.193687,0.865614,0.007025,-0.144164,0.007025
1765408290.182012,-10.007172,0.278575,1.100550,0.008858,-0.136834,0.011454
1765408290.183916,-10.054399,0.252272,1.148972,0.007330,-0.143706,0.014355
1765408290.186907,-10.084887,0.035270,0.963654,0.001222,-0.143706,0.015424
1765408290.188934,-10.084887,0.035270,0.963654,0.001222,-0.147524,0.015424
1765408290.190946,-10.181131,-0.114180,1.006695,0.008705,-0.147371,0.014203
1765408290.193904,-10.181131,-0.114180,1.006695,0.008705,-0.145997,0.014203
1765408290.196932,-10.163795,0.176949,1.032998,0.007636,-0.142026,0.012217
1765408290.198923,-9.879841,0.026901,0.829746,0.006109,-0.142026,0.014661
1765408290.201938,-10.030487,0.041846,0.970229,0.009621,-0.147219,0.013592
1765408290.203929,-10.160808,-0.066954,1.065280,0.006720,-0.147371,0.012065
1765408290.206032,-10.133308,-0.119560,0.955284,0.006720,-0.156229,0.012065
1765408290.209039,-9.918698,-0.008967,0.758010,0.007025,-0.146302,0.005345
1765408290.210013,-9.912720,0.170971,0.868006,0.006720,-0.146302,0.006720
1765408290.213942,-9.852941,0.115973,0.813008,0.004734,-0.147524,0.011912
1765408290.216897,-10.060975,0.166188,1.080822,0.003207,-0.152716,0.012217
1765408290.218981,-10.334767,0.161406,1.174079,0.005192,-0.149204,0.013744
1765408290.224064,-10.225968,-0.030488,1.162123,0.004581,-0.150578,0.018021
1765408290.224564,-10.011356,-0.260043,0.848876,0.005498,-0.153785,0.015730
1765408290.226010,-9.852941,-0.101028,0.782520,0.007330,-0.160199,0.007483
1765408290.228976,-10.054996,0.136298,0.988163,0.007483,-0.158061,0.004429
1765408290.231957,-10.113581,0.123147,1.017456,0.006567,-0.158061,0.012370
1765408290.233936,-10.088473,0.071736,1.062888,0.007789,-0.147219,0.013439
1765408290.236933,-10.011955,0.043042,0.962458,0.005651,-0.147219,0.014203
1765408290.238907,-9.994021,-0.069943,1.058106,0.005651,-0.152716,0.014203
1765408290.239967,-10.028693,-0.056193,1.174079,0.010996,-0.160352,0.014966
1765408290.244007,-10.015541,0.120756,1.062291,0.004429,-0.160352,0.010537
1765408290.246964,-10.015541,0.120756,1.062291,0.004429,-0.160047,0.010537
1765408290.248932,-9.515780,0.123147,0.466284,0.004123,-0.160505,0.015730
1765408290.251967,-9.807508,0.120756,0.865614,0.008094,-0.157145,0.020769
1765408290.253987,-10.215207,-0.071138,1.412004,0.007941,-0.156076,0.021686
1765408290.254952,-10.362266,-0.192492,1.556671,0.005651,-0.151647,0.015730
1765408290.258955,-10.008368,-0.175753,0.901482,0.005040,-0.157909,0.009927
1765408290.261922,-9.814680,0.058584,0.673123,0.007789,-0.160658,0.006261
1765408290.263948,-9.918698,0.236729,0.979196,0.010537,-0.160658,0.013439
1765408290.267085,-10.192491,0.130320,1.349832,0.011606,-0.160963,0.019700
1765408290.268897,-10.221784,0.136298,1.168101,0.005040,-0.160658,0.014508
1765408290.271960,-10.181131,-0.034672,1.102343,0.003512,-0.157145,0.017257
1765408290.273946,-9.922284,-0.197274,1.047346,0.007483,-0.157145,0.018631
1765408290.274941,-10.004781,0.021521,1.137016,0.006414,-0.164170,0.009468
1765408290.278936,-10.080104,0.075323,1.116690,0.007483,-0.162185,0.012370
1765408290.281919,-9.903154,0.064562,0.652798,0.010537,-0.166919,0.015882
1765408290.282419,-10.078907,0.051411,1.056313,0.011606,-0.161421,0.012828
1765408290.286973,-10.202055,0.052606,1.425155,0.011148,-0.150120,0.015730
1765408290.288956,-9.990434,-0.177547,1.127451,0.008858,-0.154702,0.020464
1765408290.291917,-9.769846,-0.185318,0.620516,0.007636,-0.166003,0.013744
1765408290.293918,-9.916904,0.070540,0.835724,0.011301,-0.163865,0.006720
1765408290.296954,-10.121950,0.257054,1.366571,0.015730,-0.157756,0.009774
1765408290.298934,-10.090864,0.278575,1.511238,0.014661,-0.156687,0.013134
1765408290.301945,-9.973098,0.203850,1.172884,0.007483,-0.163865,0.018784
1765408290.303965,-9.958152,-0.044237,0.770564,0.005040,-0.176693,0.020922
1765408290.306949,-9.875058,-0.185318,0.791487,0.012370,-0.173333,0.020464
1765408290.308977,-9.802725,-0.058584,0.825562,0.010537,-0.167530,0.007025
1765408290.310972,-10.025107,0.214012,1.166308,0.007025,-0.161727,0.004276
1765408290.313959,-9.866689,0.218795,1.113104,0.011912,-0.161727,0.018479
1765408290.315993,-9.829028,0.068747,1.213534,0.009774,-0.166461,0.022907
1765408290.318977,-9.924078,0.014347,1.206360,0.008094,-0.167224,0.018631
1765408290.321965,-10.007771,-0.018532,1.071855,0.008858,-0.174402,0.017868
1765408290.323945,-10.028095,-0.049020,0.978001,0.009774,-0.182801,0.016952
1765408290.325989,-9.890003,0.029292,0.868006,0.009010,-0.181427,0.009316
1765408290.328964,-9.862504,0.192492,0.867408,0.008399,-0.172722,0.011759
1765408290.330002,-9.693925,0.213415,0.762793,0.007330,-0.169362,0.017715
1765408290.333978,-9.756096,0.144668,0.945720,0.007483,-0.174249,0.020159
1765408290.336987,-10.139884,0.087279,1.218316,0.008247,-0.166919,0.018784
1765408290.338992,-10.288138,-0.181731,1.397656,0.009316,-0.166919,0.022297
1765408290.341981,-10.075920,-0.188905,1.213534,0.012217,-0.169821,0.019242
1765408290.343941,-9.931850,0.027499,0.907460,0.008247,-0.172722,0.006567
1765408290.346090,-9.919893,0.341344,1.034194,0.009927,-0.171653,0.008858
1765408290.347006,-10.059779,0.285748,1.282281,0.010690,-0.171195,0.019395
1765408290.350924,-10.251074,0.166188,1.466403,0.009316,-0.170737,0.019548
1765408290.353995,-10.312051,-0.019727,1.599713,0.002443,-0.168904,0.016035
1765408290.356926,-10.016738,-0.117767,1.235055,0.010079,-0.170126,0.018326
1765408290.358960,-9.753705,-0.054998,0.851267,0.010996,-0.183870,0.015119
1765408290.360957,-9.929459,0.205045,0.931372,0.004734,-0.185703,0.007330
1765408290.363979,-10.102820,0.224175,1.147178,0.006414,-0.177456,0.016035
1765408290.365999,-10.102820,0.224175,1.147178,0.006414,-0.177915,0.016035
1765408290.368937,-9.829028,0.062769,0.958871,0.009774,-0.180205,0.018937
1765408290.369950,-9.873264,0.078910,1.146580,0.005956,-0.180205,0.016646
1765408290.373947,-9.873264,0.078910,1.146580,0.005956,-0.181427,0.016646
1765408290.376901,-9.912720,-0.039455,1.083214,0.011301,-0.185703,0.015424
1765408290.379000,-9.971903,0.105811,1.107723,0.004276,-0.180663,0.012828
1765408290.381952,-9.747727,0.231946,0.937350,0.007941,-0.180358,0.013897
1765408290.383926,-9.757292,0.250478,1.019847,0.010690,-0.180358,0.020311
1765408290.387017,-10.049019,0.054998,1.327116,0.005651,-0.178373,0.020922
1765408290.388900,-10.221185,-0.119560,1.504663,0.009468,-0.179136,0.022297
1765408290.391896,-10.125537,-0.150646,1.440698,0.012828,-0.182343,0.014203
1765408290.393895,-9.911524,0.078312,1.242229,0.011759,-0.189216,0.009316
1765408290.395983,-9.958152,0.176351,0.923601,0.008247,-0.189216,0.014203
1765408290.398945,-9.918698,0.016738,0.889526,0.009774,-0.189521,0.017410
1765408290.400976,-10.166186,0.131516,1.334290,0.009621,-0.176693,0.014813
1765408290.404000,-10.480630,0.192492,1.948828,0.011148,-0.176693,0.010843
1765408290.405009,-10.219392,0.128527,1.773075,0.011148,-0.170584,0.010843
1765408290.408959,-9.573170,-0.102822,0.639646,0.006414,-0.194102,0.021075
1765408290.411924,-9.666426,0.056193,0.589431,0.006720,-0.202349,0.008858
1765408290.412424,-9.939023,0.284553,1.232664,0.011912,-0.177304,0.013897
1765408290.416933,-9.943806,0.141679,1.507652,0.014203,-0.177304,0.023518
1765408290.418943,-9.943806,0.141679,1.507652,0.014203,-0.176235,0.023518
1765408290.419948,-9.932447,0.081301,1.228479,0.008858,-0.181885,0.020464
1765408290.423990,-10.072333,-0.265423,1.412004,0.011912,-0.191201,0.024587
1765408290.426963,-10.206838,-0.163797,1.449665,0.009927,-0.182649,0.012675
1765408290.428941,-10.228358,0.058584,1.540531,0.006872,-0.182649,0.006414
1765408290.431923,-10.228358,0.058584,1.540531,0.006872,-0.176540,0.006414
1765408290.433944,-10.011955,0.289335,1.530966,0.016035,-0.187841,0.019548
1765408290.434973,-10.271400,0.188307,1.909373,0.007178,-0.187841,0.016952
1765408290.438922,-10.130320,-0.087279,1.553084,0.007636,-0.195630,0.023671
1765408290.439931,-9.634145,-0.286944,0.707795,0.010385,-0.195630,0.020922
1765408290.443970,-9.583930,0.001196,0.648015,0.009316,-0.203724,0.006872
1765408290.445906,-9.917501,0.233142,1.227283,0.009163,-0.190437,0.009316
1765408290.448927,-9.997607,0.191296,1.566834,0.015730,-0.184481,0.021686
1765408290.449952,-9.899570,0.137494,1.540531,0.014050,-0.189826,0.020464
1765408290.451938,-9.829626,-0.004782,1.245815,0.008705,-0.189826,0.017715
1765408290.454885,-9.790769,-0.050215,1.010282,0.011454,-0.198989,0.019700
1765408290.458942,-9.852941,-0.077116,1.099952,0.014966,-0.204640,0.015424
1765408290.460937,-9.881634,0.241511,1.261358,0.013439,-0.193033,0.011148
1765408290.463942,-9.881634,0.241511,1.261358,0.013439,-0.186772,0.011148
1765408290.465991,-9.711859,0.221186,1.193209,0.010690,-0.192423,0.018784
1765408290.466869,-10.025107,0.145863,1.415590,0.009316,-0.193950,0.025045
1765408290.471380,-10.269009,-0.242109,1.747967,0.008399,-0.198378,0.026420
1765408290.473950,-9.886416,-0.381396,1.362984,0.013439,-0.196851,0.019700
1765408290.477024,-9.572572,0.058584,0.753228,0.013439,-0.199600,0.019700
1765408290.477524,-9.649688,0.347920,0.813008,0.014661,-0.200364,0.010690
1765408290.481911,-9.936632,0.362267,1.257174,0.015272,-0.197920,0.019242
1765408290.483920,-10.270204,0.202056,1.899808,0.013744,-0.189674,0.021991
1765408290.486933,-10.231946,0.072932,1.882472,0.012523,-0.181732,0.022755
1765408290.488939,-10.074127,-0.112386,1.378527,0.012217,-0.193492,0.022907
1765408290.490963,-9.879243,-0.202056,0.973218,0.009468,-0.209832,0.020617
1765408290.493954,-10.191893,0.111191,1.319942,0.010537,-0.209527,0.009316
1765408290.495967,-10.169176,0.357484,1.605093,0.013134,-0.191812,0.014661
1765408290.498879,-9.860114,0.248685,1.541128,0.010996,-0.191812,0.025045
1765408290.499959,-9.898373,0.168580,1.205165,0.009927,-0.199906,0.023671
1765408290.504028,-10.181729,0.099833,1.594930,0.009010,-0.211054,0.025962
1765408290.504952,-10.287540,-0.153635,1.826279,0.010537,-0.206625,0.025504
1765408290.506910,-9.892993,-0.208034,1.275705,0.012828,-0.207541,0.014966
1765408290.511912,-9.656861,0.053204,0.841702,0.013134,-0.210138,0.011148
1765408290.513953,-9.866689,0.303682,1.200382,0.013592,-0.211054,0.013439
1765408290.516949,-10.086679,0.274988,1.616451,0.017562,-0.211207,0.023213
1765408290.518923,-10.036465,0.132114,1.543520,0.007789,-0.200364,0.022602
1765408290.520996,-9.925871,-0.027499,1.341463,0.009927,-0.200364,0.020006
1765408290.523990,-9.695121,-0.068149,1.280488,0.016952,-0.210901,0.021838
1765408290.526942,-9.852941,0.104615,1.370158,0.010385,-0.216246,0.011912
1765408290.528934,-10.082495,0.225968,1.647537,0.006872,-0.206931,0.013592
1765408290.531947,-9.805714,-0.044237,1.146580,0.013134,-0.210749,0.025656
1765408290.533938,-9.778215,0.078910,1.397656,0.018784,-0.217010,0.017715
1765408290.535944,-10.043041,0.308465,1.622429,0.011759,-0.210290,0.017257
1765408290.538946,-10.095646,-0.028097,1.762912,0.010537,-0.215330,0.028558
1765408290.541940,-9.888808,-0.170971,1.208154,0.009468,-0.224035,0.020159
1765408290.543914,-9.878646,0.162602,1.148972,0.012217,-0.225104,0.010537
1765408290.544932,-9.730392,0.296509,1.367766,0.010843,-0.210290,0.018784
1765408290.547913,-9.660448,0.285151,1.340268,0.014050,-0.216857,0.026420
1765408290.551913,-9.884624,0.029890,1.383309,0.010079,-0.220828,0.028863
1765408290.553962,-10.161406,-0.029890,1.436514,0.010079,-0.204334,0.021686
1765408290.556931,-10.231946,-0.015543,1.730033,0.012981,-0.204334,0.021686
1765408290.558911,-9.855929,-0.095050,1.591344,0.013592,-0.206472,0.020464
1765408290.559961,-9.895982,0.205643,1.581779,0.011301,-0.216094,0.013897
1765408290.563912,-9.978478,0.420851,1.627212,0.009621,-0.220828,0.016493
1765408290.565963,-10.010758,0.271401,1.753347,0.012675,-0.219453,0.028558
1765408290.568923,-9.955164,0.040650,1.692970,0.013134,-0.219759,0.030543
1765408290.569979,-9.958152,-0.228360,1.362984,0.008094,-0.224798,0.021991
1765408290.573894,-9.888808,-0.072932,1.303204,0.010537,-0.224340,0.015272
1765408290.574895,-10.044834,0.220588,1.633190,0.021533,-0.215788,0.017257
1765408290.578922,-9.953370,0.244500,1.948828,0.014508,-0.214108,0.023060
1765408290.581921,-9.778812,0.243902,1.525586,0.008552,-0.222813,0.018479
1765408290.583886,-9.958152,0.190100,1.426351,0.008247,-0.223119,0.018784
1765408290.586926,-9.759683,0.075323,1.327116,0.018631,-0.212276,0.029780
1765408290.587906,-9.937828,-0.059780,1.899808,0.017257,-0.212276,0.027794
1765408290.591953,-9.937828,-0.059780,1.899808,0.017257,-0.213650,0.027794
1765408290.593935,-9.940817,0.162602,1.688785,0.008552,-0.226784,0.011148
1765408290.596958,-9.866092,0.302487,1.456241,0.016952,-0.217773,0.021838
1765408290.598928,-9.624580,0.284553,1.498685,0.014050,-0.212887,0.027184
1765408290.600958,-9.894786,0.156624,1.830464,0.008247,-0.212887,0.024893
1765408290.603925,-9.894786,0.156624,1.830464,0.008247,-0.221744,0.024893
1765408290.605927,-9.911524,-0.165591,1.423960,0.010690,-0.229227,0.026267
1765408290.608923,-9.728598,0.035868,1.235055,0.009163,-0.225104,0.009468
1765408290.609951,-9.722619,0.307269,1.462219,0.008094,-0.218842,0.014355
1765408290.613919,-9.907937,0.271401,1.945241,0.017257,-0.218842,0.025809
1765408290.616878,-10.127929,0.241511,2.289574,0.011454,-0.218842,0.023671
1765408290.617901,-9.952174,0.129723,1.715088,0.006414,-0.228311,0.026878
1765408290.622177,-9.598277,-0.135103,1.251793,0.013897,-0.228311,0.029474
1765408290.622677,-9.631754,-0.065160,1.421569,0.016799,-0.232434,0.023213
1765408290.626947,-9.888210,0.227164,1.779651,0.013592,-0.224951,0.017562
1765408290.628960,-9.839788,0.237924,1.822094,0.009468,-0.218842,0.025504
1765408290.631077,-9.533715,0.028694,1.304997,0.011301,-0.227853,0.028711
1765408290.633942,-9.868484,0.119560,1.770086,0.015119,-0.228922,0.020617
1765408290.635981,-9.907937,0.174558,1.648733,0.013439,-0.215330,0.020617
1765408290.638952,-9.776422,-0.106408,1.489120,0.014050,-0.224951,0.031612
1765408290.641950,-9.846365,-0.077714,1.597322,0.013134,-0.227089,0.016035
1765408290.643916,-10.236728,0.248685,1.998446,0.013439,-0.222508,0.012828
1765408290.644974,-9.799736,0.221186,1.548302,0.012981,-0.215635,0.022755
1765408290.648882,-9.799736,0.221186,1.548302,0.012981,-0.223882,0.022755
1765408290.651904,-9.921686,0.225968,1.642754,0.010996,-0.223577,0.019395
1765408290.653920,-10.382590,0.145863,2.258488,0.014813,-0.222050,0.021991
1765408290.656920,-10.151840,-0.021521,2.036705,0.016035,-0.216704,0.026573
1765408290.658908,-9.751911,0.088474,1.633190,0.014508,-0.227242,0.017562
1765408290.659914,-9.736967,0.270206,1.459828,0.005803,-0.231823,0.016952
1765408290.663961,-9.787182,0.252272,1.437111,0.013439,-0.239154,0.030543
1765408290.666907,-9.908535,0.065160,1.761119,0.012981,-0.236863,0.025504
1765408290.668909,-9.808105,0.259445,1.532161,0.007941,-0.231365,0.018784
1765408290.671899,-9.701099,0.062769,1.281683,0.008247,-0.231365,0.026878
1765408290.674090,-9.602462,-0.062769,1.224892,0.014355,-0.239459,0.025962
1765408290.677664,-10.185316,0.218795,2.235772,0.019548,-0.237168,0.015577
1765408290.678934,-10.090266,0.252272,2.155667,0.009316,-0.218842,0.020769
1765408290.680910,-9.819464,0.112386,1.361789,0.007483,-0.238237,0.026573
1765408290.683882,-9.885221,0.150646,1.512434,0.012523,-0.243735,0.021228
1765408290.684933,-10.225369,0.287542,2.355930,0.018021,-0.229533,0.021380
1765408290.686933,-10.179338,0.169775,2.274629,0.017562,-0.224493,0.027336
1765408290.691938,-9.948587,-0.018532,1.643950,0.010079,-0.249080,0.021991
1765408290.693932,-9.999999,0.199665,1.464610,0.009163,-0.253967,0.019853
1765408290.694934,-9.821855,0.292922,1.623625,0.014966,-0.235336,0.025045
1765408290.698959,-9.740554,0.185318,1.704328,0.010843,-0.233809,0.029016
1765408290.701933,-9.942610,0.102224,1.507652,0.011148,-0.248775,0.027642
1765408290.703899,-10.227163,0.046628,1.810736,0.012065,-0.245262,0.025351
1765408290.704916,-10.101027,0.139885,2.058823,0.021228,-0.224951,0.030543
1765408290.709046,-9.569583,0.038259,1.889048,0.014661,-0.228311,0.026878
1765408290.709961,-9.662840,0.100430,1.678622,0.007636,-0.248317,0.020311
1765408290.713949,-10.128527,0.194883,1.954208,0.008094,-0.258396,0.024587
1765408290.716046,-9.943806,0.080105,2.005021,0.016646,-0.244652,0.028405
1765408290.720006,-9.568387,0.157819,1.607484,0.013897,-0.238543,0.028100
1765408290.720506,-9.618603,0.113582,1.818508,0.006567,-0.244957,0.025045
1765408290.723929,-9.836202,0.090866,2.088115,0.013134,-0.253051,0.027031
1765408290.725894,-9.927068,0.164395,1.847800,0.015424,-0.259160,0.023824
1765408290.728911,-9.728000,0.107604,1.468197,0.008399,-0.251829,0.018631
1765408290.731919,-9.588712,0.205643,1.506456,0.014355,-0.243735,0.024587
1765408290.733862,-9.686751,0.225968,1.927307,0.015272,-0.240528,0.027642
1765408290.736909,-9.995814,0.307867,2.300334,0.011759,-0.242972,0.025809
1765408290.738909,-9.997009,0.052009,1.972740,0.009010,-0.242819,0.031154
1765408290.739889,-9.662242,-0.038259,1.615853,0.014355,-0.244804,0.030238
1765408290.743955,-9.662242,-0.038259,1.615853,0.014355,-0.246026,0.030238
1765408290.745970,-9.809898,0.234338,2.121592,0.013286,-0.238390,0.024435
1765408290.748916,-9.673599,0.076518,1.713295,0.013897,-0.246331,0.030849
1765408290.751895,-9.851745,0.112386,1.826877,0.010690,-0.246484,0.022144
1765408290.753897,-10.021520,0.214610,2.167025,0.012675,-0.240223,0.023213
1765408290.756895,-9.922284,0.199067,2.253108,0.019090,-0.234267,0.029780
1765408290.758897,-9.730989,0.104017,2.065997,0.012065,-0.246026,0.025045
1765408290.760960,-9.978478,0.192492,2.003826,0.005956,-0.253509,0.021838
1765408290.763917,-9.894786,0.024510,1.843615,0.013897,-0.253967,0.028711
1765408290.766915,-9.808105,0.154232,2.014586,0.018937,-0.245721,0.025656
1765408290.768967,-9.748923,0.308465,2.107843,0.015424,-0.239001,0.026573
1765408290.771996,-9.836799,0.144668,2.092300,0.010537,-0.265879,0.031001
1765408290.773952,-9.759683,0.027499,1.661884,0.017257,-0.265879,0.029016
1765408290.776884,-9.848158,0.092659,1.757532,0.013897,-0.257938,0.022907
1765408290.777384,-9.563007,0.075323,1.685796,0.016646,-0.248469,0.024129
1765408290.781899,-9.653275,0.197274,1.829268,0.019090,-0.248469,0.024587
1765408290.783888,-9.826636,0.114180,2.034911,0.014508,-0.253662,0.025809
1765408290.786901,-10.013150,0.172166,1.965567,0.014050,-0.249080,0.023976
1765408290.787401,-9.909132,0.135103,1.881277,0.014355,-0.244499,0.026725
1765408290.791914,-9.802725,0.217599,2.055834,0.015882,-0.252898,0.025656
1765408290.793852,-9.991032,0.199665,2.392993,0.012523,-0.252898,0.026573
1765408290.796903,-9.910927,0.229555,2.040889,0.009316,-0.255494,0.025351
1765408290.798921,-9.949782,0.179938,1.865136,0.014050,-0.260992,0.025809
1765408290.801976,-9.949782,0.179938,1.865136,0.014050,-0.252745,0.025809
1765408290.802942,-10.038258,0.302487,2.328431,0.017410,-0.253356,0.025351
1765408290.806890,-9.892395,0.104615,2.025347,0.008705,-0.253356,0.029016
1765408290.808934,-9.842180,0.120158,1.667862,0.011606,-0.262061,0.027336
1765408290.811945,-10.097439,0.264228,2.141320,0.015119,-0.259923,0.028253
1765408290.813944,-10.025107,0.160808,2.264467,0.011912,-0.251371,0.026573
1765408290.816924,-9.698708,0.179340,1.929699,0.017562,-0.251218,0.027947
1765408290.818858,-9.507411,0.202654,1.740794,0.015882,-0.254731,0.028100
1765408290.820974,-9.874461,0.276184,2.097680,0.016493,-0.266337,0.028711
1765408290.823961,-10.117167,0.069345,2.480870,0.011606,-0.266490,0.034361
1765408290.826896,-9.885818,0.047824,1.915351,0.011301,-0.266490,0.026267
1765408290.827396,-9.708273,0.271401,1.987087,0.008552,-0.263894,0.022449
1765408290.831904,-9.528933,0.155428,1.708512,0.015730,-0.265115,0.029322
1765408290.833898,-9.829028,0.289335,2.043878,0.016799,-0.278249,0.027642
1765408290.836872,-10.101027,0.320421,2.238163,0.013134,-0.266185,0.020617
1765408290.838906,-10.003586,0.178144,2.264467,0.017715,-0.255342,0.032070
1765408290.841973,-9.664036,0.106408,1.958393,0.016799,-0.257174,0.030238
1765408290.843869,-9.927068,0.240316,2.315877,0.010537,-0.267559,0.022449
1765408290.844875,-9.998802,0.138092,2.335007,0.011148,-0.261145,0.028558
1765408290.848900,-9.902557,0.112984,2.265662,0.017868,-0.264963,0.027489
1765408290.850939,-9.849951,0.236729,2.380440,0.014203,-0.258243,0.026573
1765408290.853902,-9.849951,0.236729,2.380440,0.014203,-0.260381,0.026573
1765408290.856901,-9.643710,0.108800,2.037302,0.013286,-0.275042,0.031918
1765408290.857401,-9.578550,0.054998,2.043280,0.014203,-0.275042,0.023671
1765408290.861924,-9.691534,0.300693,2.207675,0.015882,-0.269850,0.023060
1765408290.862424,-9.298182,0.194285,1.562649,0.006261,-0.267864,0.021686
1765408290.865904,-9.588712,0.418460,1.990674,0.010079,-0.271530,0.022144
1765408290.868888,-9.771639,0.444763,2.617169,0.015119,-0.253509,0.030085
1765408290.871886,-9.725011,0.195481,2.470110,0.010690,-0.265268,0.038485
1765408290.873903,-9.591104,-0.123147,1.996652,0.008705,-0.275042,0.027184
1765408290.876865,-9.620994,0.045433,2.014586,0.017104,-0.265421,0.020922
1765408290.878861,-9.451816,0.265423,2.115016,0.020464,-0.259923,0.029016
1765408290.879947,-9.721423,0.326399,2.450980,0.010385,-0.267101,0.026878
1765408290.883901,-10.010758,0.436992,2.650645,0.012370,-0.261908,0.026725
1765408290.886930,-10.010758,0.436992,2.650645,0.012370,-0.258701,0.026725
1765408290.888876,-9.420133,-0.119560,2.024151,0.013439,-0.262977,0.035583
1765408290.890908,-9.555235,-0.047824,2.013391,0.011301,-0.269086,0.022297
1765408290.893930,-9.827832,0.164993,2.435437,0.013592,-0.263436,0.017715
1765408290.896943,-9.849353,0.361071,2.441415,0.016188,-0.258091,0.025962
1765408290.898916,-9.819464,0.414873,2.446198,0.016341,-0.261603,0.032070
1765408290.900959,-9.951577,0.309063,2.688307,0.011301,-0.260076,0.029169
1765408290.903943,-9.644905,0.104017,2.108441,0.013897,-0.264352,0.037568
1765408290.906943,-9.613820,-0.135103,1.916547,0.013592,-0.263130,0.032223
1765408290.908865,-9.720228,0.147059,2.358919,0.016188,-0.263130,0.020617
1765408290.911959,-9.819464,0.366451,2.558584,0.020311,-0.263436,0.030543
1765408290.913926,-9.420133,0.188905,1.776662,0.015119,-0.271224,0.029932
1765408290.914952,-9.491868,0.247489,1.722860,0.014050,-0.274278,0.027031
1765408290.918939,-9.713055,0.147059,2.437828,0.018021,-0.257480,0.035125
1765408290.919937,-10.046627,0.123147,3.011119,0.023213,-0.260229,0.033292
1765408290.924026,-9.937828,0.023314,2.600430,0.011454,-0.262825,0.030238
1765408290.926862,-9.700500,0.108800,1.987685,0.013592,-0.279624,0.023518
1765408290.927865,-9.646699,0.322214,1.851985,0.014508,-0.281456,0.025504
1765408290.932059,-9.868484,0.355093,2.311693,0.015272,-0.276111,0.028100
1765408290.933903,-9.945002,0.284553,2.642276,0.017257,-0.266032,0.029627
1765408290.935955,-9.797942,0.120756,2.135342,0.011912,-0.270461,0.031460
1765408290.936953,-9.873264,0.002391,2.225012,0.011606,-0.276264,0.031001
1765408290.941904,-10.042442,-0.002391,2.617169,0.017410,-0.275348,0.030238
1765408290.943853,-10.147058,0.269010,2.740315,0.016646,-0.269239,0.023976
1765408290.946883,-9.759085,0.329986,2.297943,0.012981,-0.269086,0.027947
1765408290.948885,-9.746531,0.261836,2.394787,0.018173,-0.274584,0.036346
1765408290.951897,-9.959946,0.209828,2.637494,0.018021,-0.282678,0.035888
1765408290.953834,-10.047822,0.127929,2.728359,0.014508,-0.287259,0.031765
1765408290.956870,-9.698708,0.114778,2.289574,0.017257,-0.279318,0.029322
1765408290.958910,-9.405785,0.256456,2.038498,0.018631,-0.286649,0.033445
1765408290.961861,-9.525346,0.240913,2.041487,0.018631,-0.293673,0.033445
1765408290.963910,-9.994021,0.333572,2.466523,0.013897,-0.269239,0.029627
1765408290.964910,-9.992825,0.225371,2.797704,0.018326,-0.269239,0.033445
1765408290.968852,-9.715446,0.243902,2.551410,0.019395,-0.272751,0.034972
1765408290.971934,-9.806910,0.259445,2.664992,0.015272,-0.286038,0.032681
1765408290.973878,-9.806910,0.259445,2.664992,0.015272,-0.295201,0.032681
1765408290.974871,-9.634743,0.026901,2.055237,0.017410,-0.285274,0.035736
1765408290.978900,-9.593494,0.229555,2.321855,0.019090,-0.285274,0.028253
1765408290.981898,-9.653275,0.308465,2.757054,0.014050,-0.284358,0.030543
1765408290.983881,-9.603060,0.203252,2.295552,0.016035,-0.302989,0.033445
1765408290.984914,-9.708273,0.245098,2.091105,0.015424,-0.302836,0.023366
1765408290.988875,-9.520563,0.265423,2.303921,0.022297,-0.281303,0.029780
1765408290.991895,-9.436871,0.176351,2.419894,0.016799,-0.281303,0.038179
1765408290.993934,-9.651482,0.226566,2.474892,0.005192,-0.293368,0.020159
1765408290.995961,-9.923481,0.474653,2.802486,0.011606,-0.286496,0.022755
1765408290.996927,-9.495455,0.329986,2.236968,0.016799,-0.278249,0.039706
1765408291.001895,-9.387852,0.322812,2.158058,0.012217,-0.295506,0.033445
1765408291.003877,-9.888808,0.406504,2.831181,0.007789,-0.286190,0.028405
1765408291.006869,-9.922284,0.086083,2.725968,0.017257,-0.283136,0.042150
1765408291.008878,-9.472739,-0.138690,2.138331,0.020311,-0.289245,0.034667
1765408291.010958,-9.543877,0.262434,2.363701,0.014355,-0.289245,0.018937
1765408291.013917,-9.543877,0.262434,2.363701,0.014355,-0.279471,0.018937
1765408291.015960,-9.574366,0.346126,2.491033,0.021838,-0.292757,0.038332
1765408291.016943,-9.866092,0.340746,2.772597,0.015882,-0.299629,0.028863
1765408291.021946,-9.925871,0.301291,2.982424,0.019090,-0.285579,0.031918
1765408291.023894,-9.585126,0.059780,2.503587,0.020311,-0.293368,0.040012
1765408291.026937,-9.585126,0.059780,2.503587,0.020311,-0.312305,0.040012
1765408291.028935,-9.814680,0.489000,2.696078,0.004581,-0.303905,0.017410
1765408291.029913,-9.524748,0.500956,2.471305,0.017410,-0.285732,0.037721
1765408291.033944,-9.206120,0.273195,2.267455,0.016952,-0.298560,0.044440
1765408291.036917,-9.650286,0.133309,2.525107,0.008247,-0.298560,0.031154
1765408291.038890,-9.650286,0.133309,2.525107,0.008247,-0.292146,0.031154
1765408291.041887,-9.880439,-0.067551,3.109756,0.019853,-0.305585,0.036194
1765408291.043843,-9.496651,0.237327,2.289574,0.011148,-0.305585,0.021075
1765408291.044867,-9.537301,0.469871,2.309899,0.009621,-0.304516,0.021533
1765408291.048833,-9.697512,0.338355,2.600430,0.020006,-0.308945,0.036652
1765408291.051898,-9.829626,0.285748,2.620157,0.017257,-0.306960,0.034208
1765408291.053833,-9.892395,0.210426,2.847321,0.011759,-0.290161,0.028100
1765408291.054883,-9.753705,0.246294,2.829387,0.016035,-0.283747,0.034361
1765408291.058867,-9.466762,0.166786,2.379842,0.014508,-0.306807,0.036194
1765408291.061874,-9.880439,0.382592,2.876614,0.013897,-0.294895,0.027794
1765408291.062374,-10.110592,0.465088,3.435557,0.015882,-0.294895,0.036346
1765408291.066857,-9.751313,0.126136,2.977044,0.016035,-0.312610,0.045357
1765408291.068852,-9.477522,0.007174,2.299737,0.011148,-0.312610,0.033292
1765408291.071914,-9.477522,0.007174,2.299737,0.011148,-0.310930,0.033292
1765408291.073927,-9.526542,0.193687,2.651841,0.018937,-0.306349,0.036957
1765408291.075966,-9.286823,0.209230,2.190339,0.011759,-0.316123,0.029780
1765408291.078918,-9.605451,0.306671,2.589072,0.008247,-0.304669,0.021075
1765408291.080949,-9.684958,0.257054,3.152200,0.022297,-0.289550,0.038790
1765408291.083931,-9.432089,0.221186,2.927427,0.021686,-0.300393,0.039859
1765408291.086934,-9.639525,0.447154,2.769010,0.008399,-0.314748,0.025809
1765408291.088895,-9.762074,0.259445,2.883787,0.009774,-0.309098,0.036499
1765408291.091911,-9.625775,0.062171,2.789933,0.018326,-0.304364,0.043524
1765408291.093904,-9.378286,-0.003587,2.716403,0.013592,-0.304364,0.028558
1765408291.096897,-9.435078,0.235533,2.717001,0.009316,-0.308029,0.023060
1765408291.098899,-9.610233,0.482425,2.815638,0.015119,-0.310014,0.034514
1765408291.101839,-9.495455,0.307269,2.584887,0.014966,-0.313679,0.041997
1765408291.103938,-9.756096,0.187709,3.079866,0.014355,-0.303905,0.034514
1765408291.106950,-9.509803,0.044237,3.117527,0.021533,-0.290619,0.039859
1765408291.108947,-9.084767,0.017934,2.470708,0.019548,-0.305127,0.037415
1765408291.110868,-9.301768,0.320421,2.355332,0.016341,-0.319635,0.025198
1765408291.113955,-9.556431,0.494381,2.809660,0.015577,-0.309861,0.032376
1765408291.115949,-9.433285,0.240316,2.814442,0.020311,-0.296881,0.040317
1765408291.118899,-9.380678,0.316834,2.647058,0.017410,-0.293368,0.038637
1765408291.121918,-9.427306,0.188905,2.908895,0.015119,-0.293826,0.038332
1765408291.123892,-9.536703,-0.009565,2.911286,0.017715,-0.302226,0.043982
1765408291.126990,-9.572572,0.123745,2.815638,0.019395,-0.307113,0.033445
1765408291.127490,-9.742945,0.270803,3.107364,0.016493,-0.296728,0.026573
1765408291.131001,-9.542084,0.382592,2.927427,0.019853,-0.293215,0.036194
1765408291.134185,-9.582734,0.291129,2.932807,0.018021,-0.301309,0.038026
1765408291.134971,-9.776422,0.215806,3.046389,0.018326,-0.307265,0.035125
1765408291.138904,-9.850550,0.203850,3.082257,0.019242,-0.302836,0.034667
1765408291.139934,-9.585126,0.246294,2.961501,0.020159,-0.298560,0.032376
1765408291.143966,-9.439262,0.396939,2.712816,0.020311,-0.298866,0.036041
1765408291.146884,-9.571974,0.264228,2.959110,0.014203,-0.313068,0.034361
1765408291.148894,-9.759683,0.408895,3.264586,0.018784,-0.300851,0.033292
1765408291.151880,-9.835604,0.467480,3.213773,0.019853,-0.300851,0.038943
1765408291.153906,-9.696915,0.313247,3.043998,0.019242,-0.313985,0.040928
1765408291.156899,-9.739358,0.156624,3.049976,0.015730,-0.319330,0.037415
1765408291.158872,-9.616212,0.166188,2.754065,0.018021,-0.316734,0.033445
1765408291.161880,-9.484097,0.388570,2.693089,0.018937,-0.313527,0.029932
1765408291.163936,-9.485890,0.515304,2.801291,0.018631,-0.312152,0.032834
1765408291.166880,-9.722619,0.445959,3.136059,0.014050,-0.309403,0.036652
1765408291.168874,-9.901959,0.474055,3.301052,0.021380,-0.308640,0.040623
1765408291.169933,-9.828429,0.329986,3.228120,0.017104,-0.308487,0.042761
1765408291.173891,-9.499043,0.071736,2.752271,0.012065,-0.310625,0.040928
1765408291.174914,-9.476326,0.295313,2.770803,0.015272,-0.314901,0.036499
1765408291.178897,-9.661644,0.405308,3.195839,0.016646,-0.317497,0.035277
1765408291.179929,-9.788378,0.385581,3.164753,0.016035,-0.316275,0.041386
1765408291.183823,-9.572572,0.232544,2.923242,0.008552,-0.316275,0.038943
1765408291.184841,-9.572572,0.232544,2.923242,0.008552,-0.319788,0.038943
1765408291.188826,-9.768650,0.216404,3.066714,0.016799,-0.317497,0.035583
1765408291.191960,-10.005977,0.318030,3.605332,0.019395,-0.309251,0.035430
1765408291.193912,-9.880439,0.368245,3.378766,0.014813,-0.320093,0.031460
1765408291.194915,-9.554040,0.344333,2.861071,0.014661,-0.320093,0.032987
1765408291.198876,-9.554040,0.344333,2.861071,0.014661,-0.319635,0.032987
1765408291.201959,-9.415350,0.245098,2.938187,0.014661,-0.320704,0.037415
1765408291.203863,-9.823050,0.430416,3.556313,0.016799,-0.323606,0.036041
1765408291.206876,-9.668818,0.219990,2.967479,0.013439,-0.322537,0.041997
1765408291.208917,-9.306551,0.150646,2.427068,0.010843,-0.331394,0.036499
1765408291.210007,-9.389645,0.375418,2.869440,0.015119,-0.326966,0.029627
1765408291.213923,-9.479913,0.533238,3.358441,0.013897,-0.327424,0.038485
1765408291.216902,-9.519367,0.422047,3.207197,0.015119,-0.327424,0.039554
1765408291.218941,-9.667622,0.472262,3.189861,0.016035,-0.325897,0.042761
1765408291.221873,-9.409372,0.136298,2.973457,0.015119,-0.322995,0.048411
1765408291.223940,-9.257531,0.053802,2.699665,0.017562,-0.327118,0.040164
1765408291.224914,-9.366330,0.214012,2.899928,0.012217,-0.321315,0.029474
1765408291.228937,-9.640720,0.473458,3.276542,0.014813,-0.321315,0.032987
1765408291.231861,-9.503824,0.420253,3.052367,0.018326,-0.320093,0.043371
1765408291.233872,-9.385460,0.358680,2.974653,0.014203,-0.323148,0.042150
1765408291.234875,-9.601864,0.214012,3.254423,0.011301,-0.316581,0.042302
1765408291.238927,-9.585126,0.097441,3.390722,0.012217,-0.321773,0.043830
1765408291.241915,-9.791965,0.111191,3.405069,0.008552,-0.329867,0.036652
1765408291.243900,-9.747727,0.357484,3.133667,0.008552,-0.330173,0.036652
1765408291.244918,-9.562408,0.393352,3.055954,0.012370,-0.323148,0.033139
1765408291.248870,-9.385460,0.431612,2.914275,0.017562,-0.323148,0.038026
1765408291.251922,-9.592299,0.377810,3.322572,0.011606,-0.328340,0.038485
1765408291.253904,-9.812290,0.206839,3.497728,0.011606,-0.328187,0.036346
1765408291.256827,-9.643112,0.245098,3.460664,0.011606,-0.322384,0.036346
1765408291.258888,-9.475131,0.386179,3.498326,0.015424,-0.321468,0.035888
1765408291.259876,-9.643112,0.404711,3.588593,0.012828,-0.331089,0.037721
1765408291.263835,-9.683763,0.401722,3.659732,0.010690,-0.341932,0.039859
1765408291.265850,-9.301768,0.258250,3.101387,0.012675,-0.337350,0.040164
1765408291.268856,-9.005260,0.307269,2.619560,0.014966,-0.335212,0.041997
1765408291.271875,-9.355571,0.279173,3.290292,0.015272,-0.337656,0.043524
1765408291.273902,-9.877449,0.263630,4.072214,0.016799,-0.333838,0.038790
1765408291.275905,-9.712457,0.199067,3.715327,0.016952,-0.327729,0.038943
1765408291.278871,-9.296986,0.248685,3.182687,0.015424,-0.329867,0.030696
1765408291.279826,-9.262314,0.435198,3.293878,0.020769,-0.332769,0.034208
1765408291.281899,-9.631156,0.543400,3.802008,0.019700,-0.334907,0.040012
1765408291.285912,-9.751313,0.477642,3.994499,0.015272,-0.334907,0.041997
