time,acc_x_g,acc_y_g,acc_z_g,gyro_x_rad_s,gyro_y_rad_s,gyro_z_rad_s
0.0,-6.51602,-0.395146,-7.241749,-0.009163,-0.005498,-0.00168
0.0025,-5.486852267889908,0.04765920954128439,-7.345242819853211,-0.011212361908256882,-0.001527,-0.016129751779816515
0.005,-6.634576761221375,-0.23337219328244285,-7.027059842442748,-0.08303931572519084,0.0071200693129770945,-0.130572
0.0075,-6.454690985128694,0.4402238567397516,-7.815765958360343,-0.10847069010486175,-0.07384337773117253,-0.182343
0.01,-7.126981175343512,0.20720835175572522,-7.618412035648855,-0.21427685534351146,-0.14388974908396948,-0.18331959122137406
0.0125,-7.030057260819827,0.2113258343183984,-7.799267879694948,-0.2721355717826502,-0.2651593811248809,-0.18722061029551956
0.015,-7.556732773543308,0.32100334158911903,-7.157335473929848,-0.28361092647100933,-0.36183611029348606,-0.18792062596993558
0.0175,-7.640393104368497,0.36649196086181257,-6.97341673019317,-0.3283126675780089,-0.472751543090639,-0.20530762888558693
0.02,-7.622710280610689,0.5739765354198478,-7.204525491832059,-0.3866213140458016,-0.5442055832824428,-0.23035044923664125
0.0225,-7.426115163050523,0.3831005015061958,-7.047248524995237,-0.4124694359961868,-0.647364,-0.23500214108674924
0.025,-6.925277203724927,0.39428803638968446,-8.497905967335244,-0.4501650402578796,-0.7208306070200573,-0.2593121187679083
0.0275,-7.6676276487861275,0.4826644721387281,-7.561508158381503,-0.5050210723699422,-0.7891086913294798,-0.27204640994219653
0.03,-7.761783610486178,0.28369393868446435,-7.7844911294947545,-0.5434517996949476,-0.8836530909818875,-0.2920591765872259
0.0325,-7.264783764308864,0.4649987786844603,-8.034730309933272,-0.5979281404003813,-0.9057868719542422,-0.32898982112488084
0.035,-6.862671767730858,0.4583706172083001,-7.94452787278453,-0.6505784858124554,-0.9488082810880458,-0.3419462863851111
0.0375,-7.561389144274809,0.2113245816793919,-7.215730370992366,-0.7009276198473282,-0.9608770572519082,-0.37343118854961826
0.04,-8.231752420558339,1.19569068956335,-6.081067300443808,-0.7425353161059413,-1.01984,-0.39995569949892623
0.0425,-7.60832126920771,0.5296476043683065,-7.016955995203427,-0.8145033997715918,-1.0209897370164167,-0.42208664453961464
0.045,-7.937081222078169,0.844141679199242,-5.771107736015251,-0.8660642480076262,-1.035727201105815,-0.42839756568160153
0.0475,-7.31488006897998,0.4112282802669194,-6.5477445577502404,-0.9137150544137275,-1.0278789340324117,-0.45325615309818873
0.05,-8.08510319498927,1.019001236077313,-5.37329060701502,-0.9521299865425914,-1.0414894472440943,-0.4713354343593415
0.0525,-7.216235706368717,1.3240212535568014,-6.569909227858471,-0.9795916731098695,-1.0619288303538175,-0.4912364190316574
0.055,-8.13688991115348,0.4687065893231645,-5.746297980857959,-1.024778337845567,-1.043937282821735,-0.49548036388941846
0.0575,-8.044538840533848,0.459714240686363,-5.411857297311715,-1.0863347911916112,-1.0279897378836989,-0.48513626169685414
0.06,-8.178488499312977,0.9597854058778631,-5.7871035220610665,-1.105472211832061,-1.0163615500763357,-0.4974470947328245
0.0625,-9.176828,0.81779,-4.64371,-1.130559,-1.0639027847082494,-0.493579
0.065,-8.135128593185394,0.7981723476592749,-4.567559352755906,-1.148386570336435,-1.016252775032212,-0.4894168933428775
0.0675,-9.259543468286799,-0.592644474535831,-4.380467303456602,-1.1650493710490561,-1.04672443885283,-0.46309238695849075
0.07,-8.678861,0.222382,-4.598278,-1.171334,-0.9939406353295126,-0.442572
0.0725,-8.95810541652174,0.1634231160474361,-4.305624566034256,-1.1776160080632412,-1.0306065304874832,-0.4149179354940713
0.075,-9.015777001715918,0.2461310163965713,-3.9675882345090536,-1.1834292350810294,-1.000969850714967,-0.40171801105815075
0.0775,-10.26265250930308,0.7480609191247982,-2.5425347882982163,-1.1739821534846029,-1.002277,-0.3782202088492707
0.08,-9.408176,0.303682,-3.724294,-1.141249,-1.021691006259542,-0.380569
0.0825,-9.753878487207283,-0.6131665323819611,-2.9101526178107138,-1.1433314482998094,-1.0003361610755876,-0.3321593533347449
0.085,-9.549488312691086,-0.8550500148464966,-2.933378698318865,-1.1321424563540123,-1.0022860062417955,-0.3310576047850942
0.08750000000000001,-8.657823479694924,-0.48157984366062867,-4.562151935367061,-1.1132793149666347,-1.0499866171591994,-0.30270465815062
0.09,-8.977206870114522,-0.07404271362595252,-3.4287683017557042,-1.0784458311068699,-1.0113460472519085,-0.2880489205725191
0.0925,-9.79316,-0.952893,-2.783955,-1.026712,-1.0279143621674875,-0.267406
0.095,-9.851140376206155,-1.1667896451825346,-1.5228895124409463,-0.998208429634932,-0.99342,-0.23892941675017898
0.0975,-9.498445,-0.527857,-2.031324,-0.95463,-1.0516647808088235,-0.208305
0.1,-10.018185005529077,-0.8296438343183945,-1.1319237572926633,-0.8867910491897043,-0.9882213765490939,-0.20062722554814114
0.10250000000000001,-9.906144,-0.542802,-0.162602,-0.846812,-0.974817333435114,-0.184634
0.105,-9.259909115819614,-1.222691135490335,-0.9819392780243434,-0.7763723693629208,-0.928249453972799,-0.16921558264853256
0.1075,-9.932074416615386,-0.2516483741538458,0.5935073390769263,-0.7352785686153847,-0.8897293796923076,-0.14870304123076927
0.11,-8.542577604237652,-0.9094346804294917,-0.876375,-0.6804936520830351,-0.8430478207015032,-0.1544702553758053
0.1125,-9.089787074230541,-0.11770559203379735,-0.020312849607720285,-0.616668,-0.7915702801448402,-0.14058075642727821
0.115,-8.688606250305337,-0.6521796648855004,-0.12942655305343492,-0.5792138639694653,-0.7318961619083967,-0.13274094954198462
0.11750000000000001,-9.348833409713459,-0.7910407861891137,0.4196635259025772,-0.512798182063037,-0.6419658128939828,-0.14920777561604556
0.12,-9.539616619327134,-0.6315483679599226,0.24448224486757958,-0.44839471644953477,-0.5809327309663571,-0.1565835128418037
0.1225,-7.959790645917156,-0.8564702807100624,-0.6162723737278162,-0.4158183661538462,-0.4571244475739646,-0.14237970745562123
0.125,-8.725774875954198,-0.6251413959923665,0.11959633874045798,-0.3734883635496183,-0.3569615104961832,-0.150643268129771
0.1275,-9.565717177366416,-0.1774454462213736,0.6677274851908391,-0.33881931450381675,-0.23696589572519072,-0.1607325014503817
0.13,-9.179166958970441,-0.37279235515729275,0.3295114651668152,-0.27384820671115323,-0.118813,-0.16598911325071494
0.1325,-9.291001400076269,-0.284482206901816,0.322378448922788,-0.20970771595805499,-0.049926367435653,-0.1669051037559582
0.135,-9.558755164804584,-0.23314042829361772,0.403910024327931,-0.11631228518589098,0.0199429583603432,-0.11253309506196366
0.1375,-11.17874238575667,-0.9911206700296732,0.6164309014836762,-0.025554614836795126,0.02223139347181004,-0.03275519821958435
0.14,-9.917247804243162,-0.5535526821931054,0.3152735647199327,-0.01546829158522048,-0.007650117425506057,0.01845426789034573
0.14250000000000002,-10.07064295045348,0.15703748735083914,0.5435337243914352,0.01737146797136055,-0.017450815560859152,0.00883073021479716
0.145,-9.950474189129915,0.3687107898927221,0.5419144261263469,-0.00656255251489846,-0.014160335494636946,-0.007561067938021523
0.1475,-9.85177343060786,-0.15044837387366017,0.2775120977830659,-0.02125219728247919,-0.008335995423122605,-0.007897273182359941
0.15,-9.94764734016686,-0.14143888247914216,0.31550918426697977,-0.008192926340882024,-0.007025,-0.005444656257449366
0.1525,-9.958152,-0.175753,0.396939,-0.005651,-0.009001066793802154,0.001985
0.155,-9.889320908367104,-0.002666165768772361,0.30853010641239603,-0.001821235613825979,-0.007142463170441,0.002737235613825979
0.1575,-9.930888914844868,0.12048437856801922,0.25704164267302965,-0.011617726300715983,-0.004087042052505943,-0.0010807093556085962
0.16,-10.002404470417163,-0.03887727280095277,0.4084429702979719,-0.00915577578069127,-0.008393914183551825,-0.0023371201907032
0.1625,-9.845369234326576,-0.07203906221692565,0.24081867890345549,-0.007672356138259821,-0.003156572348033284,-0.001602638617401749
0.165,-9.93748072850528,-0.06241832617384242,0.33355278006498745,-0.006224066295694546,-0.0070496224695369685,5.067806661251213e-05
0.1675,-9.928969497926103,0.017183326150176516,0.27574770903456786,-0.005315151513706824,-0.004891814398093273,0.0002584839094159027
0.17,-9.768633711704418,-0.025762998712752547,0.13881832562575835,-0.008938443528009479,-0.002673220309893205,-0.0018584067699644016
0.17250000000000001,-9.834207799761332,-0.06493488539380046,0.22149482782816202,-0.01194059078758973,-0.005438358233890436,-0.0013404241527445308
0.17500000000000002,-9.862364988505735,-0.021204721839079857,0.19609254252871522,-0.006549954022988705,-0.005581710344827571,0.0002937517241377932
0.1775,-10.026608362911713,-0.28504134047731994,0.0032818918377677253,-0.008467811503580204,0.0017132968496420522,0.0016843718854412555
0.18,-9.988738820500592,-0.1534420509654453,0.3751253288677072,-0.007789,0.004678847056019081,-0.0038456471036944313
0.1825,-9.874974606722287,0.10168584724671509,0.20609208438617468,-0.006278881811680562,0.00826674822407633,-0.005194866412395766
0.185,-10.053536262550656,-0.045056540977355994,0.21371822269368376,-0.007207584553039345,-0.0008854506317044152,-0.0022012463408819668
0.1875,-10.010758,-0.088474,0.341942,-0.008247,-0.007733523241954707,0.000458
0.19,-9.856833972586411,-0.10086808414779466,0.229672252443384,-0.00936849525625745,-0.006294404338498243,-0.0017237573301549871
0.1925,-9.90342410014836,-0.015621447839196105,0.29053670332934495,-0.008909557827231398,-0.008279304264178038,0.0013396030469809443
0.195,-9.87322490418784,-0.09071346836845295,0.21753905820108357,-0.008972782222757372,-0.009187218576760981,0.0014305276387718137
0.1975,-9.90490929218664,-0.13637375539853658,0.2873229261247939,-0.008159317991974188,-0.0061576896655913,0.00021445014713982174
0.2,-9.987837797291519,-0.096394262508909,0.40840197826087016,-0.008273719814682827,-0.008309299643620847,-0.0024669010691375855
0.2025,-10.018254084987936,-0.0031410528154428227,0.42964846111310023,-0.007406216034871946,-0.008509799352377972,-0.003618317882774186
0.20500000000000002,-9.94881303960035,0.04373276938678659,0.34405747404021386,-0.00810911362058201,-0.005482255141750948,-0.0022995207193705373
0.20750000000000002,-9.882221043663174,-0.0030463906806368762,0.272632556187815,-0.008385020370973995,-0.005206564268529303,-7.282600543265759e-05
0.21,-9.904259252490156,-0.06802557762795255,0.3304316822047239,-0.00871284454724409,-0.004010672431102372,0.0004904324015748069
0.2125,-9.991232586382568,-0.10179547572885862,0.40695487663427304,-0.007130253733325286,-0.006118430868594194,-0.0005721674171545836
0.215,-9.9412886716219,-0.08212019744310983,0.367983445446973,-0.006453651002595522,-0.005635504878372669,-0.0009588879676465257
0.2175,-9.867721420770676,-0.015416810930451164,0.27015100228383465,-0.0063508745582706765,-0.005228963740601504,-0.0018761087781954881
0.22,-9.79859010232078,0.04177210270092691,0.2256991059345301,-0.0061336070585474595,-0.004198208963979819,-0.00234994382729086
0.2225,-9.813870912525907,0.013627958095854847,0.2816564436269431,-0.007109948380829018,-0.005795589831606222,-0.0008702192227979248
0.225,-9.936605988564622,-0.04642186238237051,0.39864348954139367,-0.008454103573555681,-0.005058914139368664,0.0006280435735556852
0.2275,-9.941833255461583,-0.07180939244550336,0.3814697007242406,-0.006165222668254906,-0.0010532164240619297,-0.0006122613317450901
0.23,-9.9180682552,-0.07169498326227534,0.3440210492982034,-0.00611256833532935,0.000916,-0.0016120828886227576
0.2325,-9.865278731676096,-0.044722257659608716,0.27528922473896844,-0.008286470121221927,-0.0010191578115403398,-0.002201084273476647
0.23500000000000001,-9.889866262318842,-0.018641615942028844,0.3740133977777792,-0.009217828695652172,-0.00327078811594204,-0.0015613831884057875
0.23750000000000002,-9.954836620826205,-0.016025252864010475,0.43722113611993796,-0.009621798402998457,-0.0030841627637904273,-0.00097712021510633
0.24,-9.911480373466382,-0.02745536194820617,0.3255463732287961,-0.007394837814207667,0.00044219669280112,-0.0006122466524115012
0.2425,-9.789393457099237,-0.018282294045801575,0.20241850106870252,-0.006198668396946564,0.001985,0.00017262839694656267
0.245,-9.76514895032389,-0.015981729035496568,0.20200006827775768,-0.007675927295326875,-0.00027851311103142514,0.000611
0.2475,-9.87391178180432,-0.056645679682337954,0.33987053679796686,-0.008552,-0.00123791872935197,8.096538754765001e-05
0.25,-9.9642826630712,-0.040413496068012755,0.35782043320935175,-0.006929799734325186,-0.0008766540913921361,-0.0031617633368756642
0.2525,-9.895670022969181,-0.04774127053772583,0.25323639899893724,-0.005568656712008501,0.0013352729649309264,-0.0019705542571732187
0.255,-9.819336299152095,-0.027426868182035838,0.2113538617676647,-0.007950604699401209,0.000911511094610773,-0.001374
0.2575,-9.882119648736069,0.007744150742233894,0.32660760258951904,-0.009240352345269147,0.0002668238273654267,-0.001996783125444631
0.26,-9.99689200299698,0.0031632908277944224,0.4472011096120849,-0.00981849499456194,-0.0005987331963746298,-0.0020593052084592117
0.2625,-9.988650448530231,-0.018963675153349863,0.3924486623595948,-0.010114432295068906,0.0017554262726041771,-0.001561841535887834
0.265,-9.868396860615496,-0.04691652329886896,0.21736973296192552,-0.007740993236832479,0.0032220529181364735,-0.0005796207565989455
0.2675,-9.85134795303137,-0.06669251395562364,0.23277939133282394,-0.006211090396327465,-0.0003897269563887043,-0.0017543019648049104
0.27,-9.937209926453356,-0.06730994204446283,0.3695743802327043,-0.006035934473301477,-0.004504423727404971,-0.0032206929981300693
0.2725,-9.973870442707785,-0.048805971328777335,0.39076235895566774,-0.006634218076046967,-0.0027998165621166515,-0.0020938767992523598
0.275,-9.93799004731032,-0.025007993621867675,0.2988654302435597,-0.007569429542666909,0.00309256688277559,0.0004312554056422166
0.2775,-9.851246829247469,0.006997481321755344,0.23484799983598834,-0.005830534384949378,0.0019575392812349007,-0.004612221480945486
0.28,-9.978625671736616,-0.05045542920405271,0.42421510960926395,-0.008823756034732302,-0.0005532514182344699,-0.004225897351664251
0.28250000000000003,-10.06117756881579,-0.09097073938596531,0.45052116809523773,-0.007688742312030044,0.0003421225313283455,-0.0024666930513784205
0.28500000000000003,-10.03934043305713,-0.07322398697427143,0.37130977881869637,-0.005715368020292289,0.001973294223940104,-0.0014739912936344993
0.28750000000000003,-9.927068,0.007174,0.252272,-0.006109,0.001583738676707878,-0.001985
0.29,-9.927068,0.007174,0.252272,-0.006109,-0.0006179512928097368,-0.001985
0.2925,-10.003066741315768,-0.028633581187243608,0.3860004956606943,-0.0071358283074945674,-0.0010349705582777752,-0.001985
0.295,-10.0250396549781,-0.04821420972653017,0.4079375795714462,-0.006666146631940347,0.0007168159393867456,-0.0033123730886705184
0.2975,-9.915991698957832,-0.045914875374699085,0.23962544488623228,-0.0069289441298439015,0.001071674402422928,-0.003150459113147478
0.3,-9.84490239044897,-0.04924349777301421,0.19893762903417828,-0.007133559771346917,0.0007846529712992727,-0.0032897473145170864
0.3025,-9.947172578906752,-0.040285584308681704,0.33554783858520854,-0.0053222468167202636,0.0009750874598070734,-0.004052734019292602
0.305,-10.046618320546921,-0.032155087044524966,0.4199965238144209,-0.005946337964239795,0.0033453174944489774,-0.0030060686549024268
0.3075,-10.045051410499799,-0.018701645345175644,0.3479034927832057,-0.008122428763827207,0.004734,-0.002763214381913604
0.31,-9.967847498765842,-0.020219868151131096,0.2401436856141183,-0.006400228411702007,0.004444095710055668,-0.003496904289944332
0.3125,-10.004859404172416,-0.04470408336715642,0.359309430716779,-0.0054362728305868985,0.0031768546959980515,-0.003665
0.315,-10.07013734306486,-0.08578522049893092,0.40743173064385835,-0.0072135415633167044,-0.0007805295034450043,-0.002355399904965548
0.3175,-9.893878645718342,-0.05642638956686377,0.16283463378934898,-0.005799975715976332,0.000153,-0.003665
0.32,-9.817072,0.013152,0.093257,-0.006261,-0.00011001676802354908,-0.003665
0.3225,-9.817072,0.013152,0.093257,-0.006261,-0.003153149911721443,-0.003665
0.325,-10.012325096898858,-0.021771668964694946,0.33772002731393336,-0.005145715648854953,-0.005696284351145047,-0.0031584750238549575
0.3275,-10.099582174538261,-0.03328855129540234,0.40237860192134167,-0.004303106316372555,-0.0037593500925852475,-0.002716333041069873
0.33,-9.962129718829773,-0.05496693283001092,0.25630402161141785,-0.0038249612410050688,-0.0009451942243718155,-0.0017018837230152071
0.3325,-9.92138186273379,-0.08505245123479678,0.24412477855497428,-0.005053639410390671,-0.0024343279130084787,-0.002610033282319788
0.335,-9.942328025332623,-0.08674482946247952,0.27152761826503446,-0.005837628525811596,-0.005609343246407635,-0.003512
0.3375,-9.957525587723966,-0.02261930090473599,0.2552182962095676,-0.004985052096268694,-0.0020105406303589056,-0.003512
0.34,-9.918965308608705,0.023025884758629156,0.20368199595777406,-0.005680215371842032,-0.000305,-0.0038123213426639836
0.3425,-9.953783227653686,-0.009702281982620495,0.293795154715161,-0.005423961145799795,-0.0020728942903122244,-0.004808038854200205
0.34500000000000003,-10.066907736875075,-0.05647077448251545,0.44925776981985344,-0.005291950627575659,-0.0044218518827269775,-0.0038266008383374215
0.34750000000000003,-10.08953505828759,-0.10293584050981373,0.38914497887559446,-0.004769745712721858,-0.003037598686371066,-0.002326341665493771
0.35000000000000003,-9.956666819213716,-0.07534868871415815,0.21176513945019373,-0.007227974496009449,-0.0031178390540940056,-0.004684189098433368
0.3525,-9.981125327094295,-0.009014710909843862,0.33257423672006997,-0.006471065660065037,-0.003591449496896242,-0.006577391051729219
0.355,-10.04336731700234,0.01888705600000005,0.4397568900046832,-0.006206356889929741,-0.005382755803278667,-0.0036681471288056724
0.3575,-9.988451163821049,0.01815006070370959,0.3277326261168616,-0.004638192778220043,-0.005179522069734128,-0.0014366800636841275
0.36,-9.876048500796747,-0.004163219169756906,0.23036901828926906,-0.0051708737504486,-0.0042335377868166066,-0.002350033535111845
0.3625,-9.91637564297052,-0.057458057596371626,0.2984686090702944,-0.005554537301587305,-0.00624713027210883,-0.004286645124716545
0.365,-10.000779864725818,-0.06516358577076972,0.3991159310990818,-0.0035809769028006698,-0.007333974384561076,-0.0047890793645563685
0.3675,-9.96324287112112,-0.005913440444099562,0.32795634604037305,-0.003558862055900618,-0.0034870566273292065,-0.0047613622919254655
0.37,-9.876581963209768,0.04455698585127631,0.2485939935937847,-0.005268637655937843,-0.0016209190410654802,-0.0047987409056603775
0.3725,-9.886210681199712,0.0287533501847557,0.3123435223450371,-0.007739014793249618,-0.00507245361273294,-0.0034300949116212133
0.375,-10.001335411287348,-0.034232108447067505,0.3985214463297676,-0.006715064920693471,-0.006848836591663593,-0.00368957469568425
0.3775,-10.008545932303324,-0.05461921995991314,0.34913378689159835,-0.005065526123267079,-0.004651923564389508,-0.005717357006848172
0.38,-9.918094819028985,-0.0551973048599034,0.324806548357488,-0.005192,-0.005548858526570055,-0.006414
0.3825,-9.903418709835078,-0.07433183965112597,0.2966431118934347,-0.00500515291785601,-0.006660729847764035,-0.005291079666983821
0.385,-9.922490199059428,-0.034551975100608,0.2847164905240993,-0.003586569560131016,-0.007819961062236789,-0.004581
0.3875,-9.90470625552475,-0.010510630780198033,0.28351711190495044,-0.0031754504871287148,-0.0070317475643564276,-0.0031223983841584067
0.39,-9.922070181984354,-0.047221944040730525,0.3473068989991315,-0.004690701800571229,-0.0066204989792623915,-0.003366804231963256
0.3925,-9.985824521582586,-0.0805492018231014,0.38005204553424315,-0.00504,-0.005678628012747277,-0.005570944152486334
0.395,-9.953033744955805,-0.07451914899164207,0.35366835766460203,-0.00504,-0.005293395653899341,-0.007689406878720478
0.3975,-9.89562295601097,-0.07670497980743425,0.2809648706354664,-0.006347852123475535,-0.00512347413899749,-0.00817802331096458
0.4,-9.839851810072314,-0.06802835785123852,0.21944253248967105,-0.007474747933884258,-0.005845117407024863,-0.0071614958677685145
0.4025,-9.831936895015394,-0.029848594214889033,0.27507081157022195,-0.0037585046751400946,-0.006458197167442942,-0.005290582152048638
0.405,-9.793824854335766,-0.05192997784914891,0.21608973771289408,-0.00224050478832117,-0.006316698374695881,-0.004320447649635009
0.40750000000000003,-9.83125925784017,-0.0767194481405382,0.2444835779405546,-0.0042459546043447875,-0.004671778150733244,-0.005247495214493005
0.41000000000000003,-9.92414181603231,-0.07521677019703808,0.3790634994492741,-0.0029244876367641053,-0.001918887000367118,-0.005643572727940262
0.41250000000000003,-9.926395364066819,-0.048060823362576215,0.31098944708568477,-0.00713528027881274,0.0012184459079438003,-0.009078054969354711
0.41500000000000004,-9.83706697875193,-0.06876126816496789,0.21837847931108925,-0.006776463194315714,-0.0019242001977139817,-0.008608691865925229
0.4175,-9.8291579555937,-0.08878253407244081,0.23984423127559007,-0.004847526154330726,-0.0047115358803149435,-0.008399
0.42,-9.862573445106996,-0.060635672623227194,0.2685641047848041,-0.004249826025486889,-0.0033236444289492994,-0.007814173974513111
0.4225,-9.792204149244656,0.0077441651306414385,0.2340360022707833,-0.003407128338875682,-0.001873947813143309,-0.009044275062549512
0.425,-9.843374422251783,-0.012937232857661043,0.329329140669972,-0.005029342387229417,-0.0020198443342604893,-0.004743733692103029
0.4275,-9.913116329190954,-0.03605751574555561,0.37367519375498837,-0.0036737640295078046,-0.0023102348337162887,-0.006099946090216466
0.43,-9.91469867717415,-0.06628426494162946,0.3267926360476595,-0.002007994892285479,-0.0018155339366951527,-0.005778115898423401
0.4325,-9.851890110806044,-0.06421521345088164,0.21408351521410596,-0.003513320478589416,0.001216190957178835,-0.006196634130982366
0.435,-9.868125181010864,-0.03345621677846013,0.27149452449692946,-0.0022885430325932966,0.0006600530940009484,-0.007433286084081246
0.4375,-9.960336687824038,-0.008197473527101333,0.41234473008641004,-0.001805079811468971,-0.0002742812254516889,-0.008708798586017282
0.44,-9.999005537821308,-0.02341373442904925,0.4241713518681318,-0.002983546516961301,-0.00044971310081223174,-0.007535073549928329
0.4425,-9.950983105838429,-0.0332030568393949,0.3271801404699065,-0.0036377747151593184,0.0017973916897328678,-0.005918656832957836
0.445,-9.960470172424783,-0.05415646594838874,0.3714574816125584,-0.003919804951837317,0.0020385318016410926,-0.006412248391009637
0.4475,-10.01858589459005,-0.07035648999922871,0.42823031278673357,-0.003880462235248746,0.0009224946764365579,-0.007053075529502508
0.45,-9.975604211098752,-0.06700703317266092,0.3026636726239019,-0.002739776789024833,0.0024728604375231908,-0.0070798046718576185
0.4525,-9.897542019447814,-0.02862055243855704,0.22112118198531755,-0.0024152983147143333,0.0012930080274497122,-0.006840336275135652
0.455,-9.954275593668234,-0.021940419448259436,0.32175583484881465,-0.0038196163787495626,-0.000153,-0.006821467370196363
0.4575,-10.014603872238807,-0.02558131701492533,0.41371705850746304,-0.00571307641791046,0.0007641116417910536,-0.006963891343283583
0.46,-9.967342875469809,-0.027284941783970538,0.3543181181136107,-0.004037969079433091,0.001374,-0.008094950125044676
0.4625,-9.893685104363636,-0.050624298972332275,0.25240983329644207,-0.0028652460711462483,0.0002970157154150064,-0.008794944648221344
0.465,-9.893977228021056,-0.07539649153992628,0.2473298931571291,-0.002062000358382778,-0.0027124372807705672,-0.007866000358382778
0.4675,-9.93905451857213,-0.05341716645161243,0.2816408714196825,-0.00359427472736208,-0.003507765934173886,-0.008373403517275278
0.47000000000000003,-9.984441895092269,-0.030488,0.2956911711022445,-0.00369389220947627,0.0003035405486285052,-0.00912137789526184
0.47250000000000003,-9.97358440160663,-0.09514201528097996,0.32901830544908794,-0.0005169028073967422,0.0010746200432276418,-0.008920768727185389
0.47500000000000003,-10.013100532096542,-0.10492708778818458,0.37530837791786803,-0.0011898901657060607,-0.0008480211095101124,-0.008151460446685868
0.47750000000000004,-9.98005415046025,-0.07956476920502037,0.38725339999999997,-0.0027516674476987715,-0.0011905916317991596,-0.00885924451882847
0.48,-9.816512175546208,-0.02653394342026213,0.15728239266915106,-0.0016089645475303325,-0.0018851194087249102,-0.01048488059127509
0.4825,-9.803785633044415,-0.0059646848820784255,0.13065268527714521,-0.0025194919837184288,-0.002400356216928045,-0.009871313875254407
0.485,-9.859316977739734,0.015047633298216099,0.24697018028971562,-0.0018485188339518771,-0.0031673620064647393,-0.008816837830719508
0.4875,-9.897587561435326,-0.013119197655288354,0.28165648345100064,-0.001835121510460521,-0.0014959988988924263,-0.0074646236414275605
0.49,-9.962192653114753,-0.07082038688524558,0.29721978688524575,-0.004224186229508168,-0.0011616695081967025,-0.006336647213114755
0.4925,-10.051131374493783,-0.0912166851865009,0.3973672537833034,-0.004998870053285974,-0.002596,-0.009185766607460025
0.495,-10.04308661685118,-0.09393356415607984,0.413359368647913,-0.003425715163339385,-0.001101631842105268,-0.010397861370235937
0.4975,-9.960507729831388,-0.04794055218547347,0.2871584385603114,-0.0029625703242542154,-0.0006725232360570683,-0.010538554422827496
0.5,-9.880259997722096,0.05258557403189066,0.210044715261959,-0.004335170842824602,-0.001374,-0.00875232118451025
0.5025000000000001,-9.940304003600259,0.028787596324980465,0.3015753987500751,-0.0048030828012382565,-0.001374,-0.009126528261199704
0.505,-9.93503299670636,-0.0040382456498607305,0.3047989457613376,-0.0037376730782873024,-0.001374,-0.007613663298707873
0.5075000000000001,-9.933492249067717,-0.06650313552756079,0.26826656560944834,-0.003054,0.0018954060314961727,-0.00672
0.51,-9.972926683293162,-0.11072346646462243,0.3180768683927936,-0.0034589061496241524,0.0027562815511275422,-0.00965440986994394
0.5125,-10.0615799140612,-0.07307387929515474,0.4044887606143619,-0.004756709417787862,-0.0011897221812120745,-0.012969252291939501
0.515,-9.950004386384093,-0.042101623436123184,0.2346997241671619,-0.003040710236932959,0.00024038117394928728,-0.01382756399571378
0.5175,-9.947280990651416,0.027524956334944218,0.2836849584830857,-0.004732702763471764,-0.005319205808306351,-0.014941998845189357
0.52,-9.997123786350237,0.016022624703651518,0.40445944061165906,-0.00522270953085816,-0.003262331851489373,-0.011905752723713966
0.5225,-9.97416956330747,-0.028140445596049068,0.33321390447527427,-0.0032727919586174855,-0.0019009981973509057,-0.01152482116466807
0.525,-9.936845484081042,-0.01709184081041907,0.2524555583212732,-0.001779180173661357,-0.001374,-0.011553180173661358
0.5275,-9.918689208738238,-0.021140078533171704,0.26068563043184395,-0.002379178841978289,-0.004368078986730975,-0.009639281664656224
0.53,-10.016231441674307,-0.08503364676477752,0.3945220005741872,-0.0021862863932448715,-0.006493058094089286,-0.008769684559710486
0.5325,-9.987066916458945,-0.10214466946868317,0.2981626897489923,-0.0036586374091376775,-0.004078337087655438,-0.009027549316652143
0.535,-9.90363710003634,-0.07715045439612297,0.17674515440823646,-0.0029948830284675593,-0.0009154417880072371,-0.009104055985463351
0.5375,-9.902327539847496,-0.06911955899693417,0.2265466360349021,-0.002481571653171918,-0.0018320725257448135,-0.009964107916044325
0.54,-10.046055104037858,-0.042131339801018415,0.47334704518806653,-0.002808111982528518,-0.003913536374666373,-0.010431637185149233
0.5425,-10.051961330671462,-0.04304945434847169,0.4371621758586739,-0.0013818942796842166,-0.00224400352067539,-0.011239592986789643
0.545,-9.89839972879377,-0.07075803971465686,0.19597116236056583,-0.0014838822308690317,-0.0007297535235624674,-0.011759
0.5475,-9.898486704918032,-0.03633200983606541,0.2957571849180321,-0.0017942885245901697,-0.0029364045901639317,-0.011374116065573762
0.55,-9.978329478830052,-0.06664289291190052,0.41995698674372195,-0.0007554822502653432,-0.003502801344498182,-0.012979319094232838
0.5525,-9.97047232259014,-0.06544789106696106,0.35933514077998574,-0.0011120171891096362,-0.0024505714495952967,-0.011757154113318624
0.555,-9.82439785699017,-0.04233183019410436,0.12856902270308523,0.00046738362329266643,-0.0005250312005750846,-0.012265019952072905
0.5575,-9.858217372933755,-0.003475812444795029,0.18659489357413223,-0.0019465938958990456,-0.002656475116719237,-0.013170481971608831
0.56,-10.077765292734131,-0.03084454716981097,0.4647128712590013,-0.0026769532624357087,-0.0041237638970838646,-0.010531077200686126
0.5625,-9.995098282051282,-0.002439662106946173,0.2834305746432167,-0.003140019837745011,0.0019887999644697106,-0.011395120862201694
0.5650000000000001,-9.895617994871792,0.05064112154912185,0.10377120025107658,-0.0015280678652217312,0.002936970481435446,-0.012153905650500403
0.5675,-9.888941129131364,-0.040740053432576084,0.1278648619589835,-0.002519734607649065,0.00039579343732678044,-0.010374720310396702
0.5700000000000001,-10.045261098316422,-0.11794234875959417,0.3910085420896364,-0.0022972556375339837,-0.0032483298935380885,-0.00901
0.5725,-10.117167,-0.120158,0.498565,-0.00168,-0.002340656086096375,-0.00901
0.5750000000000001,-9.872021323357917,-0.07835292594653233,0.1487049929357513,-0.00043550231039064823,-0.003295483875650279,-0.013883433942179994
0.5775,-9.79807705489499,-0.03869801019743555,0.06759372640289527,-0.0016347123511366447,-0.004276,-0.014682428330055838
0.58,-10.029363151762517,-0.058935296938774535,0.39170627966604016,-0.002351940686456413,-0.0032836766419295288,-0.013942854582560291
0.5825,-10.11823073108364,-0.06985575041656941,0.5055404449055368,-0.0024040859784484796,-0.002749,-0.014635110528525452
0.585,-10.08781972811121,-0.06049893262303507,0.45992442958996194,-0.002777791284228198,-0.002749,-0.01545687088678452
0.5875,-9.886609827140138,-0.019504291523991545,0.220680911688859,-0.004135418008877581,0.001658999788628144,-0.014135645318114528
0.59,-9.926465106200759,-0.08545742780177837,0.27981147379923443,-0.00287465415501905,-0.00580447153748401,-0.014382816975857644
0.5925,-10.09231641283055,-0.1045337618329353,0.4932398999522688,-0.002872556410501179,-0.007749364715990349,-0.017272973747016723
0.595,-9.996903305847832,0.002813774502423927,0.36459686698379246,-0.0032546176925807415,-0.0004065421086262566,-0.018663411795053826
0.5975,-9.842363052646686,0.0029482363470024753,0.18576537682018768,-0.0033774265678233393,-0.0005218671608833043,-0.014238502198738092
0.6,-9.777127509207252,-0.07544916288659707,0.19002884220879152,-0.003937578338665707,-0.004505440549828128,-0.010723421661334293
0.6025,-10.025117883623025,-0.11828559683606489,0.5214077274400978,-0.0036325755499023826,-0.0037493580950126912,-0.015253391272555155
0.605,-9.988404386118441,-0.13905302199846165,0.4097833599976344,-0.003537662145181329,-0.0017598986901733562,-0.014306118272496013
0.6075,-9.93512619520604,-0.10315312046268685,0.2785721108844062,-0.002949061380030512,-0.0026293465499237197,-0.016114927688971045
0.61,-9.748026105586108,-0.025042863868789705,0.1188514354172706,-0.0012344987457790775,-0.002674522402315493,-0.015524475089242661
0.6125,-9.752821969677575,-0.03285888967117444,0.20476952909833096,-0.0012850541483318827,-0.004024372173773943,-0.015335054148331884
0.615,-9.855978127958535,-0.11587422838025639,0.29129662341854157,0.00011446626928965755,-0.0049342398539286144,-0.01277424585227944
0.6175,-9.856473805897762,-0.17546038895207747,0.2624897090351429,0.00245125364856234,-0.005750109047923346,-0.011549482223642176
0.62,-9.838238713334931,-0.16360432322224897,0.26777624678014855,0.003680110266123231,-0.0026321517429873046,-0.01544872105490289
0.6225,-9.809945727819738,-0.15329311362741993,0.2573949276039347,0.002562139447794316,-0.0004894693874960168,-0.016911034020945726
0.625,-9.870372310531053,-0.11268630243024302,0.35853230423042304,0.00012192529252925272,-0.0038755922592259226,-0.01760413411341134
0.6275000000000001,-9.880392196007152,-0.04015716550804582,0.3781459986083551,-0.0008560965306454266,-0.0033048816062428064,-0.018668705205657637
0.63,-9.8196342633,-0.05410689042727304,0.18858231143636336,-0.0002188923272727182,-0.0008224170636363675,-0.013929946163636358
0.6325000000000001,-9.761204200216806,-0.1619426579825347,0.16296721488708824,0.003712620254140358,-0.0026385622041554015,-0.013101628562481248
0.635,-9.933721948075881,-0.13438477984944283,0.40494483454381297,0.005255962466726894,-0.003699452104787718,-0.01580184595242398
0.6375000000000001,-9.876530902204406,-0.06168852505009979,0.3369429955911784,0.001983694188376718,-0.00336,-0.016517350701402866
0.64,-9.803376564314512,-0.04654022977720138,0.18841677254744704,0.0006623129034539598,-0.00336,-0.01878248746905577
0.6425,-9.783223721688037,-0.007926292588866193,0.16978131255964893,0.0008743348027917422,-0.001842601681545237,-0.017308887745495907
0.645,-9.903352128909688,-0.03604730541881204,0.32279888271408697,0.0004948999157697614,-0.0036169489564810827,-0.014373348451099652
0.6475,-9.959946,-0.059182,0.38857,0.000153,-0.0028388610993159155,-0.013592
0.65,-9.839840642980873,-0.17298462058222028,0.15705302239865326,0.0002362256465776546,0.0026238024539877317,-0.015729640923854215
0.6525,-9.860954066986647,-0.13302003776494697,0.2181310292217002,0.0008139326211957104,0.0028167919018404885,-0.016789190833634057
0.655,-10.006043098972166,-0.09913307974304038,0.4125164313490396,0.003835434989293415,0.0009868829550320833,-0.016724752119914338
0.6575,-10.06185622020577,-0.09830006153322494,0.43476912552332403,0.0031645367525334834,0.0011843513112090827,-0.016680853274541656
0.66,-10.059779,-0.102224,0.402917,0.001985,0.0029732175948585116,-0.016799
0.6625,-10.054655229152145,-0.07404272463899358,0.3982203588610747,0.001985,0.003512,-0.017726114318048065
0.665,-10.04784525229641,-0.036587139939341276,0.39197807785251904,0.001985,0.003512,-0.018958337076637563
0.6675,-10.049972627181875,-0.09947537281812444,0.4119035172517468,0.00289826065212788,0.0009197393478721199,-0.01449504260851152
0.67,-9.949580725974371,-0.048181155338620274,0.30924389929956997,0.0021425384551555515,0.004017695199511998,-0.0161559240366077
0.6725,-9.8812871089742,-0.0755423007739555,0.21546233695945982,0.0013045314926289954,0.0036206574631449766,-0.016997916259213753
0.675,-9.977297768741183,-0.07988763654561717,0.35223528289491146,0.0016047901706660005,0.0030860884640061814,-0.018694774335942556
0.6775,-10.02404499086771,-0.0730649908677098,0.3941647274537697,0.00380189598862019,0.00336,-0.01943927641536273
0.68,-9.863668900238544,-0.12665850186068883,0.18049787828243596,0.003250257571564829,0.006087665906488644,-0.017365438621183133
0.6825,-9.760174827292111,-0.13008552337360818,0.07717903377398727,0.0032790760578062053,0.003957510447761201,-0.016786294584221748
0.685,-10.030124200737662,-0.1293702806581093,0.40932660559030953,0.004248689271379473,-0.001642219273187421,-0.017747792847586315
0.6875,-10.031635166335201,-0.15014779545591514,0.42745945663834145,0.0030903455071415653,0.0015427521243898032,-0.01697556367142771
0.6900000000000001,-9.922395219327212,-0.14295449248176834,0.23571528389084115,0.0019484045918607127,0.002361865838626184,-0.01794189779816519
0.6925,-9.836518364666347,-0.05176793507681224,0.1479413672059533,0.003137393924627937,0.0035953939246279373,-0.021597728672587614
0.6950000000000001,-10.000525114930392,-0.020922911706672306,0.33489421229477184,0.0011194011065770023,0.0015774011065770024,-0.021789648787806055
0.6975,-10.081096399455893,-0.04032644668705744,0.4167176406889892,0.002732375917578889,0.001069,-0.02125967251770766
0.7000000000000001,-10.104015,-0.056193,0.436992,0.003971,0.004918447350326204,-0.020922
0.7025,-9.918811594681168,-0.08093691698589124,0.23191820396311041,0.004162278537085206,0.00580063156617009,-0.020251584406084964
0.705,-9.808702,-0.095648,0.109995,0.004276,0.0017195214614025805,-0.019853
0.7075,-9.990843034181461,-0.11165224528599621,0.2894684474950707,0.005541271104536501,-0.0005838732149901438,-0.019658588067061143
0.71,-10.049557153570513,-0.05637882218126834,0.3767353729942848,0.008425420996150653,-0.000916,-0.023334851137291404
0.7125,-9.946541835032303,-0.007040564824120337,0.23734762814070196,0.006202774012921715,0.0035592225412778697,-0.024308832160804015
0.715,-9.80275592105851,-0.022448757562514545,0.082587041767421,0.0038785490361738406,0.005338800941976225,-0.01957527423160971
0.7175,-9.996615749973259,-0.12996106047423753,0.3383619477744113,0.006955812289772388,-7.712771141604507e-06,-0.019761701784037574
0.72,-10.095706088500624,-0.09941420392226812,0.4467652763297071,0.006765751268794202,0.0012292417424377355,-0.021189340469483554
0.7225,-9.991259355920029,-0.0653455933915954,0.3198590065940371,0.005582244750389069,0.0030545792745121725,-0.023450824024901243
0.725,-9.897454924458279,-0.030450595953549937,0.24406477490721964,0.004527768705854193,0.004780028468813584,-0.02412179717466778
0.7275,-9.890612649168986,-0.03742958347163523,0.2547812872722891,0.0032572821289464093,-0.001374,-0.02215366085399779
0.73,-10.037711360246764,-0.1094625816765448,0.37344592011128497,0.002966821376557399,-0.001374,-0.020023403938550878
0.7325,-10.070539,-0.125538,0.399928,0.002902,0.0007746837694361994,-0.019548
0.735,-9.94496129764452,-0.1534443918445668,0.2557455648836665,0.005170300561285659,0.00036529052530584406,-0.022032026059006934
0.7375,-9.866620242342842,-0.1340333978065637,0.10893306877532978,0.0062061843280616725,-0.00010999197329730135,-0.02345065542398475
0.74,-9.966918278553335,-0.04772618777398971,0.2832015150267887,0.007367731962980996,-0.004867302873843126,-0.023450088188017536
0.7425,-10.112518146551645,0.008544922820171715,0.48156881422320097,0.0064104385256058,-0.002682323689122321,-0.025335189309073847
0.745,-10.036435455885169,0.018043499330143563,0.39398701588516793,0.006499741052631576,-0.000458,-0.02450911617224881
0.7475,-9.862137986566056,-0.14054865855791235,0.11735870576117166,0.007641708602227793,-0.002583800620433622,-0.021434455036531363
0.75,-9.933463510120973,-0.1976087006228291,0.24199092442208647,0.006778884656845131,-0.004310076476224698,-0.023352888190202422
0.7525000000000001,-10.064230057610066,-0.14031572352201038,0.4281727285534639,0.005300206792452791,-0.0002530220125784794,-0.026161762893081832
0.755,-9.949621451214778,-0.08014072495732485,0.3455560072442413,0.005223695526715775,0.002291,-0.026311542546474918
0.7575000000000001,-9.747634315919019,-0.071736,0.08415151863109918,0.005498,-0.0006269624807198901,-0.025809
0.76,-9.828335653078257,-0.07266716275721903,0.31693868469659864,0.004857527994260775,-0.005956,-0.026617111694864592
0.7625000000000001,-9.956125015292644,-0.11763676157111377,0.4110002209242567,0.004665703844084409,-0.005956,-0.026904221043821373
0.765,-9.858195176233268,-0.17054068696940758,0.26512978950764643,0.005756590439770566,-0.0012536382409177376,-0.02489324476577436
0.7675000000000001,-9.749592933385188,-0.18131524870227783,0.12608043671084787,0.007324193713786849,0.000764,-0.02445949999841259
0.77,-9.945177411668462,-0.10101365445442528,0.374847551246856,0.008080581686429519,-0.0014390368331536807,-0.02517407366630736
0.7725,-9.968451679417894,-0.04545507676608056,0.3861094760186847,0.008944033596837932,-0.0027816260582105455,-0.02785925211642109
0.775,-9.855310392451026,-0.015554538772097375,0.2656624625179149,0.007138017080745308,0.0016482913282370587,-0.025750095007166695
0.7775,-9.77954940514519,-0.025665005471668296,0.1825975612965003,0.005001897457228085,-0.001469093693297673,-0.02530653999686076
0.78,-9.90245696320285,-0.06469182677580132,0.35136696371530607,0.004804013722419939,-0.004429,-0.02443713188612097
0.7825,-9.971353096,-0.14391277686486392,0.4074483137297301,0.004845417081081084,-0.0018065818378378748,-0.022367171675675698
0.785,-9.86134436470588,-0.14128670096256596,0.2500195133689809,0.004946465454545459,0.0025577289839572815,-0.02460819443850274
0.7875,-9.762717922165443,-0.15187033487703577,0.20120928620249107,0.005327306866815711,0.002572794474608766,-0.025195430150111796
0.79,-9.789150485054051,-0.16136780075906734,0.24024237630555165,0.005805043276483333,-0.0020733841460484626,-0.025047043276483334
0.7925,-9.978920980806917,-0.13436309919308353,0.34997698743515876,0.0065680877041306525,0.0009977066282420674,-0.026302217925072043
0.795,-9.898383469337176,-0.1388788506628243,0.31309551746397635,0.0053184339097021895,0.0020553481268011696,-0.02639853884726225
0.7975,-9.824114216423718,-0.1581529619404733,0.22571874146707344,0.005525745076165921,0.004526827925943271,-0.024767320815561295
0.8,-9.884356127304093,-0.19264427787087313,0.31718969886644105,0.007889107491375127,-0.0017715398472156205,-0.02623934154756045
0.8025,-10.072372508463209,-0.13696492556038528,0.533174888044085,0.011427767227569064,-0.0015253881993169973,-0.028545383613784534
0.805,-10.000591289476551,-0.12264900431158601,0.3688905507764732,0.012760639007690392,0.003164651962292337,-0.026902349888365085
0.8075,-9.862026659197586,-0.11822735449273063,0.17520687339636154,0.012375555983157227,0.003477046749821246,-0.027060397267021526
0.81,-9.902233795877072,-0.1103246436122931,0.32993001594326987,0.010447343933806082,-0.0009279072434989631,-0.026425044539007046
0.8125,-9.950912956481048,-0.11759827749181095,0.3985755582592419,0.008219766963032287,0.0004702330369677119,-0.028972531586335986
0.8150000000000001,-9.800631704627,-0.09649967340887525,0.18193836474031222,0.008064087044381522,0.003920684721435391,-0.028703183720490945
0.8175,-9.738889551736584,-0.08785224953617224,0.1258767741586197,0.008872585664081051,0.0029357382048440673,-0.02684744854836156
0.8200000000000001,-9.892813662909449,-0.10603543730250557,0.3552139662813196,0.008326659903660848,0.000578489855491272,-0.025640087129094383
0.8225,-9.983841792320973,-0.16318480581841455,0.39505834556905345,0.008133351521739132,0.0029757911892583267,-0.026982844936061387
0.8250000000000001,-9.857903277091355,-0.20984655383468076,0.22359456032317546,0.012347586699813746,0.004734,-0.029277331932877626
0.8275,-9.694902553316606,-0.18070075075427294,0.1166403636882543,0.01141845522345929,0.004040033429512305,-0.030473966570487697
0.8300000000000001,-9.847447613309004,-0.14260096402579922,0.2674598490641442,0.009743940421078234,0.0004248714518679175,-0.029731890879883115
0.8325,-9.889460138380521,-0.15276105508385934,0.2855737352137051,0.012523,0.006355643073038778,-0.02771237056807935
0.835,-9.78018194115299,-0.1520071645542531,0.15444090708987263,0.012523,0.007029480009618266,-0.027904625259993987
0.8375,-9.735545666603189,-0.1471884247560104,0.125538,0.011532552154248976,0.007178,-0.028937447845751023
0.84,-9.85905672809182,-0.11782558117647117,0.264078021348634,0.012101881004304137,0.0016478707604018414,-0.030579881004304137
0.8425,-9.993783050948576,-0.09259169302412099,0.38210117297448054,0.008591391108353389,0.0029801515209804444,-0.03267447838051655
0.845,-9.87377983735772,-0.04827480731560535,0.2191734919841191,0.010204313440019241,0.008329462432920232,-0.03150072166526292
0.8475,-9.794585917319216,-0.09277399576464981,0.06455679095656167,0.011071713271567814,0.007848134380940916,-0.030730470614847783
0.85,-9.767900858227849,-0.18881221898734057,0.09009699620253014,0.01197844177215189,0.005326531645569657,-0.028816300000000024
0.8525,-10.00444048935705,-0.17092411139293373,0.40048917029693915,0.01385021343526196,0.004372256415868675,-0.032038963527802444
0.855,-10.08720584386104,-0.16445871958032143,0.4219611303753806,0.013034440391699719,0.006521342466775446,-0.03341965142457451
0.8575,-9.874804341390105,-0.11792413283075015,0.13143213437162957,0.013595812512633615,0.008861812512633615,-0.03357773538894874
0.86,-9.751149857940568,-0.07028949459571542,0.0546402479336554,0.012392058217000708,0.0068947316378714825,-0.033903
0.8625,-9.904729733539266,-0.05307526135587684,0.27207966590798704,0.012202564331003102,0.00739297080149573,-0.03211460812875951
0.865,-10.008693021979239,-0.033148703584775174,0.38139343916955015,0.013503494006920408,0.007701805370242218,-0.032352857301038054
0.8675,-9.94107763231162,-0.07637768206896677,0.2390099930906732,0.01204387973180072,0.007288170051085564,-0.03244370131545338
0.87,-9.904075408194842,-0.07338841598853878,0.19440379432664745,0.010126407526265523,0.009894942769818522,-0.03265779623686724
0.8725,-9.964487452993755,-0.09729595805862666,0.2826429424699684,0.00928019386833252,0.007935565401249315,-0.02997134639115802
0.875,-10.126098198448155,-0.1487371389607336,0.4379935683047261,0.008901530684222902,0.007895889489771926,-0.03276446743475194
0.8775000000000001,-10.015137329227802,-0.1475001655996143,0.34129825241932465,0.01063362533954091,0.011413806633488607,-0.03461286123615348
0.88,-9.903484495769641,-0.07745988907216475,0.22772923540703865,0.01149653406327764,0.01045104055456807,-0.034667
0.8825000000000001,-9.95072581322276,-0.053204,0.3073197581773815,0.011454,0.009468,-0.03335206815756734
0.885,-10.022925621193274,-0.053204,0.4277492311135687,0.011454,0.009468,-0.03165492579958534
0.8875000000000001,-10.018948746204552,-0.08892181638034546,0.3453958559528504,0.010242644047143364,0.005424521394326884,-0.031154
0.89,-9.876246160330048,-0.08891011913793073,0.09934461660098387,0.007644398610837423,0.005309362788177327,-0.03375721519704436
0.8925000000000001,-9.931042151384803,-0.12606257397933104,0.2724369938066904,0.010223556192097211,0.001833,-0.03457746837446813
0.895,-9.960764978317325,-0.11691733393556225,0.39513695904437773,0.008373727893009105,0.001833,-0.036134715285106395
0.8975,-9.925330620320976,-0.13635618583212927,0.2839640320301743,0.007055337814155048,0.0032111264580323927,-0.03541609427058259
0.9,-9.659063523540805,-0.181136981472512,-0.10533039748123507,0.011046742407362628,0.005426842940179243,-0.03257912879631869
0.9025,-9.816504474985173,-0.1440213910750515,0.13974948972069964,0.010405170672491844,0.0027974988828210826,-0.03442972275550004
0.905,-10.112741537997572,-0.1719969528179609,0.5911391238640749,0.008095749589805835,0.00789098473543687,-0.0372028294854369
0.9075,-10.054926696832524,-0.14841480943932064,0.3241238266213621,0.009067336696601931,0.005655761745145656,-0.03778565449514562
0.91,-9.888463937190119,-0.11484559068808389,0.17074018056101564,0.010596624540877512,0.004282697909374241,-0.03644681199712296
0.9125,-9.928874656990725,-0.17664722097517155,0.3197472779060721,0.00911325086449295,0.00336,-0.03368079976069399
0.915,-9.948750865177386,-0.22539926121687176,0.3542489726999706,0.011508382882440955,0.00336,-0.033489465222853725
0.9175,-9.905874195761822,-0.2608597416112082,0.2749353850437837,0.01294537064798598,0.003163934921190895,-0.035891328336252165
0.92,-9.858863156113687,-0.2268351368723973,0.1809608837103091,0.011703804704483244,0.005874491411582907,-0.0378049377857058
0.9225,-9.862901170248676,-0.1846621084357454,0.1463894747697739,0.011686265631317177,0.0033760841135889873,-0.03842052974811487
0.925,-10.004756340916812,-0.16380631365510526,0.40852875066699845,0.013076287994179026,-8.699466407959856e-05,-0.0371760053359204
0.9275,-9.934892273752064,-0.19165454861724693,0.35892429470324727,0.014237172244320412,0.00627209256190548,-0.03625291387783979
0.93,-9.872069,-0.208034,0.280966,0.014661,0.008157519527953213,-0.036041
0.9325,-9.8503304060976,-0.19444705412176128,0.25301545158480376,0.01723903255444285,0.0036153017898585367,-0.03891709727547289
0.935,-9.983028939422756,-0.07746234944457517,0.4219935082997885,0.017394200465680285,0.0008522481397040742,-0.040582704186272134
0.9375,-9.90336666421901,-0.12235721023226116,0.2981875376326921,0.015026289408572112,0.007197699976055551,-0.03869728940857211
0.9400000000000001,-9.752519570072177,-0.20624526626434903,0.029061380674469728,0.0151830553212638,0.009064102283753345,-0.03862774106259618
0.9425,-9.723217,-0.220588,-0.031086,0.015577,0.0032862008526945994,-0.038943
0.9450000000000001,-9.933051455399706,-0.13359427828684434,0.2714256323771861,0.013454845190803973,0.01055046525382233,-0.04240484730073535
0.9475,-9.962102633533545,-0.11412931910543136,0.32085841421086236,0.011976304332268367,0.014203,-0.040982217738019154
0.9500000000000001,-9.729179624187802,-0.1286005681764291,0.08025092378467161,0.01383324496087276,0.010528592601375217,-0.038440012995020104
0.9525,-9.829530477635942,-0.14643422863458005,0.21106269480579945,0.012654696580443648,0.0040477471898774375,-0.03571957197725633
0.9550000000000001,-9.920542216907167,-0.16032933353701556,0.3202586278918919,0.012384739492361964,0.007493187779083726,-0.0367387618425383
0.9575,-9.904532766000314,-0.16797817825868305,0.21673508435643468,0.012086568970611342,0.008890711063963531,-0.03835300296715386
0.96,-9.798013415398541,-0.1783800820744864,0.1334936042742784,0.012705792551340038,0.009451144740689149,-0.03784320744865996
0.9625,-9.94731465100983,-0.29885557737265406,0.2349911525290437,0.016754531367292255,0.004680050044682784,-0.04090250119749776
0.965,-9.910342429736074,-0.28914570738874007,0.22714916591718806,0.019903070563002643,0.008209662436699391,-0.04042522263687817
0.9675,-9.794729108435462,-0.12631956509488204,0.07502549840314951,0.020447993121438194,0.012687962145584862,-0.039639144539098746
0.97,-9.792519958834381,-0.05450618580107003,0.1192183471993415,0.017531619944774136,0.012311556566594212,-0.03822839367839729
0.9725,-9.89731246579491,-0.0788343356786215,0.2639134485809569,0.01904141357078966,0.012217,-0.03767861886313734
0.975,-9.981268513557755,-0.1390505781826177,0.36926398352475204,0.020311,0.012622882983498344,-0.037568
0.9775,-10.02347179420198,-0.20194114436435734,0.420845617172278,0.020311,0.013327470685148524,-0.037568
0.98,-9.924133050669006,-0.24337001189734844,0.34520508350076495,0.014630495906997124,0.013665013345031802,-0.04142447658697073
0.9825,-10.06009819435048,-0.1772154978901485,0.5470252915082848,0.01748710476024416,0.012467023714036591,-0.04139455630340011
0.985,-10.122464410943527,-0.1275788091904376,0.5094504416168157,0.016124678209954977,0.008948059512645783,-0.043030099538052896
0.9875,-9.992883716341376,-0.14422899479154666,0.35018895505254366,0.013442992620394919,0.012554318119875339,-0.04284542712784386
0.99,-9.825103177968126,-0.10642596954681251,0.09898251858067497,0.016843499731075684,0.009163,-0.03959582151394424
0.9925,-10.027024132317505,-0.1496980048405388,0.4867955818710133,0.018488470772501733,0.009539764613749132,-0.038200545287030534
0.995,-10.031835988873139,-0.1593235758114812,0.47976172514528703,0.016597169624379876,0.010485415187810062,-0.0413217495393338
0.9975,-9.90113478958022,-0.19500955468283673,0.2032997347761119,0.01657829334888061,0.010104879365671626,-0.04209473303171642
1.0,-9.686974320090942,-0.1337374431015915,-0.03461759638626302,0.020238472537992103,0.00842825930357784,-0.04255363407921503
1.0025,-9.902996409242547,-0.053854572061746334,0.33216944516452485,0.01985515320330263,0.009386243958358242,-0.042266301419169566
1.0050000000000001,-10.06160334885671,-0.09357002617214735,0.5197307091816821,0.01857780512892962,0.007641315313787659,-0.04012975527139982
1.0075,-10.037896965999513,-0.19840817716366238,0.32317439243749835,0.017867903305557795,0.008398149622198899,-0.0409271496221989
1.01,-9.788372675496687,-0.16644496121097405,0.042722391939450266,0.019667231296121107,0.013182520908230865,-0.0414618833680227
1.0125,-9.812076882340909,-0.18350421876818912,0.1282452767875371,0.019706568252969413,0.011585480122709102,-0.041587917155667425
1.0150000000000001,-9.954722665714286,-0.13876591032011346,0.31452337661250734,0.01982074211657899,0.0123279801290015,-0.041767031748686116
1.0175,-9.92279701736823,-0.12597458490898286,0.1571282164306939,0.01908737876502084,0.013247704970850692,-0.04222440994170138
1.02,-9.845980248378346,-0.13007656930874484,0.08329436857822672,0.019849639248066632,0.01353339670672219,-0.04279579341344438
1.0225,-9.859832569608256,-0.1009193538822431,0.13983488050668416,0.017716509584799478,0.012297685179451115,-0.0441076017452498
1.025,-10.01724633887804,-0.084888,0.42350728131705806,0.01458348370731719,0.01104476697560979,-0.04261140204878062
1.0275,-10.032755328116394,-0.21012399372340929,0.3923143487171416,0.013400586852315374,0.014022516451814897,-0.04104960884230285
1.03,-9.895397596896384,-0.26003813283855387,0.19553422117590116,0.013134,0.01573,-0.040623
1.0325,-9.79817112404498,-0.2673550919213654,0.03773201928323097,0.01637785151363154,0.015932450319553433,-0.04376529446808507
1.035,-9.975646347895893,-0.25628526474501206,0.34623645784103574,0.018584603141556744,0.010845862294316999,-0.04513096780954605
1.0375,-10.058835842623473,-0.3049472391925342,0.46206659725524557,0.017578589898667462,0.012728216420649655,-0.044749647474666865
1.04,-9.902776530453444,-0.2066469651471267,0.14670236314519275,0.017751192238301995,0.013861807761698004,-0.0468761927930536
1.0425,-9.752779195155645,-0.22658800774336577,0.0038950691453468744,0.01649797586376239,0.01217068808237625,-0.04642911251960397
1.045,-9.864455529901733,-0.2312526405966628,0.20486090723332678,0.015616727472475441,0.009644600932875664,-0.04592827252752456
1.0475,-10.071584499493904,-0.2253908661330748,0.36792831552753275,0.01793218972592784,0.01136518972592784,-0.04432949055218684
1.05,-10.029532229560033,-0.2100439164986246,0.3231724667735997,0.019201617598533456,0.015214305912007411,-0.0436363519248396
1.0525,-9.896629635516836,-0.19637724121497532,0.18021824722392327,0.021151534089945835,0.017656206724746874,-0.04632015670355544
1.055,-9.854115533156907,-0.18162236228384865,0.26056857485589907,0.020311,0.01697748917406814,-0.0479395718252674
1.0575,-9.957509016707153,-0.23275113331158456,0.29465442220772303,0.020311,0.012720717894991058,-0.04610166536885981
1.06,-9.891847989342905,-0.19143501668940532,0.24955648912028516,0.020995566017953347,0.014986191238779319,-0.04558469098743268
1.0625,-9.817368801920397,-0.1715348262350937,0.21018690955552116,0.01994111382995199,0.017627238191110423,-0.04764157565432864
1.065,-9.677626466209855,-0.11302843231977382,0.051398528279805705,0.020213588151320447,0.01972861998572443,-0.04645019651677382
1.0675000000000001,-9.852162660191265,-0.19724395118750557,0.24464276777146216,0.019159696985837076,0.011257469153855577,-0.04619890470887307
1.07,-9.941321448948072,-0.15399288846870732,0.37287849725699385,0.01935326657789614,0.013680579653795,-0.04726512410119843
1.0725,-9.88103767049461,-0.2109233832466712,0.32686573372225713,0.019992189017121118,0.012908221192136964,-0.045404186487000626
1.075,-9.740727595544323,-0.2511869813240637,0.10015843811029171,0.01935522673408124,0.014275884879127763,-0.045317442439563885
1.0775000000000001,-9.77096433564533,-0.17865537747290586,0.12218862427587512,0.018918329576354632,0.011421101886699541,-0.05097273332512314
1.08,-9.973220699467985,-0.1678474257093593,0.3846580444138006,0.017931738364531994,0.01211132833004928,-0.05077580248768472
1.0825,-10.061520787712665,-0.24205168457467005,0.41078738321360975,0.019336572221172042,0.015919144442344085,-0.04940069867674857
1.085,-9.754141821993569,-0.20380624600214267,0.08110825277122753,0.021131580130999174,0.014355,-0.047446842639037756
1.0875000000000001,-9.778029799356915,-0.27099153354769917,0.10126371415982005,0.02055902791473142,0.014355,-0.04716087871858996
1.09,-9.918740266506328,-0.2582401297042558,0.24428255347650774,0.02120224873235985,0.012907267812001392,-0.05037808874217714
1.0925,-9.952014583915494,-0.27679025451643235,0.3185184381314557,0.0216321281971831,0.014744541455399093,-0.04963932343661969
1.095,-9.839949341624317,-0.2382592424215257,0.14590728549576829,0.021799335047334327,0.018426220373692032,-0.048564
1.0975,-9.763669074434675,-0.2604297471698684,0.06246477654034785,0.02123615000855967,0.014526413331258453,-0.04836294530853631
1.1,-9.9701425172418,-0.28465227346346655,0.33997385150178494,0.024129,0.012834199347313856,-0.04948
1.1025,-10.07772944390645,-0.25358851839004004,0.39907039590983345,0.024129,0.01689872250196416,-0.04948
1.105,-9.951087183963578,-0.21901757984184067,0.2622962604601025,0.022369733798226717,0.021058386805655374,-0.05135675538940808
1.1075,-9.796243515233426,-0.1366019412470354,0.05266936263966379,0.02235478996043676,0.021321886466213025,-0.05202681685076752
1.11,-9.909996003305004,-0.18513859644594005,0.2566308101497007,0.02318718502694292,0.018969406231588895,-0.04891799232187742
1.1125,-10.082736384541066,-0.23486568985507297,0.4661237420289882,0.02316259130434782,0.020762251207729523,-0.0505926599033817
1.115,-10.144667,-0.246891,0.528455,0.02306,0.023609135864747534,-0.051924
1.1175,-10.037750882907705,-0.2696896281099934,0.3692604378599371,0.02356235491235356,0.0191604785179033,-0.05051819528453938
1.12,-10.017579887095346,-0.20121141942349766,0.34894113702882923,0.02427773862527719,0.016493,-0.0511464732594236
1.1225,-10.007888606964478,-0.16491163411920481,0.3286751759277521,0.024732585854304653,0.015304154485249945,-0.050836380151715786
1.125,-9.950903141360627,-0.14302347814569538,0.21998815869957858,0.025503393377483446,0.01973898073449729,-0.04881182673088501
1.1275,-9.79965851007217,-0.27543114640501015,0.19185237329436117,0.020425790976439012,0.017944486236802903,-0.049364477463763747
1.1300000000000001,-9.980625277466158,-0.2885175500125267,0.2890656572359126,0.020330096298240376,0.01622510930629279,-0.051752466230838165
1.1325,-9.9942341825478,-0.3270551970823837,0.25200832094735837,0.02283248422692588,0.015882,-0.05273356101345505
1.135,-9.95282449843803,-0.13771224569003165,0.2481973768154255,0.02484140029590104,0.018222800591802084,-0.05300743834343924
1.1375,-9.865404592699493,-0.1726804623089977,0.21170894117147773,0.024550199830220717,0.017640399660441435,-0.05223111570458405
1.1400000000000001,-9.864627603521715,-0.21896788696728406,0.1927664528637712,0.022937511105294343,0.013609726067816463,-0.05226934235336112
1.1425,-9.857215884016853,-0.3454293595394387,0.15921480153599105,0.022346566367143498,0.017625673333729105,-0.05383633565434152
1.145,-9.74486223207312,-0.3524984881429165,-0.021593456435398034,0.023962153818030758,0.02114187868716247,-0.05440701889488991
1.1475,-9.81149458231397,-0.31684641273163827,0.20132305497839442,0.027934692674027827,0.020310793566970665,-0.0579992339318291
1.1500000000000001,-9.93939014709554,-0.23333850974555487,0.3510358467594895,0.02908810110417673,0.023866035045607487,-0.05751848977436387
1.1525,-9.944800573348914,-0.17438311674152485,0.32229961324308787,0.026979936853503896,0.024693161993478138,-0.053935203755614405
1.155,-9.76122009628253,-0.18055405714637304,0.1445029815221786,0.024714140439303492,0.024988644555466687,-0.05570874428597799
1.1575,-9.785962682393592,-0.24148668239359117,0.1352922819475417,0.024485250620386367,0.01924469377100683,-0.0549274555991833
1.16,-9.8253238783182,-0.3707578877926454,0.22316694774964116,0.0258493398184424,0.01609706728619201,-0.05497173634495922
1.1625,-9.960844686192074,-0.26780718812708665,0.23889057783086534,0.026806234304825642,0.01791378908265654,-0.06023152482083153
1.165,-9.987056554811462,-0.17258437332405024,0.20592395467687574,0.02560905670727459,0.022341946327880353,-0.05792260390300488
1.1675,-9.977283,-0.153037,0.191894,0.025045,0.020337952508253515,-0.056352
1.17,-10.012562464255984,-0.1698371463593637,0.31159504281046646,0.025045,0.01723637426717393,-0.0545280965227121
1.1725,-9.918803189461844,-0.24657484556171316,0.16924881310406528,0.025045,0.019808164113416717,-0.05227359402827139
1.175,-9.764855055156021,-0.33874164502681503,-0.07263340286445236,0.028057943881033578,0.017257,-0.056505
1.1775,-9.821396231167723,-0.2730318196538276,0.1531472237957086,0.024348817172111178,0.017257,-0.056505
1.18,-10.01688142195023,-0.19595260973772904,0.3774848652454551,0.02521096458641551,0.019231929419412607,-0.05529805877605923
1.1825,-9.936906714741685,-0.20234287008165724,0.22677197863043563,0.027590856874444257,0.021778099322499897,-0.05325015873231457
1.185,-10.00745828696581,-0.07485724279184762,0.2248457983272183,0.027154610802601422,0.019487065789339873,-0.05620570900265231
1.1875,-10.0090523145006,-0.11220831006794318,0.275178817861425,0.025292753115576064,0.021697902735893615,-0.05539117007593649
1.19,-10.010646342035388,-0.14955937734403874,0.32551183739563166,0.023430895428550706,0.02390873968244736,-0.05457663114922067
1.1925000000000001,-9.972278899221633,-0.2273230058447913,0.2267600705849669,0.022662890198088974,0.01817258393847562,-0.05705694192495979
1.195,-9.992614959789456,-0.21838956025988956,0.23667208994160663,0.02073376194752853,0.020731924941195898,-0.05947047139073942
1.1975,-9.912942899367078,-0.2851358465205264,0.17108722422638473,0.02342122856596255,0.022784661739338387,-0.05735658160860899
1.2,-9.898207825115735,-0.29021848474537354,0.13914451546295342,0.02155620152777775,0.021888652523148172,-0.06147190708333334
1.2025000000000001,-10.027392355442327,-0.2057535914800956,0.4045725119230209,0.022746544424543165,0.02183368080116191,-0.060841561975069534
1.205,-9.905256664521357,-0.2782008912985619,0.2134031354157031,0.02313422440517973,0.02386852482391389,-0.05977560065351564
1.2075,-9.879240834884428,-0.2545720291034148,0.10584760763336738,0.02372287171398865,0.021628395050787785,-0.06108995163400786
1.21,-9.835060110990556,-0.26535492405909356,0.1157808413368844,0.024444929551949615,0.022069293950108943,-0.05915461442480026
1.2125000000000001,-9.96838634678262,-0.34360817347036027,0.32220648932807583,0.023656633644268715,0.018672657960474053,-0.06040593220553373
1.215,-9.91465001565589,-0.3581946842918225,0.21617454321767557,0.024543014852661738,0.02212632093631176,-0.0605711483555133
1.2175,-9.816334802271863,-0.27775422801806,0.059018343065587675,0.028919349453422102,0.021269742989543716,-0.06028583002851711
1.22,-9.78358554902008,-0.245098,0.08610332820007051,0.026807537217746855,0.019320780156306387,-0.059254803251172314
1.2225,-9.925369327569408,-0.2524952696696135,0.2964448797704287,0.024111557443772354,0.017491203707150665,-0.05785449623390729
1.225,-10.041319609551875,-0.38657488773481474,0.3263767115776509,0.026285326949048678,0.017023280785758148,-0.0570439838674033
1.2275,-9.781184234398006,-0.3880347707979087,0.015576911448588339,0.028451015442887705,0.017328656371408197,-0.06303567181429591
1.23,-9.857844701935408,-0.2819738358370941,0.1071243692875795,0.030447443388743754,0.015997704407504167,-0.06370114779624791
1.2325,-9.917154647407406,-0.3387249474074065,0.1893422496296285,0.031307,0.021026831111111133,-0.060606614814814774
1.235,-9.952614173542933,-0.37157146261045737,0.22816029089198675,0.031307,0.02016893934976774,-0.06203643441705377
1.2375,-9.818509055962068,-0.38703850697747944,0.14003550500197343,0.029769251110233076,0.022158579960489973,-0.06364102893717902
1.24,-9.876790272235006,-0.318437198051408,0.1474039219485921,0.02972513872215422,0.020138775255813972,-0.06512158656548347
1.2425,-9.943285440852877,-0.3358588857711431,0.1807397366595588,0.029202557555081755,0.019346401023454154,-0.06411223479744141
1.245,-9.972698276597173,-0.3409346412988249,0.2935342281859646,0.028745285051521678,0.02826544092020191,-0.06624983486220963
1.2475,-9.774548004229056,-0.3534756778934014,0.1375896821224571,0.03089933999682747,0.030849,-0.06485366000317254
1.25,-9.780440024737317,-0.3542887347943561,0.13185547271089762,0.032805221495046534,0.0174621385770039,-0.06543950135094567
1.2525,-10.06384326568117,-0.2605735533161233,0.4246685106502489,0.03011311043170225,0.017750489107175013,-0.06755491135394773
1.2550000000000001,-10.179338,-0.222382,0.543998,0.029016,0.02207653067520979,-0.068417
1.2575,-9.708084689312527,-0.331413629051035,-0.1123224537325993,0.03112884015183465,0.02138,-0.062551231935892
1.26,-9.71072808389227,-0.3978851468626863,0.0070251688979940385,0.03026013375911309,0.02138,-0.0615864940001205
1.2625,-9.875916626049547,-0.3997243394567038,0.22962964273081693,0.030085,0.019546647160041467,-0.06475325802596982
1.2650000000000001,-9.837978570694663,-0.3201551834276555,0.07860556780684211,0.03399235586640567,0.019276294984872842,-0.06586812675565036
1.2675,-9.758400752767393,-0.3060248800427118,0.0038622593842299463,0.034467595864032766,0.021080838483716016,-0.06368289362520016
1.27,-9.817399641113418,-0.28277247964839436,0.19503412023440633,0.03273737605176411,0.018547905720913156,-0.06299336423879869
1.2725,-9.927090435601054,-0.32206153296648726,0.3385168483084048,0.03166111314084621,0.01741,-0.06317455686795169
1.2750000000000001,-9.816761391811696,-0.3332013423388097,0.0305954461387324,0.029789525668056222,0.020721344054915453,-0.0642496170384895
1.2775,-9.609955861274715,-0.34584914312924164,-0.21314283825021635,0.03311487172912361,0.021169344421658316,-0.06061743942755977
1.28,-9.703592862679256,-0.3451556875494246,-0.0582365417851857,0.032287984930658,0.021405653043670703,-0.0609717089820006
1.2825,-9.797229864083798,-0.34446223196960757,0.09666975467984495,0.031461098132192396,0.02164196166568309,-0.06132597853644143
1.285,-9.950680068017379,-0.4034889870622284,0.1624307308827998,0.032298379623733706,0.02414854674384929,-0.0640656203762663
1.2875,-9.728507597370962,-0.39362413699951626,-0.177861373757834,0.03276299315002414,0.02790791599131693,-0.06418624517607335
1.29,-9.787472293482876,-0.3558263359382532,-0.04103308100337483,0.033342163203087326,0.027811176888567293,-0.06505563253738544
1.2925,-9.948476518449949,-0.41397287904636115,0.29513889750096806,0.03538784320260929,0.027794,-0.06428914188087288
1.295,-9.968596636070904,-0.4074343783604154,0.33566650926145297,0.03353423581979334,0.03330091494830107,-0.06758427463810913
1.2975,-9.819077930595268,-0.3407253727212572,0.1099401921291247,0.033301559171653575,0.03331875457322827,-0.06934255917165358
1.3,-9.78922736037285,-0.22875328472753098,0.039042726601339034,0.03790585492351829,0.025775198422561946,-0.06544703781070733
1.3025,-10.157756748789827,-0.19727214604614662,0.49555144069690593,0.0377200745283315,0.028763640288808644,-0.06485394296342803
1.305,-10.210680619133528,-0.3693460190956367,0.6183211119507619,0.03436219405303041,0.031307,-0.06498391497159092
1.3075,-9.940856456367348,-0.4532347783175815,0.1448512107844755,0.033445,0.02453459925960896,-0.064904
1.31,-9.78363633389746,-0.4118122173220488,-0.05596701159283106,0.032753185186660004,0.016423693200597146,-0.06801867717272286
1.3125,-9.970247981289965,-0.32861334767506123,0.2335835853793321,0.036431720217889,0.013836141312070734,-0.06717920146838241
1.315,-9.967936228567359,-0.3721209311950555,0.19976300175814332,0.03994166154430975,0.024324001824661053,-0.0637493167498219
1.3175000000000001,-9.752782553442293,-0.45537229939985696,-0.03899288841181833,0.040365418023908264,0.027947,-0.06552876460600161
1.32,-9.748097602137697,-0.39600703483350763,-0.0803019865055084,0.04007867135916577,0.026753793985069274,-0.06804976103803774
1.3225,-10.015611851079104,-0.35475531898307744,0.24817087497205959,0.03824570477134985,0.019460919222353375,-0.06852105974970485
1.325,-10.130454871914175,-0.3254374669479273,0.39786480433944066,0.03871546094503371,0.020561574011571715,-0.06691500863066543
1.3275000000000001,-10.13032,-0.319225,0.398135,0.039095,0.026557629349352758,-0.066432
1.33,-9.764383539405447,-0.36078837000361247,0.05885372001924016,0.037364389481285266,0.026555015491635466,-0.06885561045131797
1.3325,-9.861054984551682,-0.41970927648351686,0.15085757237139846,0.037936248160535126,0.020050408173275948,-0.0693299268418538
1.335,-10.042333337251534,-0.318297815581587,0.3734885907874261,0.0390498695256871,0.029693753816536883,-0.070763559522208
1.3375000000000001,-9.789937181135164,-0.24006206272345096,0.11349102229176622,0.03634310984430329,0.034056,-0.07059277746107583
1.34,-9.658057,-0.223577,-0.02989,0.034972,0.027697052300015273,-0.07025
1.3425,-9.804290993083825,-0.4102448755087936,0.08138124122922688,0.036913697017816625,0.018190640229582593,-0.07056022398660769
1.345,-10.139655186592808,-0.4626026878915756,0.4494436702557409,0.03787175305126696,0.019747638062463085,-0.07774534925633458
1.3475,-9.901486062472102,-0.2695292755589671,0.10058514840843916,0.03756184994743986,0.03087052015118425,-0.076329355053446
1.35,-9.723795994708551,-0.2887792806000125,-0.08450867217859276,0.039075296911356576,0.025574694277446217,-0.0739656778598003
1.3525,-9.90523074807101,-0.2777855395471398,0.15199741288205626,0.037814249148717914,0.01858466779013796,-0.07286164380907297
1.355,-10.06854524061809,-0.27218320421252823,0.30172032035659097,0.03783430681564245,0.022002365263282933,-0.06990879748009036
1.3575,-9.9641248658034,-0.31556268970607293,0.1431075316590522,0.0388870711071195,0.028835426642717023,-0.067458857785761
1.36,-9.642417123694369,-0.4344318240205048,-0.09965575515957253,0.03913483702306079,0.02456328397856935,-0.06617192474260421
1.3625,-9.767017982818093,-0.5086546706031957,0.10716209743305052,0.03749321675276163,0.022297,-0.06867695174441714
1.365,-9.887595620724516,-0.4867103547430505,0.21954630416175283,0.03862090527379945,0.027230555821398484,-0.07143300997472618
1.3675,-9.882418891351872,-0.32028279767977136,0.16239119442952826,0.044056421169702854,0.03027139582933823,-0.07525138269415152
1.37,-9.809667644687316,-0.2871221170135777,0.19749008708666307,0.04147300552036194,0.03520125000812114,-0.07378728308852532
1.3725,-9.744576611240282,-0.3580314759276033,0.058580227845454746,0.04035800389140269,0.0247039324353171,-0.0731370175449588
1.375,-9.854213546538169,-0.48022818336292167,0.13781626604108546,0.038288440273903115,0.020006,-0.07262121455744357
1.3775,-9.808157753346066,-0.4091355559840919,0.07634720518695608,0.039148503649960184,0.028265223643595645,-0.07559931792521869
1.3800000000000001,-9.729866136817817,-0.33170205622175736,0.006225425790737583,0.03934449324146767,0.03289050675853233,-0.07676181157506806
1.3825,-9.679311814130214,-0.2888483797981082,-0.017210301013727013,0.0384893014709181,0.0337456985290819,-0.07616312133098327
1.385,-9.9252594455401,-0.27454368902383,0.3176047953792188,0.03975899215676787,0.025965258889560933,-0.07284454180234666
1.3875,-9.987435169783476,-0.35074714554251707,0.38736294048626946,0.04004945290915688,0.033519775226805236,-0.0703261582920044
1.3900000000000001,-9.933288250784978,-0.34192775171135714,0.22607311151631798,0.040400868766455406,0.03224310301316396,-0.07299749915163364
1.3925,-9.87599458821386,-0.27295055481346336,0.19753940065267417,0.038172606320791995,0.033298393679208005,-0.07615585050297037
1.395,-9.886832261305482,-0.20299087425587417,0.2471420184856401,0.034756586005221905,0.029300466370757124,-0.07441488036553522
1.3975,-9.894786,-0.1901,0.25825,0.034056,0.024206545727065903,-0.073609
1.4000000000000001,-9.855372569459325,-0.3505028723818944,0.08776435470042326,0.03674841928884583,0.024907595859717704,-0.07161881763273241
1.4025,-9.849929289418725,-0.33133832571839505,0.07395975415367542,0.0361031170000799,0.028690596261293794,-0.07488486802270744
1.405,-9.802144192209461,-0.2717754561966003,0.12967264877813572,0.034741199136426267,0.030200050799265046,-0.07229958928801096
1.4075,-9.927072931171287,-0.3805718535725922,0.15932707626753648,0.03212828903425778,0.024637385615008233,-0.07158596784013051
1.41,-9.96295562850619,-0.567244131993744,0.2003319542651107,0.03593146144453766,0.023073622881865107,-0.071929
1.4125,-9.908027089000312,-0.6156456737699786,0.14962809811970915,0.0354902191789407,0.027328807051081337,-0.07599628912566611
1.415,-9.834547674448515,-0.5015956773803022,0.054613280666743924,0.03873508904125793,0.03277205585057344,-0.0776528639555503
1.4175,-9.80525262256722,-0.40000267870937634,0.04057563137713344,0.040112278064063596,0.027656732167407116,-0.07737812442366145
1.42,-10.065342431103314,-0.3775750945709277,0.2991407338003379,0.03805954661996507,0.025136229281961436,-0.0780923560070052
1.4225,-10.021699286451057,-0.406504,0.1969966016963597,0.0376451794264095,0.028404963663656378,-0.08036624902855756
1.425,-9.89662198290212,-0.406504,0.10749205339272482,0.0358862488528191,0.02957779732731269,-0.082418228057115
1.4275,-9.729919864995312,-0.35866535523601145,-0.06037500367927412,0.03506487234760863,0.028847505861206633,-0.08173642287277275
1.43,-9.898356938603355,-0.38597019385572506,0.14188436800644183,0.03381078989628951,0.0265001139525237,-0.07799510003687499
1.4325,-9.996790403829394,-0.5455473596904258,0.23904398168082766,0.037541337080844846,0.025809,-0.07461033293850412
1.435,-9.983685409251072,-0.5086594265654866,0.13549165043879569,0.04122102290993077,0.0318389899439131,-0.0798669584295614
1.4375,-9.8680985486758,-0.37404818812785384,0.06510724420091324,0.038992972420091324,0.03281171178082192,-0.08040334337899543
1.44,-9.939083153860578,-0.3706135830258752,0.07846453835494643,0.0406502651421613,0.029691839079452123,-0.08020863063622527
1.4425000000000001,-10.013875447107079,-0.5378966764182935,0.19710125751096452,0.03946732562930486,0.027395421577958573,-0.07861079654664987
1.445,-9.831962836814151,-0.6147742364601769,0.01601257557521174,0.0385452442477876,0.03245516283185865,-0.08107163964601782
1.4475,-9.690083847583713,-0.511647798748624,-0.15728455468637054,0.04169013002986953,0.03561226275113977,-0.0817489524351517
1.45,-9.725140600095418,-0.44514449360687086,0.025067263072512613,0.044037420038167914,0.037074962499999975,-0.07988178616412218
1.4525000000000001,-9.913704279882355,-0.4592599313042817,0.2694607651861709,0.04169718599891617,0.0327029502128645,-0.08169202489356775
1.455,-10.02211443578531,-0.41717036772693306,0.2697971924165183,0.04238346781597832,0.03437071887707167,-0.08289183650259709
1.4575,-9.790066931465427,-0.3856699741555886,-0.08734395227562622,0.04217866014945331,0.036793577739321966,-0.08240017713206953
1.46,-9.829684472621823,-0.39970094450246607,0.18321173081458075,0.03695755815425338,0.03130707564673328,-0.08408914127301165
1.4625000000000001,-10.020126363782948,-0.4377895750691875,0.34763288870172937,0.03772780920466855,0.02899506082300553,-0.08534198204788841
1.465,-9.983819595252958,-0.5341570892546116,0.21376840439487174,0.039178656189693684,0.03109479389599734,-0.08167954991430898
1.4675,-9.800141046694652,-0.4908258186183726,0.06368048368433965,0.03712837552890377,0.03299757391700649,-0.08817323831854162
1.47,-9.921554150115135,-0.38933477888702434,0.33432325630126836,0.03309529417606145,0.03376595954425521,-0.08942139336771407
1.4725,-9.970357292310437,-0.34659093595004553,0.23222668874220034,0.03589673716324696,0.02899464942016076,-0.08313563193577188
1.475,-9.947254118807336,-0.4450380944036757,0.06712850688072844,0.04014257055045886,0.031027975688073625,-0.07712703559633009
1.4775,-9.663534134843884,-0.6033367138091013,-0.1762586604817165,0.037293849812667194,0.032223,-0.08143825241748448
1.48,-9.649688,-0.609756,-0.187111,0.03711,0.029795701238348887,-0.081703
1.4825,-9.924782764197587,-0.46540219411013983,0.164729486684,0.04253170467501773,0.028594922287875173,-0.08135887629402029
1.485,-9.963674376166392,-0.4513278308295906,0.13139488141810315,0.042342113410541234,0.029824787189789696,-0.08239976951075399
1.4875,-9.82702859269224,-0.5349462082046191,-0.027508930011629393,0.040310375087194775,0.03553673851519693,-0.08199045155289818
1.49,-9.835682624528609,-0.4660204316047087,0.03873756945810437,0.04083375593986714,0.034443328078312574,-0.08253903498892902
1.4925,-9.856527,-0.435796,0.076518,0.041233,0.03376176966845949,-0.082772
1.495,-9.94390779066476,-0.6552004792348306,0.15867631200383145,0.038928404533715766,0.0387560760784317,-0.08422816114777629
1.4975,-9.768470565120756,-0.6411925023134176,-0.12021761186126557,0.044477917000181603,0.03822054568609638,-0.0870848799903154
1.5,-9.813621977301615,-0.5630319861993827,-0.030674514799346284,0.04534998492827311,0.03366472065855578,-0.08950813715876763
1.5025,-10.132533933774553,-0.41831098457084104,0.37216718539812854,0.04457189505687696,0.03387545505687691,-0.0905747366287487
1.5050000000000001,-10.141410494785774,-0.421690811650443,0.3842964838315357,0.04751193665043842,0.03918553367575499,-0.08724819204965893
1.5075,-9.891488272741265,-0.4234943429682725,0.018791510864188066,0.047523312919155694,0.03585367838311416,-0.08672855287667597
1.51,-9.727653097485714,-0.37521587274285684,-0.10160970167618948,0.044757178685714265,0.032529,-0.08603532268571427
1.5125,-10.15119942515863,-0.41804350894669895,0.3922601562817274,0.04175715066624361,0.032569380552030354,-0.08373861167512697
1.5150000000000001,-10.091887617050435,-0.4805483961766821,0.26385043624908106,0.044260597045619215,0.03711,-0.08082559043205415
1.5175,-9.860397317808344,-0.45066663768283766,-0.01416457015207162,0.046192983664011644,0.03711,-0.08237200591841665
1.52,-9.903960705996276,-0.42573891574487943,0.09756204518622066,0.041118980637802616,0.029169,-0.08464328973929236
1.5225,-10.028715865474858,-0.49176430002793203,0.22924791125698135,0.042516959930167575,0.029169,-0.08417709324022347
1.5250000000000001,-10.070255974678584,-0.5955314446185939,0.2763051070405286,0.043066,0.02952609082894579,-0.083994
1.5275,-9.821682340143099,-0.5981239175894412,-0.030926842518695152,0.04359361798696138,0.03384587209731293,-0.08768525411035155
1.53,-9.72548757791411,-0.6444375260916646,-0.07930762484301544,0.04346590748466257,0.03488803725730782,-0.08970229928545652
1.5325,-9.832282632347715,-0.6895358723477154,0.038996625989846496,0.04485764256345176,0.033604516446700525,-0.089797
1.5350000000000001,-10.15931486653312,-0.5637386512915796,0.26071766916638467,0.047687427592128996,0.03265560937388189,-0.0947592821323797
1.5375,-10.233141,-0.52726,0.307867,0.048258,0.03917824082503585,-0.096059
1.54,-10.067064559013092,-0.4089031550335329,0.1948474016863596,0.046413622331523435,0.03741774283296061,-0.09501602333439793
1.5425,-9.860295747194371,-0.4542805008970971,0.08270089776605172,0.04459467067722076,0.033012947299912054,-0.08790976513632365
1.545,-9.820007756113931,-0.5259505747270123,-0.016535353053241206,0.043944852927406824,0.032471668977741716,-0.0896435583465259
1.5475,-9.828445801926373,-0.5152801395588691,0.034300308038721104,0.04341152801967627,0.03457246422405596,-0.08900826682005708
1.55,-9.841909357448186,-0.4906713190900255,0.04936385968264202,0.045393388487694364,0.03493854141839376,-0.08801123058613988
1.5525,-9.962982897765881,-0.4850296776634861,0.10741738745636431,0.04907646680474748,0.034361,-0.08717608894577612
1.555,-9.995425163038217,-0.49958472456207165,0.10010836386897766,0.04777659459767389,0.03848136272489915,-0.0904300867647757
1.5575,-9.975710540450985,-0.42667907458342913,0.07295502416805011,0.04701623388559219,0.03715104259197716,-0.0905252874103964
1.56,-9.915671769894658,-0.46904681734834963,0.026250515989828034,0.0435814185978931,0.03180545269887379,-0.08922817965855426
1.5625,-9.97298193096632,-0.5418706752832053,0.1268629560556527,0.041333986999163685,0.032785639701969134,-0.09081794655211739
1.565,-9.857048228699993,-0.6092703335804663,0.022472112616649054,0.041815976801738416,0.0417772718956919,-0.09285644474498271
1.5675000000000001,-9.849978561990612,-0.5441749296713573,0.012768299276997228,0.04592414213145561,0.043038636112676006,-0.09357650169953054
1.57,-10.003043786388139,-0.5299163087021022,0.29876707846725437,0.04617952497404197,0.03673569682571052,-0.0938905565933251
1.5725,-10.033696032015227,-0.535031,0.27285303651677334,0.0486103648060909,0.03517000039019748,-0.09166274507732572
1.575,-9.930527380145744,-0.5355134004778401,0.018661182272135896,0.047198139242623414,0.033153450221001135,-0.09120588744474972
1.5775000000000001,-9.84290590959889,-0.5264640149239276,-0.017909626583678236,0.04618807674734899,0.03275918906639005,-0.09218254661134169
1.58,-9.879807522845981,-0.5106747217506102,0.11400449562837936,0.04461910120293381,0.032834,-0.09263064861613687
1.5825,-9.92335686238752,-0.5767073176223323,0.06280878934646808,0.04326620885385878,0.031044277530377654,-0.092241
1.585,-9.904699525491024,-0.5726155187328413,-0.05409357068637718,0.04550046648363247,0.03131857047518477,-0.09320124494192183
1.5875000000000001,-9.918351154638202,-0.6025500782685642,0.023420643722362217,0.04432524932476252,0.034265798478504625,-0.0920571681075661
1.59,-9.971105395627497,-0.6398620237400398,0.11740321619522062,0.043609286030876646,0.03467702813246979,-0.0920066123754982
1.5925,-9.968423384716692,-0.6508327020174524,0.032261605449677364,0.046768366831879016,0.03306275764514262,-0.09453946694589876
1.595,-9.74992909504489,-0.5885314350192388,-0.17656366249737473,0.048237263961758176,0.039526386321557604,-0.09516466878395707
1.5975000000000001,-9.880965607187877,-0.5904755354361455,0.07189522742123353,0.05061949092785149,0.040786238828478115,-0.09275665150884997
1.6,-9.962560450003972,-0.5874910179855543,0.241055612493061,0.05201770323041516,0.03493954750376994,-0.0939001894277324
1.6025,-9.974891,-0.58704,0.266619,0.052229,0.03856457144752436,-0.094073
1.605,-9.763660021927258,-0.5547615314218237,-0.01961131862068649,0.050895014926783194,0.04144031533301841,-0.09467964559282002
1.6075,-9.862304367168454,-0.5486240719027577,0.04973512584696023,0.05237494128097238,0.031552411026959694,-0.09403064410160511
1.61,-10.000344053772299,-0.5560544016520995,0.2946443846665874,0.053161073583143724,0.031141238007901546,-0.09476449289117693
1.6125,-10.029610785322639,-0.5177825702142936,0.3081523483299416,0.051819127283610655,0.03603011533580758,-0.09725694787501502
1.615,-9.883358956517847,-0.5235840514642477,-0.029848817014958562,0.05178306909647779,0.04233850240075389,-0.09138215211685716
1.6175,-10.033346664930152,-0.664976112252611,0.23967519226434325,0.04939846563211653,0.02654206724498172,-0.09458593460500053
1.62,-10.219139340164347,-0.6988237368846123,0.5214915316469189,0.046014810949641834,0.03001988328911859,-0.09684149924873822
1.6225,-10.000757680815582,-0.7286538769612766,0.16110510605934936,0.047690530083038786,0.03461994195510987,-0.09855302400065777
1.625,-9.635323236510576,-0.7008824238174471,-0.3158904806275255,0.05006794247682434,0.031062921797004994,-0.10058704801521273
1.6275,-9.712346667820539,-0.6211605656141204,-0.10163757610444552,0.05065464619759746,0.028860767514096552,-0.09938110927678356
1.6300000000000001,-9.988960965207172,-0.6549687226722252,0.28216527565336413,0.05016364836479527,0.030725145410639948,-0.09741840328021566
1.6325,-9.921098551977181,-0.7842037691397318,0.0628737693108302,0.053974432476235804,0.036953027618821264,-0.09935741499524721
1.635,-9.76952848596958,-0.7000392234363115,-0.18999240133555223,0.056542920384980995,0.03590706807509505,-0.1016405845769962
1.6375,-9.791427100639222,-0.49561266679013016,-0.08845203269012838,0.05489622265368299,0.034229381755182565,-0.10082354763128029
1.6400000000000001,-10.002258593387907,-0.5308134739876951,0.10964670674234808,0.056139680064520046,0.030689443302467118,-0.09766698244578514
1.6425,-10.037837031625648,-0.7177798603691772,0.1986005540673594,0.05484693246761653,0.03331054697538871,-0.09680488213406735
1.645,-9.854823543042734,-0.7729424921846152,-0.019672034488891516,0.056116025244444465,0.041916331076923156,-0.10106684969572655
1.6475,-9.722358221574245,-0.7027643750494434,-0.12562882321968133,0.05799900011075071,0.044910904358832354,-0.10232
1.6500000000000001,-9.857228115986784,-0.721488796912904,0.11789536273431173,0.05983732613009933,0.036040161190737885,-0.09981168048511554
1.6525,-10.058852151006684,-0.6339279135366501,0.28913173741691856,0.05717388900297727,0.03547767493039358,-0.10328625470024962
1.655,-9.986898694798533,-0.546808372747252,0.17198707897435633,0.05436422725274723,0.039084403956044005,-0.10216976161172156
1.6575,-9.746012323572305,-0.6442958763885456,-0.0919522835820865,0.053653373682407614,0.041539,-0.10047962226572055
1.6600000000000001,-9.753135028787852,-0.7374656228422157,-0.02095260330522028,0.05506846897305006,0.036167595417309274,-0.10344832011872274
1.6625,-9.949061454882836,-0.6930186361033336,0.2144779494361434,0.05592807572582583,0.03492662986483245,-0.10518181812365036
1.665,-9.964544834798781,-0.6470874636165247,0.21378949852977475,0.05657930362368094,0.04440334818815953,-0.1055324470255768
1.6675,-9.711911349726348,-0.5129218737184771,-0.1554445374661632,0.058297235328206035,0.04354438233589698,-0.1048641540881178
1.67,-9.80036875539736,-0.5717390656460213,0.02079182530471496,0.05494721580692363,0.043097523520234035,-0.1003672628473917
1.6725,-10.017754099080971,-0.6223496066812556,0.14543415683605027,0.05760994209255224,0.04034446746737973,-0.10002800059648273
1.675,-9.8872341954958,-0.7256934725726786,0.0910741275422249,0.059710426726416195,0.04472964982190064,-0.09680207988050088
1.6775,-9.644282837416275,-0.6932136694010026,-0.10049905001670437,0.06039456363694217,0.05035997936838754,-0.1003576660122504
1.68,-9.812924228454472,-0.562830772589983,0.14191531387436998,0.05728861600564586,0.04006398959774218,-0.10243948684544812
1.6825,-10.00775831961661,-0.5610060974334615,0.30566981753168954,0.055100557084917554,0.036652,-0.10226397077946767
1.685,-10.066574908550566,-0.5182145389314816,0.2292722581331348,0.057533343838383946,0.0405090485432641,-0.1003588358476329
1.6875,-9.765165488390565,-0.66029861523891,0.048013204326041795,0.05540006269094464,0.04682630239520958,-0.09944998955150923
1.69,-9.805764972315776,-0.6177847080655026,0.006648079242332544,0.05950953749480622,0.04095553257485043,-0.09876507708419897
1.6925000000000001,-9.968754633642478,-0.6950733760153549,0.1127223624240548,0.05888102073552919,0.03797017804285246,-0.10015927820275032
1.695,-9.99553020390623,-0.5978137346071336,0.1205919155660251,0.05516724374131216,0.03711,-0.10591443808693622
1.6975,-9.825329723465876,-0.5047272867045361,-0.07784815821105767,0.05779796411552926,0.044615014609168765,-0.10420499415633248
1.7,-9.619054822192155,-0.56297488227334,-0.25627643104932685,0.05709461596752374,0.04462414166564162,-0.10166082302866285
1.7025000000000001,-9.841322493307057,-0.5347234104708548,0.08667700927835498,0.051166295278807165,0.03991859878539294,-0.10403981689407697
1.705,-10.047589657971855,-0.5444875444821377,0.20445502497293294,0.04965846631540963,0.04189421199566959,-0.10252396780945496
1.7075,-9.895267871579433,-0.665185757229224,-0.14512374554928772,0.05182647391418633,0.04604536505295712,-0.10330327565829146
1.71,-9.821855,-0.713773,-0.290531,0.052687,0.0472501396028403,-0.103847
1.7125000000000001,-9.866987063703233,-0.6302557855452458,0.024979966421510236,0.050208945378957315,0.048051238823153236,-0.10837269542692705
1.715,-9.842033560004836,-0.6145953475311489,0.1379289559550009,0.05156238930204439,0.048411,-0.10447974876013034
1.7175,-9.84374910564319,-0.6285283872627586,0.1260960513032474,0.05237319191902151,0.045434232256431915,-0.10327853541965415
1.72,-9.869054049023317,-0.6508114959691509,0.10834537871422566,0.053048571652708314,0.04803908786166172,-0.10337519874917153
1.7225000000000001,-9.87523364955262,-0.6963402132208275,0.13361481981213366,0.05554922149339293,0.049175914516796745,-0.10393567417290243
1.725,-10.010033772728374,-0.7275979484655202,0.20732966720423973,0.05625126525454325,0.04948,-0.10440673474545674
1.7275,-9.824766139660312,-0.7703713838226623,-0.07982472301411855,0.05332199550594047,0.04948,-0.10545381419663505
1.73,-9.780000022766355,-0.7835442683738317,-0.14652933237383228,0.054613630355140164,0.047346815850467315,-0.10608344620560747
1.7325,-9.853062338849465,-0.8658647938948811,0.02337433463239902,0.05651171305022897,0.044121878326217,-0.10581942741712601
1.735,-9.972916618110013,-0.7451871799660673,0.12320894752120372,0.057601930802035406,0.039269711940876924,-0.11138789748970232
1.7375,-9.843698778194206,-0.5678758464508773,-0.07554330664395667,0.057727,0.04563326700738232,-0.11187655229982962
1.74,-9.79247402891103,-0.5006580673988978,-0.23297071869183078,0.05740085461493378,0.04120630157543078,-0.1092512132458094
1.7425,-9.939797051750084,-0.5756052551705525,0.04955112857577543,0.056180322475676975,0.04167521699449067,-0.10718626461141723
1.745,-10.184994191907554,-0.6943644677040451,0.396952098010263,0.05085672502799919,0.05161414924818366,-0.11267149013701935
1.7475,-10.038724461546611,-0.6793221199325454,0.11574929488154595,0.05200851163575048,0.054062,-0.11336804904199789
1.75,-9.675608955071793,-0.558271880963409,-0.43229064752200097,0.05507092820750347,0.04499373784159333,-0.11206195321908291
1.7525,-10.042354217745542,-0.41310878676828444,0.17396741294652274,0.05521185312845723,0.04560242557836496,-0.11062598049416114
1.7550000000000001,-10.16525544544807,-0.44855349129932554,0.3904909453767771,0.05757388818684707,0.051606441568531315,-0.10570469817332491
1.7575,-9.98754993536786,-0.5942943390124804,0.1303575865466836,0.055981627036672914,0.05375255506994333,-0.100429135984877
1.76,-9.492466,-0.879364,-0.333572,0.048869,0.0512898599845871,-0.103694
1.7625,-9.492466,-0.879364,-0.333572,0.048869,0.0478723065741894,-0.103694
1.7650000000000001,-9.867308285765215,-0.9207991161895369,-0.06761788870466756,0.055639048744278656,0.043747474858344446,-0.10714027719411137
1.7675,-10.056975320003097,-0.7381210009007829,0.17669095693236944,0.056320128695248384,0.05054862658721585,-0.11208016544807319
1.77,-9.916053645689276,-0.6765643216192563,0.1738147471772419,0.05192388547045947,0.061007775929978206,-0.11055703597374175
1.7725,-9.756546177243525,-0.7578430761960928,-0.049937065291347754,0.051705742577919475,0.053768465785572095,-0.10837353775368674
1.7750000000000001,-9.70887,-0.790292,-0.137494,0.052076,0.044632029642490294,-0.107818
1.7775,-9.78961655329376,-0.8541230142009072,-0.10430197939206592,0.051424129237710704,0.045311319563049554,-0.11099780529090501
1.78,-9.815300184051917,-0.8022163692437918,-0.0638482497404057,0.057137279576749446,0.04844415176636562,-0.11498354965011284
1.7825,-9.709618576106097,-0.7478274067155762,-0.006364449469526565,0.05792800174379232,0.041666427522573435,-0.11215943624153502
1.7850000000000001,-9.919237989029211,-0.6661673933576594,0.07719240641606337,0.05625554048175171,0.040775,-0.113438163051095
1.7875,-9.9783487300008,-0.5816644869231354,0.07986401985123515,0.055999635223546354,0.04488717902903321,-0.11124289719267365
1.79,-9.835091889414619,-0.7335570060626712,-0.23708759677435726,0.05751882087928106,0.05041215898955558,-0.10581385010930279
1.7925,-9.85234748407961,-0.8486668133802249,-0.11411798995124459,0.057229803395412046,0.04795716383982099,-0.108443434462473
1.795,-10.045762841372449,-0.8916040530619965,0.23773708814007338,0.052636357832465876,0.049050945149077034,-0.11514797060104096
1.7975,-9.99593233432314,-0.8397221284414425,0.0797094216022129,0.05409353955696716,0.049633,-0.1165849272886066
1.8,-9.801956552028257,-0.7761906725545122,-0.30977597673286233,0.05739601615300286,0.05026189640638326,-0.1178083323181874
1.8025,-9.939343929521272,-0.7286080117433207,-0.0909366701715909,0.05582355637702735,0.049855392111572513,-0.11848291142834756
1.805,-10.097223269100539,-0.7262137159975912,0.14101402994821952,0.05448024504274535,0.05274335749066815,-0.11828707278988562
1.8075,-10.106928076215699,-0.6559357378302452,0.13666651498404442,0.05447619044671347,0.0514891402744096,-0.11645852116783655
1.81,-9.89185235167248,-0.6796087491390747,-0.05038904178206467,0.05692890936062621,0.0559009594990971,-0.11195423519807332
1.8125,-9.866647053462081,-0.7547832766525358,-0.08693526032344166,0.05818276110849427,0.05119527837965144,-0.11270123480923222
1.815,-9.926570572256477,-0.8292310999603693,-0.02778074556550881,0.05840778049298566,0.04845627971150037,-0.11273721794404377
1.8175000000000001,-9.873605633308985,-0.7996823934084953,-0.09979457302207054,0.061087,0.05045756829813151,-0.112552
1.82,-9.908778528016516,-0.6686140013403175,-0.02480398768937403,0.061087,0.05316962289344139,-0.112552
1.8225,-9.97386414,-0.6106268261055778,0.09401630334661415,0.05655145909362546,0.0511153067330677,-0.11433034663346615
1.825,-10.019128870420545,-0.6818749008363749,0.07111368057486363,0.05432448575803979,0.0456130634468136,-0.11676100647897276
1.8275000000000001,-9.930873217809616,-0.6496276631320343,-0.09674770833163618,0.052873575312180045,0.049002131791197764,-0.11599285772773792
1.83,-9.845975864297381,-0.8330405710524533,-0.11602076882206526,0.05160380614656088,0.050549,-0.11310686121936772
1.8325,-9.842822300838616,-0.8837253127645042,-0.07418138330570359,0.05081283287176987,0.044399466572403685,-0.1173596773476353
1.835,-9.985702283988296,-0.7538343027986366,0.05876563009263586,0.050715056099463675,0.04147191497805952,-0.11823775110677717
1.8375000000000001,-9.875115772265985,-0.6902724146864139,-0.08010623309172096,0.05573086385124519,0.04873346328395887,-0.11343566158209865
1.84,-9.70213818842257,-0.704164251751087,-0.3024708410998631,0.05924689719247475,0.046449700549927385,-0.10704858379160614
1.8425,-9.761651155888812,-0.8928059196636322,-0.07056837393755022,0.05826475754574475,0.045357,-0.10549087877287237
1.845,-9.852561198046422,-1.1819866948936135,0.03314506052224382,0.054627238172147055,0.04672096015473886,-0.10782570250967113
1.8475000000000001,-9.826678784978025,-1.1316579567399054,-0.07537778250739827,0.05652403240910924,0.047363789861765905,-0.11594730736556183
1.85,-9.632289369925717,-0.98912218417143,-0.38205035553392397,0.057060649896505514,0.049291305272129646,-0.11870974503835381
1.8525,-9.842848732668871,-0.8516338384695329,0.0766426049881923,0.05528121608880495,0.049633,-0.1200525644024563
1.855,-9.884302032697214,-0.8849448245063768,0.17953629197921514,0.05783393151629663,0.049633,-0.1197689981483231
1.8575,-9.760813193954743,-0.9819271061876849,-0.05442669712928444,0.05993319672733022,0.048758543839215095,-0.12082271240386133
1.86,-9.534953448685174,-0.8889571301573996,-0.38667755412964355,0.06111534604629633,0.0497510022222223,-0.12369293261111126
1.8625,-9.490674,-0.85605,-0.445959,0.061239,0.0488809014014839,-0.124311
1.865,-9.883664491088636,-0.8621032780582986,-0.013112909282572194,0.0642036125496728,0.05537062416656748,-0.11593447162879243
1.8675,-9.972178249448818,-0.859802969670227,0.13707034326654513,0.0650795562298277,0.056658,-0.11591407253137909
1.87,-9.830262519916626,-0.9405605913595738,-0.00024797824201153174,0.06239559117322527,0.06126324396714509,-0.11741841757018517
1.8725,-9.825525123248573,-0.9496239433064704,-0.09484135255144507,0.06272591231359051,0.0555880912197792,-0.11824857584226588
1.875,-9.954019134675294,-0.9980611881140665,-0.037922387970285173,0.0644540848310568,0.04784144332614426,-0.11762856625928589
1.8775,-9.964025757291438,-0.9380374158051863,0.046494484958364404,0.06291547580832683,0.054834061668499405,-0.12273280220581291
1.8800000000000001,-9.949658442764008,-0.9066822734318153,0.039090257858622815,0.06202970131119521,0.06411030711268509,-0.12164401246245857
1.8825,-9.839107444458776,-0.9750870576226184,-0.01864933161180299,0.06305287896404518,0.05840905537235536,-0.11924559104449288
1.885,-10.11584099251819,-0.814489270956521,0.24285625530434896,0.06298060618988466,0.05153612820585623,-0.12408868594143746
1.8875,-10.042869312237736,-0.9091369687762236,0.12829132790956996,0.06721774378693149,0.05718332912563142,-0.11839533297936129
1.8900000000000001,-9.776529575214912,-0.9910470907179989,-0.268986229008054,0.07092875082191795,0.05788926494567768,-0.11836776555503092
1.8925,-9.8801046251833,-0.9297131974664274,0.10525016682395849,0.06537226770235927,0.05852875800362973,-0.11987447602903806
1.895,-9.797816465899576,-1.0260331178632796,0.17767993553539074,0.06236926783303083,0.05726957871748335,-0.11784012440653356
1.8975,-9.840305243675367,-0.9908986582601159,-0.0296641135893963,0.0667716188406025,0.05401098794542161,-0.11870082914109945
1.9000000000000001,-9.693764337389608,-0.9473532820612052,-0.320649657021911,0.07271605820733068,0.05284,-0.11873043960324178
1.9025,-9.950437204315467,-0.8482791517129302,0.07979034095585191,0.07045429868769705,0.050727041899053554,-0.11977281496214516
1.905,-10.124566876210526,-0.874712875368422,0.29654998021052714,0.07009633010526317,0.05337090442105269,-0.11713717684210521
1.9075,-9.9696096256081,-0.9754479341578353,-0.06741716287837596,0.06860704538352051,0.048914410197691036,-0.11794651152933733
1.9100000000000001,-9.675097656907196,-0.8771668582438562,-0.4853530976466639,0.07283491655883441,0.054635037269819366,-0.12150837511553528
1.9125,-9.684399048472672,-0.8012026258199337,-0.2551383844694413,0.07039690998392269,0.056352,-0.12195343432475883
1.915,-9.832401791414384,-0.8073703626679286,0.06659221598392118,0.0682687682450331,0.05749043365657524,-0.11718924465941334
1.9175,-9.73498619462087,-0.9772923291736864,-0.21014687069669213,0.06699384066429036,0.05292255641283218,-0.11699908469539858
1.92,-9.858918,-0.920612,-0.13093593850421123,0.066432,0.05691150144317558,-0.125533
1.9225,-9.858918,-0.920612,-0.254228090086691,0.066432,0.06122002230645082,-0.125533
1.925,-9.865867816914335,-0.964627507124127,-0.12639544178321238,0.07341514379370648,0.05764286966783204,-0.12008831796328658
1.9275,-9.859950538284009,-1.0120644005073363,0.01666613569427132,0.07202804380999753,0.06473454118544306,-0.12298868651579208
1.93,-9.860515719074526,-1.0369926317973692,-0.0473236338723779,0.07195630657574276,0.05771702336093562,-0.12759699415976608
1.9325,-9.766904852632418,-0.8379304420033558,-0.2582681689750874,0.07078375328151287,0.055589,-0.1313670713935413
1.935,-9.732184,-0.763988,-0.328192,0.07025,0.05832457598755841,-0.132558
1.9375,-9.8596296507611,-0.6077367905986277,-0.04231285629781523,0.06478589494439625,0.06637740925940532,-0.11984687372821201
1.94,-9.914835662470349,-0.9526695584329572,0.04161295488678636,0.0630249565784114,0.061167578809153245,-0.11669920068048396
1.9425000000000001,-9.944698667078514,-1.1574632058210892,0.07336718058805317,0.06230272459493271,0.059601897907413194,-0.12192623908664399
1.945,-9.71905737341656,-0.9334225443505298,-0.29847895823290777,0.06541834867226905,0.05829408672749095,-0.13005165489075654
1.9475,-9.670013,-0.876375,-0.378407,0.066126,0.05692189539375451,-0.131336
1.95,-9.786862112035863,-0.7833824187837707,-0.2308853218300993,0.06326569219450519,0.059739135050005665,-0.1207637745947813
1.9525000000000001,-10.045632990024242,-0.9382333464513106,0.13467151689551293,0.060972524958811086,0.060476,-0.12174685632692639
1.955,-9.926672962110679,-1.0933444478144594,-0.019507462761087113,0.059015929974229914,0.06962634615290259,-0.12243589297337094
1.9575,-9.94128359698686,-0.7818913789991231,-0.16537548990364853,0.06019331365605839,0.0589226653570803,-0.12765329463357664
1.96,-9.911268300332846,-0.6460920616221917,-0.012372178440878068,0.05991287697985402,0.05985827068729926,-0.12662461861605842
1.9625000000000001,-9.924096705515439,-0.7676198930821653,0.00885289031920429,0.061393896703296806,0.06126841908948203,-0.11727652983778068
1.965,-9.736883149681674,-1.0849373121438506,-0.36116100693515646,0.0647814562333732,0.061392,-0.11583044344922483
1.9675,-9.97941148230117,-1.027845870598422,-0.0034538555459311115,0.06294913731332659,0.061697,-0.12448762578257518
1.97,-10.167897698055867,-0.9910409214067971,0.30548582577308253,0.06038506706363801,0.061697,-0.1248676032074017
1.9725000000000001,-10.057152327579635,-0.9540858256587724,0.02609139804921945,0.06433469795642285,0.06158957726107134,-0.12330288490206864
1.975,-9.936872868355627,-0.9002878031016907,-0.19476103809637035,0.06453804699893445,0.05910107233337266,-0.126785277045105
1.9775,-9.86069940904696,-1.0758089040183252,-0.2172476929507482,0.06433069332208091,0.05754630771475067,-0.12786239962625842
1.98,-10.015623684439085,-1.0523810778298874,-0.054766135832179125,0.0651031087009464,0.05300978956899153,-0.13104813899572001
1.9825000000000002,-9.963195686975148,-0.9723987946569356,-0.11189341118760529,0.06594384035559614,0.05573679683610691,-0.13337611612491465
1.985,-9.827218914534082,-0.9279550575665062,-0.3157067729670118,0.06599657393225758,0.0574807039918593,-0.1330375736531472
1.9875,-9.809404818218338,-0.835484125175723,-0.3717954027542593,0.06560024191651126,0.056577326897145244,-0.13076191636780946
1.99,-10.031085,-0.963654,-0.020325,0.064752,0.060831381013488874,-0.124006
1.9925,-10.031085,-0.963654,-0.020325,0.064752,0.06287463246080928,-0.124006
1.995,-9.962102605745372,-1.1155167095248553,-0.036798587522670595,0.061069769981864114,0.06550286926369255,-0.1299237466521585
1.9975,-9.91840545849673,-1.2246962079084986,-0.1810414723716187,0.06358260117024596,0.05927432480236523,-0.12965744575163396
2.0,-10.025707720062488,-1.155563145947245,-0.14074353187526287,0.06704703394820646,0.05106754106831701,-0.13400753379799316
2.0025,-10.001226245789821,-1.1088601518043633,-0.05487030490416575,0.0682018977395902,0.059823210522141256,-0.13371897536021152
2.005,-9.707707049907254,-1.0390093185157734,-0.25924095157697996,0.06958139122448974,0.06615594011131704,-0.1326147804452691
2.0075,-9.859707682451754,-0.9439205746520208,-0.10920048698414173,0.07068676330158724,0.058493868366300994,-0.13262857431013428
2.0100000000000002,-10.024909262041,-0.8862417060273916,-0.08806733988882012,0.06988214073772936,0.05112843082441605,-0.1298292249417108
2.0125,-9.909112043594181,-1.0024131696299479,-0.2784390176600841,0.06911609788963946,0.05591463143420851,-0.12772292054761747
2.015,-9.78199091248504,-1.226373584604212,-0.265814298524681,0.06604358430866639,0.06218300299753758,-0.12757487946053717
2.0175,-9.838108945743535,-1.223767463317964,-0.07798684871766251,0.06693413100883025,0.056961018938813585,-0.1314903631632415
2.02,-9.994333965149087,-0.9827359293705191,0.04676310094090526,0.06851935768206735,0.05182569393169088,-0.1377701269272935
2.0225,-9.858022874954523,-0.8743670746364692,-0.22094938650924267,0.06890528620203602,0.05491249045720133,-0.13381546495753274
2.025,-9.564642083992778,-1.0423028894287405,-0.3278274808899671,0.068111,0.053451,-0.12542610590499095
2.0275,-9.725968937996383,-1.1199511087143672,-0.06962872444499363,0.068111,0.053451,-0.12619661695249546
2.0300000000000002,-9.886433094536187,-1.2171323963574574,0.016482101296048858,0.07177758240000054,0.0527960388231002,-0.12566373241094214
2.0325,-9.782327467638778,-1.1742551646604669,-0.22156063412916083,0.072388,0.05223512495592085,-0.1299378572218255
2.035,-9.739358,-1.15495,-0.305476,0.072388,0.054231846674349105,-0.131489
2.0375,-9.804111764960348,-1.0737915146359014,-0.11639457303532022,0.07426266012977657,0.05478248651766403,-0.12994507728911311
2.04,-10.029162841518652,-0.9298106224078819,0.10763663507223976,0.06982309847463311,0.05074468924627609,-0.13019111020719007
2.0425,-9.87735804909484,-0.9942584241536607,-0.2474044587434939,0.0648543115134054,0.053090701711084404,-0.1302100264489796
2.045,-9.657096186097952,-1.0330120539506626,-0.496818609405757,0.06383368280957587,0.05552479413294442,-0.13328186295783193
2.0475,-9.62389566154245,-1.2231919446014146,-0.3842368794037666,0.06606186737524292,0.059561432456253824,-0.13015594320155566
2.05,-9.758458613778894,-1.2189757415425684,-0.09650081314931691,0.06946484111877925,0.05696674834725798,-0.13450980905678592
2.0525,-9.986689119123971,-1.004289354986001,0.09630047209693897,0.06820036282385818,0.0635028635228339,-0.135285112637465
2.055,-9.782355412787515,-0.9855769609484548,-0.2894459004742683,0.06848040994691529,0.0676568640368056,-0.13196871179426653
2.0575,-9.820988276409928,-1.047118916958227,-0.22661378988249778,0.07344175262402113,0.06334920963446453,-0.13129296225848566
2.06,-9.816740515070054,-1.305078235402525,0.0018499838613207087,0.06788723181192093,0.059885305789598615,-0.12993202906672993
2.0625,-9.88850582398168,-1.2111429999999999,-0.005687805660068705,0.06893270489121545,0.056262447079993456,-0.1344310881727466
2.065,-9.716449427629433,-1.2011938853950943,-0.33140720027247006,0.07004675596730245,0.0613853199455039,-0.13607
2.0675,-9.633260605462528,-1.093225141485943,-0.4643547291757403,0.07335143294423654,0.06227746121281094,-0.137192040890912
2.07,-9.92337022756701,-1.0422295325687108,0.08170686316931808,0.07362550475738026,0.066279,-0.13349050475738028
2.0725000000000002,-9.915996193302654,-1.070787169898804,0.039048705538155704,0.07500272982520706,0.06569440125114982,-0.13408833571297138
2.075,-9.75968815283977,-1.0710907812133832,-0.2074009249697556,0.0757780048709631,0.06429870308429758,-0.13300284910666724
2.0775,-9.688601611725392,-1.0003383775178514,-0.3451828625402593,0.07437587227025043,0.06126512123017289,-0.13414686345078117
2.08,-9.855251825208315,-1.0395272641517628,-0.12365863579300274,0.07528767375195111,0.06324796509544979,-0.1284633761940206
2.0825,-9.869726621968008,-1.206995294580709,-0.03323241543383385,0.07585940864760057,0.06050994419777021,-0.12874319092583617
2.085,-9.963168500205635,-1.19982966332648,-0.08443895485181908,0.07696455164872382,0.06524057850247962,-0.133076059615338
2.0875,-9.97788,-1.190818,-0.094452,0.077122,0.07168198595523306,-0.133627
2.09,-9.878965372005739,-1.0352337305444252,-0.13257590277936648,0.077122,0.06584426461318116,-0.13599606299426914
2.0925000000000002,-9.853042994362353,-1.2657005579451266,-0.10063931818979967,0.07589288301176457,0.07074385332392225,-0.1324655057725486
2.095,-9.890753214921094,-1.315977447790526,-0.16897553982306074,0.07673163949784806,0.06577534316594846,-0.13864046422764315
2.0975,-9.79606627568958,-1.2373253899707857,-0.3384490188584611,0.07951577253335455,0.0685438962374677,-0.13727232758190558
2.1,-9.654952792779547,-1.1513488686900928,-0.3815544955591046,0.08201894693290743,0.06924270936102232,-0.1373335218849841
2.1025,-9.789488991818631,-1.0706914637932705,-0.06667462194050772,0.08147251168210623,0.07153064991711369,-0.1353400407801072
2.105,-9.841582844411198,-1.3482601936293406,-0.07943006112934148,0.07885901621621623,0.073457,-0.13200401621621624
2.1075,-9.969241855675413,-1.2814256202450314,-0.10894819658233891,0.07945263627048525,0.06840514243436771,-0.13948605455529015
2.11,-9.703140595566195,-1.2057724822742504,-0.3686077141328053,0.08133061962732907,0.07694761832775847,-0.1408171951075013
2.1125,-9.711286002524135,-1.0478694338021863,-0.32914926956588436,0.0837519790009882,0.07052930834030322,-0.14076154446894246
2.115,-9.763985816432172,-1.1837461415985522,-0.19810310301778894,0.08013478192756233,0.06584003590423551,-0.13505669624063768
2.1175,-9.966706657560202,-1.1586924434318906,-0.0570268503926232,0.0800504554596866,0.065515,-0.1386747327581196
2.12,-9.922513105183624,-1.2006847181532043,-0.16666555546695588,0.0830437440083947,0.0765034914165799,-0.13504602736621166
2.1225,-9.76738029755743,-1.1716616675361164,-0.3704057814162828,0.08552591400963137,0.07053706782979376,-0.13308968106102467
2.125,-9.977413762052878,-1.2041213526737646,-0.0417861354228975,0.08053927395621485,0.06405339717669578,-0.13666838975954063
2.1275,-9.976218589761094,-1.1990218739021592,-0.03540576914675146,0.08087161574516495,0.073457,-0.1372747685096701
2.13,-9.867934998526362,-1.288188878394132,-0.27066859230963014,0.081245,0.07220495492517598,-0.136528
2.1325,-9.696900336000972,-1.3386703859847315,-0.36108345851072204,0.081245,0.06777785810445368,-0.136528
2.1350000000000002,-9.936658886797694,-1.153499095277464,-0.11185495605649554,0.07945214586694219,0.07091413533264451,-0.14510820743192118
2.1375,-10.039466502816232,-0.8976708270166887,0.022605720668264412,0.07844526469371514,0.071777,-0.14389199872712785
2.14,-10.057388,-0.814204,0.053802,0.078191,0.07203883445398775,-0.14279
2.1425,-9.851356527196828,-0.9405925314795602,-0.17127424066413938,0.07476333277368287,0.06721708743269439,-0.13051585238265148
2.145,-9.931045762403603,-1.176195943262379,-0.2157374324778003,0.073457,0.06124398601629968,-0.125838
2.1475,-9.785422305334373,-1.3440558258706166,-0.4118801377209645,0.08029395488698363,0.071471,-0.1301614526765393
2.15,-9.746496317691687,-1.2609528360041433,-0.4515297158524062,0.07944707959535594,0.0713790725600644,-0.1341553947120358
2.1525,-9.81819461526152,-1.1204383482515312,-0.18887583236235544,0.07530533096217978,0.0710108233728015,-0.1362720741648464
2.1550000000000002,-9.975250499406654,-1.173189505898797,-0.1473820011867476,0.07614811553228663,0.07060650401396157,-0.13510853870855116
2.1575,-10.002067628154833,-1.241013324426506,-0.23023806364284632,0.07833674956067457,0.07200495977202577,-0.13503054991213492
2.16,-9.805228167875212,-1.148019255925311,-0.24202633094303452,0.07548618652328049,0.07657769438430623,-0.13542233483337263
2.1625,-9.896714007515957,-1.1098698999527283,-0.15498597274875608,0.07454008893878512,0.07515823821791533,-0.13362431571732444
2.165,-9.894602102369388,-1.269399335128775,-0.3376505017512923,0.0782481149668875,0.06636139761589387,-0.13210639820456216
2.1675,-10.01381872701496,-1.1937346252410355,-0.1531451890809784,0.07975017609356447,0.07758,-0.13587594343861317
2.17,-9.97958126391356,-1.2034104841629063,-0.15091282530990272,0.0801305370149608,0.07758,-0.13359377791023516
2.1725,-10.006130630143696,-1.148239919742002,-0.0875596701110421,0.07937019673742655,0.07366631380796887,-0.13470270007511423
2.1750000000000003,-10.011954673193582,-1.1915527281883218,-0.0878730095327353,0.07416419287972756,0.06637527197564028,-0.13755891624312017
2.1775,-9.982574013233695,-1.200382,-0.1192057681617269,0.07436143704554402,0.06494981943837012,-0.1406177926059941
2.18,-9.889637852817618,-1.1875152336965622,-0.33962512453600335,0.07835938459106728,0.06619838122380567,-0.1413054129325829
2.1825,-9.9127293014948,-1.10149977184484,-0.2690326224787083,0.07794392151371801,0.06452284874172176,-0.14081383118259222
2.185,-10.104711608061587,-1.0160237033666577,0.00218005676203277,0.07396849850396418,0.06521,-0.1363681695185567
2.1875,-9.970254507719929,-1.1821883005385996,-0.18722371813285457,0.07446865385996408,0.06572506499102335,-0.13323524955116697
2.19,-9.76243314516338,-1.4057646586858121,-0.41830263442249654,0.07331842058168762,0.06687467075523637,-0.13304385776181926
2.1925,-9.771238900607115,-1.499435823029243,-0.34326314232860966,0.07369352780217164,0.06736794275025758,-0.13789590975984758
2.195,-9.79563401529346,-1.415165252920294,-0.22640886529267257,0.07383180123914948,0.067501,-0.1437080738233651
2.1975000000000002,-9.802725,-1.323529,-0.165591,0.073762,0.06732834500770961,-0.146913
2.2,-9.7091244612173,-1.0866625749735874,-0.40770986844144785,0.07412787362495606,0.06951326475900108,-0.14069155067432793
2.2025,-9.867352057358502,-1.0387351281827217,-0.1970641695729729,0.07300065700099297,0.06743694518371385,-0.13613180325719942
2.205,-9.870940207626218,-1.3005086023255372,-0.1842718657031931,0.07537617690949758,0.06681859792397318,-0.13126247990114143
2.2075,-9.834287317197482,-1.38346212858256,-0.3678939247467785,0.07564112455259214,0.07242419468264914,-0.13900768863769852
2.21,-9.681757059341926,-1.4766336208690427,-0.358501675229248,0.07573664960623314,0.07914299960683238,-0.13718454271261615
2.2125,-9.737873873786404,-1.4547828252427197,-0.27827666601942064,0.07977174951456295,0.07372187378640802,-0.14134629126213577
2.215,-9.840011106221368,-1.566983401030524,-0.1440225918702379,0.07982963206106881,0.07121404332061071,-0.14474322419847313
2.2175000000000002,-9.79695272967347,-1.4557690570210076,-0.2325804683942273,0.07977407460265397,0.0749225103444167,-0.15092384011927903
2.22,-9.854350119204476,-1.1920143937805059,-0.045956299743276925,0.07613374408244429,0.07589105032724612,-0.14965312159103217
2.2225,-9.752350146319527,-1.1406377718314922,-0.19555390073646362,0.07478265899355141,0.07203053638522247,-0.14743312069426853
2.225,-9.757511717469312,-1.0956731279508956,-0.3765039845136991,0.07634879820585468,0.06664536628895162,-0.1439942274787534
2.2275,-9.626890831080027,-1.2667718244711146,-0.4415278517396494,0.07575887121354206,0.07049790323770173,-0.14027320436461888
2.23,-9.678473439806535,-1.3527610346207382,-0.28353592393063765,0.07986590004010848,0.07234273062640084,-0.1415968285855845
2.2325,-9.86274277186105,-1.2838053125090714,-0.10419253032646729,0.0782461786166616,0.07111434369751005,-0.1451171515450353
2.235,-9.906677235939746,-1.1836036091411055,-0.12500416907961778,0.07608004559483564,0.0690468470900708,-0.14748055739563468
2.2375000000000003,-9.875891760280664,-1.1073070629138995,-0.1512023057552851,0.07462659602648991,0.07512604914853431,-0.14513019205297983
2.24,-9.767554002844856,-1.2808164301289018,-0.24683394875896045,0.07530142042004785,0.07252640569451019,-0.13850547144152675
2.2425,-9.898732294298057,-1.327634242674411,-0.07019621680293742,0.075442,0.07090233098328487,-0.13775
2.245,-9.932456136317406,-1.283677922279815,-0.0769890760741967,0.0710811704016703,0.07437061435695884,-0.14156561435695886
2.2475,-9.724502804808253,-1.3185467435871387,-0.41249899575387816,0.07102115685907107,0.074831,-0.13538459990472393
2.25,-9.577629620009178,-1.5365459518127582,-0.5171945649380449,0.07537119733822854,0.07496265442863699,-0.13384675722808628
2.2525,-9.720029720415758,-1.594380282978003,-0.3006977683055407,0.076851434730481,0.07509752860526951,-0.13940751450809752
2.255,-9.895409729466747,-1.517536553317596,-0.1286049431826015,0.08062988062465962,0.07927725294594751,-0.14335985652926575
2.2575,-9.68824662927669,-1.5145014522752862,-0.4708414642261146,0.07849731276557122,0.08092491549421937,-0.14374765383935592
2.2600000000000002,-9.706420325738288,-1.484443865864237,-0.3825238055143215,0.07908376137158868,0.07567271568929246,-0.14479098247725694
2.2625,-9.86753205573475,-1.4133397806782162,-0.22315929778446578,0.08088058468726464,0.0777474865410703,-0.14471154477769402
2.265,-9.896945781793361,-1.324391291240287,-0.195053950275361,0.08451663562249964,0.078954,-0.1399944585361258
2.2675,-9.742280554509996,-1.403244207586547,-0.37552029451974234,0.07855514470989752,0.08457183682106291,-0.1398804267284251
2.27,-9.818457721761696,-1.6013782867849091,-0.23332979316747907,0.07901886061183198,0.08355851079633374,-0.13739049098916795
2.2725,-9.860344837471997,-1.7825793968352788,-0.22011604958849024,0.08417680001886568,0.08080275732578707,-0.13788595740124981
2.275,-9.74615254958142,-1.7836878137483787,-0.3387426233227172,0.08549849291357146,0.0795750295012381,-0.14194500115552397
2.2775,-9.675070178301372,-1.5249870724383607,-0.33982764010958594,0.08605937008219175,0.08345632536986304,-0.15344692120547945
2.2800000000000002,-9.638855898067893,-1.4428521580750364,-0.3943354809100709,0.086535881986897,0.08297918894103629,-0.15306533696724237
2.2825,-9.89079254050733,-1.38033036291533,-0.29203995314992603,0.08894411901393354,0.07355291645587742,-0.14817094449922585
2.285,-9.978880042386573,-1.4210146621650612,-0.18342361340954483,0.08875306015005358,0.07765318952483052,-0.1475990166583303
2.2875,-9.803838983229028,-1.4548936893617033,-0.34597391839800473,0.08916342352941178,0.07710279749687105,-0.1477413554443054
2.29,-9.743118546632239,-1.4478770741571372,-0.45782202428624214,0.09074615957211364,0.076664,-0.14744538149760236
2.2925,-9.806956537556093,-1.4195222096959916,-0.4152757346203932,0.0916965679354318,0.076664,-0.14654253265536724
2.295,-9.939781274167792,-1.457163044474994,-0.18090139018803825,0.09328864027510292,0.07681302906923425,-0.1471837337918382
2.2975,-9.837532133503919,-1.6116669605117222,-0.3052426212650855,0.09264391039090272,0.08442731673063214,-0.14750282388059707
2.3000000000000003,-9.675883455386113,-1.5771846030004817,-0.5868668104771539,0.09087173708804704,0.08299585425479523,-0.14841671524840158
2.3025,-9.906925923670318,-1.1723205154276455,-0.2638876631041667,0.09230094303576998,0.07793182281181917,-0.15233457685847623
2.305,-10.066222938218338,-1.1599482176299007,-0.02942707214009435,0.09144509169877395,0.08249731235493343,-0.14429632104144688
2.3075,-9.709922264718335,-1.3539619230174038,-0.5851382701155841,0.09286831141501377,0.08398423601898025,-0.14002615451028108
2.31,-9.700770348504685,-1.4714128965372941,-0.5431914027302583,0.08741301152938302,0.08008731985886353,-0.1403183115902178
2.3125,-9.699903,-1.482544,-0.539216,0.086896,0.08131745586380833,-0.140346
2.315,-9.887618504872906,-1.5456911347280051,-0.3080228403072365,0.08830615786523077,0.07877073852244842,-0.14113968279357034
2.3175,-10.025107,-1.591942,-0.13869,0.089339,0.07893583793021579,-0.141721
2.32,-9.822017612479348,-1.4191566962754696,-0.47575234128097577,0.08988238357151668,0.08061706822658272,-0.1531293869974073
2.3225000000000002,-9.84840553169961,-1.1615662549312016,-0.2122730846102458,0.08971804377549406,0.080634,-0.15072854453754903
2.325,-9.864896,-1.086203,-0.114778,0.089644,0.0759224297756139,-0.149509
2.3275,-9.901443166285947,-1.1757429460394733,-0.2673622664035525,0.08065775609826772,0.07657285830044308,-0.1434404769262985
2.33,-9.674608898989938,-1.4111964115335802,-0.6632542707269293,0.08402127620478471,0.080036701356755,-0.13769930714434286
2.3325,-9.809783831646255,-1.438170370144743,-0.4838379255320484,0.08262907441386987,0.0796826013583585,-0.1412452635470018
2.335,-9.981158898119027,-1.5007295931814828,0.009486622042607196,0.0773487365172668,0.079412,-0.1461882585892725
2.3375,-10.026397587379394,-1.4979547946311862,-0.06629267005912992,0.07635852967631498,0.08181390638032981,-0.147065470323685
2.34,-9.749231043757035,-1.5099368663501564,-0.433049066388917,0.080481,0.07633499426391363,-0.14851441523405787
2.3425000000000002,-9.82742879104464,-1.3694836893768407,-0.23489595190211804,0.080481,0.07003134625809905,-0.15084232634409275
2.345,-9.930416742614122,-1.3571262475380406,-0.025859494788530113,0.080481,0.07378667652090631,-0.14693872406852712
2.3475,-9.715400433397955,-1.3802018177026305,-0.4473793835569958,0.083463836069185,0.074373,-0.14542216202590547
2.35,-9.64893388372093,-1.5995766046511737,-0.5793656291822948,0.08097799234808684,0.0695095712678167,-0.1477205369842462
2.3525,-9.714777781825097,-1.3458299659363113,-0.3636357759957215,0.08290915322718628,0.072235,-0.15222543639496197
2.355,-9.842141889505703,-1.3197613399287074,-0.2973466103683465,0.08053066988117873,0.072235,-0.15098884932271864
2.3575,-9.852941,-1.317551,-0.291726,0.080329,0.07246902793635562,-0.150884
2.36,-9.699517026109767,-1.3438220177050684,-0.41677657163011095,0.07858345830838856,0.07576125392736954,-0.14524658589627604
2.3625000000000003,-9.74589655547289,-1.5593595117018693,-0.40153203936628984,0.08307990595295263,0.07977060654104622,-0.1434843574531931
2.365,-9.879058911613068,-1.53114725476476,-0.3195286642342705,0.0846177838598177,0.07650293061209765,-0.1488663008809414
2.3675,-9.780008,-1.500478,-0.393352,0.083536,0.0856415288710738,-0.146302
2.37,-9.780008,-1.500478,-0.393352,0.083536,0.0843956587328746,-0.146302
2.3725,-9.881123646336173,-1.6476366500054682,-0.20646988544304354,0.08572658226559456,0.07934092928097419,-0.1473402801155438
2.375,-9.668820620536252,-1.751880350246483,-0.5166760268125526,0.08549241890104604,0.07597814680774317,-0.15536884140916196
2.3775,-9.693564819482937,-1.6339534401877365,-0.4537248795386233,0.0831715938461539,0.08765650320579083,-0.1601971294757775
2.38,-9.539675506488667,-1.4556740091068137,-0.5643223356238096,0.08434444893194695,0.091477,-0.1582026415642724
2.3825,-9.51578,-1.436514,-0.584648,0.084605,0.0819277929715522,-0.157756
2.3850000000000002,-9.89799652075521,-1.4792664216816753,-0.17825227247128092,0.08238414812147839,0.08505300847420436,-0.15490504838931568
2.3875,-9.858317530142697,-1.5533492944456693,-0.22091316307354858,0.08408343209659727,0.08698671613611429,-0.15408475732162452
2.39,-9.818638539530184,-1.6274321672096634,-0.2635740536758162,0.08578271607171614,0.08892042379802424,-0.15326446625393336
2.3925,-9.688722975132993,-1.6022729490708874,-0.45420056739073,0.08346479610076166,0.077122,-0.15708049685764502
2.395,-9.90942119819113,-1.5924693339437852,-0.15718978703310668,0.08600373809618987,0.08440456083198003,-0.160352
2.3975,-9.679984124042477,-1.6026492319875076,-0.4899898637851296,0.08410372624359777,0.08620502018488442,-0.160352
2.4,-9.32061894468338,-1.3782364426276108,-0.8714124181238042,0.0845975403119092,0.08979384253308113,-0.15809687835538763
2.4025,-9.669307920727345,-1.43827422234495,-0.4659066264397528,0.08316973267617706,0.085521,-0.15352854653278628
2.4050000000000002,-9.981710124109503,-1.3603651475246354,0.05297317897023468,0.08336554219065698,0.085521,-0.15558743542766199
2.4075,-9.87275350964855,-1.4628665922811595,-0.22181111812143328,0.07988838488178883,0.0918122226325884,-0.15274172328434477
