time,acc_x_g,acc_y_g,acc_z_g,gyro_x_rad_s,gyro_y_rad_s,gyro_z_rad_s
1765409293.655723,-6.516020,-0.395146,-7.241749,-0.009163,-0.005498,-0.001680
1765409293.655923,-6.455643,-0.419656,-7.331419,-0.008094,-0.007789,-0.000305
1765409293.656123,-6.389287,-0.387374,-7.427067,-0.009010,-0.003360,0.000764
1765409293.656323,-6.420372,-0.386777,-7.289573,-0.009774,-0.006109,0.001222
1765409293.656510,-6.474174,-0.404113,-7.277617,-0.005956,-0.006720,-0.000611
1765409293.656760,-6.480152,-0.375418,-7.265661,-0.009621,-0.005345,-0.000153
1765409293.657010,-6.359994,-0.397537,-7.409133,-0.008552,-0.004734,-0.001527
1765409293.657260,-6.247011,-0.455524,-7.349353,-0.007178,-0.005651,-0.003054
1765409293.657470,-6.114299,-0.471664,-7.244140,-0.005956,-0.007483,-0.007636
1765409293.657720,-5.920611,-0.211023,-7.329627,-0.002902,-0.011606,-0.012065
1765409293.657970,-5.745456,0.143472,-7.416905,-0.009010,-0.007636,-0.016799
1765409293.658220,-5.487804,0.048422,-7.344571,-0.011148,-0.001527,-0.016035
1765409293.658480,-5.406504,-0.016738,-7.401960,-0.016646,-0.001527,-0.024129
1765409293.658680,-5.406504,-0.016738,-7.401960,-0.016646,0.004429,-0.024129
1765409293.658880,-5.234337,-0.104017,-7.477880,-0.018631,0.011912,-0.043371
1765409293.659080,-5.321616,0.110593,-7.184361,-0.027794,0.008552,-0.060170
1765409293.659280,-5.436393,0.242707,-7.112027,-0.034361,0.017715,-0.067348
1765409293.659505,-5.509326,-0.056193,-7.201099,-0.046884,0.017868,-0.077122
1765409293.659755,-5.754423,-0.288140,-7.071974,-0.054825,0.015577,-0.093310
1765409293.660005,-5.925394,-0.261836,-6.982304,-0.058490,0.014355,-0.112094
1765409293.660255,-6.221902,-0.121951,-7.093495,-0.065210,0.014508,-0.127213
1765409293.660520,-6.389287,0.014347,-7.257292,-0.077580,0.014813,-0.130572
1765409293.660770,-6.691175,-0.290531,-6.973936,-0.084299,0.005345,-0.130572
1765409293.661020,-6.759923,-0.474653,-7.060019,-0.089186,-0.008552,-0.151800
1765409293.661270,-6.704925,-0.368245,-7.125776,-0.090866,-0.017868,-0.160352
1765409293.661485,-6.618842,-0.329388,-7.551410,-0.094073,-0.019700,-0.159436
1765409293.661818,-6.590147,-0.408895,-7.654232,-0.090866,-0.036652,-0.160047
1765409293.662152,-6.808942,-0.390961,-7.186752,-0.094990,-0.040012,-0.165544
1765409293.662488,-6.844810,-0.509923,-7.190339,-0.091324,-0.040928,-0.166614
1765409293.662738,-6.664275,-0.457317,-7.535867,-0.094073,-0.056810,-0.172875
1765409293.662988,-6.590147,-0.007174,-7.667383,-0.097128,-0.065515,-0.182343
1765409293.663238,-6.446077,0.468675,-7.825202,-0.109192,-0.074373,-0.182343
1765409293.663475,-6.430534,0.457317,-7.876015,-0.117286,-0.079107,-0.171042
1765409293.663725,-6.470587,0.514108,-7.977044,-0.137903,-0.083536,-0.169668
1765409293.663975,-6.640362,0.383788,-7.693686,-0.150120,-0.093157,-0.166614
1765409293.664225,-6.450861,0.194883,-7.965685,-0.160963,-0.100029,-0.167377
1765409293.664491,-6.571018,0.136896,-7.914872,-0.168293,-0.113316,-0.175624
1765409293.664824,-6.791008,0.367049,-7.808463,-0.183412,-0.113621,-0.179594
1765409293.665158,-6.958392,0.294118,-7.899927,-0.191812,-0.124922,-0.176235
1765409293.665469,-7.104256,0.186514,-7.554996,-0.207236,-0.143706,-0.178984
1765409293.665719,-7.128167,0.206839,-7.619559,-0.214108,-0.143706,-0.183260
1765409293.665969,-7.055236,0.229555,-7.549018,-0.224493,-0.155007,-0.186925
1765409293.666219,-6.954805,0.418460,-8.195838,-0.233656,-0.172722,-0.184939
1765409293.666518,-7.198708,0.422645,-7.547823,-0.233656,-0.189674,-0.184939
1765409293.666851,-7.190339,0.232544,-7.630320,-0.250455,-0.184787,-0.177304
1765409293.667185,-7.234576,-0.230153,-7.517933,-0.261450,-0.209832,-0.181580
1765409293.667537,-7.140123,-0.000598,-7.917264,-0.262061,-0.219606,-0.194713
1765409293.667787,-7.268053,0.467480,-7.533476,-0.260229,-0.237932,-0.191354
1765409293.668037,-7.256097,0.231349,-7.612385,-0.261450,-0.240834,-0.180969
1765409293.668287,-6.952414,0.204448,-7.863461,-0.275806,-0.273515,-0.189368
1765409293.668497,-7.220229,0.451339,-7.427067,-0.281609,-0.273515,-0.189063
1765409293.668830,-7.170013,0.157819,-7.455762,-0.277027,-0.291688,-0.176693
1765409293.669164,-7.432448,-0.054998,-7.177187,-0.283441,-0.305433,-0.179900
1765409293.669508,-7.382232,-0.063367,-7.399569,-0.276722,-0.305127,-0.183870
1765409293.669758,-7.291965,0.052009,-7.626733,-0.279013,-0.317345,-0.186925
1765409293.670008,-7.529889,0.212817,-7.248923,-0.276417,-0.335976,-0.182649
1765409293.670258,-7.650644,0.049617,-7.155069,-0.284969,-0.348651,-0.185398
1765409293.670554,-7.790530,0.168580,-6.628407,-0.282525,-0.363465,-0.187688
1765409293.670887,-7.330224,0.468675,-7.669775,-0.284663,-0.360258,-0.188146
1765409293.671221,-7.118602,0.453132,-7.311094,-0.299019,-0.392328,-0.186314
1765409293.671461,-7.146102,0.454328,-7.329028,-0.300851,-0.395841,-0.181427
1765409293.671711,-7.187350,0.025108,-7.433045,-0.311083,-0.425468,-0.184481
1765409293.671961,-7.390004,0.208034,-7.501194,-0.311694,-0.438143,-0.189368
1765409293.672211,-6.938067,0.227164,-7.957316,-0.309098,-0.438143,-0.190132
1765409293.672468,-6.849593,0.307269,-7.669775,-0.309098,-0.448986,-0.190132
1765409293.672801,-7.307508,0.231349,-7.663796,-0.326202,-0.472046,-0.202196
1765409293.673135,-7.727163,0.377810,-6.663079,-0.328187,-0.470824,-0.205098
1765409293.673456,-7.410927,0.336561,-7.794116,-0.328645,-0.477849,-0.205862
1765409293.673706,-7.217239,0.498565,-7.710425,-0.330020,-0.492357,-0.211207
1765409293.673956,-7.125776,0.813008,-8.124102,-0.340405,-0.488998,-0.208916
1765409293.674206,-7.435437,0.658178,-7.455762,-0.355065,-0.516945,-0.210596
1765409293.674451,-6.931491,0.395744,-7.786943,-0.366519,-0.516945,-0.213192
1765409293.674784,-6.680415,0.472262,-8.406263,-0.375071,-0.529926,-0.218384
1765409293.675118,-6.776661,0.176949,-8.117526,-0.370337,-0.537256,-0.216704
1765409293.675538,-6.933883,0.335366,-8.139048,-0.367283,-0.538325,-0.222660
1765409293.675788,-7.864059,0.657580,-6.877091,-0.393397,-0.546266,-0.233045
1765409293.676038,-7.607603,0.571497,-7.075561,-0.385151,-0.544281,-0.222660
1765409293.676288,-7.607603,0.571497,-7.075561,-0.385151,-0.568105,-0.222660
1765409293.676519,-7.277617,0.283357,-7.825202,-0.395077,-0.585362,-0.222355
1765409293.676852,-7.887373,0.694046,-6.918938,-0.401949,-0.604146,-0.232892
1765409293.677186,-7.941175,0.327594,-7.315876,-0.404698,-0.603840,-0.224035
1765409293.677474,-7.121591,0.255858,-8.094810,-0.411418,-0.620944,-0.229074
1765409293.677724,-6.899807,0.264825,-7.831181,-0.417068,-0.615752,-0.232434
1765409293.677974,-6.886657,0.210426,-8.043997,-0.408058,-0.647364,-0.228005
1765409293.678224,-7.428263,0.383788,-7.043280,-0.412487,-0.647364,-0.235030
1765409293.678495,-8.095408,0.543998,-6.612864,-0.428522,-0.673937,-0.240070
1765409293.678828,-7.837756,0.394548,-7.126972,-0.419970,-0.673937,-0.236863
1765409293.679162,-6.966761,0.284553,-8.299258,-0.419970,-0.685238,-0.236863
1765409293.679457,-7.034911,0.491392,-8.415829,-0.429438,-0.702801,-0.242819
1765409293.679707,-7.287780,0.182329,-8.145025,-0.435089,-0.702342,-0.243430
1765409293.679957,-7.667383,-0.029890,-7.476087,-0.444252,-0.695928,-0.249691
1765409293.680207,-7.381635,0.434003,-8.087039,-0.445779,-0.695928,-0.256563
1765409293.680463,-7.204088,0.453132,-8.142036,-0.456011,-0.718683,-0.263130
1765409293.680796,-6.847202,0.377810,-8.597560,-0.448528,-0.721432,-0.258243
1765409293.681130,-7.121591,0.648613,-8.179100,-0.454484,-0.734565,-0.263588
1765409293.681506,-7.696077,0.829746,-7.529889,-0.459065,-0.733649,-0.269086
1765409293.681756,-7.193926,0.411286,-7.959109,-0.469297,-0.726930,-0.264046
1765409293.682006,-7.364298,0.769369,-7.557986,-0.474184,-0.735787,-0.266032
1765409293.682256,-7.579506,0.332377,-7.454566,-0.477697,-0.748463,-0.262061
1765409293.682480,-7.595646,0.590626,-7.334408,-0.480598,-0.763887,-0.271835
1765409293.682813,-7.831778,1.087398,-7.450382,-0.480598,-0.777479,-0.271835
1765409293.683147,-7.858679,0.614538,-7.326039,-0.503964,-0.787100,-0.271377
1765409293.683477,-7.030726,0.043042,-8.346484,-0.508545,-0.795805,-0.274278
1765409293.683727,-7.400167,0.471664,-7.177187,-0.508698,-0.803440,-0.286190
1765409293.683977,-7.717598,0.612745,-7.141917,-0.502589,-0.808480,-0.281609
1765409293.684227,-7.575322,0.908656,-7.448588,-0.520152,-0.831388,-0.284205
1765409293.684514,-7.968077,1.193209,-7.557387,-0.530995,-0.846354,-0.285732
1765409293.684847,-7.505977,0.766977,-7.745695,-0.527177,-0.855211,-0.281151
1765409293.685181,-7.185556,0.412482,-7.988999,-0.534965,-0.874759,-0.284663
1765409293.685479,-8.005737,0.937350,-7.216044,-0.540768,-0.878882,-0.294742
1765409293.685729,-7.755857,0.267814,-7.798301,-0.543517,-0.883769,-0.291994
1765409293.685979,-7.497608,0.361071,-7.977044,-0.552986,-0.881479,-0.310625
1765409293.686229,-7.497608,0.361071,-7.977044,-0.552986,-0.871705,-0.310625
1765409293.686481,-7.254901,0.739479,-8.252031,-0.564134,-0.875217,-0.308945
1765409293.686814,-7.780965,1.055715,-7.806670,-0.561843,-0.875217,-0.309556
1765409293.687148,-7.761836,0.412482,-7.535867,-0.581086,-0.860862,-0.313068
1765409293.687484,-7.821017,0.307269,-6.725250,-0.585056,-0.863305,-0.316123
1765409293.687734,-7.655427,0.379005,-6.995456,-0.591623,-0.867887,-0.318719
1765409293.687984,-7.583691,0.697035,-7.651242,-0.592234,-0.893085,-0.326507
1765409293.688234,-7.250118,0.454328,-8.052366,-0.598190,-0.906371,-0.329104
1765409293.688475,-7.376254,0.497967,-7.708034,-0.608575,-0.916298,-0.334754
1765409293.688808,-7.495217,0.467480,-7.073170,-0.613461,-0.897819,-0.334754
1765409293.689142,-6.844213,0.335366,-8.017694,-0.617432,-0.895376,-0.334907
1765409293.689501,-7.513748,1.108919,-6.804758,-0.622319,-0.923017,-0.343001
1765409293.689751,-7.855093,1.189622,-6.868722,-0.622166,-0.934318,-0.337808
1765409293.690001,-7.397775,1.124462,-7.605212,-0.644463,-0.946383,-0.340710
1765409293.690251,-6.699545,0.779531,-8.237684,-0.653473,-0.930959,-0.335212
1765409293.690609,-6.659492,0.573888,-8.247249,-0.648433,-0.947605,-0.337656
1765409293.690942,-7.252510,0.236729,-7.363701,-0.654695,-0.951117,-0.350178
1765409293.691276,-7.760042,0.949306,-7.009803,-0.658360,-0.936304,-0.359647
1765409293.691568,-7.849114,0.627690,-7.177187,-0.665385,-0.938289,-0.359952
1765409293.691901,-7.265661,0.971425,-7.980032,-0.668745,-0.951575,-0.365908
1765409293.692235,-7.559779,0.924797,-7.442610,-0.679435,-0.951575,-0.373697
1765409293.692484,-7.559779,0.924797,-7.442610,-0.679435,-0.953255,-0.373697
1765409293.692734,-7.994380,1.141798,-6.881874,-0.689972,-0.961196,-0.367588
1765409293.692984,-7.517933,0.651602,-7.182567,-0.689972,-0.933708,-0.367588
1765409293.693234,-7.563366,0.191296,-7.217239,-0.701426,-0.962113,-0.373697
1765409293.693532,-8.243662,0.388570,-6.568029,-0.708756,-0.962113,-0.384998
1765409293.693865,-8.243662,0.388570,-6.568029,-0.708756,-0.967000,-0.384998
1765409293.694199,-8.205403,0.507532,-6.560257,-0.713185,-0.977232,-0.379042
1765409293.694529,-7.394786,0.270206,-6.791008,-0.724333,-0.976315,-0.387899
1765409293.694779,-7.569344,0.790292,-6.618244,-0.733649,-0.987616,-0.388663
1765409293.695029,-7.653036,0.915830,-6.641558,-0.727388,-0.999834,-0.386372
1765409293.695279,-7.844332,0.352702,-6.459827,-0.737467,-1.020603,-0.384692
1765409293.695639,-8.200621,1.200980,-6.099353,-0.739910,-1.019840,-0.400728
1765409293.695972,-8.323768,1.180057,-6.027020,-0.750295,-1.019840,-0.397673
1765409293.696306,-7.986608,0.786705,-6.900405,-0.749990,-1.038929,-0.388968
1765409293.696508,-8.540770,0.787900,-6.165709,-0.775646,-1.050535,-0.411265
1765409293.696758,-8.283715,0.579866,-6.258966,-0.761596,-1.037249,-0.409432
1765409293.697008,-7.482065,0.722740,-7.886178,-0.774119,-1.039235,-0.416916
1765409293.697258,-7.006216,1.565040,-8.059541,-0.778395,-1.035264,-0.425009
1765409293.697563,-6.893830,1.226686,-8.067908,-0.802372,-1.031293,-0.416152
1765409293.697896,-7.501194,0.726925,-6.959588,-0.810465,-1.039235,-0.413861
1765409293.698230,-7.610592,0.525466,-7.018172,-0.814589,-1.020603,-0.422261
1765409293.698506,-7.740314,0.767575,-6.609277,-0.813062,-1.014342,-0.425468
1765409293.698756,-7.780965,0.978001,-6.252988,-0.824363,-1.003499,-0.419054
1765409293.699006,-7.780965,0.978001,-6.252988,-0.824363,-1.025337,-0.419054
1765409293.699256,-8.524628,0.431612,-5.744260,-0.826195,-1.038929,-0.430813
1765409293.699492,-8.038617,0.023912,-6.581181,-0.841772,-1.038929,-0.435700
1765409293.699825,-7.849712,0.997130,-6.352223,-0.821919,-1.017091,-0.444710
1765409293.700159,-7.754662,1.634983,-6.743782,-0.853226,-1.017091,-0.445015
1765409293.700553,-7.853299,1.317551,-5.545791,-0.857960,-1.025337,-0.432034
1765409293.700803,-7.976446,0.621712,-5.876972,-0.869872,-1.040609,-0.426689
1765409293.701053,-8.474413,0.676710,-5.557746,-0.871094,-1.062600,-0.442725
1765409293.701303,-8.170731,0.919416,-6.148971,-0.872621,-1.040914,-0.449444
1765409293.701458,-7.318268,0.496174,-7.006216,-0.879646,-1.057866,-0.449902
1765409293.701791,-7.814442,1.038976,-7.021759,-0.903470,-1.063058,-0.461814
1765409293.702125,-7.816833,0.607365,-6.688784,-0.896903,-1.050077,-0.456469
1765409293.702492,-7.825800,0.471066,-6.875299,-0.892627,-1.041220,-0.454331
1765409293.702742,-7.574724,0.522477,-6.557268,-0.899804,-1.053437,-0.467312
1765409293.702992,-7.696077,1.051530,-5.921807,-0.912022,-1.034653,-0.468075
1765409293.703242,-7.283596,0.358680,-6.599114,-0.913854,-1.027323,-0.452040
1765409293.703511,-7.087517,0.127929,-6.493304,-0.912174,-1.030224,-0.461661
1765409293.703844,-7.648253,0.429818,-6.179459,-0.903164,-1.030224,-0.472199
1765409293.704178,-8.085843,1.682807,-5.961262,-0.905913,-1.031446,-0.481820
1765409293.704488,-7.838354,1.196796,-5.084887,-0.912785,-1.029613,-0.469755
1765409293.704738,-7.193926,1.055715,-6.273314,-0.928515,-1.029003,-0.470519
1765409293.704988,-7.689501,1.365973,-5.936154,-0.939358,-1.047787,-0.481362
1765409293.705238,-7.703251,1.224294,-6.286465,-0.934624,-1.029155,-0.465174
1765409293.705503,-7.503585,0.651602,-6.307986,-0.945772,-1.043205,-0.465785
1765409293.705836,-8.383547,1.207556,-4.893591,-0.955393,-1.040609,-0.474184
1765409293.706170,-8.064919,0.546389,-5.106408,-0.969749,-1.037555,-0.473573
1765409293.706458,-8.064919,0.546389,-5.106408,-0.969749,-1.056339,-0.473573
1765409293.706708,-7.757053,0.269010,-5.725729,-0.971428,-1.065044,-0.485638
1765409293.706958,-8.170731,0.587040,-5.602582,-0.959822,-1.067640,-0.485943
1765409293.707208,-7.987804,0.229555,-5.649210,-0.970512,-1.070083,-0.480293
1765409293.707540,-7.154471,0.267217,-6.670253,-0.972497,-1.064280,-0.493274
1765409293.707873,-7.473696,1.322334,-6.373146,-0.983798,-1.075276,-0.507476
1765409293.708207,-7.228000,1.359995,-6.550693,-0.978606,-1.061378,-0.491594
1765409293.708463,-7.042084,0.791487,-6.854375,-0.994183,-1.070083,-0.485943
1765409293.708713,-8.126493,1.271520,-5.847680,-1.006095,-1.045038,-0.494954
1765409293.708963,-7.421687,0.978001,-6.337875,-1.012509,-1.007470,-0.487012
1765409293.709213,-7.605810,0.465686,-5.940937,-1.016938,-1.026559,-0.484416
1765409293.709477,-8.070300,0.494978,-4.929459,-1.015105,-1.018312,-0.486554
1765409293.709810,-8.420611,-0.052606,-4.982663,-1.012204,-1.021367,-0.488081
1765409293.710144,-7.514346,0.039455,-6.115495,-1.016022,-1.043052,-0.500299
1765409293.710516,-7.633906,0.791487,-6.643352,-1.033126,-1.043052,-0.510531
1765409293.710766,-8.241271,0.401722,-5.560138,-1.023046,-1.044121,-0.492357
1765409293.711016,-8.072691,0.123147,-5.896699,-1.020450,-1.023352,-0.493885
1765409293.711266,-8.617886,0.920014,-4.921090,-1.039235,-1.016785,-0.516028
1765409293.711500,-8.075083,1.256576,-5.261836,-1.041525,-1.059393,-0.505338
1765409293.711833,-8.022476,1.236250,-5.596604,-1.059088,-1.059393,-0.501368
1765409293.712167,-8.947272,1.354615,-4.502630,-1.074970,-1.058324,-0.506255
1765409293.712533,-7.994977,1.006695,-6.074246,-1.072374,-1.031751,-0.489608
1765409293.712783,-8.061334,0.504543,-6.027020,-1.078788,-1.047176,-0.486554
1765409293.713033,-7.515542,0.836920,-6.213533,-1.078788,-1.023810,-0.488387
1765409293.713283,-8.211381,0.340746,-5.159014,-1.088715,-1.029308,-0.484111
1765409293.713437,-8.211381,0.340746,-5.159014,-1.088715,-1.031599,-0.484111
1765409293.713770,-8.793638,-0.353300,-5.284552,-1.081384,-1.025948,-0.495106
1765409293.714104,-8.219750,-0.260641,-5.130320,-1.055117,-1.001514,-0.497244
1765409293.714475,-7.337397,0.144668,-6.776661,-1.069778,-1.010218,-0.514654
1765409293.714725,-8.457674,0.700622,-4.735174,-1.080926,-1.029308,-0.525039
1765409293.714975,-8.677665,1.285270,-5.072931,-1.076955,-1.010371,-0.515265
1765409293.715225,-8.921568,1.001913,-4.325083,-1.085966,-0.988074,-0.508545
1765409293.715495,-8.078670,1.006695,-5.604375,-1.093907,-0.988074,-0.502742
1765409293.715745,-8.188067,0.955284,-5.804638,-1.106582,-1.019076,-0.496939
1765409293.715995,-8.931729,0.753228,-4.546867,-1.094671,-1.028392,-0.484569
1765409293.716245,-9.286225,-0.160808,-4.051291,-1.121396,-1.025337,-0.488234
1765409293.716459,-9.030965,0.436394,-4.050693,-1.098794,-1.019992,-0.487318
1765409293.716792,-8.256814,-0.222382,-5.371831,-1.107957,-1.019992,-0.485791
1765409293.717126,-8.139645,-0.127929,-5.393352,-1.097267,-1.052215,-0.485791
1765409293.717469,-8.853418,0.925394,-4.777617,-1.118647,-1.061073,-0.507171
1765409293.717719,-9.766856,0.853658,-3.614897,-1.111317,-1.065960,-0.495717
1765409293.717969,-9.251553,0.998924,-4.571975,-1.123687,-1.049772,-0.489914
1765409293.718219,-9.176828,0.817790,-4.643710,-1.130559,-1.064433,-0.493579
1765409293.718456,-9.176828,0.817790,-4.643710,-1.130559,-1.033431,-0.493579
1765409293.718789,-8.912003,0.419656,-5.549976,-1.147816,-1.042136,-0.487165
1765409293.719123,-9.872069,1.030009,-3.867766,-1.135751,-1.042136,-0.479224
1765409293.719480,-9.872069,1.030009,-3.867766,-1.135751,-1.024116,-0.479224
1765409293.719730,-8.397895,-0.240316,-5.749640,-1.142318,-1.009608,-0.476780
1765409293.719980,-8.228120,-0.087279,-5.634863,-1.142318,-1.014494,-0.476780
1765409293.720230,-8.481586,-0.156624,-4.109277,-1.130559,-1.010829,-0.477391
1765409293.720504,-8.402080,0.296509,-4.492467,-1.160339,-1.010829,-0.494037
1765409293.720837,-7.996173,1.059302,-4.606647,-1.142165,-1.019076,-0.487012
1765409293.721171,-7.183763,0.543400,-6.725250,-1.161866,-1.023352,-0.470977
1765409293.721487,-8.353060,0.766380,-5.215207,-1.160644,-1.048245,-0.472810
1765409293.721737,-9.027975,0.670732,-4.201937,-1.176221,-0.991434,-0.467617
1765409293.721987,-8.622667,-0.506934,-3.995695,-1.167058,-1.010524,-0.457385
1765409293.722237,-8.696197,0.000000,-4.299378,-1.175610,-1.004873,-0.468075
1765409293.722493,-8.647776,0.014347,-4.365734,-1.160186,-1.024727,-0.462120
1765409293.722826,-8.807985,-0.190100,-4.799139,-1.163546,-1.024727,-0.455400
1765409293.723160,-9.182209,-0.848278,-4.395624,-1.168891,-1.050383,-0.460440
1765409293.723476,-9.569583,0.432209,-4.319703,-1.149648,-1.032057,-0.473726
1765409293.723726,-9.116450,0.166188,-4.234815,-1.164004,-1.023963,-0.469450
1765409293.723976,-8.546149,1.258369,-5.099234,-1.152550,-1.006706,-0.464105
1765409293.724226,-8.488163,0.750837,-5.545193,-1.184010,-1.025643,-0.457996
1765409293.724497,-9.109277,0.729316,-4.224055,-1.175305,-1.016480,-0.447612
1765409293.724747,-9.014825,-0.060976,-4.265303,-1.190118,-1.008844,-0.447612
1765409293.724997,-9.041127,0.374821,-3.880918,-1.182635,-0.998307,-0.451124
1765409293.725247,-8.695600,-0.365854,-5.068149,-1.187217,-0.998917,-0.448070
1765409293.725454,-8.678861,0.222382,-4.598278,-1.171334,-1.005790,-0.442572
1765409293.725787,-8.678861,0.222382,-4.598278,-1.171334,-0.991129,-0.442572
1765409293.726121,-9.085963,-0.098039,-3.547345,-1.155757,-1.009149,-0.431118
1765409293.726552,-8.682447,0.234338,-4.585724,-1.172250,-0.996474,-0.443183
1765409293.726802,-8.336919,0.479436,-4.658058,-1.156062,-1.019840,-0.443641
1765409293.727052,-8.228120,0.547585,-5.025107,-1.169502,-1.010371,-0.437532
1765409293.727302,-9.182209,0.706600,-3.847441,-1.171639,-1.020603,-0.430965
1765409293.727516,-9.642514,0.631277,-3.230511,-1.177137,-1.013273,-0.422566
1765409293.727849,-9.441055,-0.040053,-3.658536,-1.176068,-1.028239,-0.418595
1765409293.728183,-8.959826,0.205643,-4.306551,-1.178512,-1.028544,-0.416152
1765409293.728545,-8.944283,-0.175753,-4.298182,-1.170418,-1.047176,-0.405004
1765409293.728795,-9.647297,-0.245098,-3.690219,-1.173625,-1.060462,-0.405462
1765409293.729045,-9.397416,-0.931372,-3.347680,-1.168891,-1.046107,-0.407142
1765409293.729295,-8.475011,-0.104017,-4.655666,-1.158048,-1.044427,-0.420275
1765409293.729447,-8.807985,-0.008369,-4.301769,-1.180192,-1.059393,-0.430507
1765409293.729780,-8.909611,1.150167,-4.788378,-1.147816,-1.030682,-0.418901
1765409293.730114,-8.559300,0.182329,-4.723218,-1.182330,-1.024879,-0.412945
1765409293.730475,-8.984934,0.529053,-3.738642,-1.167974,-1.009455,-0.411112
1765409293.730725,-9.016020,0.243902,-3.969392,-1.183551,-1.000903,-0.401644
1765409293.730975,-9.016020,0.243902,-3.969392,-1.183551,-1.006248,-0.401644
1765409293.731225,-8.730271,-0.358680,-4.164275,-1.175457,-0.994794,-0.378736
1765409293.731567,-9.036345,-0.477044,-3.671688,-1.165378,-1.019229,-0.381333
1765409293.731817,-8.983739,-1.183644,-4.342419,-1.165378,-1.015869,-0.383929
1765409293.732067,-8.823528,-0.610952,-4.067431,-1.134682,-1.024879,-0.395841
1765409293.732317,-8.921568,0.120756,-4.265901,-1.158048,-1.006706,-0.404851
1765409293.732552,-9.238999,0.778933,-3.635820,-1.149648,-1.011593,-0.394924
1765409293.732885,-9.662840,0.772358,-3.427785,-1.166905,-1.010829,-0.383013
1765409293.733219,-10.270802,0.754424,-2.535270,-1.173930,-1.002277,-0.378431
1765409293.733513,-9.698110,0.307269,-3.045791,-1.177595,-1.002277,-0.363618
1765409293.733763,-9.329267,-0.309063,-3.628646,-1.170570,-1.031751,-0.359800
1765409293.734013,-9.385460,-0.399330,-4.245576,-1.171639,-1.028850,-0.360105
1765409293.734263,-9.924676,-0.587040,-2.930416,-1.164462,-1.029919,-0.364839
1765409293.734491,-9.805116,-0.424438,-3.017694,-1.157590,-1.008844,-0.359189
1765409293.734824,-9.041725,-1.235653,-3.899450,-1.157284,-1.008844,-0.359189
1765409293.735158,-8.757771,-0.793878,-4.216881,-1.133308,-1.013884,-0.371101
1765409293.735577,-9.408176,0.303682,-3.724294,-1.141249,-1.033737,-0.380569
1765409293.735827,-9.408176,0.303682,-3.724294,-1.141249,-1.013120,-0.380569
1765409293.736077,-9.357364,0.371832,-3.742228,-1.150107,-0.996016,-0.355371
1765409293.736327,-9.588712,0.477642,-3.559899,-1.149190,-0.996016,-0.351095
1765409293.736520,-9.323887,0.624701,-3.624461,-1.139111,-0.987158,-0.335976
1765409293.736853,-9.908535,-0.392755,-2.319464,-1.148885,-1.012815,-0.327882
1765409293.737187,-9.838593,-0.512912,-2.900526,-1.147969,-0.999528,-0.332616
1765409293.741691,-9.470347,-0.948709,-2.942372,-1.127810,-1.003041,-0.330631
1765409293.741941,-9.091941,-0.760999,-3.301052,-1.118036,-0.998459,-0.328493
1765409293.742191,-9.326876,-0.931372,-2.995576,-1.114218,-1.010829,-0.327729
1765409293.742441,-10.267813,-0.444763,-2.198709,-1.091005,-1.016327,-0.328035
1765409293.741799,-9.665230,0.147059,-2.743902,-1.100321,-1.015563,-0.337961
1765409293.742132,-9.665230,0.147059,-2.743902,-1.100321,-1.039387,-0.337961
1765409293.742466,-9.252748,0.408895,-3.256814,-1.103986,-1.038318,-0.313832
1765409293.742539,-9.429697,0.272597,-3.174916,-1.102459,-1.059240,-0.309709
1765409293.742789,-9.621591,0.064562,-2.525107,-1.114218,-1.045038,-0.307571
1765409293.743039,-9.173840,-0.492587,-3.568866,-1.116204,-1.045038,-0.295506
1765409293.743289,-8.473217,-0.477642,-4.917503,-1.112233,-1.051757,-0.305280
1765409293.743489,-8.879124,-0.566117,-4.185198,-1.109179,-1.040303,-0.302836
1765409293.743822,-9.423719,-0.491989,-2.948350,-1.074665,-1.040762,-0.290619
1765409293.744156,-9.719033,-0.899091,-2.605810,-1.088562,-0.995405,-0.302226
1765409293.744539,-8.977760,-1.016260,-3.178503,-1.077719,-0.995405,-0.293826
1765409293.744789,-8.691415,-0.846485,-4.127212,-1.050230,-1.008691,-0.292604
1765409293.745039,-10.220587,0.357484,-1.861549,-1.075276,-1.022283,-0.314748
1765409293.745289,-10.809420,0.597202,-1.118484,-1.065349,-0.995099,-0.300088
1765409293.745537,-9.955164,0.020325,-2.262075,-1.062753,-1.014189,-0.286343
1765409293.745787,-8.641797,-0.106408,-3.828909,-1.083828,-1.010371,-0.288634
1765409293.746037,-8.512672,0.243305,-3.417025,-1.076192,-1.003193,-0.282067
1765409293.746287,-8.737445,-0.127929,-3.101984,-1.070847,-1.032057,-0.273362
1765409293.746499,-10.051410,-0.102822,-1.886059,-1.070694,-1.032057,-0.271071
1765409293.746832,-10.051410,-0.102822,-1.886059,-1.070694,-1.004110,-0.271071
1765409293.747166,-9.050693,-0.869201,-3.237685,-1.057713,-1.009149,-0.260381
1765409293.747519,-8.664514,-1.067671,-3.389526,-1.058782,-1.038929,-0.271071
1765409293.747852,-9.601864,-0.887733,-2.260880,-1.043358,-1.043358,-0.268781
1765409293.748186,-9.793160,-0.952893,-2.783955,-1.026712,-1.026864,-0.267406
1765409293.748525,-9.793160,-0.952893,-2.783955,-1.026712,-1.036486,-0.267406
1765409293.748775,-8.709947,0.038857,-3.238283,-1.041067,-1.002124,-0.275806
1765409293.749025,-8.461859,0.674916,-3.769727,-1.022588,-1.019229,-0.259312
1765409293.749275,-9.485293,0.191296,-2.373266,-1.030835,-1.032210,-0.253356
1765409293.749527,-9.740554,0.106408,-2.084529,-1.026406,-1.000445,-0.241903
1765409293.749777,-9.184600,-0.329986,-2.648852,-1.018770,-0.996321,-0.228769
1765409293.750027,-9.039932,-0.748446,-3.122907,-1.025490,-1.002277,-0.230296
1765409293.750277,-9.789574,-0.524271,-2.073170,-1.015411,-0.993572,-0.239612
1765409293.750480,-10.195478,-1.025825,-1.260162,-1.005790,-0.993420,-0.232129
1765409293.750813,-9.723815,-1.218914,-1.620038,-0.995405,-0.993420,-0.241444
1765409293.751147,-9.807508,-0.777140,-1.928503,-0.990365,-1.004110,-0.247095
1765409293.751503,-9.875656,-0.851267,-1.911764,-0.982729,-1.016480,-0.242055
1765409293.751753,-9.894188,-0.779531,-2.189144,-0.970054,-1.020145,-0.236863
1765409293.752003,-9.690338,-0.680296,-1.675036,-0.956768,-1.023810,-0.240070
1765409293.752253,-10.257649,0.332975,-1.125060,-0.961349,-1.025643,-0.243124
1765409293.752499,-9.823050,0.333572,-1.436514,-0.955088,-1.023963,-0.221286
1765409293.752832,-9.649090,0.133907,-1.886657,-0.948368,-1.041831,-0.207541
1765409293.753166,-9.498445,-0.527857,-2.031324,-0.954630,-1.052674,-0.208305
1765409293.753555,-9.498445,-0.527857,-2.031324,-0.954630,-1.045801,-0.208305
1765409293.753805,-9.129601,-0.529651,-2.238163,-0.935846,-1.029461,-0.205556
1765409293.754055,-8.989119,-0.297704,-3.104973,-0.926988,-1.074207,-0.210138
1765409293.754305,-9.717837,-0.506337,-2.316475,-0.939816,-1.045496,-0.212734
1765409293.754478,-9.334647,-0.469871,-1.953610,-0.920116,-1.011898,-0.201738
1765409293.754811,-9.074604,-1.067671,-1.784433,-0.923170,-1.005942,-0.199447
1765409293.755145,-9.447632,-0.906265,-1.657102,-0.914923,-1.015716,-0.208610
1765409293.755493,-9.979673,-0.994141,-0.983381,-0.891711,-1.005790,-0.198378
1765409293.755743,-10.021520,-0.815399,-1.144787,-0.886365,-0.986700,-0.200822
1765409293.755993,-9.567192,-1.144189,-1.274510,-0.883311,-0.984409,-0.197309
1765409293.756243,-8.917980,-0.775944,-1.816117,-0.879493,-0.988227,-0.200822
1765409293.756499,-9.094930,0.053802,-2.088713,-0.862389,-1.014953,-0.196851
1765409293.756832,-9.478717,0.164993,-1.451458,-0.855517,-1.003041,-0.185703
1765409293.757166,-8.967000,-0.399928,-1.652319,-0.860404,-0.980897,-0.173944
1765409293.757517,-9.094332,-0.567910,-1.380918,-0.855669,-0.980897,-0.176693
1765409293.757767,-9.538497,-0.749641,-0.730512,-0.849408,-0.977995,-0.181732
1765409293.758017,-9.906144,-0.542802,-0.162602,-0.846812,-0.987158,-0.184634
1765409293.758267,-9.906144,-0.542802,-0.162602,-0.846812,-0.972192,-0.184634
1765409293.758510,-8.342299,-0.601985,-2.453969,-0.833526,-0.982271,-0.177151
1765409293.758843,-8.823528,-0.718556,-1.527977,-0.839482,-0.982119,-0.182649
1765409293.759177,-9.351983,-0.606169,-0.646820,-0.825584,-0.971123,-0.186008
1765409293.759441,-9.650286,-0.188905,-0.434601,-0.818407,-0.949743,-0.180205
1765409293.759691,-8.977760,-0.719153,-1.284672,-0.812756,-0.950812,-0.164475
1765409293.759941,-8.827115,-0.859636,-1.489718,-0.810465,-0.957531,-0.166155
1765409293.760191,-9.196555,-0.946915,-1.270923,-0.801913,-0.952797,-0.164323
1765409293.760454,-9.285029,-1.120277,-1.376136,-0.792292,-0.942565,-0.168599
1765409293.760787,-9.253944,-1.247011,-0.888331,-0.772592,-0.924850,-0.169362
1765409293.761121,-8.951457,-0.778336,-1.455643,-0.762513,-0.914923,-0.173791
1765409293.761445,-9.108081,-0.480631,-0.576279,-0.760069,-0.913396,-0.171195
1765409293.761695,-9.535507,-0.081301,-0.651004,-0.763582,-0.919810,-0.173486
1765409293.761945,-9.617407,-0.068149,-0.139885,-0.749379,-0.908815,-0.163101
1765409293.762195,-8.744021,-0.457915,-1.236250,-0.740521,-0.905608,-0.155618
1765409293.762497,-8.739837,-0.263032,-0.467480,-0.740980,-0.905608,-0.161879
1765409293.762830,-9.173840,-0.083692,-0.176949,-0.738078,-0.889878,-0.155618
1765409293.763164,-9.953967,-0.239120,0.710186,-0.735634,-0.887434,-0.150578
1765409293.763443,-9.850550,-0.298302,0.159015,-0.733955,-0.898277,-0.141721
1765409293.763693,-9.918099,-0.793878,0.130320,-0.726166,-0.902248,-0.147219
1765409293.763943,-8.879722,-0.566714,-0.759804,-0.709367,-0.902248,-0.153785
1765409293.764193,-8.879722,-0.566714,-0.759804,-0.709367,-0.910189,-0.153785
1765409293.764450,-9.858918,-0.387374,0.558345,-0.710284,-0.911411,-0.151036
1765409293.764700,-9.357364,-0.869799,-0.789096,-0.701884,-0.906982,-0.142484
1765409293.764950,-8.884504,-0.558345,-1.104735,-0.691958,-0.881937,-0.148746
1765409293.765200,-7.987804,-0.990555,-1.874701,-0.676686,-0.863305,-0.139735
1765409293.765442,-8.364418,-0.949306,-0.876375,-0.681267,-0.872316,-0.150731
1765409293.765775,-8.575441,-0.902080,-0.876375,-0.680351,-0.837649,-0.155160
1765409293.766109,-8.527020,-0.865614,-0.827355,-0.653168,-0.837649,-0.148593
1765409293.766459,-8.119320,-0.881157,-0.868603,-0.653168,-0.832151,-0.148593
1765409293.766709,-8.670492,-0.748446,-0.298900,-0.640034,-0.818254,-0.153022
1765409293.766959,-8.377569,-0.840507,-1.044954,-0.621708,-0.828333,-0.149357
1765409293.767209,-8.804399,-0.240913,-0.413080,-0.622472,-0.817338,-0.154702
1765409293.767455,-9.087756,-0.408895,-0.111191,-0.622014,-0.817338,-0.153785
1765409293.767788,-9.133189,0.157221,0.038259,-0.612545,-0.799164,-0.150884
1765409293.768122,-8.939502,-0.069345,-0.186514,-0.616668,-0.788169,-0.140346
1765409293.768517,-9.526542,-0.258250,0.462697,-0.616668,-0.801455,-0.141263
1765409293.768767,-9.782400,-0.622908,0.813008,-0.614225,-0.784046,-0.142637
1765409293.769017,-9.552844,-0.444165,0.532042,-0.609949,-0.784046,-0.147219
1765409293.769267,-9.105690,-0.419058,-0.211621,-0.610713,-0.780991,-0.148440
1765409293.769467,-8.961620,-0.126734,-0.045433,-0.601702,-0.771523,-0.145844
1765409293.769717,-8.946675,-0.065758,0.104017,-0.595746,-0.771523,-0.145233
1765409293.769967,-8.481586,-0.340746,-0.618125,-0.601244,-0.755488,-0.137597
1765409293.770217,-8.561692,0.142276,-0.606169,-0.592081,-0.751059,-0.138361
1765409293.770481,-9.061452,-0.449546,-0.138690,-0.592081,-0.743728,-0.138361
1765409293.770731,-8.676469,-0.658776,-0.129125,-0.578795,-0.731511,-0.132558
1765409293.770981,-8.480989,-0.500956,-0.917025,-0.579711,-0.707077,-0.135918
1765409293.771231,-8.708751,-0.644428,0.084290,-0.575588,-0.707382,-0.138972
1765409293.771451,-8.912003,-0.661167,-0.039455,-0.565661,-0.686613,-0.136070
1765409293.771784,-9.078789,-0.641439,0.070540,-0.550542,-0.681420,-0.138972
1765409293.772118,-8.664514,-0.536227,0.020923,-0.543823,-0.668745,-0.136070
1765409293.772444,-8.845647,-0.630679,0.176351,-0.538172,-0.660498,-0.133779
1765409293.772694,-8.858201,-0.887135,-0.081301,-0.537256,-0.666454,-0.132710
1765409293.772944,-9.177425,-1.050932,0.153037,-0.529620,-0.667523,-0.140804
1765409293.773194,-9.379482,-0.783118,0.426231,-0.513890,-0.642019,-0.150273
1765409293.773527,-9.027975,-0.873984,0.350909,-0.501368,-0.641409,-0.138056
1765409293.773777,-8.658535,-0.629483,-0.420851,-0.505796,-0.637743,-0.149204
1765409293.774027,-8.735054,-0.673721,0.345528,-0.499993,-0.648892,-0.147524
1765409293.774277,-9.243184,-0.569106,0.591224,-0.489456,-0.641714,-0.150731
1765409293.774465,-9.634145,-0.261836,0.754424,-0.474795,-0.633467,-0.145539
1765409293.774715,-9.565996,-0.382592,0.643233,-0.468075,-0.608269,-0.141110
1765409293.774965,-9.242586,-0.381396,0.534433,-0.465174,-0.608269,-0.141721
1765409293.775215,-9.524150,-0.825562,0.276184,-0.453415,-0.606742,-0.132405
1765409293.775476,-9.835006,-1.110115,0.586442,-0.450208,-0.612545,-0.147066
1765409293.775809,-9.436871,-0.465088,0.125538,-0.447764,-0.569937,-0.159894
1765409293.776143,-9.436871,-0.465088,0.125538,-0.447764,-0.547335,-0.159894
1765409293.776503,-8.939502,-0.234338,-0.068149,-0.444099,-0.540768,-0.145539
1765409293.776753,-9.056670,0.062171,0.350311,-0.448833,-0.526108,-0.146455
1765409293.777003,-8.568866,-0.373625,0.073529,-0.436310,-0.498008,-0.135154
1765409293.777253,-7.653634,-0.520086,-0.706600,-0.430355,-0.491594,-0.133627
1765409293.777471,-8.190458,-0.160808,-0.106408,-0.426231,-0.490067,-0.140194
1765409293.777721,-8.647776,-0.237924,0.633668,-0.423940,-0.473879,-0.131336
1765409293.777971,-8.384146,-0.847680,-0.044237,-0.418443,-0.466701,-0.127213
1765409293.778221,-7.955523,-0.859636,-0.621712,-0.415847,-0.457233,-0.142332
1765409293.778503,-8.501911,-0.454328,0.074725,-0.412181,-0.443335,-0.148440
1765409293.778753,-8.839071,-0.411884,0.133907,-0.403629,-0.437074,-0.142179
1765409293.779003,-8.565279,-0.349115,-0.101626,-0.399659,-0.426537,-0.146608
1765409293.779253,-8.462457,-0.318030,-0.234338,-0.398895,-0.407905,-0.145080
1765409293.779480,-8.358440,-0.350311,0.343137,-0.386830,-0.383471,-0.138208
1765409293.779813,-8.396699,-0.529053,0.058584,-0.389427,-0.381333,-0.141110
1765409293.780147,-8.953849,-0.634864,0.542802,-0.385151,-0.372628,-0.144775
1765409293.780513,-8.727283,-0.643233,-0.113582,-0.374002,-0.361327,-0.146150
1765409293.780763,-8.725489,-0.621712,0.163797,-0.373391,-0.356134,-0.151495
1765409293.781013,-8.486369,-0.331181,-0.103419,-0.374002,-0.337961,-0.154243
1765409293.781263,-8.467239,-0.410689,-0.020325,-0.375071,-0.337961,-0.151800
1765409293.781465,-8.024867,-0.378407,-0.802248,-0.362090,-0.328951,-0.151647
1765409293.781715,-8.617886,-0.021521,0.011956,-0.360410,-0.319330,-0.155007
1765409293.781965,-8.501911,-0.217599,0.041248,-0.364076,-0.297950,-0.150578
1765409293.782215,-8.372787,-0.246294,-0.238522,-0.356134,-0.288023,-0.153480
1765409293.782493,-8.222141,-0.341942,-0.552367,-0.351400,-0.265115,-0.153327
1765409293.782743,-8.222141,-0.341942,-0.552367,-0.351400,-0.259160,-0.153327
1765409293.782993,-9.243781,-0.224773,0.729914,-0.343459,-0.248775,-0.158061
1765409293.783243,-9.593494,-0.173362,0.662362,-0.338419,-0.235947,-0.160963
1765409293.783421,-9.468554,-0.212817,0.732903,-0.341779,-0.219606,-0.159283
1765409293.783754,-8.860592,-0.197274,-0.004782,-0.326813,-0.200364,-0.157298
1765409293.784088,-9.002869,-0.262434,0.371832,-0.310625,-0.205251,-0.156534
1765409293.784440,-9.267097,-0.288140,0.498565,-0.317039,-0.195324,-0.159436
1765409293.784690,-9.512792,-0.092659,0.606767,-0.309403,-0.179442,-0.158825
1765409293.784940,-9.014825,-0.716164,0.053802,-0.297339,-0.161879,-0.153633
1765409293.785190,-8.791247,-0.490196,-0.166188,-0.291688,-0.155007,-0.163406
1765409293.785433,-9.348397,-0.298900,0.576279,-0.284358,-0.154854,-0.168599
1765409293.785683,-9.233619,-0.371832,0.423242,-0.275958,-0.118813,-0.166308
1765409293.785933,-8.894667,-0.377810,-0.160210,-0.262825,-0.118813,-0.164323
1765409293.786183,-8.843853,-0.399928,0.000598,-0.264963,-0.108581,-0.168752
1765409293.786463,-9.486489,-0.249880,0.775944,-0.253662,-0.112552,-0.169210
1765409293.786713,-9.335245,-0.159015,0.555356,-0.243430,-0.095906,-0.164781
1765409293.786963,-8.911405,-0.352702,-0.129125,-0.237474,-0.082467,-0.161116
1765409293.787213,-9.063844,-0.545194,0.292324,-0.234267,-0.082467,-0.163254
1765409293.787454,-9.308344,-0.282162,0.410091,-0.234267,-0.076511,-0.163254
1765409293.787704,-9.429697,-0.356289,0.642037,-0.220064,-0.065363,-0.166919
1765409293.787954,-9.271878,-0.270803,0.309660,-0.210596,-0.046731,-0.166461
1765409293.788204,-9.271878,-0.270803,0.309660,-0.210596,-0.049938,-0.166461
1765409293.788454,-9.521759,-0.449546,0.475849,-0.198989,-0.049786,-0.172264
1765409293.788704,-9.521759,-0.449546,0.475849,-0.198989,-0.039248,-0.172264
1765409293.788954,-9.183404,-0.089670,0.153635,-0.173638,-0.023824,-0.150120
1765409293.789204,-9.158894,-0.056193,0.200263,-0.162185,-0.023824,-0.145844
1765409293.789424,-9.158894,-0.056193,0.200263,-0.162185,-0.016341,-0.145844
1765409293.789674,-9.207316,-0.315638,-0.029890,-0.144470,-0.012675,-0.136223
1765409293.789924,-9.333451,-0.118962,-0.139885,-0.138208,-0.005803,-0.137139
1765409293.790174,-9.506216,-0.007771,0.471066,-0.130725,0.015882,-0.131794
1765409293.790424,-9.451219,-0.170373,0.613343,-0.123547,0.023976,-0.117897
1765409293.790674,-9.509205,-0.206839,0.405906,-0.118202,0.019853,-0.113163
1765409293.790924,-9.761477,-0.340746,0.395744,-0.108581,0.020311,-0.109956
1765409293.791174,-9.836202,-0.465088,0.272597,-0.096059,0.020311,-0.095295
1765409293.791414,-10.008368,-0.489000,0.246294,-0.088423,0.029932,-0.089339
1765409293.791664,-10.401721,-0.412482,0.619321,-0.083230,0.038790,-0.080329
1765409293.791914,-10.784312,-0.514108,0.697035,-0.069486,0.039401,-0.066737
1765409293.792164,-10.766378,-0.608560,0.486609,-0.063072,0.038943,-0.056810
1765409293.792424,-10.909850,-0.780727,0.673123,-0.051465,0.040164,-0.045662
1765409293.792674,-11.207555,-0.952893,0.869201,-0.039859,0.042302,-0.040012
1765409293.792924,-11.236847,-1.133429,0.741272,-0.034208,0.033750,-0.034208
1765409293.793174,-11.199186,-0.992946,0.631277,-0.026114,0.022449,-0.033750
1765409293.793415,-11.098756,-0.983979,0.558345,-0.023366,0.021380,-0.028863
1765409293.793615,-11.099952,-0.834529,0.664754,-0.019700,0.012217,-0.024893
1765409293.793815,-11.099952,-0.834529,0.664754,-0.019700,0.004887,-0.024893
1765409293.794015,-10.707793,-0.661167,0.248087,-0.005803,-0.005498,-0.015272
1765409293.794215,-10.349711,-0.530846,0.124940,-0.008399,-0.004581,-0.009316
1765409293.794430,-10.066953,-0.486011,0.197274,-0.009010,-0.007789,-0.003971
1765409293.794680,-9.876254,-0.252272,0.093257,-0.009316,-0.007789,-0.005345
1765409293.794930,-9.876254,-0.252272,-0.145265,-0.009316,-0.013592,-0.005345
1765409293.795180,-9.539692,0.021521,-0.386777,-0.016799,-0.012828,0.011759
1765409293.795552,-9.725011,-0.316834,-0.043639,-0.015730,-0.014050,0.017410
1765409293.795752,-9.949782,-0.593615,0.376016,-0.015424,-0.006567,0.018631
1765409293.795952,-9.907339,-0.648015,0.255858,-0.014203,-0.002443,0.013897
1765409293.796152,-9.780008,-0.325203,-0.004185,-0.008094,-0.003360,0.008094
1765409293.796352,-9.933045,-0.278575,0.216404,-0.007330,-0.004734,0.015272
1765409293.796476,-10.032280,-0.353898,0.368843,-0.005345,-0.009927,0.019242
1765409293.796676,-10.241510,-0.231349,0.559541,-0.004123,-0.003971,0.013897
1765409293.796876,-10.064561,-0.111191,0.212817,0.002138,-0.003971,0.014966
1765409293.797076,-10.092059,-0.074127,0.298900,0.002749,-0.010996,0.017562
1765409293.797276,-10.321615,-0.082496,0.688666,0.006109,-0.008247,0.021075
1765409293.797441,-10.385580,-0.247489,0.862028,0.003207,-0.010843,0.015119
1765409293.797641,-10.385580,-0.247489,0.862028,0.003207,-0.009927,0.015119
1765409293.797841,-9.811692,-0.028694,-0.016141,0.010385,-0.014203,0.010385
1765409293.798041,-9.851745,0.112386,0.227164,0.015424,-0.017868,0.008552
1765409293.798241,-10.092059,0.161406,0.574486,0.017562,-0.017410,0.008858
1765409293.798505,-9.979673,0.304878,0.296509,0.017104,-0.008247,0.006261
1765409293.798705,-9.821257,0.313247,0.193687,0.012523,-0.014355,0.004734
1765409293.798905,-9.890003,0.436394,0.423242,0.011606,-0.015882,0.003360
1765409293.799105,-10.050214,0.335366,0.646820,0.008552,-0.015272,0.002749
1765409293.799305,-9.781204,0.269010,0.242109,0.008399,-0.016341,0.003818
1765409293.799462,-9.579147,0.347920,-0.072932,0.007636,-0.016341,-0.002596
1765409293.799662,-9.709468,0.533835,0.335366,0.002291,-0.016188,-0.001374
1765409293.799862,-9.984456,0.428025,0.626494,-0.001985,-0.013592,-0.000305
1765409293.800062,-9.892395,0.204448,0.430416,-0.002902,-0.007789,0.004429
1765409293.800262,-9.618603,0.124342,0.102822,-0.003512,-0.011759,-0.002138
1765409293.800490,-9.741750,0.159613,0.383788,-0.002902,-0.011759,-0.001985
1765409293.800690,-9.949186,0.344333,0.561932,-0.005803,-0.015730,-0.007789
1765409293.800890,-9.956957,0.491392,0.441176,-0.010385,-0.006261,-0.006414
1765409293.801090,-9.690338,0.464491,0.115375,-0.015119,-0.002291,-0.003207
1765409293.801290,-9.772237,0.367049,0.351506,-0.017562,-0.009163,-0.000153
1765409293.801452,-9.988043,0.170971,0.516499,-0.018631,-0.009163,-0.000764
1765409293.801702,-9.943806,0.009565,0.448350,-0.019090,-0.005192,-0.003360
1765409293.801952,-9.752509,0.056193,0.163797,-0.021228,-0.004123,-0.004276
1765409293.802202,-9.799137,0.092659,0.316834,-0.022755,-0.007789,-0.009316
1765409293.802552,-9.948587,0.050215,0.443568,-0.022449,-0.007789,-0.005498
1765409293.802752,-10.060975,0.025108,0.542802,-0.022602,-0.005651,-0.007178
1765409293.802952,-9.855330,-0.089670,0.166188,-0.020769,-0.001833,-0.007025
1765409293.803152,-9.785987,-0.160210,0.193687,-0.021686,-0.006872,-0.007789
1765409293.803352,-9.971304,-0.132712,0.429818,-0.020464,-0.010996,-0.008094
1765409293.803566,-10.131515,0.029292,0.624103,-0.017562,-0.008552,-0.009774
1765409293.803766,-9.897178,-0.004185,0.233740,-0.016188,-0.001222,-0.004123
1765409293.803966,-9.823050,-0.109995,0.173960,-0.021075,-0.005345,-0.007178
1765409293.804166,-10.003586,-0.161406,0.377212,-0.016188,-0.004429,-0.005651
1765409293.804366,-10.031085,-0.150048,0.402917,-0.016952,-0.004429,-0.007789
1765409293.804467,-10.031085,-0.150048,0.402917,-0.016952,-0.001069,-0.007789
1765409293.804717,-9.862504,-0.256456,0.247489,-0.011148,-0.000764,-0.004734
1765409293.804967,-10.010758,-0.286944,0.419656,-0.013439,-0.006872,-0.008858
1765409293.805217,-10.086082,-0.182927,0.393352,-0.013286,-0.002902,-0.007178
1765409293.805469,-9.898373,-0.185916,0.165591,-0.008094,-0.002902,-0.006261
1765409293.805669,-9.895982,-0.144668,0.269010,-0.008399,-0.007025,-0.005651
1765409293.805869,-10.087276,-0.132712,0.441176,-0.007636,-0.007025,-0.004887
1765409293.806069,-10.022716,-0.098039,0.317432,-0.009316,-0.001374,-0.003665
1765409293.806269,-9.912720,-0.132712,0.220588,-0.010232,-0.010690,-0.004734
1765409293.806444,-9.992825,-0.141679,0.400526,-0.008552,-0.010690,-0.003054
1765409293.806644,-10.106407,-0.163797,0.487207,-0.006567,-0.008094,0.002291
1765409293.806844,-9.986848,-0.154830,0.269010,-0.009316,-0.005192,-0.001069
1765409293.807044,-9.837996,-0.163797,0.211023,-0.007636,-0.005192,-0.001527
1765409293.807244,-9.837996,-0.163797,0.211023,-0.007636,-0.008552,-0.001527
1765409293.807570,-10.060975,-0.228360,0.388570,-0.007483,-0.011301,0.004429
1765409293.807770,-9.971304,-0.212817,0.292922,-0.004123,-0.006414,0.000153
1765409293.807970,-9.909731,-0.224175,0.313247,-0.007330,-0.005956,0.000764
1765409293.808170,-9.958152,-0.175753,0.396939,-0.005651,-0.009163,0.001985
1765409293.808370,-9.958152,-0.175753,0.396939,-0.005651,-0.008552,0.001985
1765409293.808518,-9.852941,-0.123147,0.150646,-0.004734,-0.006109,0.004581
1765409293.808718,-9.913317,-0.130320,0.309660,-0.006567,-0.007636,0.002749
1765409293.808918,-10.022716,-0.083094,0.477044,-0.003360,-0.007941,0.001985
1765409293.809118,-9.985053,-0.060976,0.387374,-0.003512,-0.007025,0.001680
1765409293.809318,-9.985053,-0.060976,0.387374,-0.003512,-0.004734,0.001680
1765409293.809437,-9.948587,-0.040053,0.434003,-0.004276,-0.008399,0.005498
1765409293.809637,-10.029889,-0.011956,0.448350,-0.005803,-0.008399,0.002443
1765409293.809837,-9.919893,0.012554,0.269010,-0.002596,-0.007330,0.007483
1765409293.810037,-9.875656,0.012554,0.270206,-0.006567,-0.007330,0.004581
1765409293.810237,-9.943806,-0.026303,0.429220,-0.006720,-0.006567,0.005192
1765409293.810446,-10.012553,0.025705,0.510521,-0.001680,-0.006567,0.004123
1765409293.810646,-9.918099,-0.003587,0.328790,-0.001527,-0.007025,0.002443
1765409293.810846,-9.843375,-0.001196,0.276184,-0.002291,-0.007330,0.003207
1765409293.811046,-10.001194,0.029890,0.431612,-0.004429,-0.007330,0.002902
1765409293.811246,-10.047822,0.013152,0.466284,-0.004123,-0.006567,0.001527
1765409293.811425,-9.882831,0.053802,0.290531,0.000458,-0.004123,0.003818
1765409293.811625,-9.747727,0.090866,0.136896,-0.001680,-0.006720,0.001374
1765409293.811825,-9.793160,0.108800,0.198470,-0.001680,-0.007789,0.001374
1765409293.812025,-10.015541,0.118364,0.511717,-0.003360,-0.010079,-0.000916
1765409293.812225,-10.007771,0.143472,0.428025,-0.007178,-0.003665,0.000458
1765409293.812500,-9.827832,0.146461,0.144668,-0.005040,-0.001680,-0.000458
1765409293.812700,-9.842180,0.096844,0.235533,-0.006567,-0.004429,0.000305
1765409293.812900,-10.007172,0.089072,0.471066,-0.008552,-0.004734,0.000305
1765409293.813100,-10.044236,0.107604,0.417862,-0.012370,-0.006720,-0.000611
1765409293.813300,-9.860114,0.128527,0.156624,-0.011148,-0.002443,-0.001374
1765409293.813422,-9.815877,0.117169,0.168580,-0.009163,-0.004581,0.001680
1765409293.813622,-9.970109,0.070540,0.401124,-0.010079,-0.011148,0.001680
1765409293.813822,-10.047822,-0.031086,0.455524,-0.012065,-0.008247,-0.001374
1765409293.814022,-9.857722,-0.016738,0.205643,-0.009468,-0.003360,-0.002596
1765409293.814222,-9.783595,0.007174,0.097441,-0.011148,-0.007483,-0.003665
1765409293.814537,-9.991630,-0.022716,0.413678,-0.011454,-0.008858,-0.001985
1765409293.814737,-10.150645,-0.039455,0.540411,-0.010843,-0.008858,0.000000
1765409293.814937,-10.020324,-0.033477,0.331181,-0.010232,-0.004276,-0.004276
1765409293.815137,-9.797942,-0.028694,0.099235,-0.006720,-0.003512,-0.004123
1765409293.815337,-9.812290,-0.076518,0.223577,-0.010537,-0.007483,-0.003512
1765409293.815589,-9.999999,-0.069345,0.485414,-0.010385,-0.009316,-0.003054
1765409293.815789,-10.003586,-0.023912,0.370636,-0.008552,-0.007941,-0.001985
1765409293.815989,-9.821257,-0.024510,0.162602,-0.008858,-0.007025,-0.005345
1765409293.816189,-9.899570,-0.043042,0.332377,-0.010232,-0.005498,-0.002749
1765409293.816389,-9.899570,-0.043042,0.463295,-0.010232,-0.012828,-0.002749
1765409293.816457,-9.964130,-0.050813,0.332975,-0.008399,-0.007483,-0.002138
1765409293.816657,-9.785987,-0.051411,0.184720,-0.009010,-0.002291,-0.001222
1765409293.816857,-9.854136,-0.060976,0.319225,-0.009927,-0.010079,-0.001833
1765409293.817057,-10.037063,-0.066954,0.494978,-0.009621,-0.007025,-0.002596
1765409293.817257,-10.010758,-0.062769,0.371832,-0.009468,-0.005192,-0.002443
1765409293.817439,-9.911524,-0.065160,0.276781,-0.008858,-0.005345,-0.003207
1765409293.817639,-9.948587,-0.074127,0.386777,-0.009927,-0.009163,-0.002443
1765409293.817839,-10.050214,-0.068747,0.441176,-0.007330,-0.010690,-0.000764
1765409293.818039,-9.937828,-0.047824,0.274390,-0.008094,-0.006109,0.001069
1765409293.818239,-9.837397,-0.074127,0.237924,-0.007636,-0.002902,-0.001833
1765409293.818554,-9.924676,-0.147059,0.418460,-0.009010,-0.007330,-0.002443
1765409293.818754,-10.066355,-0.106408,0.493783,-0.010537,-0.007941,-0.000916
1765409293.818954,-9.953370,-0.105213,0.311454,-0.006109,-0.003665,-0.002138
1765409293.819154,-9.851745,-0.101626,0.247489,-0.009316,-0.005803,-0.001374
1765409293.819354,-9.942013,-0.058584,0.402917,-0.008094,-0.005803,-0.000305
1765409293.821702,-9.934240,-0.065160,0.283955,-0.004887,-0.007941,0.000305
1765409293.821902,-9.867287,-0.099235,0.252272,-0.004734,-0.006872,-0.001680
1765409293.822102,-9.883428,-0.151841,0.338355,-0.007789,-0.006872,-0.001833
1765409293.822302,-10.043041,-0.053802,0.526064,-0.007025,-0.009468,-0.002138
1765409293.822502,-10.008965,0.004782,0.332377,-0.007178,-0.009010,-0.001985
1765409293.821769,-10.008965,0.004782,0.332377,-0.007178,-0.003665,-0.001985
1765409293.821969,-9.855929,-0.057389,0.297107,-0.006109,-0.007483,-0.000305
1765409293.822169,-9.973696,-0.029890,0.416667,-0.005651,-0.005956,0.001527
1765409293.822369,-9.945002,0.015543,0.303682,-0.004123,-0.007636,0.001374
1765409293.822569,-9.811094,0.025108,0.163797,-0.006872,-0.004123,0.000611
1765409293.822483,-9.876254,-0.015543,0.306074,-0.005192,-0.007636,0.000458
1765409293.822683,-10.071735,-0.020325,0.528455,-0.008552,-0.005651,0.001527
1765409293.822883,-10.074127,0.009565,0.455524,-0.004887,-0.005651,0.001222
1765409293.823083,-9.939023,0.049020,0.235533,-0.004887,-0.000611,0.001222
1765409293.823283,-9.924676,0.003587,0.292922,-0.005498,-0.006720,-0.000153
1765409293.823603,-10.031085,-0.039455,0.437590,-0.007330,-0.010385,0.003971
1765409293.823803,-10.115973,-0.007174,0.432807,-0.007178,-0.007025,0.000764
1765409293.824003,-9.937828,0.013152,0.286944,-0.006109,-0.005803,-0.001833
1765409293.824203,-9.839190,0.018532,0.240316,-0.009468,-0.006567,-0.000153
1765409293.824403,-10.013150,0.010760,0.465088,-0.008247,-0.012370,-0.001222
1765409293.824526,-10.092059,-0.022119,0.494978,-0.009010,-0.006109,0.001374
1765409293.824726,-9.882831,-0.022119,0.203252,-0.008399,-0.005651,0.000153
1765409293.824926,-9.846962,-0.038259,0.206839,-0.010232,-0.005651,-0.003054
1765409293.825126,-9.886416,-0.053204,0.312052,-0.010232,-0.008399,-0.003054
1765409293.825326,-10.074127,0.015543,0.504543,-0.006872,-0.004276,-0.001680
1765409293.825474,-9.925274,0.014945,0.266619,-0.006567,-0.004276,0.000458
1765409293.825674,-9.737565,-0.028694,0.084888,-0.009163,-0.000764,-0.001222
1765409293.825874,-9.864299,-0.016738,0.304878,-0.008247,-0.008552,-0.003818
1765409293.826074,-10.017933,0.013152,0.552367,-0.009468,-0.007941,-0.000916
1765409293.826274,-10.014346,-0.002989,0.376614,-0.007636,-0.006261,-0.003207
1765409293.826601,-9.858918,0.002391,0.191296,-0.008399,-0.006109,-0.002749
1765409293.826801,-9.879243,-0.038259,0.311454,-0.009010,-0.006720,-0.000305
1765409293.827001,-10.037660,-0.052606,0.462697,-0.010232,-0.009316,0.000764
1765409293.827201,-10.013150,-0.005978,0.413678,-0.009163,-0.007178,0.000305
1765409293.827401,-9.793160,0.023912,0.126734,-0.009927,-0.001069,-0.002596
1765409293.827507,-9.846365,-0.029292,0.255261,-0.010079,-0.005803,0.000458
1765409293.827707,-10.052606,-0.060378,0.538020,-0.008399,-0.007941,-0.000611
1765409293.827907,-10.113581,-0.020923,0.471066,-0.009316,-0.006109,0.000305
1765409293.828107,-9.874461,-0.019130,0.223577,-0.010079,-0.003665,-0.002138
1765409293.828307,-9.805116,-0.098039,0.219990,-0.013286,-0.006720,-0.000764
1765409293.828442,-10.005977,-0.071138,0.461502,-0.008399,-0.007941,0.000305
1765409293.828642,-10.078310,-0.025108,0.450143,-0.007941,-0.009010,-0.000458
1765409293.828842,-9.867287,-0.040053,0.162602,-0.008552,-0.004734,0.000611
1765409293.829042,-9.796148,-0.057987,0.191296,-0.010079,-0.005192,-0.000458
1765409293.829242,-9.953370,-0.069943,0.399330,-0.006872,-0.012065,0.001680
1765409293.829394,-10.094451,-0.077714,0.480631,-0.008858,-0.007789,-0.001680
1765409293.829644,-9.962935,-0.044237,0.325203,-0.007789,-0.005192,-0.000764
1765409293.829894,-9.818267,-0.050215,0.173362,-0.005498,-0.002749,0.000305
1765409293.830144,-9.952174,-0.076518,0.400526,-0.008552,-0.007483,-0.001527
1765409293.830481,-10.075322,-0.054998,0.517695,-0.008094,-0.009468,-0.000916
1765409293.830648,-9.912720,-0.023912,0.288140,-0.005651,-0.005651,0.000916
1765409293.830814,-9.801530,-0.017934,0.084888,-0.007636,-0.005498,-0.000458
1765409293.830981,-9.838593,-0.027499,0.310258,-0.006872,-0.006567,-0.001680
1765409293.831148,-10.051410,0.007174,0.505739,-0.005956,-0.010690,-0.001374
1765409293.831314,-10.013748,-0.004185,0.480631,-0.005803,-0.004887,0.000458
1765409293.831504,-9.888210,-0.017934,0.215208,-0.006567,-0.003207,0.001222
1765409293.831754,-9.815279,-0.129723,0.326399,-0.009316,-0.007789,0.001680
1765409293.832004,-9.656861,-0.223577,0.590626,-0.007483,-0.010385,-0.002291
1765409293.832254,-9.685556,0.279770,0.353300,-0.008858,-0.015577,-0.012523
1765409293.832458,-9.407578,0.376614,-0.103419,-0.009621,0.002902,0.001374
1765409293.832658,-9.457196,-0.063965,0.344931,-0.005956,0.006872,0.016493
1765409293.832858,-9.985652,-0.221186,0.973218,-0.009927,0.001374,0.002596
1765409293.833058,-10.373623,-0.154232,1.095170,-0.013134,0.002596,-0.003360
1765409293.833258,-9.953370,-0.312649,-0.227164,-0.007483,0.001527,0.002749
1765409293.833461,-9.845766,-0.151841,0.043042,-0.003512,0.004276,-0.006720
1765409293.833661,-10.191295,0.362267,0.930177,-0.002443,0.014203,-0.005956
1765409293.833861,-10.495576,0.472262,1.281683,-0.011148,0.013134,0.002291
1765409293.834061,-9.943806,-0.224175,0.194883,-0.013744,0.006567,0.011454
1765409293.834261,-9.578550,-0.633668,-0.279770,-0.008858,-0.001833,0.005956
1765409293.834428,-9.721423,-0.269010,0.303085,-0.001680,-0.004581,-0.014203
1765409293.834628,-9.985053,0.455524,0.553563,-0.007636,0.005803,-0.016341
1765409293.834828,-9.802725,0.454328,0.084888,-0.009316,0.005803,0.001374
1765409293.835028,-9.632950,-0.026303,-0.160210,-0.007636,0.006261,0.011301
1765409293.835228,-9.913916,-0.362865,0.529651,-0.007789,0.007789,0.005192
1765409293.835587,-9.913916,-0.362865,0.529651,-0.007789,0.004887,0.005192
1765409293.835787,-10.023911,-0.054998,0.302487,-0.007789,0.004581,-0.008094
1765409293.835987,-9.788378,0.188905,0.059780,-0.003512,0.004276,-0.007483
1765409293.836187,-9.857722,0.261836,0.380201,-0.008552,0.008705,-0.001527
1765409293.836387,-9.994021,0.082496,0.514108,-0.010537,0.007636,0.005192
1765409293.836490,-9.978478,-0.246891,0.310856,-0.010232,0.002138,0.003054
1765409293.836690,-9.907339,-0.205643,0.199665,-0.010232,0.008247,-0.001222
1765409293.836890,-9.819464,-0.087877,0.286944,-0.007025,0.008247,-0.003971
1765409293.837090,-9.711859,0.098039,0.217599,-0.010079,0.008247,-0.004276
1765409293.837290,-9.815877,0.159613,0.179340,-0.010232,0.005040,-0.002902
1765409293.837482,-10.012553,0.041846,0.255858,-0.008705,0.007330,0.002291
1765409293.837682,-10.112385,-0.203252,0.481827,-0.010996,0.010079,0.004276
1765409293.837882,-10.031085,-0.331181,0.426829,-0.006567,0.010079,-0.001374
1765409293.838082,-9.836202,-0.126734,0.227164,-0.005956,0.009774,-0.007025
1765409293.838282,-9.891200,0.197274,0.197274,-0.006414,0.007636,-0.004429
1765409293.838545,-10.010758,0.185318,0.369440,-0.006109,0.004734,-0.001222
1765409293.838745,-10.041844,-0.047824,0.526064,-0.006109,0.008858,-0.001222
1765409293.838945,-9.891200,-0.181731,0.219990,-0.011301,0.010843,0.003207
1765409293.839145,-9.835006,-0.170971,0.151243,-0.011301,0.005498,0.003207
1765409293.839345,-9.920491,-0.080105,0.338953,-0.003360,0.008858,-0.003665
1765409293.839504,-10.094451,0.035270,0.476447,-0.007178,0.008858,0.000764
1765409293.839704,-10.094451,0.035270,0.476447,-0.007178,0.010996,0.000764
1765409293.839904,-9.864896,0.011956,0.056193,-0.008552,0.005803,0.000153
1765409293.840104,-9.899570,0.004782,0.199665,-0.007789,0.002138,0.000153
1765409293.840304,-10.123145,0.025108,0.566714,-0.007636,0.005192,0.000611
1765409293.840443,-10.218196,-0.138690,0.597800,-0.008399,0.005192,-0.000458
1765409293.840643,-10.066953,-0.117169,0.242707,-0.007636,-0.001069,-0.000916
1765409293.840843,-10.033475,0.062769,0.170373,-0.006567,-0.000611,-0.004123
1765409293.841043,-9.897178,0.102224,0.191296,-0.005651,0.002443,-0.001527
1765409293.841243,-10.011955,0.060976,0.364658,-0.006414,-0.000458,-0.001527
1765409293.841470,-10.038258,-0.073529,0.395146,-0.008858,0.000916,0.000458
1765409293.841670,-10.065758,-0.138690,0.365854,-0.012523,0.000305,-0.001985
1765409293.841870,-10.021520,-0.098039,0.303682,-0.008247,0.001680,-0.002902
1765409293.842070,-10.011955,0.016141,0.341942,-0.007178,0.001680,-0.000458
1765409293.842270,-9.965326,0.020325,0.279173,-0.007025,-0.003207,-0.001222
1765409293.842456,-10.081299,0.009565,0.340746,-0.005192,-0.003207,-0.000458
1765409293.842656,-10.016738,-0.005978,0.262434,-0.010537,-0.000305,-0.000611
1765409293.842856,-9.988043,-0.014945,0.274988,-0.009163,0.000305,0.001374
1765409293.843056,-10.010758,-0.088474,0.341942,-0.008247,0.000305,0.000458
1765409293.843256,-10.010758,-0.088474,0.341942,-0.008247,-0.009316,0.000458
1765409293.843445,-10.076518,-0.021521,0.318627,-0.007941,-0.005956,-0.003512
1765409293.843645,-9.891797,0.094452,0.212817,-0.004123,-0.001833,-0.003665
1765409293.843845,-9.784791,0.076518,0.128527,-0.009774,-0.006109,0.000458
1765409293.844045,-9.956359,0.057987,0.351506,-0.009621,-0.009316,0.000000
1765409293.844245,-9.956359,0.057987,0.351506,-0.009621,-0.008094,0.000000
1765409293.844449,-10.136297,-0.192492,0.492587,-0.009774,-0.006414,0.000611
1765409293.844649,-9.989837,-0.069345,0.256456,-0.008399,-0.003207,-0.002443
1765409293.844849,-9.921089,0.084888,0.215208,-0.006872,-0.005345,-0.000458
1765409293.845049,-9.960544,0.074725,0.245098,-0.008247,-0.005345,-0.002291
1765409293.845249,-10.023911,-0.022716,0.416069,-0.008552,-0.004887,0.001833
1765409293.845454,-10.017933,-0.081301,0.399928,-0.008247,-0.005803,0.002443
1765409293.845654,-9.870873,-0.111191,0.260641,-0.009316,-0.005345,-0.000458
1765409293.845854,-9.830223,-0.081301,0.170971,-0.009468,-0.008094,-0.004123
1765409293.846054,-9.833811,-0.019130,0.243902,-0.008399,-0.012217,-0.004123
1765409293.846254,-9.929459,0.013749,0.350311,-0.009316,-0.006109,-0.003971
1765409293.846449,-9.928263,0.032281,0.368245,-0.008094,-0.005651,-0.001833
1765409293.849438,-9.886416,-0.048422,0.237327,-0.009468,-0.010079,0.003512
1765409293.851418,-9.866092,-0.113582,0.206839,-0.008705,-0.008705,0.000305
1765409293.854448,-9.931252,-0.151841,0.341942,-0.007789,-0.004429,0.000153
1765409293.856455,-10.020324,-0.064562,0.446557,-0.008552,-0.010537,-0.003971
1765409293.859518,-10.016738,0.041846,0.417264,-0.006567,-0.007025,-0.003360
1765409293.861427,-9.909132,0.044835,0.301291,-0.009010,-0.004581,-0.001680
1765409293.864499,-9.863102,-0.037064,0.252272,-0.007941,-0.005651,0.001069
1765409293.866437,-9.928263,-0.086083,0.376016,-0.009163,-0.003054,0.000153
1765409293.867485,-10.005977,-0.107604,0.418460,-0.007330,-0.006261,-0.000458
1765409293.871435,-9.927068,-0.076518,0.356887,-0.006261,-0.005498,-0.001069
1765409293.874479,-9.826038,0.027499,0.209230,-0.006414,-0.005040,-0.002443
1765409293.876511,-9.781204,0.050813,0.236131,-0.005956,-0.003665,-0.002291
1765409293.879456,-9.837397,-0.013152,0.314443,-0.007941,-0.007330,0.000153
1765409293.880449,-9.936033,-0.043639,0.400526,-0.008705,-0.005498,0.000764
1765409293.884452,-9.944403,-0.084290,0.373027,-0.005040,0.000916,-0.001222
1765409293.886443,-9.903154,-0.064562,0.327594,-0.006720,0.000916,-0.001833
1765409293.889393,-9.840386,-0.031683,0.240913,-0.009316,-0.002291,-0.002443
1765409293.891466,-9.917501,-0.011358,0.448350,-0.009163,-0.003818,-0.001069
1765409293.894392,-9.979673,-0.019130,0.429818,-0.009927,-0.002596,-0.000916
1765409293.896399,-9.876852,-0.031683,0.272597,-0.006109,0.001985,-0.000458
1765409293.899491,-9.728598,-0.008967,0.153635,-0.006261,0.001985,0.000611
1765409293.901486,-9.787780,-0.020325,0.231946,-0.008552,-0.001680,0.000611
1765409293.904488,-9.936632,-0.083094,0.418460,-0.008552,-0.000916,-0.000305
1765409293.904988,-9.984456,-0.038259,0.388570,-0.007330,-0.001527,-0.003512
1765409293.909475,-9.861309,-0.051411,0.200861,-0.004887,0.002443,-0.001374
1765409293.911466,-9.794355,-0.013152,0.217599,-0.009774,0.000000,-0.001374
1765409293.914482,-9.945002,0.022716,0.404711,-0.008858,0.000458,-0.002443
1765409293.916455,-10.027497,-0.008369,0.472262,-0.010385,-0.001222,-0.001833
1765409293.919448,-9.961740,-0.026303,0.337159,-0.009927,0.003818,-0.001374
1765409293.921408,-9.818267,-0.057987,0.153037,-0.006567,0.002902,-0.000153
1765409293.924524,-9.875058,-0.072932,0.289933,-0.005956,-0.002749,-0.002902
1765409293.926819,-9.994021,-0.062171,0.442372,-0.006109,-0.006109,-0.003512
1765409293.930901,-9.935436,-0.023314,0.292324,-0.007636,0.003512,0.000611
1765409293.931496,-9.811094,0.025108,0.175155,-0.004887,0.003512,-0.004734
1765409293.932435,-9.811094,0.025108,0.175155,-0.004887,0.002749,-0.004734
1765409293.936389,-10.012553,-0.065758,0.474653,-0.009621,-0.001222,-0.004123
1765409293.939433,-10.093256,-0.107604,0.434601,-0.006414,0.001374,-0.001374
1765409293.941407,-10.010758,-0.054998,0.337757,-0.005345,0.002291,-0.001527
1765409293.942420,-9.927068,0.007174,0.252272,-0.006109,0.002291,-0.001985
1765409293.946409,-9.927068,0.007174,0.252272,-0.006109,-0.001222,-0.001985
1765409293.949377,-10.051410,-0.051411,0.471066,-0.007789,-0.000916,-0.001985
1765409293.951391,-10.011955,-0.046628,0.376614,-0.006109,0.001527,-0.003971
1765409293.954461,-9.851147,-0.045433,0.147059,-0.007483,0.000764,-0.002596
1765409293.955452,-9.833811,-0.050215,0.184122,-0.007330,0.000764,-0.003207
1765409293.959456,-9.997607,-0.035868,0.402917,-0.004429,0.001069,-0.004429
1765409293.961496,-10.076518,-0.029890,0.430416,-0.006872,0.004734,-0.002138
1765409293.964449,-10.022716,-0.010760,0.289335,-0.009010,0.004734,-0.003207
1765409293.966462,-9.936033,-0.025705,0.211621,-0.004887,0.004276,-0.003665
1765409293.969399,-10.050812,-0.057389,0.457915,-0.005803,0.002443,-0.003665
1765409293.971406,-10.080104,-0.100430,0.381396,-0.007941,-0.002443,-0.001680
1765409293.972485,-9.918698,-0.078910,0.185318,-0.005651,0.000153,-0.003665
1765409293.975507,-9.817072,0.013152,0.093257,-0.006261,0.000153,-0.003665
1765409293.979396,-9.817072,0.013152,0.093257,-0.006261,-0.004581,-0.003665
1765409293.981395,-10.111190,-0.039455,0.461502,-0.004581,-0.006261,-0.002902
1765409293.984408,-10.092059,-0.029292,0.364060,-0.004123,-0.002138,-0.002596
1765409293.986429,-9.892395,-0.068747,0.198470,-0.003665,-0.000305,-0.001222
1765409293.989389,-9.940218,-0.095648,0.273792,-0.005956,-0.003818,-0.003512
1765409293.990376,-9.940218,-0.095648,0.273792,-0.005956,-0.006109,-0.003512
1765409293.994408,-9.964728,0.007771,0.247489,-0.004581,-0.000305,-0.003512
1765409293.996418,-9.894786,0.031086,0.180536,-0.006261,-0.000305,-0.003971
1765409293.999381,-9.991630,-0.035868,0.366451,-0.004887,-0.003207,-0.005345
1765409294.001406,-10.105211,-0.066954,0.491392,-0.005498,-0.005040,-0.003054
1765409294.004455,-10.078907,-0.127331,0.319823,-0.004276,-0.001680,-0.001833
1765409294.005386,-9.953370,-0.084290,0.195481,-0.007330,-0.003054,-0.004429
1765409294.009419,-9.992825,0.022716,0.390363,-0.006109,-0.003818,-0.007483
1765409294.011455,-10.071735,0.016738,0.467480,-0.006261,-0.006261,-0.001527
1765409294.014450,-9.930654,0.019130,0.230751,-0.003512,-0.004429,-0.001374
1765409294.016443,-9.845168,-0.017336,0.230153,-0.006109,-0.004123,-0.002902
1765409294.019387,-9.962935,-0.083692,0.343137,-0.005192,-0.007636,-0.005192
1765409294.021413,-10.020324,-0.055595,0.428025,-0.002749,-0.007178,-0.004581
1765409294.024484,-9.923481,0.028694,0.258250,-0.004123,-0.000916,-0.004887
1765409294.026632,-9.842180,0.056193,0.241511,-0.006109,-0.002138,-0.004734
1765409294.029613,-9.924676,0.004782,0.374223,-0.009163,-0.007636,-0.002291
1765409294.031552,-10.058583,-0.063367,0.416667,-0.004887,-0.006261,-0.004734
1765409294.034407,-9.973098,-0.048422,0.301291,-0.005192,-0.003512,-0.006414
1765409294.036381,-9.890601,-0.058584,0.336561,-0.005192,-0.006567,-0.006414
1765409294.039388,-9.911524,-0.084290,0.271401,-0.004887,-0.006720,-0.004581
1765409294.041426,-9.928263,-0.008369,0.291726,-0.002902,-0.008399,-0.004581
1765409294.044436,-9.888808,-0.011956,0.277977,-0.003360,-0.006109,-0.002138
1765409294.046356,-9.938425,-0.064562,0.381396,-0.005345,-0.006872,-0.003971
1765409294.047416,-9.996411,-0.082496,0.388570,-0.005040,-0.005803,-0.004887
1765409294.051381,-9.944403,-0.072932,0.346724,-0.005040,-0.005192,-0.008247
1765409294.055467,-9.836202,-0.081301,0.200861,-0.007941,-0.005040,-0.008094
1765409294.056390,-9.849353,-0.033477,0.267814,-0.006261,-0.007941,-0.004734
1765409294.059410,-9.820659,-0.027499,0.279770,-0.002138,-0.005498,-0.005651
1765409294.061370,-9.780606,-0.063965,0.184720,-0.002291,-0.006720,-0.003665
1765409294.064410,-9.863700,-0.084888,0.282759,-0.005498,-0.003360,-0.006261
1765409294.066358,-9.953370,-0.070540,0.425634,-0.001680,-0.001222,-0.005345
1765409294.068342,-9.924676,-0.046628,0.303682,-0.007483,0.001374,-0.009316
1765409294.071429,-9.811094,-0.075323,0.193089,-0.006567,-0.002902,-0.008399
1765409294.074457,-9.841581,-0.098039,0.271999,-0.003665,-0.005956,-0.008399
1765409294.076440,-9.874461,-0.039455,0.266619,-0.004581,-0.001833,-0.007483
1765409294.077412,-9.776422,0.014347,0.200861,-0.002749,-0.001833,-0.010690
1765409294.080423,-9.835006,-0.010163,0.324008,-0.005192,-0.001985,-0.004581
1765409294.084366,-9.945002,-0.046628,0.393950,-0.003054,-0.002443,-0.006720
1765409294.086347,-9.900764,-0.075323,0.295911,-0.001527,-0.001527,-0.005345
1765409294.089376,-9.821855,-0.057389,0.163797,-0.004734,0.002902,-0.006720
1765409294.091395,-9.891200,-0.021521,0.325203,-0.001069,-0.000458,-0.007789
1765409294.094430,-10.005977,0.000598,0.469871,-0.002291,-0.000153,-0.009316
1765409294.096426,-9.995216,-0.036466,0.399330,-0.003360,-0.000611,-0.006567
1765409294.099389,-9.922284,-0.031086,0.280368,-0.003818,0.003360,-0.005498
1765409294.101394,-9.979673,-0.065758,0.417264,-0.003971,0.001374,-0.006872
1765409294.104485,-10.045432,-0.073529,0.435796,-0.003818,0.000611,-0.007178
1765409294.106414,-9.936632,-0.063367,0.228360,-0.002138,0.003512,-0.007025
1765409294.109402,-9.872069,-0.005978,0.216404,-0.002596,-0.000153,-0.006720
1765409294.111381,-9.995216,-0.029890,0.374223,-0.004429,-0.000153,-0.006872
1765409294.114448,-10.027497,-0.022716,0.439981,-0.006567,0.001374,-0.007025
1765409294.116450,-9.933045,-0.029890,0.305476,-0.002596,0.001374,-0.008705
1765409294.119466,-9.866092,-0.065160,0.215208,-0.003054,-0.000458,-0.008858
1765409294.121595,-9.913317,-0.082496,0.269608,-0.001374,-0.004276,-0.007178
1765409294.124507,-9.959349,-0.030488,0.291129,-0.005345,-0.002902,-0.009316
1765409294.126419,-9.998802,-0.030488,0.298302,-0.002749,0.002138,-0.009010
1765409294.127436,-9.961142,-0.092061,0.314443,-0.000305,0.001680,-0.009163
1765409294.131407,-10.023911,-0.107604,0.387972,-0.001374,-0.001374,-0.007941
1765409294.134427,-9.950979,-0.060976,0.386777,-0.003665,-0.001069,-0.009468
1765409294.135384,-9.823050,-0.029292,0.170971,-0.001374,-0.001833,-0.010537
1765409294.137368,-9.784791,-0.013152,0.090866,-0.002749,-0.002138,-0.010232
1765409294.141351,-9.873264,0.020325,0.276184,-0.001680,-0.003360,-0.008552
1765409294.145032,-9.921089,-0.045433,0.286944,-0.001985,0.000305,-0.006414
1765409294.146399,-10.002390,-0.095648,0.307269,-0.006414,-0.002596,-0.006261
1765409294.149352,-10.081299,-0.088474,0.453132,-0.004123,-0.002596,-0.010996
1765409294.151454,-10.022716,-0.096844,0.392157,-0.003054,-0.000305,-0.010079
1765409294.154395,-9.919296,-0.015543,0.217599,-0.002902,-0.000916,-0.010843
1765409294.155407,-9.872667,0.055595,0.198470,-0.004276,-0.001374,-0.008705
1765409294.159489,-9.970706,0.016738,0.347920,-0.005040,-0.001374,-0.009316
1765409294.161371,-9.916306,-0.014945,0.282162,-0.003054,-0.001374,-0.006720
1765409294.164399,-9.944403,-0.099235,0.259445,-0.003054,0.003971,-0.006720
1765409294.166397,-9.987445,-0.116571,0.347920,-0.003665,0.002138,-0.011148
1765409294.167366,-10.099831,-0.083692,0.462697,-0.005345,-0.001680,-0.012675
1765409294.171371,-9.921089,-0.034075,0.190698,-0.002596,0.000611,-0.014050
1765409294.172449,-9.931850,0.031086,0.246294,-0.004581,-0.005956,-0.015882
1765409294.176347,-10.009563,0.013152,0.434601,-0.005345,-0.002749,-0.011148
1765409294.179389,-9.952174,-0.053802,0.270206,-0.001985,-0.001374,-0.011759
1765409294.181366,-9.929459,0.000598,0.243902,-0.001680,-0.001374,-0.011454
1765409294.182396,-9.886416,0.000000,0.216404,-0.002443,-0.003665,-0.009927
1765409294.186349,-10.040649,-0.101028,0.428025,-0.002138,-0.007025,-0.008552
1765409294.189360,-9.954566,-0.102822,0.219393,-0.004581,-0.002291,-0.009316
1765409294.191328,-9.881036,-0.065758,0.157819,-0.002291,-0.000305,-0.009010
1765409294.194361,-9.915112,-0.071138,0.267814,-0.002596,-0.002749,-0.010537
1765409294.196326,-10.104015,-0.029292,0.564323,-0.002902,-0.004429,-0.010385
1765409294.199376,-10.020324,-0.051411,0.359876,-0.000458,-0.000916,-0.011759
1765409294.201582,-9.820659,-0.083094,0.091463,-0.002138,-0.000611,-0.011759
1765409294.202396,-9.872069,-0.026303,0.254663,-0.002138,-0.002749,-0.010843
1765409294.206439,-10.001194,-0.075323,0.455524,-0.000458,-0.003665,-0.013439
1765409294.209355,-9.950979,-0.059182,0.298302,-0.001527,-0.001680,-0.010690
1765409294.211345,-9.766856,-0.034672,0.051411,0.001374,0.000000,-0.012981
1765409294.214368,-9.913916,0.015543,0.269010,-0.003971,-0.004276,-0.013286
1765409294.215324,-10.089668,-0.033477,0.493783,-0.002443,-0.005498,-0.010385
1765409294.217409,-10.027497,-0.019727,0.341942,-0.003665,0.001680,-0.011148
1765409294.221435,-9.867287,0.065758,0.052606,-0.001069,0.003207,-0.012370
1765409294.224446,-9.903752,-0.113582,0.179340,-0.003512,-0.001527,-0.009010
1765409294.226372,-10.117167,-0.120158,0.498565,-0.001680,-0.004123,-0.009010
1765409294.229385,-10.117167,-0.120158,0.498565,-0.001680,-0.001222,-0.009010
1765409294.231356,-9.756096,-0.058584,-0.016738,0.000153,-0.004276,-0.016188
1765409294.234387,-9.824244,-0.026303,0.120158,-0.002749,-0.004276,-0.013744
1765409294.236443,-10.139884,-0.076518,0.538020,-0.002138,-0.002749,-0.014050
1765409294.241554,-10.077712,-0.057389,0.444763,-0.002902,-0.002749,-0.015730
1765409294.242054,-9.957555,0.025108,0.311454,-0.005956,0.004429,-0.016035
1765409294.244310,-9.820659,-0.060976,0.136298,-0.002443,-0.000916,-0.012370
1765409294.247312,-10.045432,-0.112984,0.441176,-0.003360,-0.011301,-0.016646
1765409294.249310,-10.148253,-0.094452,0.555356,-0.002291,-0.003512,-0.018021
1765409294.251325,-9.932447,0.044237,0.283357,-0.003665,0.000916,-0.018937
1765409294.254348,-9.788976,-0.021521,0.127929,-0.003207,-0.001374,-0.011454
1765409294.256360,-9.771639,-0.100430,0.218795,-0.004276,-0.005956,-0.010385
1765409294.257369,-10.037660,-0.111191,0.559541,-0.003665,-0.004429,-0.015577
1765409294.261399,-9.978478,-0.144668,0.379603,-0.003512,-0.001222,-0.014050
1765409294.264367,-9.907937,-0.077116,0.215208,-0.002596,-0.003512,-0.017410
1765409294.266344,-9.674795,-0.001196,0.074725,-0.000611,-0.002291,-0.014661
1765409294.269324,-9.798540,-0.051411,0.280966,-0.001680,-0.005040,-0.015730
1765409294.271348,-9.881634,-0.144668,0.295911,0.000916,-0.004887,-0.011454
1765409294.274333,-9.841581,-0.193687,0.242707,0.003360,-0.006261,-0.011606
1765409294.276322,-9.836799,-0.150646,0.278575,0.003818,-0.001069,-0.017104
1765409294.279327,-9.794355,-0.154830,0.245098,0.001833,-0.000153,-0.016799
1765409294.281446,-9.909731,-0.090866,0.417264,-0.000764,-0.005803,-0.018021
1765409294.284379,-9.861309,-0.007174,0.352702,-0.000916,-0.001680,-0.019090
1765409294.285306,-9.848158,-0.025108,0.214610,-0.001069,-0.000458,-0.014355
1765409294.287404,-9.704685,-0.170971,0.083692,0.003207,-0.002291,-0.012217
1765409294.291363,-9.977880,-0.127331,0.466882,0.005651,-0.003971,-0.016493
1765409294.292354,-9.901959,-0.066954,0.388570,0.002443,-0.003360,-0.015730
1765409294.296399,-9.783595,-0.042444,0.148254,0.000305,-0.003360,-0.019395
1765409294.299337,-9.782997,0.013152,0.182927,0.001222,-0.000916,-0.016035
1765409294.301375,-9.959946,-0.059182,0.388570,0.000153,-0.004887,-0.013592
1765409294.304407,-9.959946,-0.059182,0.388570,0.000153,-0.001527,-0.013592
1765409294.305363,-9.836799,-0.178742,0.148254,0.000153,0.002596,-0.015577
1765409294.309327,-9.870276,-0.115375,0.245098,0.001069,0.002902,-0.017257
1765409294.311331,-10.065159,-0.092061,0.485414,0.005040,0.000153,-0.016493
1765409294.314413,-10.059779,-0.102224,0.402917,0.001985,0.001833,-0.016799
1765409294.316342,-10.059779,-0.102224,0.402917,0.001985,0.003512,-0.016799
1765409294.321609,-10.045432,-0.023314,0.389766,0.001985,0.003512,-0.019395
1765409294.322109,-10.027497,-0.121951,0.413678,0.002596,0.001222,-0.013286
1765409294.324361,-10.072930,-0.076518,0.410091,0.003207,0.000611,-0.015730
1765409294.326315,-9.895982,-0.035868,0.265423,0.001680,0.005498,-0.016341
1765409294.329420,-9.872069,-0.100430,0.184122,0.001069,0.002443,-0.017410
1765409294.331278,-10.022118,-0.071138,0.423840,0.001833,0.003360,-0.019242
1765409294.334295,-10.025107,-0.074127,0.377810,0.004887,0.003360,-0.019548
1765409294.336294,-9.799137,-0.147657,0.101626,0.002596,0.007178,-0.016493
1765409294.339313,-9.738162,-0.120158,0.063367,0.003665,0.002138,-0.016952
1765409294.340334,-10.029889,-0.126136,0.406504,0.004429,-0.002138,-0.017868
1765409294.344290,-10.032280,-0.159015,0.435198,0.002596,0.002902,-0.016646
1765409294.346317,-9.876852,-0.136298,0.153037,0.001680,0.002138,-0.018479
1765409294.347380,-9.781204,-0.062171,0.084888,0.003818,0.004276,-0.021533
1765409294.351353,-10.041844,-0.013152,0.381994,0.000611,0.001069,-0.021838
1765409294.354315,-10.104015,-0.056193,0.436992,0.003971,0.001069,-0.020922
1765409294.356326,-10.104015,-0.056193,0.436992,0.003971,0.006567,-0.020922
1765409294.359351,-9.808702,-0.095648,0.109995,0.004276,0.005345,-0.019853
1765409294.361374,-9.808702,-0.095648,0.109995,0.004276,0.000000,-0.019853
1765409294.364275,-10.094451,-0.120756,0.391559,0.006261,-0.000916,-0.019548
1765409294.366319,-10.031085,-0.029890,0.370636,0.009316,-0.000916,-0.024893
1765409294.369308,-9.898373,0.005978,0.161406,0.004429,0.006109,-0.023976
1765409294.371272,-9.765661,-0.033477,0.052009,0.003665,0.005040,-0.017868
1765409294.372313,-9.960544,-0.141081,0.298900,0.007025,-0.000458,-0.019242
1765409294.376325,-10.119559,-0.092061,0.472860,0.006720,0.001527,-0.021533
1765409294.377337,-10.024508,-0.077714,0.346724,0.005956,0.002443,-0.023213
1765409294.381320,-9.875058,-0.022119,0.225968,0.004276,0.005192,-0.024282
1765409294.382339,-9.838593,-0.011956,0.212817,0.003360,-0.001374,-0.022907
1765409294.386281,-10.070539,-0.125538,0.399928,0.002902,-0.001374,-0.019548
1765409294.389317,-10.070539,-0.125538,0.399928,0.002902,0.001985,-0.019548
1765409294.391305,-9.892993,-0.164993,0.196078,0.006109,-0.000305,-0.023060
1765409294.394305,-9.851745,-0.116571,0.059780,0.006261,0.000000,-0.023671
1765409294.396263,-10.010758,-0.021521,0.368245,0.007789,-0.006720,-0.023366
1765409294.399303,-10.168577,0.025108,0.543998,0.005651,-0.000458,-0.026420
1765409294.401346,-9.978478,0.014945,0.328192,0.006872,-0.000458,-0.023671
1765409294.402356,-9.837397,-0.120756,0.074127,0.007941,-0.001985,-0.020769
1765409294.406337,-9.950979,-0.211621,0.272597,0.006567,-0.004734,-0.023824
1765409294.409294,-10.128527,-0.099833,0.516499,0.004581,0.002291,-0.027489
1765409294.411333,-9.873264,-0.071736,0.272597,0.005498,0.002291,-0.025809
1765409294.414301,-9.675991,-0.071736,-0.023314,0.005498,-0.002291,-0.025809
1765409294.415339,-9.808702,-0.065758,0.302487,0.004887,-0.005956,-0.026573
1765409294.419327,-10.012553,-0.137494,0.452535,0.004581,-0.005956,-0.027031
1765409294.421322,-9.791965,-0.184720,0.184720,0.006261,0.000764,-0.023976
1765409294.424326,-9.725011,-0.179340,0.092061,0.007941,0.000764,-0.024740
1765409294.425319,-9.941415,-0.109995,0.373027,0.007941,-0.001222,-0.024740
1765409294.429300,-9.978478,-0.021521,0.390961,0.009316,-0.003360,-0.029016
1765409294.431296,-9.805714,-0.013152,0.215208,0.006261,0.003665,-0.024435
1765409294.434334,-9.764465,-0.032879,0.163797,0.004276,-0.004429,-0.025809
1765409294.436344,-9.964130,-0.078910,0.435198,0.005040,-0.004429,-0.023824
1765409294.439299,-9.975489,-0.181133,0.391559,0.004734,-0.000305,-0.021533
1765409294.441350,-9.811094,-0.123745,0.187709,0.005040,0.003818,-0.025962
1765409294.444336,-9.733977,-0.168580,0.209230,0.005498,0.001833,-0.024740
1765409294.445324,-9.733977,-0.168580,0.209230,0.005498,-0.002749,-0.024740
1765409294.447309,-10.008368,-0.132712,0.363462,0.007025,0.000611,-0.026267
1765409294.451280,-9.880439,-0.139885,0.304878,0.005040,0.002291,-0.026420
1765409294.454332,-9.791965,-0.168580,0.180536,0.005803,0.005803,-0.023824
1765409294.456267,-9.920491,-0.202056,0.370636,0.008705,-0.004734,-0.027184
1765409294.459339,-10.159015,-0.099833,0.625897,0.012981,0.000305,-0.029322
1765409294.461261,-9.939023,-0.131516,0.269010,0.012675,0.004276,-0.025962
1765409294.464262,-9.821257,-0.111191,0.125538,0.012217,0.003054,-0.027642
1765409294.466279,-9.933045,-0.109995,0.407700,0.009774,-0.002443,-0.025962
1765409294.469336,-9.961142,-0.121951,0.393352,0.007330,0.002138,-0.030696
1765409294.471356,-9.727402,-0.084888,0.085485,0.008399,0.004734,-0.027794
1765409294.474368,-9.745934,-0.089670,0.150646,0.009163,0.001833,-0.026267
1765409294.476348,-9.960544,-0.113582,0.449546,0.007941,0.000000,-0.025351
1765409294.479331,-9.997607,-0.192492,0.362865,0.008247,0.004734,-0.027947
1765409294.481249,-9.805116,-0.216404,0.170971,0.013897,0.004734,-0.029780
1765409294.484290,-9.635341,-0.161406,0.087279,0.010079,0.003665,-0.030849
1765409294.486249,-9.925274,-0.135701,0.333572,0.009621,-0.000764,-0.029322
1765409294.487308,-9.929459,-0.153037,0.333572,0.012523,0.006109,-0.027642
1765409294.491274,-9.756096,-0.151841,0.125538,0.012523,0.007178,-0.027947
1765409294.494279,-9.724413,-0.144668,0.125538,0.010996,0.007178,-0.029474
1765409294.496273,-9.910329,-0.107604,0.316834,0.012523,-0.000458,-0.031001
1765409294.497288,-10.041247,-0.114778,0.443568,0.007941,0.000611,-0.033139
1765409294.500362,-9.885221,-0.041846,0.241511,0.010079,0.008399,-0.031612
1765409294.504325,-9.759683,-0.112386,-0.003587,0.011454,0.007636,-0.030391
1765409294.506359,-9.771639,-0.223577,0.132712,0.012217,0.004276,-0.028100
1765409294.509322,-10.141678,-0.139885,0.558345,0.014813,0.004429,-0.034361
1765409294.511367,-10.062170,-0.175753,0.359278,0.012217,0.007483,-0.032987
1765409294.514245,-9.771639,-0.086083,0.005978,0.014355,0.009621,-0.033903
1765409294.516315,-9.742945,-0.063965,0.074127,0.011606,0.005803,-0.033903
1765409294.519248,-9.991630,-0.047226,0.378407,0.012523,0.008247,-0.031154
1765409294.521315,-10.015541,-0.027499,0.382592,0.013897,0.007483,-0.032834
1765409294.524302,-9.898971,-0.104017,0.157819,0.010996,0.007178,-0.032223
1765409294.526299,-9.906144,-0.060976,0.209230,0.009774,0.010996,-0.032834
1765409294.529276,-9.996411,-0.117169,0.322812,0.009010,0.006261,-0.028405
1765409294.531304,-10.178144,-0.161406,0.484218,0.008858,0.008552,-0.034514
1765409294.534274,-9.925871,-0.139885,0.263032,0.011606,0.012981,-0.034667
1765409294.536286,-9.894786,-0.053204,0.214012,0.011454,0.009468,-0.034667
1765409294.541461,-10.044236,-0.053204,0.463295,0.011454,0.009468,-0.031154
1765409294.541961,-10.044236,-0.053204,0.463295,0.011454,0.003971,-0.031154
1765409294.544348,-9.996411,-0.120756,0.240316,0.009163,0.006720,-0.031154
1765409294.546284,-9.827234,-0.075921,0.041846,0.007025,0.004734,-0.034819
1765409294.547386,-9.921089,-0.129125,0.231349,0.010843,0.001833,-0.034056
1765409294.551308,-9.967718,-0.114778,0.423840,0.007941,0.001833,-0.036499
1765409294.554279,-9.901959,-0.148254,0.206839,0.006567,0.003971,-0.034819
1765409294.556248,-9.570778,-0.193089,-0.218795,0.012675,0.005956,-0.031765
1765409294.559304,-9.950979,-0.117169,0.335964,0.009163,0.001069,-0.035888
1765409294.560325,-10.121950,-0.175753,0.633668,0.007941,0.008247,-0.037110
1765409294.564254,-10.031085,-0.138690,0.214012,0.009468,0.004734,-0.038026
1765409294.566243,-9.837996,-0.106408,0.155428,0.010996,0.004123,-0.035888
1765409294.567319,-9.921686,-0.159015,0.307269,0.008247,0.003360,-0.033750
1765409294.571304,-9.953370,-0.236729,0.362267,0.012065,0.003360,-0.033445
1765409294.574299,-9.879243,-0.274390,0.225968,0.013439,0.003054,-0.037263
1765409294.576304,-9.850550,-0.207437,0.162602,0.010996,0.007025,-0.038026
1765409294.579276,-9.869678,-0.172166,0.137494,0.012065,0.001374,-0.038637
1765409294.581242,-10.053204,-0.160808,0.505739,0.013439,-0.000611,-0.036652
1765409294.584275,-9.872069,-0.208034,0.280966,0.014661,0.009927,-0.036041
1765409294.586275,-9.872069,-0.208034,0.280966,0.014661,0.007483,-0.036041
1765409294.589275,-9.838593,-0.187111,0.237924,0.018631,0.001527,-0.040470
1765409294.591241,-10.034670,-0.038259,0.487805,0.016952,0.000611,-0.040623
1765409294.594228,-9.836799,-0.164993,0.202056,0.014050,0.010537,-0.037721
1765409294.596243,-9.723217,-0.220588,-0.031086,0.015577,0.008552,-0.038943
1765409294.599229,-9.723217,-0.220588,-0.031086,0.015577,0.000611,-0.038943
1765409294.601272,-10.010161,-0.101626,0.382592,0.012675,0.014203,-0.043677
1765409294.604257,-9.936632,-0.120756,0.288140,0.011606,0.014203,-0.039554
1765409294.606268,-9.652080,-0.131516,0.002989,0.014661,0.009163,-0.038026
1765409294.609245,-9.922284,-0.154232,0.319823,0.011606,0.001374,-0.034514
1765409294.611274,-9.919893,-0.162602,0.320421,0.012675,0.009774,-0.037568
1765409294.614308,-9.895982,-0.170971,0.159015,0.011759,0.008399,-0.038790
1765409294.616363,-9.753705,-0.181731,0.121951,0.013134,0.009927,-0.037415
1765409294.617288,-9.961142,-0.302487,0.237924,0.015577,0.003360,-0.041081
1765409294.621290,-9.901959,-0.286944,0.225371,0.020617,0.009010,-0.040317
1765409294.622293,-9.795551,-0.153037,0.058584,0.021533,0.012828,-0.040164
1765409294.626351,-9.791965,-0.036466,0.130320,0.016799,0.012217,-0.037874
1765409294.629283,-9.956957,-0.102822,0.339550,0.020311,0.012217,-0.037568
1765409294.634701,-10.048421,-0.239120,0.451339,0.020311,0.013744,-0.037568
1765409294.635201,-9.881634,-0.318030,0.264228,0.013897,0.013592,-0.038637
1765409294.636288,-9.970109,-0.162602,0.432807,0.015424,0.013744,-0.044440
1765409294.639296,-10.109993,-0.185318,0.610354,0.018631,0.011759,-0.039706
1765409294.640237,-10.147655,-0.124342,0.540411,0.016646,0.008247,-0.043066
1765409294.644366,-9.933643,-0.151841,0.277379,0.012217,0.014203,-0.042761
1765409294.645312,-9.770443,-0.095648,-0.007771,0.016188,0.009163,-0.040317
1765409294.647227,-10.025107,-0.145863,0.489598,0.019242,0.009163,-0.036957
1765409294.651264,-10.032877,-0.161406,0.478240,0.016188,0.010690,-0.041997
1765409294.654331,-9.826636,-0.214012,0.047824,0.016799,0.009774,-0.042150
1765409294.655250,-9.646101,-0.148852,-0.104017,0.020311,0.008247,-0.042608
1765409294.659235,-9.990434,-0.021521,0.480631,0.019700,0.009774,-0.042150
1765409294.661260,-10.087276,-0.119560,0.533835,0.018173,0.006872,-0.039401
1765409294.664207,-10.013150,-0.237924,0.217599,0.017715,0.009163,-0.041692
1765409294.666223,-9.714250,-0.142874,-0.014945,0.020311,0.014508,-0.041386
1765409294.669254,-9.862504,-0.204448,0.202056,0.019395,0.010079,-0.041692
1765409294.670232,-9.955164,-0.143472,0.356289,0.020159,0.012065,-0.041692
1765409294.672228,-9.953370,-0.124342,0.186514,0.018784,0.013134,-0.041997
1765409294.676236,-9.830223,-0.130918,0.068149,0.020006,0.013592,-0.042913
1765409294.679285,-9.875656,-0.084888,0.178144,0.016493,0.011606,-0.044746
1765409294.681240,-10.068149,-0.084888,0.511717,0.013897,0.010843,-0.041844
1765409294.684288,-10.013748,-0.277379,0.328192,0.013134,0.015730,-0.040623
1765409294.686267,-9.850550,-0.253467,0.145265,0.013134,0.015730,-0.040623
1765409294.689214,-9.771639,-0.274390,-0.016738,0.018021,0.016035,-0.045357
1765409294.691257,-10.047822,-0.249880,0.474653,0.018784,0.009010,-0.045051
1765409294.694245,-10.064561,-0.333572,0.455524,0.016952,0.014661,-0.044593
1765409294.696222,-9.848158,-0.163797,0.042444,0.018021,0.013592,-0.047647
1765409294.699232,-9.704685,-0.258250,-0.015543,0.015730,0.011454,-0.045815
1765409294.701246,-9.920491,-0.221784,0.282162,0.015577,0.009010,-0.045968
1765409294.704195,-10.145862,-0.227164,0.410091,0.019090,0.012523,-0.043524
1765409294.706276,-9.987445,-0.203850,0.291726,0.019242,0.016188,-0.043677
1765409294.708301,-9.892993,-0.196078,0.175753,0.021228,0.017715,-0.046426
1765409294.710290,-9.836202,-0.172764,0.254663,0.020311,0.017715,-0.048258
1765409294.714236,-9.999401,-0.253467,0.308465,0.020311,0.010996,-0.045357
1765409294.716228,-9.855330,-0.170373,0.229555,0.021228,0.016341,-0.045662
1765409294.719307,-9.796746,-0.172166,0.199665,0.019242,0.018326,-0.048717
1765409294.721311,-9.628167,-0.088474,-0.010163,0.020617,0.020311,-0.045509
1765409294.722323,-9.820060,-0.212817,0.198470,0.019090,0.010385,-0.045815
1765409294.726262,-9.960544,-0.144668,0.400526,0.019395,0.014203,-0.047495
1765409294.729270,-9.838593,-0.246294,0.287542,0.020311,0.012217,-0.044288
1765409294.732288,-9.635341,-0.256456,-0.101626,0.018326,0.016493,-0.046426
1765409294.732788,-9.735771,-0.180536,0.076518,0.019090,0.011301,-0.051007
1765409294.736660,-10.049019,-0.163797,0.483022,0.017562,0.012370,-0.050702
1765409294.738678,-10.065159,-0.264825,0.389766,0.019853,0.016952,-0.049022
1765409294.740302,-9.750119,-0.192492,0.077714,0.021228,0.014355,-0.047495
1765409294.744306,-9.788378,-0.300096,0.109995,0.020311,0.014355,-0.047037
1765409294.746249,-9.967119,-0.242707,0.294118,0.021533,0.012370,-0.051618
1765409294.749296,-9.943806,-0.295313,0.331779,0.021686,0.016035,-0.048564
1765409294.751210,-9.804518,-0.218795,0.082496,0.021838,0.019242,-0.048564
1765409294.754274,-9.742347,-0.282162,0.052009,0.020922,0.012065,-0.048258
1765409294.755250,-9.949782,-0.290531,0.328790,0.024129,0.012065,-0.049480
1765409294.759195,-10.119559,-0.241511,0.422047,0.024129,0.018479,-0.049480
1765409294.761185,-9.900167,-0.212219,0.214012,0.021838,0.021838,-0.051924
1765409294.764198,-9.746531,-0.100430,-0.024510,0.022602,0.021075,-0.052076
1765409294.766189,-9.959946,-0.211023,0.342539,0.023366,0.018326,-0.047953
1765409294.769249,-10.144667,-0.246891,0.528455,0.023060,0.021991,-0.051924
1765409294.771336,-10.144667,-0.246891,0.528455,0.023060,0.024282,-0.051924
1765409294.774206,-9.982065,-0.281564,0.286346,0.023824,0.016493,-0.049786
1765409294.776249,-10.029889,-0.173362,0.370636,0.024435,0.016493,-0.051618
1765409294.777258,-10.029889,-0.173362,0.370636,0.024435,0.013592,-0.051618
1765409294.781218,-9.939621,-0.138690,0.198470,0.025656,0.020617,-0.048411
1765409294.782225,-9.727402,-0.270206,0.153037,0.020464,0.018631,-0.048411
1765409294.786222,-10.016738,-0.291129,0.308465,0.020311,0.015882,-0.052229
1765409294.789252,-9.982663,-0.345528,0.222979,0.024129,0.015882,-0.052993
1765409294.790280,-9.968315,-0.131516,0.254663,0.024893,0.018326,-0.053145
1765409294.794212,-9.830821,-0.186514,0.197274,0.024435,0.017410,-0.051924
1765409294.796216,-9.875656,-0.229555,0.191296,0.022449,0.012370,-0.052382
1765409294.797201,-9.903154,-0.342539,0.233142,0.021686,0.016188,-0.053603
1765409294.801218,-9.722619,-0.353898,-0.057389,0.024282,0.021838,-0.054520
1765409294.802257,-9.762074,-0.349115,0.143472,0.027489,0.018937,-0.058185
1765409294.806230,-9.965326,-0.216404,0.381396,0.029322,0.024587,-0.057421
1765409294.807325,-10.010758,-0.172166,0.386179,0.027794,0.024587,-0.053298
1765409294.811200,-9.726207,-0.181731,0.110593,0.024282,0.025045,-0.056047
1765409294.814236,-9.815877,-0.271401,0.147657,0.024587,0.016341,-0.054367
1765409294.815218,-9.797942,-0.391559,0.219990,0.025656,0.015730,-0.053909
1765409294.819210,-10.014346,-0.227164,0.245098,0.027184,0.018631,-0.062308
1765409294.821265,-9.977283,-0.153037,0.191894,0.025045,0.023671,-0.056352
1765409294.824226,-9.977283,-0.153037,0.191894,0.025045,0.018631,-0.056352
1765409294.826357,-10.027497,-0.176949,0.362267,0.025045,0.016646,-0.053756
1765409294.829241,-9.859515,-0.284553,0.063965,0.025045,0.021533,-0.051465
1765409294.830283,-9.754900,-0.350311,-0.112386,0.028711,0.017257,-0.056505
1765409294.834195,-9.843375,-0.247489,0.240913,0.022907,0.017257,-0.056505
1765409294.836322,-10.084887,-0.175753,0.431014,0.026114,0.020006,-0.054825
1765409294.839271,-9.855330,-0.217001,0.114180,0.028405,0.022755,-0.052382
1765409294.840274,-10.007172,-0.068149,0.215806,0.027489,0.019090,-0.056352
1765409294.846836,-10.011356,-0.166188,0.347920,0.022602,0.024893,-0.054214
1765409294.847336,-9.931850,-0.228360,0.060378,0.023060,0.020159,-0.052687
1765409294.848359,-9.978478,-0.227164,0.252272,0.022602,0.017868,-0.057727
1765409294.851258,-9.995814,-0.216404,0.233142,0.020311,0.021380,-0.059865
1765409294.854249,-9.869678,-0.321019,0.138690,0.025045,0.023518,-0.056047
1765409294.855231,-9.843375,-0.325203,0.033477,0.021228,0.022144,-0.061545
1765409294.857291,-10.072930,-0.178742,0.475849,0.022602,0.021075,-0.061239
1765409294.861231,-9.880439,-0.292922,0.174558,0.023213,0.024282,-0.059559
1765409294.864212,-9.878646,-0.235533,0.071736,0.023976,0.020311,-0.061850
1765409294.866181,-9.821855,-0.274390,0.129125,0.024587,0.022602,-0.058338
1765409294.869197,-10.038258,-0.376614,0.414275,0.023213,0.016799,-0.061392
1765409294.870225,-9.934240,-0.374223,0.247489,0.023671,0.022297,-0.060628
1765409294.874238,-9.776422,-0.245098,-0.004782,0.030696,0.020922,-0.060170
1765409294.876221,-9.785987,-0.245098,0.116571,0.025504,0.018784,-0.058948
1765409294.879295,-9.999999,-0.256456,0.392755,0.023366,0.016799,-0.057269
1765409294.881237,-10.056191,-0.433405,0.302487,0.027336,0.017104,-0.056963
1765409294.882210,-9.750119,-0.431014,-0.021521,0.027642,0.017868,-0.062766
1765409294.886226,-9.873264,-0.260641,0.125538,0.030849,0.015730,-0.063835
1765409294.887194,-9.902557,-0.325203,0.173362,0.031307,0.021380,-0.060018
1765409294.891198,-9.959349,-0.377810,0.235533,0.031307,0.020006,-0.062308
1765409294.894215,-9.749520,-0.391559,0.093257,0.029016,0.023213,-0.064294
1765409294.896163,-9.913916,-0.297107,0.163199,0.029932,0.019242,-0.065363
1765409294.899182,-9.956957,-0.353898,0.188905,0.028863,0.019395,-0.063530
1765409294.901172,-9.977283,-0.337159,0.324008,0.028711,0.030849,-0.067042
1765409294.904178,-9.680176,-0.361071,0.050813,0.031918,0.030849,-0.063835
1765409294.905271,-9.729196,-0.371234,0.078910,0.033292,0.017410,-0.065057
1765409294.909242,-10.179338,-0.222382,0.543998,0.029016,0.017868,-0.068417
1765409294.911177,-10.179338,-0.222382,0.543998,0.029016,0.023366,-0.068417
1765409294.912270,-9.707077,-0.306074,-0.157819,0.031460,0.021380,-0.062919
1765409294.916227,-9.711261,-0.411286,0.031086,0.030085,0.021380,-0.061392
1765409294.919220,-9.958152,-0.393950,0.328790,0.030085,0.018631,-0.066432
1765409294.920253,-9.852941,-0.322812,0.092659,0.033903,0.018937,-0.066279
1765409294.924272,-9.725011,-0.300096,-0.027499,0.034667,0.021838,-0.062766
1765409294.926225,-9.849353,-0.276781,0.271999,0.032070,0.017410,-0.063072
1765409294.929206,-9.965326,-0.344333,0.371234,0.031460,0.017410,-0.063225
1765409294.930280,-9.888808,-0.329388,0.120756,0.028711,0.020617,-0.065363
1765409294.932225,-9.572572,-0.346126,-0.274988,0.033445,0.021075,-0.060476
1765409294.938689,-9.814680,-0.344333,0.125538,0.031307,0.021686,-0.061392
1765409294.939189,-10.023911,-0.404711,0.443568,0.032529,0.020311,-0.062156
1765409294.940236,-10.031085,-0.401722,0.291726,0.032223,0.022907,-0.064141
1765409294.942213,-9.704685,-0.408895,-0.233142,0.032529,0.027947,-0.063835
1765409294.946167,-9.797942,-0.349115,-0.016738,0.033445,0.027794,-0.065210
1765409294.949237,-10.022716,-0.445959,0.448948,0.036346,0.027794,-0.063835
1765409294.951174,-9.952174,-0.395744,0.301291,0.032681,0.034972,-0.068722
1765409294.954202,-9.755498,-0.314443,0.018532,0.033598,0.032529,-0.069639
1765409294.956197,-9.799736,-0.202056,0.045433,0.039248,0.023671,-0.064141
1765409294.959235,-10.336559,-0.194883,0.720349,0.036957,0.031307,-0.065210
1765409294.961249,-10.166186,-0.431014,0.582257,0.033445,0.031307,-0.064904
1765409294.964276,-9.820659,-0.465088,-0.088474,0.033445,0.020922,-0.064904
1765409294.966192,-9.771639,-0.394548,-0.045433,0.032529,0.014966,-0.069028
1765409294.969212,-10.066953,-0.296509,0.369440,0.038332,0.013286,-0.066279
1765409294.971219,-9.935436,-0.396939,0.144070,0.040470,0.027947,-0.062919
1765409294.974151,-9.668220,-0.482425,-0.123745,0.040317,0.027947,-0.066737
1765409294.976163,-9.770443,-0.371832,-0.068149,0.040012,0.026420,-0.068417
1765409294.979192,-10.130917,-0.346724,0.396939,0.037415,0.016188,-0.068570
1765409294.981170,-10.130320,-0.319225,0.398135,0.039095,0.021838,-0.066432
1765409294.984226,-10.130320,-0.319225,0.398135,0.039095,0.028863,-0.066432
1765409294.986207,-9.646101,-0.374223,-0.050813,0.036805,0.025809,-0.069639
1765409294.989201,-9.965326,-0.441774,0.248685,0.038485,0.017257,-0.069180
1765409294.991257,-10.069344,-0.274988,0.417264,0.039248,0.034056,-0.071319
1765409294.994151,-9.658057,-0.223577,-0.029890,0.034972,0.034056,-0.070250
1765409294.997209,-9.658057,-0.223577,-0.029890,0.034972,0.021686,-0.070250
1765409294.999203,-9.945600,-0.590626,0.188905,0.038790,0.014813,-0.070860
1765409295.001226,-10.203848,-0.420253,0.535629,0.037568,0.021380,-0.080023
1765409295.002224,-9.972500,-0.261836,0.174558,0.036957,0.032987,-0.077274
1765409295.006261,-9.685556,-0.292922,-0.124342,0.039401,0.024435,-0.073457
1765409295.009283,-10.023911,-0.269608,0.301291,0.036957,0.015424,-0.072540
1765409295.011289,-10.086082,-0.273195,0.301889,0.038179,0.024587,-0.068875
1765409295.014209,-9.901959,-0.337159,0.062171,0.039248,0.031001,-0.066737
1765409295.016256,-9.551050,-0.468675,-0.156624,0.039095,0.022297,-0.065973
1765409295.019256,-9.880439,-0.529651,0.245696,0.036652,0.022297,-0.070097
1765409295.020267,-9.880439,-0.529651,0.245696,0.036652,0.027336,-0.070097
1765409295.022248,-9.911524,-0.343137,0.132114,0.045204,0.026878,-0.075900
1765409295.025232,-9.822452,-0.273195,0.224773,0.041692,0.037263,-0.073915
1765409295.029342,-9.715446,-0.389766,-0.003587,0.039859,0.020006,-0.072846
1765409295.031222,-9.904350,-0.512912,0.188905,0.037721,0.020006,-0.072540
1765409295.034219,-9.760281,-0.357484,0.020325,0.039859,0.032376,-0.077122
1765409295.038683,-9.670013,-0.280966,-0.021521,0.038332,0.033903,-0.076053
1765409295.039183,-9.477522,-0.365854,-0.115973,0.039706,0.033598,-0.073304
1765409295.040267,-9.913916,-0.260641,0.304878,0.039706,0.024587,-0.073304
1765409295.044209,-10.011955,-0.380799,0.414873,0.040164,0.036499,-0.069333
1765409295.046165,-9.910329,-0.330583,0.170971,0.040470,0.031001,-0.074067
1765409295.049175,-9.860114,-0.246294,0.209828,0.037110,0.034361,-0.077122
1765409295.051184,-9.894786,-0.190100,0.258250,0.034056,0.027794,-0.073609
1765409295.054222,-9.894786,-0.190100,0.258250,0.034056,0.022449,-0.073609
1765409295.056180,-9.843375,-0.399330,0.035868,0.037568,0.025656,-0.071013
1765409295.059162,-9.852941,-0.300096,0.091463,0.035430,0.030085,-0.076664
1765409295.061238,-9.785389,-0.262434,0.142276,0.034514,0.030238,-0.070860
1765409295.064161,-9.994021,-0.436394,0.167384,0.031001,0.021991,-0.071929
1765409295.066145,-9.954566,-0.602582,0.209230,0.037263,0.023366,-0.071929
1765409295.069188,-9.886416,-0.621712,0.121951,0.034667,0.029169,-0.077885
1765409295.071205,-9.818267,-0.463893,0.033477,0.040012,0.033903,-0.077580
1765409295.074264,-9.798540,-0.367049,0.044237,0.040164,0.024435,-0.077274
1765409295.076170,-10.147058,-0.380799,0.377212,0.037415,0.025351,-0.078343
1765409295.077247,-10.070539,-0.406504,0.231946,0.038332,0.027947,-0.079565
1765409295.081154,-9.875058,-0.406504,0.092061,0.035583,0.029780,-0.082772
1765409295.084205,-9.661046,-0.335964,-0.132712,0.034819,0.028405,-0.081245
1765409295.086274,-9.984456,-0.404113,0.241511,0.033445,0.025809,-0.076816
1765409295.089108,-10.002390,-0.609756,0.237924,0.039401,0.025809,-0.073609
1765409295.091276,-9.977283,-0.474055,0.100430,0.041844,0.033903,-0.082009
1765409295.092226,-9.839788,-0.375418,0.059780,0.038332,0.034056,-0.080481
1765409295.096142,-9.950979,-0.370038,0.080703,0.040928,0.029169,-0.080176
1765409295.099188,-10.043041,-0.615734,0.251076,0.038790,0.026573,-0.077885
1765409295.101101,-9.780008,-0.614538,-0.041846,0.038485,0.033903,-0.081856
1765409295.104134,-9.651482,-0.467480,-0.206839,0.043066,0.036346,-0.081703
1765409295.106133,-9.744141,-0.439383,0.084888,0.044288,0.037263,-0.079412
1765409295.109213,-9.994021,-0.468675,0.356887,0.040470,0.030543,-0.082772
1765409295.111141,-10.029889,-0.402917,0.245696,0.042913,0.035430,-0.082925
1765409295.114172,-9.680773,-0.377810,-0.239120,0.041844,0.037415,-0.082161
1765409295.115228,-9.791965,-0.392157,0.150646,0.036805,0.031765,-0.083841
1765409295.119191,-10.093853,-0.452535,0.411286,0.038026,0.028100,-0.085827
1765409295.121222,-9.947989,-0.560736,0.149450,0.039554,0.032070,-0.080329
1765409295.122193,-9.750119,-0.532640,-0.047824,0.038790,0.032681,-0.087659
1765409295.126169,-9.943208,-0.371234,0.382592,0.032376,0.033903,-0.089644
1765409295.129109,-9.982065,-0.335964,0.167384,0.037415,0.026878,-0.080329
1765409295.131188,-9.937230,-0.476447,0.038259,0.040928,0.032223,-0.076205
1765409295.133326,-9.649688,-0.609756,-0.187111,0.037110,0.032223,-0.081703
1765409295.136191,-9.649688,-0.609756,-0.187111,0.037110,0.029322,-0.081703
1765409295.137217,-9.909132,-0.471066,0.178144,0.042608,0.028100,-0.080940
1765409295.141252,-9.971903,-0.448350,0.124342,0.042302,0.030085,-0.082620
1765409295.144123,-9.760879,-0.574486,-0.096844,0.039401,0.038026,-0.081703
1765409295.146169,-9.856527,-0.435796,0.076518,0.041233,0.033445,-0.082772
1765409295.149139,-9.856527,-0.435796,0.076518,0.041233,0.033903,-0.082772
1765409295.151133,-9.966521,-0.711980,0.179938,0.038332,0.040012,-0.084605
1765409295.152240,-9.750716,-0.671927,-0.155428,0.044135,0.040012,-0.086132
1765409295.156179,-9.821855,-0.548780,-0.014347,0.045509,0.032834,-0.089950
1765409295.159176,-10.277378,-0.357484,0.552367,0.044135,0.034361,-0.090866
1765409295.161135,-10.105211,-0.438785,0.339550,0.048411,0.040470,-0.086285
1765409295.164727,-9.737565,-0.412482,-0.212219,0.046884,0.032529,-0.087048
1765409295.166229,-9.722619,-0.356289,-0.045433,0.043677,0.032529,-0.085521
1765409295.167160,-10.155428,-0.380201,0.428623,0.040623,0.030085,-0.085521
1765409295.170166,-10.143471,-0.487207,0.325801,0.043830,0.037110,-0.080481
1765409295.174117,-9.777617,-0.439981,-0.113582,0.046884,0.037110,-0.082925
1765409295.175108,-9.873264,-0.409493,0.065160,0.040775,0.029169,-0.084758
1765409295.179205,-10.077712,-0.517695,0.280966,0.043066,0.029169,-0.083994
1765409295.181152,-10.068149,-0.617527,0.274988,0.043066,0.029627,-0.083994
1765409295.184151,-9.711261,-0.589431,-0.167982,0.043830,0.035736,-0.089339
1765409295.186133,-9.729196,-0.658776,-0.056193,0.043371,0.034667,-0.089797
1765409295.189139,-9.877449,-0.703013,0.080703,0.045509,0.033139,-0.089797
1765409295.191138,-10.233141,-0.527260,0.307867,0.048258,0.032529,-0.096059
1765409295.194155,-10.233141,-0.527260,0.307867,0.048258,0.042150,-0.096059
1765409295.197141,-9.916904,-0.301889,0.092659,0.044746,0.033139,-0.094073
1765409295.197641,-9.869678,-0.437590,0.105811,0.044746,0.033139,-0.087506
1765409295.201165,-9.812887,-0.538618,-0.034075,0.043830,0.032376,-0.089950
1765409295.204170,-9.835604,-0.504543,0.065758,0.043219,0.035583,-0.088575
1765409295.207115,-9.847560,-0.478240,0.034672,0.047342,0.034361,-0.087506
1765409295.209164,-10.060975,-0.490794,0.169177,0.050549,0.034361,-0.086896
1765409295.210143,-9.999999,-0.516499,0.106408,0.047953,0.038790,-0.090408
1765409295.214161,-9.968315,-0.399330,0.062769,0.046731,0.036652,-0.090561
1765409295.216130,-9.901959,-0.487207,0.016738,0.042761,0.030543,-0.088881
1765409295.219266,-10.008368,-0.569106,0.181731,0.040623,0.033903,-0.091783
1765409295.221131,-9.814680,-0.620516,-0.022119,0.042150,0.043982,-0.093157
1765409295.224178,-9.866092,-0.509326,0.028694,0.047647,0.042608,-0.093768
1765409295.226107,-10.037063,-0.535031,0.365854,0.045815,0.035277,-0.093921
1765409295.229113,-10.032280,-0.535031,0.233740,0.049786,0.035125,-0.090713
1765409295.231109,-9.906144,-0.535629,-0.032879,0.046578,0.032681,-0.091324
1765409295.235246,-9.782400,-0.517695,-0.003587,0.045815,0.032834,-0.093004
1765409295.236221,-9.981467,-0.503348,0.236729,0.043371,0.032834,-0.092241
1765409295.239125,-9.897178,-0.609756,-0.015543,0.043219,0.030238,-0.092241
1765409295.241157,-9.906742,-0.562530,-0.064562,0.046120,0.031612,-0.093462
1765409295.245200,-9.929459,-0.640842,0.107604,0.042608,0.036805,-0.090713
1765409295.247115,-10.081897,-0.637255,0.143472,0.046273,0.029016,-0.095448
1765409295.249164,-9.872069,-0.662362,-0.062171,0.047189,0.036499,-0.093768
1765409295.251209,-9.711859,-0.565519,-0.212219,0.048564,0.040470,-0.095600
1765409295.253097,-9.876852,-0.590626,0.063367,0.050549,0.041081,-0.092699
1765409295.256101,-9.974891,-0.587040,0.266619,0.052229,0.034056,-0.094073
1765409295.259120,-9.974891,-0.587040,0.266619,0.052229,0.040470,-0.094073
1765409295.261139,-9.708870,-0.546389,-0.093855,0.050549,0.041692,-0.094837
1765409295.262123,-9.788378,-0.539813,-0.086083,0.051771,0.032376,-0.093921
1765409295.265183,-9.994021,-0.564323,0.291726,0.053451,0.030085,-0.094226
1765409295.269166,-10.040649,-0.503348,0.313247,0.051313,0.037874,-0.098197
1765409295.271190,-9.836202,-0.529651,-0.132712,0.051924,0.043677,-0.089339
1765409295.272147,-9.953370,-0.650406,0.118364,0.050855,0.025045,-0.093615
1765409295.276209,-10.255259,-0.705404,0.576279,0.045357,0.030696,-0.097280
1765409295.279109,-9.888808,-0.738881,-0.021521,0.048717,0.036346,-0.099113
1765409295.281115,-9.573768,-0.691655,-0.387374,0.050396,0.029780,-0.100945
1765409295.282203,-9.599473,-0.607365,-0.258250,0.050855,0.028100,-0.100182
1765409295.286093,-10.029889,-0.659971,0.338953,0.050091,0.031001,-0.097128
1765409295.287119,-9.988043,-0.821377,0.174558,0.052840,0.037415,-0.098349
1765409295.291132,-9.744739,-0.686274,-0.231349,0.056963,0.035736,-0.102014
1765409295.292159,-9.701696,-0.480631,-0.172764,0.054367,0.035736,-0.102167
1765409295.296150,-10.038258,-0.536824,0.143472,0.056352,0.030085,-0.097128
1765409295.299095,-10.037660,-0.793878,0.221784,0.054214,0.034667,-0.096669
1765409295.301187,-9.802725,-0.766977,-0.088474,0.056658,0.043982,-0.102320
1765409295.304201,-9.683763,-0.671927,-0.143472,0.058643,0.045357,-0.102320
1765409295.306147,-9.905546,-0.735294,0.190698,0.060170,0.033445,-0.099113
1765409295.309110,-10.124342,-0.590626,0.331181,0.055894,0.036346,-0.105069
1765409295.312169,-9.863700,-0.507532,0.029292,0.052993,0.041539,-0.099571
1765409295.314118,-9.646101,-0.760402,-0.194883,0.054214,0.041539,-0.101251
1765409295.316126,-9.780008,-0.731707,0.022716,0.055283,0.034819,-0.104000
1765409295.319107,-10.020324,-0.676710,0.295313,0.056200,0.034972,-0.105680
1765409295.320171,-10.020324,-0.676710,0.295313,0.056200,0.044593,-0.105680
1765409295.324170,-9.616212,-0.462099,-0.295313,0.058948,0.043219,-0.104611
1765409295.326126,-9.848158,-0.600191,0.102822,0.053909,0.043066,-0.099266
1765409295.329068,-10.086082,-0.631277,0.162602,0.059101,0.039248,-0.100335
1765409295.331143,-9.836799,-0.749641,0.072932,0.059865,0.046120,-0.095906
1765409295.334140,-9.559420,-0.668340,-0.176949,0.060628,0.052229,-0.102320
1765409295.336167,-9.884026,-0.533238,0.231349,0.056352,0.036652,-0.102473
1765409295.339177,-10.065159,-0.573888,0.340148,0.054520,0.036652,-0.102167
1765409295.341136,-10.066953,-0.503348,0.199665,0.058338,0.041539,-0.099876
1765409295.342223,-9.748923,-0.677307,0.064562,0.053756,0.049175,-0.099724
1765409295.346125,-9.812290,-0.610952,0.000000,0.060170,0.040012,-0.098655
1765409295.349107,-10.034670,-0.730512,0.160210,0.058338,0.037110,-0.100793
1765409295.351131,-9.985652,-0.564323,0.110593,0.054367,0.037110,-0.107207
1765409295.354111,-9.757292,-0.479436,-0.157819,0.059254,0.047800,-0.102931
1765409295.356049,-9.591104,-0.579866,-0.276184,0.056658,0.043982,-0.101404
1765409295.359072,-9.939023,-0.517097,0.228360,0.049022,0.038332,-0.105069
1765409295.361054,-10.069344,-0.549976,0.199665,0.049786,0.042608,-0.102014
1765409295.364138,-9.821855,-0.713773,-0.290531,0.052687,0.047495,-0.103847
1765409295.366119,-9.821855,-0.713773,-0.290531,0.052687,0.047189,-0.103847
1765409295.369101,-9.885818,-0.595409,0.156624,0.049175,0.048411,-0.110261
1765409295.371072,-9.832614,-0.618723,0.133907,0.052076,0.048411,-0.103236
1765409295.372123,-9.832614,-0.618723,0.133907,0.052076,0.044288,-0.103236
1765409295.376080,-9.872667,-0.653993,0.105811,0.053145,0.048411,-0.103389
1765409295.379075,-9.876254,-0.713175,0.144668,0.056505,0.049480,-0.104153
1765409295.381056,-10.037063,-0.730512,0.219990,0.056200,0.049480,-0.104458
1765409295.384046,-9.744141,-0.785509,-0.193687,0.052229,0.049480,-0.105832
1765409295.386087,-9.787780,-0.783118,-0.136298,0.055131,0.046884,-0.106138
1765409295.389158,-9.881634,-0.902080,0.093257,0.057116,0.042913,-0.105680
1765409295.391126,-9.996411,-0.704806,0.130918,0.057727,0.038332,-0.112857
1765409295.394065,-9.782400,-0.512912,-0.158417,0.057727,0.048564,-0.111483
1765409295.395055,-9.753107,-0.480631,-0.308465,0.057727,0.041081,-0.109803
1765409295.399123,-9.992825,-0.602582,0.151243,0.055741,0.041844,-0.106443
1765409295.401124,-10.233141,-0.717360,0.458513,0.049633,0.054062,-0.114232
1765409295.404093,-9.958152,-0.663558,-0.026303,0.052993,0.054062,-0.113010
1765409295.405108,-9.541486,-0.626494,-0.651602,0.055436,0.045815,-0.111788
1765409295.407167,-9.990434,-0.398135,0.082496,0.054214,0.043066,-0.112705
1765409295.411046,-10.181131,-0.453132,0.418460,0.057879,0.052382,-0.105069
1765409295.414199,-9.900764,-0.657580,0.001196,0.055131,0.054367,-0.098349
1765409295.415148,-9.492466,-0.879364,-0.333572,0.048869,0.052076,-0.103694
1765409295.419170,-9.492466,-0.879364,-0.333572,0.048869,0.046578,-0.103694
1765409295.421097,-9.957555,-0.930775,-0.003587,0.057269,0.043066,-0.107970
1765409295.424178,-10.101624,-0.651602,0.257652,0.055894,0.053909,-0.113926
1765409295.426139,-9.866092,-0.683285,0.151243,0.050855,0.062919,-0.109650
1765409295.429130,-9.708870,-0.790292,-0.137494,0.052076,0.049786,-0.107818
1765409295.432151,-9.708870,-0.790292,-0.137494,0.052076,0.040012,-0.107818
1765409295.434159,-9.860114,-0.909852,-0.075323,0.050855,0.049938,-0.113774
1765409295.435172,-9.838593,-0.814204,-0.076518,0.056963,0.049938,-0.115606
1765409295.438552,-9.695719,-0.740674,0.001196,0.058032,0.040775,-0.111788
1765409295.441165,-9.964728,-0.651004,0.092659,0.055894,0.040775,-0.113774
1765409295.444146,-9.984456,-0.550574,0.074127,0.056047,0.046731,-0.110108
1765409295.446109,-9.798540,-0.778336,-0.313247,0.057879,0.051313,-0.104763
1765409295.449092,-9.874461,-0.877571,-0.032281,0.056963,0.046578,-0.109956
1765409295.451107,-10.086082,-0.894907,0.301291,0.051618,0.049633,-0.116370
1765409295.454110,-9.958152,-0.816595,-0.013152,0.055131,0.049633,-0.116675
1765409295.456067,-9.768650,-0.767575,-0.373027,0.057879,0.050396,-0.118050
1765409295.459110,-10.009563,-0.712578,0.025108,0.054978,0.049633,-0.118661
1765409295.461090,-10.117167,-0.729316,0.167384,0.054367,0.053451,-0.118202
1765409295.464079,-10.102820,-0.626494,0.124342,0.054520,0.050702,-0.115759
1765409295.466059,-9.848756,-0.690459,-0.086083,0.057421,0.056963,-0.111177
1765409295.469096,-9.873863,-0.780727,-0.087279,0.058490,0.048869,-0.113316
1765409295.472104,-9.971304,-0.870397,0.022716,0.058338,0.048106,-0.112246
1765409295.472604,-9.864896,-0.832138,-0.118364,0.061087,0.049786,-0.112552
1765409295.477108,-9.928263,-0.596007,0.016738,0.061087,0.054672,-0.112552
1765409295.479023,-10.006575,-0.621114,0.149450,0.053298,0.048564,-0.115606
1765409295.481047,-10.021520,-0.693448,0.056193,0.054520,0.045051,-0.116981
1765409295.484075,-9.895385,-0.632472,-0.156624,0.052229,0.050549,-0.115606
1765409295.486089,-9.835006,-0.877571,-0.107006,0.051465,0.050549,-0.112552
1765409295.487145,-9.781204,-0.939742,-0.131516,0.050855,0.045662,-0.116981
1765409295.491057,-10.004781,-0.736490,0.076518,0.050702,0.041081,-0.118355
1765409295.494083,-9.823647,-0.671927,-0.142276,0.057727,0.051771,-0.111483
1765409295.496060,-9.677187,-0.710784,-0.335366,0.059559,0.045357,-0.106138
1765409295.499122,-9.796746,-0.968436,0.039455,0.057727,0.045357,-0.105222
1765409295.501094,-9.865494,-1.231468,0.031683,0.053909,0.047037,-0.108429
1765409295.504078,-9.811094,-1.091583,-0.118364,0.057574,0.047495,-0.118966
1765409295.506036,-9.598277,-0.969632,-0.432209,0.056963,0.049633,-0.118661
1765409295.507029,-9.823050,-0.835724,0.027499,0.054062,0.049633,-0.120188
1765409295.511067,-9.890003,-0.889526,0.193687,0.058185,0.049633,-0.119730
1765409295.514080,-9.709468,-1.018651,-0.153037,0.060628,0.048411,-0.121257
1765409295.516140,-9.490674,-0.856050,-0.445959,0.061239,0.050091,-0.124311
1765409295.519032,-9.490674,-0.856050,-0.445959,0.061239,0.048411,-0.124311
1765409295.521036,-9.956359,-0.863223,0.066954,0.064752,0.056658,-0.114385
1765409295.524094,-9.978478,-0.858441,0.164993,0.065210,0.056658,-0.116523
1765409295.526039,-9.801530,-0.956480,-0.032281,0.061850,0.062156,-0.117592
1765409295.529086,-9.835006,-0.946915,-0.119560,0.063072,0.052993,-0.118508
1765409295.531076,-9.979673,-1.009086,-0.020325,0.064752,0.046731,-0.117439
1765409295.534111,-9.957555,-0.908656,0.074127,0.062156,0.058185,-0.124922
1765409295.536064,-9.947989,-0.906265,0.031683,0.062003,0.065363,-0.120951
1765409295.538577,-9.821257,-0.986370,-0.026901,0.063225,0.057269,-0.118966
1765409295.541264,-10.190099,-0.771162,0.310856,0.062919,0.050091,-0.125380
1765409295.544048,-9.980869,-0.967240,0.051411,0.069028,0.060170,-0.115454
1765409295.546067,-9.734576,-0.995935,-0.334768,0.071319,0.057421,-0.118966
1765409295.547087,-9.917501,-0.885940,0.072334,0.066737,0.059101,-0.120799
1765409295.551028,-9.787780,-1.037781,0.186514,0.062003,0.057116,-0.117592
1765409295.554051,-9.860114,-0.973218,-0.111191,0.068570,0.052840,-0.119119
1765409295.556022,-9.664036,-0.942731,-0.358082,0.073457,0.052840,-0.118661
1765409295.559045,-10.057388,-0.813008,0.243305,0.069333,0.049938,-0.120188
1765409295.561061,-10.138091,-0.887135,0.307269,0.070250,0.054062,-0.116523
1765409295.564076,-9.903154,-1.010282,-0.215208,0.067959,0.046884,-0.118508
1765409295.566088,-9.624580,-0.847680,-0.545194,0.073915,0.056352,-0.122173
1765409295.569054,-9.707675,-0.783118,-0.142276,0.069028,0.056352,-0.121868
1765409295.571070,-9.858320,-0.812410,0.109995,0.068111,0.057727,-0.116217
1765409295.574013,-9.689740,-1.037781,-0.327594,0.066584,0.051160,-0.117286
1765409295.575044,-9.858918,-0.920612,-0.097441,0.066432,0.055741,-0.125533
1765409295.579032,-9.858918,-0.920612,-0.294118,0.066432,0.062614,-0.125533
1765409295.581214,-9.867885,-0.977403,-0.077714,0.075442,0.056200,-0.118508
1765409295.584090,-9.856527,-1.027020,0.057389,0.070555,0.068417,-0.124922
1765409295.586048,-9.861309,-1.038976,-0.068149,0.072235,0.055589,-0.128129
1765409295.589023,-9.732184,-0.763988,-0.328192,0.070250,0.055589,-0.132558
1765409295.591016,-9.732184,-0.763988,-0.328192,0.070250,0.058796,-0.132558
1765409295.594039,-9.906742,-0.549976,0.063367,0.062766,0.069180,-0.115148
1765409295.596029,-9.916306,-1.025825,0.037661,0.063072,0.059712,-0.116981
1765409295.599078,-9.955761,-1.208752,0.087279,0.062003,0.059559,-0.123853
1765409295.601064,-9.670013,-0.876375,-0.378407,0.066126,0.058032,-0.131336
1765409295.604034,-9.670013,-0.876375,-0.378407,0.066126,0.056505,-0.131336
1765409295.606108,-9.813485,-0.762195,-0.197274,0.062614,0.060476,-0.118355
1765409295.609060,-10.137493,-1.007891,0.266021,0.060323,0.060476,-0.123089
1765409295.611003,-9.891200,-1.107723,-0.067551,0.058796,0.071166,-0.122326
1765409295.612067,-9.955164,-0.844691,-0.236131,0.060323,0.058490,-0.128129
1765409295.616150,-9.906144,-0.622908,0.013749,0.059865,0.060018,-0.126449
1765409295.618428,-9.925871,-0.781922,0.008369,0.061545,0.061392,-0.116370
1765409295.621027,-9.711859,-1.125060,-0.410091,0.065210,0.061392,-0.115759
1765409295.622061,-9.891797,-1.044954,-0.147059,0.064141,0.061697,-0.124311
1765409295.626081,-10.194881,-0.985772,0.349713,0.060018,0.061697,-0.124922
1765409295.629112,-9.999999,-0.940937,-0.108202,0.066126,0.061545,-0.122631
1765409295.631126,-9.921089,-0.890124,-0.216404,0.064141,0.058490,-0.127824
1765409295.632114,-9.791965,-1.086203,-0.289335,0.063988,0.059559,-0.126449
1765409295.636069,-10.037063,-1.049139,-0.032281,0.065210,0.052382,-0.131489
1765409295.639207,-9.929459,-0.937350,-0.148254,0.066279,0.057269,-0.134238
1765409295.642487,-9.708273,-0.917025,-0.510521,0.065668,0.057727,-0.131641
1765409295.644149,-9.936632,-0.732903,-0.197274,0.065515,0.055131,-0.129656
1765409295.645101,-10.031085,-0.963654,-0.020325,0.064752,0.060323,-0.124006
1765409295.649025,-10.031085,-0.963654,-0.020325,0.064752,0.063530,-0.124006
1765409295.650997,-9.950979,-1.140005,-0.039455,0.060476,0.065821,-0.130878
1765409295.654061,-9.906144,-1.256576,-0.234338,0.064752,0.056810,-0.129198
1765409295.655052,-10.032280,-1.168101,-0.163797,0.066737,0.048717,-0.134085
1765409295.659020,-9.993423,-1.093974,-0.027499,0.068570,0.062614,-0.133627
1765409295.661076,-9.648493,-1.027618,-0.307269,0.069791,0.066890,-0.132405
1765409295.664005,-9.936632,-0.913438,-0.037064,0.071013,0.055436,-0.132710
1765409295.665022,-10.057388,-0.853658,-0.034672,0.070097,0.049786,-0.130420
1765409295.669010,-9.872667,-1.038976,-0.338355,0.068875,0.057421,-0.127060
1765409295.671043,-9.765063,-1.261358,-0.252272,0.065515,0.063072,-0.127671
1765409295.674094,-9.867287,-1.208752,-0.008369,0.067501,0.054520,-0.133016
1765409295.675060,-10.030487,-1.011478,0.117767,0.068417,0.051007,-0.138819
1765409295.679018,-9.814680,-0.839909,-0.306074,0.069028,0.055894,-0.132558
1765409295.680077,-9.522954,-1.022238,-0.394548,0.068111,0.053451,-0.125227
1765409295.684042,-9.778812,-1.145385,0.014945,0.068111,0.053451,-0.126449
1765409295.686003,-9.904350,-1.229077,0.016738,0.072388,0.052687,-0.125533
1765409295.689005,-9.739358,-1.154950,-0.305476,0.072388,0.052076,-0.131489
1765409295.691074,-9.739358,-1.154950,-0.305476,0.072388,0.054672,-0.131489
1765409295.694050,-9.829028,-1.042563,-0.043639,0.074984,0.054825,-0.129351
1765409295.696179,-10.083690,-0.899091,0.148852,0.068417,0.049633,-0.130420
1765409295.699158,-9.782997,-1.037781,-0.428623,0.063225,0.054672,-0.130114
1765409295.701120,-9.625177,-1.031803,-0.514108,0.063988,0.055741,-0.134085
1765409295.704063,-9.623384,-1.299617,-0.332377,0.066890,0.061087,-0.128587
1765409295.706032,-9.783595,-1.203969,-0.052606,0.069944,0.056200,-0.135612
1765409295.709102,-10.068149,-0.924199,0.156026,0.067501,0.066432,-0.135154
1765409295.711123,-9.711859,-1.000717,-0.399330,0.068722,0.067959,-0.131183
1765409295.714045,-9.863700,-1.065280,-0.159015,0.075289,0.061545,-0.131336
1765409295.716053,-9.807508,-1.352224,0.033477,0.066432,0.059559,-0.129656
1765409295.718968,-9.916306,-1.162721,-0.019130,0.069791,0.055131,-0.136070
1765409295.721068,-9.677187,-1.208752,-0.392755,0.070097,0.062614,-0.136070
1765409295.724001,-9.617407,-1.051530,-0.490196,0.074526,0.062156,-0.137597
1765409295.725068,-9.897178,-1.029412,0.054400,0.073151,0.066279,-0.133016
1765409295.727176,-9.981467,-1.070660,0.142276,0.074678,0.066279,-0.134543
1765409295.732100,-9.673599,-1.071258,-0.343137,0.076205,0.063530,-0.132405
1765409295.734069,-9.699903,-0.946915,-0.346724,0.072998,0.059559,-0.135459
1765409295.736055,-9.886416,-1.058106,-0.078910,0.075747,0.063988,-0.127060
1765409295.739006,-9.863700,-1.260760,-0.016738,0.075900,0.059254,-0.129351
1765409295.740977,-9.977880,-1.190818,-0.094452,0.077122,0.066126,-0.133627
1765409295.744002,-9.977880,-1.190818,-0.094452,0.077122,0.073609,-0.133627
1765409295.745999,-9.863102,-1.010282,-0.138690,0.077122,0.064599,-0.136376
1765409295.749039,-9.849353,-1.359397,-0.086681,0.075442,0.072998,-0.131031
1765409295.751033,-9.898373,-1.307986,-0.184122,0.076969,0.064446,-0.140041
1765409295.754053,-9.757292,-1.210545,-0.396939,0.080481,0.070097,-0.136223
1765409295.757038,-9.574366,-1.104735,-0.369440,0.083230,0.068570,-0.138208
1765409295.758994,-9.929459,-1.048541,0.130320,0.080329,0.073457,-0.133474
1765409295.760970,-9.829028,-1.391081,-0.109397,0.078649,0.073457,-0.131794
1765409295.763967,-10.015541,-1.245217,-0.108800,0.079718,0.066737,-0.142026
1765409295.765963,-9.660448,-1.200382,-0.404113,0.081551,0.078343,-0.140652
1765409295.769099,-9.730989,-0.988761,-0.300096,0.084605,0.067501,-0.140804
1765409295.771041,-9.770443,-1.221903,-0.178144,0.079260,0.065515,-0.133932
1765409295.773992,-10.035867,-1.136418,-0.014347,0.080329,0.065515,-0.140346
1765409295.776037,-9.901959,-1.212338,-0.194285,0.083536,0.078496,-0.134085
1765409295.779057,-9.716043,-1.156145,-0.437590,0.086285,0.067501,-0.132710
1765409295.781050,-10.028693,-1.213534,0.035868,0.079412,0.063377,-0.137445
1765409295.782082,-10.014346,-1.151363,0.098039,0.080634,0.073457,-0.137750
1765409295.785016,-9.916306,-1.273912,-0.245098,0.081245,0.073457,-0.136528
1765409295.788983,-9.644905,-1.354017,-0.388570,0.081245,0.066432,-0.136528
1765409295.791058,-9.992825,-1.114897,-0.058584,0.079107,0.071777,-0.146760
1765409295.794055,-10.057388,-0.814204,0.053802,0.078191,0.071777,-0.142790
1765409295.795998,-10.057388,-0.814204,0.053802,0.078191,0.072082,-0.142790
1765409295.799071,-9.772835,-0.988761,-0.257054,0.073457,0.065363,-0.125838
1765409295.801031,-9.960544,-1.211143,-0.208034,0.073457,0.060476,-0.125838
1765409295.802040,-9.821257,-1.374342,-0.345528,0.080176,0.071471,-0.127976
1765409295.805099,-9.728598,-1.296030,-0.517097,0.080481,0.071471,-0.133627
1765409295.809247,-9.847560,-1.062888,-0.081301,0.073609,0.070860,-0.137139
1765409295.811023,-10.001194,-1.195600,-0.160808,0.076664,0.070555,-0.134696
1765409295.814035,-10.002390,-1.257771,-0.255858,0.078954,0.072540,-0.135154
1765409295.815034,-9.780008,-1.158536,-0.266021,0.075747,0.076969,-0.135918
1765409295.819069,-9.927666,-1.096963,-0.125538,0.074220,0.074678,-0.133016
1765409295.821013,-9.888808,-1.299617,-0.374821,0.078954,0.064904,-0.131947
1765409295.822006,-10.030487,-1.189024,-0.154232,0.079565,0.077580,-0.136987
1765409295.826022,-9.975489,-1.204567,-0.150646,0.080176,0.077580,-0.133321
1765409295.828942,-10.016139,-1.129842,-0.066954,0.079107,0.072388,-0.135154
1765409295.830978,-10.011356,-1.200382,-0.090866,0.073457,0.065515,-0.137903
1765409295.834009,-9.972500,-1.200382,-0.129125,0.074678,0.064752,-0.141568
1765409295.836000,-9.876254,-1.185437,-0.373625,0.078954,0.066432,-0.141263
1765409295.839024,-9.925871,-1.071258,-0.231349,0.077580,0.063835,-0.140652
1765409295.840028,-10.125537,-0.982783,0.045433,0.073457,0.065210,-0.137903
1765409295.842103,-10.063366,-1.082018,-0.083692,0.074984,0.065210,-0.133321
1765409295.846087,-9.732184,-1.438307,-0.451937,0.073151,0.067042,-0.133016
1765409295.849095,-9.787182,-1.524390,-0.298900,0.073915,0.067501,-0.139888
1765409295.852089,-9.802725,-1.323529,-0.165591,0.073762,0.067501,-0.146913
1765409295.854099,-9.802725,-1.323529,-0.165591,0.073762,0.067195,-0.146913
1765409295.856132,-9.685556,-1.027020,-0.468675,0.074220,0.070097,-0.139125
1765409295.859013,-9.936033,-1.043161,-0.094452,0.072540,0.066432,-0.135001
1765409295.861039,-9.858918,-1.348039,-0.200861,0.075900,0.066890,-0.130572
1765409295.862016,-9.907937,-1.338474,-0.372429,0.075595,0.069180,-0.139888
1765409295.865994,-9.665230,-1.486729,-0.357484,0.075747,0.079871,-0.136987
1765409295.869039,-9.764465,-1.443089,-0.249283,0.081245,0.071471,-0.142942
1765409295.871038,-9.854136,-1.590148,-0.124342,0.079565,0.071166,-0.145080
1765409295.874236,-9.770443,-1.393472,-0.282759,0.079871,0.076664,-0.153633
1765409295.875025,-9.882831,-1.206360,-0.004185,0.076511,0.076969,-0.150273
1765409295.878981,-9.721423,-1.125060,-0.240913,0.074373,0.070860,-0.146760
1765409295.881001,-9.763269,-1.090985,-0.398135,0.076664,0.065973,-0.143553
1765409295.884001,-9.579147,-1.328312,-0.456719,0.075442,0.072082,-0.139125
1765409295.886022,-9.695719,-1.357006,-0.253467,0.080634,0.072388,-0.142026
1765409295.887053,-9.842180,-1.330703,-0.094452,0.079260,0.072082,-0.144011
1765409295.890931,-9.910329,-1.175275,-0.126734,0.075900,0.068875,-0.147677
1765409295.893955,-9.864896,-1.085605,-0.159015,0.074220,0.077122,-0.144317
1765409295.895953,-9.754900,-1.306193,-0.258250,0.075442,0.071929,-0.137750
1765409295.898991,-9.947392,-1.334888,-0.006576,0.075442,0.070555,-0.137750
1765409295.900932,-9.930654,-1.277499,-0.085485,0.070555,0.074831,-0.142026
1765409295.903935,-9.660448,-1.331301,-0.514108,0.071166,0.074831,-0.133321
1765409295.906013,-9.564202,-1.569823,-0.517695,0.076053,0.074984,-0.133932
1765409295.908972,-9.772835,-1.602702,-0.227164,0.077122,0.075136,-0.141263
