time,acc_x_g,acc_y_g,acc_z_g,gyro_x_rad_s,gyro_y_rad_s,gyro_z_rad_s
1765409983.961038,-7.935197,2.650645,5.422644,-0.006261,-0.006720,0.001680
1765409983.961238,-7.893352,2.625538,5.368245,-0.007330,-0.004887,0.001374
1765409983.961438,-8.004542,2.604017,5.540411,-0.007483,-0.003054,-0.001680
1765409983.961638,-8.009325,2.627929,5.493783,-0.008247,-0.007636,-0.002138
1765409983.961890,-7.953131,2.667384,5.383788,-0.006414,-0.008399,-0.000611
1765409983.962090,-7.963892,2.599235,5.447154,-0.007789,-0.005651,0.000611
1765409983.962290,-8.101386,2.558584,5.553562,-0.011454,-0.005651,0.000305
1765409983.962490,-8.234097,2.586083,5.486609,-0.003360,-0.005803,-0.000153
1765409983.962690,-8.158176,2.828192,5.237924,-0.002902,-0.009163,0.000153
1765409983.962876,-8.285508,3.207795,5.434002,-0.007025,-0.009316,-0.008094
1765409983.963126,-8.475011,3.314801,5.362266,-0.016035,-0.009621,-0.000764
1765409983.963376,-8.292084,2.974055,4.845767,-0.018021,-0.020769,0.011454
1765409983.963626,-8.342897,2.907700,4.725011,-0.019395,-0.020769,0.008399
1765409983.963859,-8.742228,3.124701,5.069345,-0.025045,-0.024282,-0.001985
1765409983.964109,-8.807985,3.329746,4.818866,-0.026725,-0.018631,0.005192
1765409983.964359,-8.807985,3.329746,4.818866,-0.026725,-0.019548,0.005192
1765409983.964609,-8.478598,2.956719,4.398015,-0.032529,-0.022907,0.018784
1765409983.964913,-8.497726,2.870636,4.460784,-0.043066,-0.018784,0.013592
1765409983.965113,-8.221543,2.819225,3.965806,-0.050244,-0.016493,0.012828
1765409983.965313,-7.961501,2.700860,3.793639,-0.057269,-0.021228,0.013286
1765409983.965513,-8.255618,2.600430,4.296987,-0.065210,-0.019853,0.012065
1765409983.965713,-8.101386,2.464132,4.345408,-0.078496,-0.007636,0.008858
1765409983.965952,-7.524509,2.404352,3.760162,-0.091630,-0.009774,0.002596
1765409983.966202,-7.295551,2.348756,3.841463,-0.103236,-0.009468,0.001680
1765409983.966452,-7.504781,2.233381,4.488880,-0.109192,-0.005956,-0.003207
1765409983.966702,-7.452176,2.159254,4.508608,-0.122631,0.001527,-0.010690
1765409983.966805,-7.420491,2.054041,4.630559,-0.134238,0.005040,-0.016952
1765409983.967055,-7.487445,2.020564,4.887613,-0.142332,0.011301,-0.023366
1765409983.967305,-7.140123,1.818508,4.762673,-0.151036,0.014661,-0.027336
1765409983.967555,-7.192730,1.914156,4.954566,-0.155160,0.014050,-0.037415
1765409983.967814,-7.380439,1.768292,5.331181,-0.166766,0.020006,-0.042455
1765409983.968064,-7.527498,1.612864,5.695241,-0.167683,0.028863,-0.045968
1765409983.968314,-7.111429,1.488522,5.384385,-0.165850,0.043371,-0.051007
1765409983.968564,-7.177187,1.480153,5.638450,-0.165850,0.032376,-0.051007
1765409983.968809,-7.176589,1.294835,5.754423,-0.185703,0.041081,-0.068570
1765409983.969059,-7.071974,1.248206,5.352103,-0.182343,0.041081,-0.071319
1765409983.969309,-7.071974,1.248206,5.352103,-0.182343,0.042455,-0.071319
1765409983.969559,-7.372070,1.088594,6.074246,-0.191964,0.044135,-0.093004
1765409983.969865,-6.938665,0.931372,5.417264,-0.194102,0.056352,-0.097891
1765409983.970115,-6.718077,0.676112,5.113582,-0.193339,0.054214,-0.101098
1765409983.970365,-7.095886,0.784911,5.722142,-0.197004,0.053756,-0.125991
1765409983.970615,-7.342180,1.114897,5.981587,-0.204029,0.070250,-0.135765
1765409983.970845,-7.204686,1.035390,5.896699,-0.212734,0.087659,-0.132252
1765409983.971095,-6.952414,0.786705,5.524868,-0.204029,0.078496,-0.130725
1765409983.971345,-6.952414,0.786705,5.524868,-0.204029,0.075900,-0.130725
1765409983.971595,-6.862744,0.981588,5.403514,-0.206320,0.100640,-0.161116
1765409983.971879,-6.863342,0.943328,5.657579,-0.209985,0.101251,-0.151189
1765409983.972129,-6.503467,0.307867,4.838593,-0.222966,0.106749,-0.153174
1765409983.972379,-6.483141,0.125538,4.568388,-0.226936,0.106749,-0.183718
1765409983.972629,-7.198111,0.653395,5.823768,-0.217926,0.136223,-0.202502
1765409983.972914,-7.582496,0.995935,6.421568,-0.212581,0.147371,-0.190743
1765409983.973164,-7.045073,0.689861,5.208632,-0.223882,0.147371,-0.189063
1765409983.973414,-6.506456,0.009565,4.937828,-0.233961,0.151036,-0.202502
1765409983.973664,-6.727641,0.185318,5.173361,-0.233045,0.145844,-0.224646
1765409983.973906,-7.808463,0.562530,6.447871,-0.240070,0.152258,-0.241292
1765409983.974239,-7.958512,0.753826,6.551888,-0.235947,0.180511,-0.240070
1765409983.974573,-7.541845,0.691057,5.585844,-0.235336,0.170584,-0.231060
1765409983.974870,-7.388808,0.332377,5.310855,-0.239765,0.172264,-0.234572
1765409983.975120,-7.490435,0.155428,6.082017,-0.244957,0.172264,-0.264352
1765409983.975370,-7.490435,0.155428,6.082017,-0.244957,0.189368,-0.264352
1765409983.975620,-7.881395,0.697035,5.665350,-0.222050,0.175929,-0.268628
1765409983.975883,-8.341104,1.114897,6.050932,-0.222050,0.175929,-0.281303
1765409983.976133,-8.191654,0.691057,6.110712,-0.226936,0.206320,-0.272904
1765409983.976383,-8.224533,0.710186,5.980392,-0.217468,0.191964,-0.268475
1765409983.976633,-7.884983,0.335964,5.464490,-0.221439,0.187230,-0.286190
1765409983.976913,-8.164752,0.573888,5.955881,-0.222660,0.209221,-0.299782
1765409983.977163,-8.121113,0.710186,5.953490,-0.232282,0.217773,-0.307113
1765409983.977413,-8.993303,1.134624,6.161525,-0.227089,0.194255,-0.307113
1765409983.977663,-8.737445,0.340746,6.212337,-0.241292,0.215941,-0.320552
1765409983.977838,-8.417024,0.614538,5.628885,-0.226326,0.221286,-0.315665
1765409983.978171,-8.532997,1.254184,6.369559,-0.226936,0.205556,-0.325286
1765409983.978505,-8.194045,0.989957,5.815399,-0.220370,0.218232,-0.324522
1765409983.978927,-7.971066,0.258250,5.693447,-0.226173,0.228464,-0.306502
1765409983.979177,-8.965805,0.231946,6.555475,-0.223729,0.225562,-0.331547
1765409983.979427,-9.680773,1.142994,7.194523,-0.223424,0.213039,-0.353386
1765409983.979677,-8.887493,0.845887,6.302008,-0.233503,0.225104,-0.341626
1765409983.979879,-7.411525,0.551172,4.421926,-0.224340,0.225104,-0.345444
1765409983.980129,-7.619559,1.065877,4.650884,-0.224340,0.202655,-0.351248
1765409983.980379,-9.114656,0.492587,7.061214,-0.233656,0.184176,-0.349568
1765409983.980629,-9.279052,0.594213,6.874700,-0.214719,0.209832,-0.355065
1765409983.980903,-7.698468,0.386777,4.368125,-0.219453,0.206472,-0.358578
1765409983.981153,-8.703969,0.475849,5.993543,-0.218079,0.206472,-0.365908
1765409983.981403,-9.965326,0.566714,7.546029,-0.222660,0.219911,-0.387136
1765409983.981653,-9.551649,1.062888,6.604494,-0.215788,0.229685,-0.381027
1765409983.981938,-9.032759,0.222382,6.075442,-0.211665,0.228311,-0.371712
1765409983.982271,-8.868961,0.715567,6.236848,-0.193033,0.211207,-0.390037
1765409983.982605,-8.527020,0.919416,5.730511,-0.189063,0.221439,-0.407753
1765409983.982924,-7.698468,1.336681,4.467957,-0.180358,0.229227,-0.387899
1765409983.983174,-8.088234,1.094572,5.063964,-0.183565,0.199753,-0.378889
1765409983.983424,-8.220946,0.732903,4.701697,-0.196851,0.226326,-0.405309
1765409983.983674,-7.907699,0.946317,4.587517,-0.186314,0.246484,-0.412639
1765409983.983878,-7.829985,1.059302,4.692132,-0.177609,0.248469,-0.409738
1765409983.984128,-8.360831,1.018651,6.016858,-0.192423,0.239154,-0.414777
1765409983.984378,-9.107483,1.772477,6.153754,-0.172875,0.273362,-0.417374
1765409983.984628,-9.143950,1.496293,5.865613,-0.173333,0.279624,-0.399353
1765409983.984852,-8.526422,0.701817,5.425633,-0.193492,0.261450,-0.399964
1765409983.985102,-8.217359,0.650406,5.234337,-0.189674,0.275958,-0.444710
1765409983.985352,-8.402678,1.060497,5.156623,-0.195171,0.288939,-0.456927
1765409983.985602,-7.850908,1.225490,4.991630,-0.192423,0.295048,-0.444252
1765409983.985912,-9.005857,1.805356,5.682687,-0.176693,0.295048,-0.444557
1765409983.986245,-9.444045,1.148972,6.397656,-0.188299,0.308029,-0.435547
1765409983.986579,-9.265901,1.371951,6.358799,-0.169210,0.309861,-0.424704
1765409983.986869,-8.980151,0.866810,5.761597,-0.163254,0.306349,-0.430049
1765409983.987119,-8.470826,0.606169,5.303682,-0.174097,0.306960,-0.432798
1765409983.987369,-9.445839,0.665949,6.385102,-0.171348,0.306349,-0.447306
1765409983.987619,-9.189383,1.233859,5.899091,-0.145997,0.302073,-0.447306
1765409983.987907,-8.809181,0.711382,5.152439,-0.161727,0.315970,-0.428217
1765409983.988157,-8.644188,0.047824,5.612147,-0.139277,0.331242,-0.434936
1765409983.988407,-8.847440,0.594213,5.701219,-0.123547,0.339794,-0.444404
1765409983.988657,-8.748205,0.080105,5.468077,-0.125533,0.326507,-0.465632
1765409983.988859,-8.748205,0.080105,5.468077,-0.125533,0.338419,-0.465632
1765409983.989109,-8.384743,1.717479,4.780607,-0.096975,0.340252,-0.459523
1765409983.989359,-7.849712,1.718077,4.736968,-0.097280,0.369115,-0.440128
1765409983.989609,-7.490435,0.759206,4.331659,-0.106443,0.400117,-0.433256
1765409983.989898,-8.277140,0.855452,4.898373,-0.097586,0.392939,-0.442419
1765409983.990148,-8.265182,0.655787,4.923481,-0.098655,0.378736,-0.454331
1765409983.990398,-7.000238,1.572214,3.733859,-0.102167,0.413861,-0.470672
1765409983.990648,-7.842539,2.110234,4.213295,-0.091477,0.413861,-0.467159
1765409983.990895,-8.057149,1.532759,5.494978,-0.093310,0.406073,-0.422261
1765409983.991228,-8.451697,0.877571,5.014347,-0.092699,0.407600,-0.419206
1765409983.991562,-8.810975,0.860234,4.713056,-0.089034,0.433562,-0.458607
1765409983.991870,-8.664514,1.103539,5.912242,-0.099266,0.413709,-0.445168
1765409983.992120,-8.935914,1.367766,5.925394,-0.082925,0.413709,-0.440128
1765409983.992370,-8.424197,1.478957,4.955762,-0.082925,0.428675,-0.440128
1765409983.992620,-8.659134,0.453132,5.566713,-0.091630,0.422261,-0.408211
1765409983.992855,-8.865375,0.143472,5.718555,-0.065821,0.422261,-0.426537
1765409983.993105,-8.865375,0.143472,5.718555,-0.065821,0.414014,-0.426537
1765409983.993355,-7.913079,-0.104017,4.634146,-0.060476,0.431576,-0.459982
1765409983.993605,-7.913079,-0.104017,4.634146,-0.060476,0.449597,-0.459982
1765409983.993894,-8.646580,0.881755,5.059780,-0.047647,0.470519,-0.454026
1765409983.994144,-8.688426,0.676710,5.104016,-0.045509,0.470519,-0.452651
1765409983.994394,-8.720706,0.491392,4.746532,-0.028558,0.486707,-0.454331
1765409983.994644,-7.519128,0.636059,4.148732,-0.026267,0.489303,-0.463189
1765409983.994949,-7.465326,1.366571,3.803802,-0.026267,0.492968,-0.463189
1765409983.995199,-7.963294,2.439024,4.832615,-0.020159,0.522137,-0.473115
1765409983.995449,-8.332136,1.770684,4.796747,-0.027947,0.522137,-0.434631
1765409983.995699,-8.583213,1.514227,4.552845,-0.019700,0.524428,-0.418748
1765409983.995914,-9.031563,0.816595,4.861310,-0.027336,0.531758,-0.439976
1765409983.996164,-9.230630,1.159134,5.606168,-0.029169,0.524122,-0.443488
1765409983.996414,-8.493543,1.539335,4.564203,-0.029169,0.536492,-0.453415
1765409983.996664,-7.697273,2.324246,2.919058,-0.017257,0.525191,-0.447917
1765409983.997017,-7.167622,0.967240,2.938785,-0.039859,0.526260,-0.413098
1765409983.997267,-9.120037,0.955882,5.057388,-0.013134,0.609338,-0.418290
1765409983.997517,-9.354973,0.316834,5.274390,-0.017715,0.609338,-0.429286
1765409983.997767,-9.104494,0.400526,5.372429,-0.019853,0.585820,-0.427300
1765409983.997906,-8.672883,0.526064,3.988522,-0.013897,0.593456,-0.459065
1765409983.998156,-8.752988,1.514227,4.581539,-0.013897,0.603535,-0.459065
1765409983.998406,-8.822930,1.346246,5.603777,-0.005192,0.616668,-0.419359
1765409983.998656,-9.934838,1.317551,5.978599,-0.007025,0.600633,-0.438296
1765409983.999012,-9.934838,1.317551,5.978599,-0.007025,0.607811,-0.438296
1765409983.999262,-8.626254,1.373744,3.894667,-0.008858,0.561385,-0.440434
1765409983.999512,-8.810376,2.437828,5.637852,-0.011301,0.566119,-0.464258
1765409983.999762,-8.304040,2.721186,3.744021,-0.025962,0.585667,-0.440281
1765409983.999944,-6.538737,1.465806,1.709708,-0.027642,0.584293,-0.405462
1765409984.000194,-7.033715,0.820182,2.752869,-0.001985,0.562149,-0.432645
1765409984.000444,-8.827115,1.409015,4.244380,0.000305,0.595288,-0.454178
1765409984.000694,-8.501911,1.589550,3.766140,-0.003360,0.644616,-0.463189
1765409984.000953,-7.453371,2.488044,2.459349,0.005803,0.662942,-0.452193
1765409984.001203,-7.348158,1.404830,2.795313,-0.001222,0.661873,-0.419817
1765409984.001453,-7.922644,0.978599,4.134983,0.010232,0.696081,-0.421344
1765409984.001703,-8.524628,0.871592,4.588713,0.013897,0.720057,-0.441045
1765409984.001885,-9.181013,0.995337,6.001912,0.002291,0.698830,-0.437838
1765409984.002135,-9.091941,0.816595,4.617407,0.014050,0.694706,-0.444099
1765409984.002385,-7.703849,1.374940,2.546628,0.027642,0.685849,-0.442419
1765409984.002635,-7.467120,0.743663,3.065519,0.014050,0.678519,-0.438296
1765409984.002940,-8.488760,0.979196,5.671926,0.014966,0.701884,-0.465327
1765409984.003190,-8.689621,1.691774,3.834887,0.012217,0.743118,-0.475559
1765409984.003440,-7.545432,1.267336,3.373385,-0.015730,0.714712,-0.462120
1765409984.003690,-8.568866,2.008608,3.269966,-0.002138,0.718836,-0.489303
1765409984.003910,-8.130080,3.026064,3.573648,0.000305,0.740369,-0.461509
1765409984.004160,-7.868244,2.173601,4.421329,-0.021838,0.746477,-0.423482
1765409984.004410,-8.316594,2.180774,4.224055,0.000153,0.743728,-0.424704
1765409984.004660,-8.717119,1.357604,4.268292,-0.020769,0.735482,-0.414472
1765409984.004929,-8.686034,1.380918,3.465447,-0.013744,0.721737,-0.429286
1765409984.005179,-8.671089,1.994261,4.311334,-0.009621,0.719447,-0.441961
1765409984.005429,-8.636416,1.903993,3.464251,-0.022602,0.768927,-0.417679
1765409984.005679,-8.663916,1.270923,3.054758,-0.008247,0.768927,-0.405156
1765409984.005926,-9.082973,0.483022,3.758966,0.007483,0.776562,-0.408669
1765409984.006176,-9.592896,-0.142874,4.162481,-0.001680,0.779311,-0.421802
1765409984.006426,-9.391438,0.768771,3.193448,0.021686,0.818865,-0.457080
1765409984.006676,-8.889286,1.571018,5.038259,0.022602,0.837038,-0.448833
1765409984.006852,-9.672404,2.109039,5.328790,0.020922,0.843147,-0.408363
1765409984.007102,-9.728598,1.527977,4.961740,0.015119,0.828486,-0.395993
1765409984.007352,-9.026182,0.248685,2.829985,-0.001069,0.812298,-0.408669
1765409984.007602,-7.641080,-0.196078,1.698948,-0.003360,0.799928,-0.432034
1765409984.007874,-8.260401,1.658895,4.093735,0.025656,0.856739,-0.480140
1765409984.008124,-8.349473,2.929220,4.089550,0.006567,0.856739,-0.456469
1765409984.008374,-8.265781,2.054041,3.350071,-0.032529,0.825890,-0.404698
1765409984.008624,-8.362624,0.864419,2.809062,-0.022449,0.830166,-0.403629
1765409984.008830,-9.876852,0.993544,4.341224,-0.007941,0.846354,-0.418901
1765409984.009080,-8.678861,1.306791,5.102821,-0.020159,0.866054,-0.432187
1765409984.009330,-8.450501,2.086920,3.623266,-0.024282,0.834136,-0.432187
1765409984.009580,-7.259086,1.654711,1.720468,-0.034361,0.833984,-0.405156
1765409984.009993,-8.830702,1.260162,3.213773,-0.007789,0.801455,-0.362701
1765409984.010243,-9.301170,0.211621,3.760162,-0.015272,0.838413,-0.382096
1765409984.010493,-8.479794,0.129723,3.060138,-0.023213,0.866665,-0.418443
1765409984.010743,-8.596364,0.083692,1.860354,-0.028405,0.876897,-0.420428
1765409984.010911,-9.053083,0.449546,2.540650,-0.028405,0.845285,-0.420428
1765409984.011161,-9.120037,1.291248,4.344810,0.002596,0.963945,-0.436921
1765409984.011411,-7.387612,1.141798,3.280726,-0.002749,0.963945,-0.413709
1765409984.011661,-7.387612,1.141798,3.280726,-0.002749,0.892474,-0.413709
1765409984.011969,-8.532997,0.370636,2.501195,-0.004581,0.837802,-0.418595
1765409984.012219,-8.830702,0.801650,2.896939,0.021686,0.867276,-0.434478
1765409984.012469,-8.674676,1.915949,2.795313,0.031001,0.915992,-0.441197
1765409984.012719,-8.364418,2.882592,3.370396,0.016493,0.915992,-0.400422
1765409984.013416,-9.050693,1.572214,3.580822,-0.015730,0.895834,-0.384845
1765409984.013666,-9.544475,0.880559,2.489239,0.012065,0.902401,-0.378736
1765409984.013916,-8.963414,0.374821,4.351985,0.001527,0.934166,-0.385609
1765409984.014166,-9.197751,1.236848,5.051410,0.016493,0.916451,-0.414777
1765409984.013965,-9.854136,2.328431,4.071018,0.003512,0.916451,-0.407447
1765409984.014215,-9.289214,1.397656,3.075083,-0.003360,0.880104,-0.352317
1765409984.014465,-8.713532,0.797465,2.332616,0.027336,0.912633,-0.340710
1765409984.014715,-8.610711,-0.113582,2.398971,0.008552,0.912633,-0.355676
1765409984.014874,-8.610711,-0.113582,2.398971,0.008552,0.916145,-0.355676
1765409984.015124,-9.185198,0.749641,2.483859,0.018479,0.926683,-0.400117
1765409984.015374,-9.494260,1.291248,3.089431,0.015424,0.947910,-0.384234
1765409984.015624,-9.830223,0.881157,4.121233,0.018631,0.981660,-0.370795
1765409984.015923,-9.345408,1.009086,4.118842,0.016493,0.981660,-0.367894
1765409984.016173,-9.345408,1.009086,4.118842,0.016493,0.935082,-0.367894
1765409984.016423,-8.317192,0.389766,1.051530,-0.002902,0.922865,-0.391412
1765409984.016673,-8.749401,1.795193,3.014108,0.024893,0.974330,-0.399964
1765409984.017047,-8.413438,1.731229,3.755379,0.017257,0.999376,-0.380416
1765409984.017297,-9.259922,1.716882,3.213773,-0.002443,0.974941,-0.355982
1765409984.017547,-9.259922,1.716882,3.213773,-0.002443,0.954324,-0.355982
1765409984.017797,-11.000716,1.044954,5.257053,0.024587,0.994030,-0.368963
1765409984.018061,-9.815279,0.964251,4.183404,0.017257,0.994030,-0.360105
1765409984.018311,-10.084887,2.031922,4.516977,0.003971,0.926835,-0.381791
1765409984.018561,-8.845049,1.104735,2.907700,-0.010537,0.926835,-0.352317
1765409984.018811,-10.053802,0.802248,2.876614,0.013744,0.904691,-0.312458
1765409984.018937,-9.194164,-0.145863,2.403156,0.014050,0.947452,-0.339030
1765409984.019187,-9.194164,-0.025108,2.698469,0.000305,0.944092,-0.357662
1765409984.019437,-9.752509,0.292922,1.527977,0.011606,0.980133,-0.369421
1765409984.019687,-9.557627,0.832735,2.312290,0.023671,0.980133,-0.373391
1765409984.019829,-8.947871,1.197991,4.335844,0.026725,1.012815,-0.338572
1765409984.020079,-10.344929,0.822573,4.616809,0.014355,0.973719,-0.328035
1765409984.020329,-9.551050,-0.033477,2.607006,-0.011301,0.944245,-0.359342
1765409984.020579,-9.551050,-0.033477,2.607006,-0.011301,0.942718,-0.359342
1765409984.020873,-9.668220,1.538737,3.431372,0.014966,1.005484,-0.389885
1765409984.021123,-10.230749,2.417503,3.984935,-0.000764,0.999834,-0.358883
1765409984.021373,-9.606647,1.752750,3.286704,-0.029627,0.972956,-0.339794
1765409984.021623,-9.258727,1.024629,1.474175,-0.015424,0.962724,-0.325286
1765409984.021849,-9.258727,1.024629,1.474175,-0.015424,0.979522,-0.325286
1765409984.022099,-10.316236,0.970827,4.838593,-0.009163,0.983798,-0.328187
1765409984.022349,-10.139884,1.710904,4.087757,-0.033292,0.975246,-0.338267
1765409984.022599,-9.820659,1.209349,1.713295,-0.035583,0.924392,-0.309861
1765409984.022888,-9.285029,0.377212,2.646461,-0.000153,0.914618,-0.286801
1765409984.023138,-9.623982,0.337757,2.029531,0.014050,0.959822,-0.295506
1765409984.023388,-9.766856,-0.430416,2.843137,0.005498,0.964709,-0.305433
1765409984.023638,-9.270683,-0.264228,2.021760,0.017868,0.957531,-0.321162
1765409984.023850,-9.378884,1.013869,1.723458,0.046578,1.012662,-0.324369
1765409984.024100,-10.086082,1.161525,4.024988,0.048869,1.012662,-0.295048
1765409984.024350,-9.146339,0.738881,3.308225,0.045357,1.010371,-0.275500
1765409984.024600,-8.666904,-0.271401,1.684600,0.008552,0.954935,-0.289397
1765409984.024902,-8.900046,-0.405308,1.189024,0.018479,0.919352,-0.321010
1765409984.025152,-10.121950,0.682688,3.299856,0.018479,0.987158,-0.321010
1765409984.025402,-8.635221,2.071377,2.582496,0.035125,1.019076,-0.331089
1765409984.025652,-8.585006,1.831659,1.478957,0.000611,0.979981,-0.296728
1765409984.025840,-9.672404,0.832138,2.173601,0.008399,0.932791,-0.286190
1765409984.026090,-9.672404,0.832138,2.173601,0.008399,0.961349,-0.286190
1765409984.026340,-9.945600,0.593018,2.875418,0.013897,0.987158,-0.286649
1765409984.026590,-10.254662,1.245217,4.301769,0.000764,0.935387,-0.301615
1765409984.026857,-10.563127,1.379722,2.657819,0.001985,0.907593,-0.291688
1765409984.027107,-10.382590,1.075442,2.669177,0.007941,0.888503,-0.250149
1765409984.027357,-9.770443,0.438187,1.700741,0.012523,0.930653,-0.262519
1765409984.027607,-9.747129,-0.365854,2.315877,0.006109,0.930806,-0.269850
1765409984.027851,-10.290529,-0.377810,1.121473,0.011454,0.936762,-0.269544
1765409984.028101,-10.737684,-0.078312,2.791726,0.024740,0.954019,-0.295353
1765409984.028351,-11.104136,1.067671,4.567192,0.038026,1.001361,-0.291535
1765409984.028601,-10.315637,0.855452,3.554519,0.032987,0.997238,-0.250913
1765409984.028853,-10.260639,0.282162,2.989000,0.018479,0.927904,-0.268628
1765409984.029103,-9.955761,0.044835,1.734816,0.025809,0.902248,-0.277944
1765409984.029353,-9.678980,0.387374,1.835246,0.043066,0.919352,-0.273362
1765409984.029603,-8.558105,1.516021,1.293041,0.034972,0.912633,-0.292910
1765409984.029845,-9.288019,2.030129,2.805475,0.020617,0.912633,-0.265115
1765409984.030095,-9.739956,0.908656,2.412721,0.012675,0.908357,-0.233045
1765409984.030345,-8.066713,0.570301,-0.416069,0.025351,0.915992,-0.235489
1765409984.030595,-8.254423,0.449546,1.617647,0.023366,0.928057,-0.243583
1765409984.030830,-9.807508,0.590626,4.128407,0.015577,0.897972,-0.253814
1765409984.031080,-10.868004,2.064801,3.502511,0.011912,0.883617,-0.249080
1765409984.031330,-8.840267,0.908656,0.730512,-0.000611,0.880257,-0.215635
1765409984.031580,-9.363939,0.443568,0.958273,0.014050,0.855822,-0.196699
1765409984.031867,-9.801530,-0.039455,2.013391,0.007330,0.852615,-0.212428
1765409984.032117,-10.722738,-0.037064,3.067910,0.002596,0.862542,-0.240070
1765409984.032367,-10.665949,0.719751,1.708512,0.009010,0.890794,-0.230296
1765409984.032617,-9.878048,0.222382,0.903874,0.015730,0.885907,-0.207389
1765409984.032829,-10.322811,0.162004,1.843615,0.015882,0.907898,-0.216246
1765409984.033079,-11.685795,0.822573,4.613223,0.021380,0.907898,-0.231671
1765409984.033329,-11.685795,0.822573,4.613223,0.021380,0.913702,-0.231671
1765409984.033579,-9.744141,0.900287,1.374342,0.002291,0.873385,-0.218842
1765409984.033836,-9.777617,0.818986,0.991152,-0.005040,0.855822,-0.224340
1765409984.034086,-9.730989,0.735294,0.956480,-0.001374,0.866818,-0.209069
1765409984.034336,-10.549377,0.989957,3.170133,0.002749,0.866818,-0.225867
1765409984.034586,-9.655068,1.013869,2.155069,0.007941,0.890489,-0.220217
1765409984.034872,-9.175035,0.818986,0.838116,0.007178,0.847881,-0.191201
1765409984.035122,-9.174437,0.301889,1.409015,0.019548,0.811840,-0.211359
1765409984.035372,-10.294117,1.009086,2.591463,0.016493,0.870941,-0.227853
1765409984.035622,-10.933764,1.354615,3.785270,0.019090,0.870941,-0.189826
1765409984.035838,-10.562529,0.386179,2.346963,0.007330,0.837649,-0.178525
1765409984.036038,-10.352701,0.204448,2.018173,0.007178,0.794278,-0.182801
1765409984.036238,-10.741271,-0.034075,2.867647,0.018326,0.794278,-0.192270
1765409984.036438,-10.120754,0.477044,2.413917,0.042608,0.796721,-0.180205
1765409984.036638,-9.217479,0.080105,0.820182,0.012675,0.786184,-0.184787
1765409984.036851,-10.429219,0.048422,0.992348,0.028863,0.755946,-0.189063
1765409984.037101,-10.246293,-0.188905,2.282998,0.040775,0.780838,-0.185550
1765409984.037351,-9.412958,0.055595,1.006097,0.027642,0.801761,-0.205403
1765409984.037601,-9.027975,0.625299,-0.487207,-0.002291,0.823294,-0.225867
1765409984.037863,-10.295312,1.388092,1.909373,0.008858,0.788474,-0.224340
1765409984.038113,-10.676111,1.795791,3.335724,0.015882,0.807106,-0.192881
1765409984.038363,-9.044714,1.148374,2.192730,-0.002443,0.823141,-0.166308
1765409984.038613,-8.964011,1.016260,0.803443,-0.007025,0.776257,-0.161727
1765409984.038823,-8.964011,1.016260,0.803443,-0.007025,0.742507,-0.161727
1765409984.039073,-10.310855,0.630081,1.918938,0.006720,0.741743,-0.159436
1765409984.039323,-9.112864,0.637853,-0.185318,-0.001222,0.758847,-0.170584
1765409984.039573,-9.592299,1.046748,1.157341,-0.000611,0.743728,-0.169362
1765409984.039833,-9.533715,0.643831,1.973936,0.014508,0.765872,-0.146302
1765409984.040083,-9.448828,0.325203,1.559660,0.016035,0.759458,-0.122020
1765409984.040333,-9.660448,-0.649809,1.279890,0.000611,0.742965,-0.145539
1765409984.040583,-10.881156,0.308465,2.011597,0.027947,0.737162,-0.168904
1765409984.040834,-11.689383,0.952893,3.439741,0.024282,0.753808,-0.149051
1765409984.041084,-11.195599,0.780727,3.329746,0.021228,0.753808,-0.128587
1765409984.041334,-11.096364,0.516499,2.608202,0.015272,0.722654,-0.128434
1765409984.041584,-10.845288,-0.084888,2.359517,0.002138,0.689820,-0.142942
1765409984.041886,-11.102342,0.316834,2.981827,0.011912,0.683100,-0.155160
1765409984.042136,-10.653395,0.887135,2.730153,0.008705,0.689972,-0.168599
1765409984.042386,-9.010042,1.162721,0.933166,-0.020617,0.684627,-0.167835
1765409984.042636,-9.384265,1.579388,0.038857,-0.010843,0.643547,-0.153022
1765409984.042880,-9.093137,0.997130,0.688666,-0.023060,0.657749,-0.147677
1765409984.043130,-9.011238,1.353419,0.131516,-0.027031,0.677144,-0.144622
1765409984.043380,-9.175632,1.009086,0.425634,-0.034972,0.682642,-0.143401
1765409984.043630,-9.329865,0.859636,1.409612,-0.047037,0.661262,-0.144317
1765409984.043824,-9.447632,1.208752,0.873984,-0.044440,0.667828,-0.141263
1765409984.044074,-8.933523,0.872788,0.584051,-0.040775,0.682947,-0.129045
1765409984.044324,-9.506814,0.897896,1.761119,-0.050549,0.684627,-0.129351
1765409984.044574,-9.890601,0.483022,1.881874,-0.052840,0.655764,-0.129809
1765409984.044876,-9.101506,0.160210,1.304997,-0.055589,0.659582,-0.144011
1765409984.045126,-8.789454,0.682090,-0.424438,-0.053298,0.649808,-0.148898
1765409984.045376,-9.536106,0.789694,1.219512,-0.049480,0.630718,-0.140804
1765409984.045626,-9.772835,0.107604,1.764706,-0.036194,0.628886,-0.131031
1765409984.045825,-9.454804,0.637853,0.552367,-0.022907,0.621708,-0.155312
1765409984.046075,-9.311333,0.139287,0.305476,-0.032681,0.580322,-0.182191
1765409984.046325,-9.650884,1.456241,0.382592,-0.025351,0.580322,-0.195171
1765409984.046575,-11.084408,2.266858,2.477881,-0.030085,0.621403,-0.193186
1765409984.046866,-10.639645,2.336202,2.187948,-0.037110,0.661567,-0.162490
1765409984.047116,-10.417263,1.732424,1.764706,-0.044440,0.639881,-0.135154
1765409984.047366,-9.705881,0.802248,0.847680,-0.069639,0.606895,-0.158520
1765409984.047616,-10.650405,0.982185,0.530249,-0.071013,0.594066,-0.174707
1765409984.047834,-11.795790,1.899808,3.656743,-0.064752,0.609644,-0.189216
1765409984.048084,-10.811213,1.967958,2.118603,-0.073151,0.646295,-0.181122
1765409984.048334,-10.811213,1.967958,2.118603,-0.073151,0.618807,-0.181122
1765409984.048584,-9.325681,1.127451,0.278575,-0.093615,0.568716,-0.146302
1765409984.048842,-10.648612,1.343855,1.983500,-0.096059,0.533744,-0.143706
1765409984.049092,-11.551888,1.126255,2.578909,-0.091172,0.550542,-0.156229
1765409984.049342,-10.051410,1.227881,1.556671,-0.098655,0.543212,-0.162185
1765409984.049592,-9.355571,1.152558,-0.332377,-0.120951,0.528246,-0.161574
1765409984.049866,-10.187708,1.184840,1.322334,-0.102473,0.490525,-0.156382
1765409984.050116,-11.163318,1.139407,2.684720,-0.115759,0.504880,-0.155771
1765409984.050366,-10.791486,1.365375,1.490315,-0.110108,0.498313,-0.160505
1765409984.050616,-9.187589,0.616930,-0.089670,-0.128282,0.495259,-0.162796
1765409984.050858,-9.094930,0.865614,-0.324605,-0.120646,0.472657,-0.171348
1765409984.051108,-10.685675,1.406623,1.387494,-0.122173,0.499535,-0.175624
1765409984.051358,-10.934958,1.099354,1.706121,-0.125380,0.499535,-0.175013
1765409984.051608,-9.509205,1.442492,0.023314,-0.131183,0.514349,-0.178678
1765409984.051839,-9.532519,1.592539,0.178144,-0.118813,0.474031,-0.176540
1765409984.052172,-9.846962,1.223099,0.850072,-0.133932,0.464410,-0.167988
1765409984.052506,-9.708273,1.476566,0.587040,-0.142942,0.485485,-0.189674
1765409984.052844,-9.870276,1.758728,0.523673,-0.146302,0.492052,-0.179747
1765409984.053094,-9.483500,1.572214,0.156624,-0.146302,0.474795,-0.179747
1765409984.053344,-10.390960,2.062410,1.388092,-0.154549,0.480446,-0.174707
1765409984.053594,-10.190099,1.203969,0.856050,-0.175776,0.480446,-0.166919
1765409984.053887,-10.190099,1.203969,0.856050,-0.175776,0.486860,-0.166919
1765409984.054137,-10.300693,1.881874,1.047346,-0.186467,0.457080,-0.158367
1765409984.054387,-10.300693,1.881874,1.047346,-0.186467,0.458760,-0.158367
1765409984.054637,-9.747727,1.980512,0.542802,-0.196699,0.436310,-0.148593
1765409984.054887,-9.267097,1.101745,0.442970,-0.219453,0.436310,-0.128587
1765409984.055137,-9.935436,0.798661,0.735294,-0.213803,0.414930,-0.149815
1765409984.055387,-10.571496,1.056910,1.260760,-0.220522,0.399811,-0.162948
1765409984.055637,-10.384982,0.895504,1.224892,-0.232434,0.409891,-0.171042
1765409984.055883,-9.065040,1.833453,-0.082496,-0.211970,0.411876,-0.168141
1765409984.056133,-9.548659,1.631994,0.713773,-0.227395,0.386525,-0.142790
1765409984.056383,-10.494978,1.333692,1.731229,-0.233809,0.370032,-0.148593
1765409984.056633,-10.321018,1.602702,0.760402,-0.221133,0.389121,-0.146760
1765409984.056856,-9.549257,1.127451,0.269608,-0.234420,0.389121,-0.127824
1765409984.057106,-9.472141,1.059302,0.520086,-0.231060,0.375224,-0.135459
1765409984.057356,-10.103418,1.023434,0.856050,-0.218842,0.357203,-0.134543
1765409984.057606,-10.225369,0.970827,1.206360,-0.223577,0.380569,-0.145233
1765409984.057845,-9.570181,1.757532,-0.182927,-0.202655,0.386678,-0.141721
1765409984.058178,-10.057985,1.659493,1.066475,-0.208000,0.363007,-0.115301
1765409984.058512,-9.883428,1.187231,0.492587,-0.208000,0.367283,-0.115301
1765409984.058908,-10.368243,1.563845,0.793878,-0.209069,0.369573,-0.117592
1765409984.059158,-10.021520,1.013869,0.406504,-0.216857,0.376140,-0.110261
1765409984.059408,-10.649807,1.499880,1.702534,-0.209527,0.374308,-0.122937
1765409984.059658,-10.845288,1.372549,1.973936,-0.220675,0.374308,-0.125075
1765409984.059942,-10.845288,1.372549,1.973936,-0.220675,0.356440,-0.125075
1765409984.060192,-9.830223,1.645146,-0.102822,-0.211665,0.318872,-0.109956
1765409984.060442,-10.601385,1.839431,1.527977,-0.219301,0.318872,-0.108429
1765409984.060692,-11.059300,1.825681,2.020564,-0.215177,0.328035,-0.096059
1765409984.060827,-9.499043,1.486729,-0.008369,-0.212734,0.334296,-0.077580
1765409984.061077,-9.161882,1.068269,-0.628886,-0.228464,0.317039,-0.088728
1765409984.061327,-9.986848,1.273314,0.581062,-0.220522,0.296575,-0.094073
1765409984.061577,-11.152556,1.461023,1.860354,-0.225562,0.299171,-0.096822
1765409984.061956,-10.436392,1.616451,0.541607,-0.221591,0.315665,-0.095906
1765409984.062206,-9.945002,1.510043,0.182329,-0.232282,0.304669,-0.091172
1765409984.062456,-10.174556,1.181253,0.395744,-0.229838,0.274889,-0.085521
1765409984.062706,-11.260759,1.377331,1.697752,-0.223882,0.265726,-0.099876
1765409984.062879,-11.150166,1.709708,1.180655,-0.218995,0.294437,-0.095448
1765409984.063129,-11.079028,1.561454,1.042563,-0.218690,0.242514,-0.069791
1765409984.063379,-11.114299,1.068269,0.909852,-0.223882,0.242514,-0.080023
1765409984.063629,-11.249401,1.245815,0.928981,-0.211970,0.241750,-0.090713
1765409984.063871,-11.145981,1.645146,1.012673,-0.202196,0.257480,-0.082009
1765409984.064121,-10.912242,1.592539,0.930775,-0.203724,0.258396,-0.067348
1765409984.064371,-10.859634,1.244022,0.493185,-0.203724,0.227242,-0.067348
1765409984.064621,-11.354614,0.860832,0.904471,-0.206931,0.211970,-0.067501
1765409984.064906,-11.252988,0.895504,0.650406,-0.191659,0.208000,-0.067959
1765409984.065156,-10.900286,0.722142,0.665351,-0.199600,0.203571,-0.076053
1765409984.065406,-11.059300,1.343855,0.589431,-0.188757,0.203571,-0.082620
1765409984.065656,-11.464608,1.322931,0.913438,-0.187841,0.180969,-0.061697
1765409984.065990,-11.640361,1.066475,1.109517,-0.185092,0.161727,-0.050244
1765409984.066240,-11.709707,1.024629,0.852463,-0.184787,0.163254,-0.063225
1765409984.066490,-11.613461,1.020445,0.996533,-0.181122,0.146760,-0.053756
1765409984.066740,-11.389285,0.622908,0.718556,-0.180511,0.146760,-0.045968
1765409984.066849,-11.594331,0.773553,0.942133,-0.173791,0.126755,-0.060018
1765409984.067099,-11.403633,1.046748,0.936155,-0.176693,0.126296,-0.059865
1765409984.067349,-11.284074,1.416786,0.489000,-0.176082,0.116217,-0.043982
1765409984.067599,-11.197990,1.202774,0.496772,-0.180816,0.096517,-0.031001
1765409984.067939,-11.205163,0.849474,0.581062,-0.176693,0.090255,-0.027336
1765409984.068189,-11.125057,0.618125,0.418460,-0.172111,0.086132,-0.019090
1765409984.068439,-11.113103,0.331181,0.505739,-0.167530,0.067042,-0.027794
1765409984.068689,-11.219510,0.535031,0.384983,-0.164170,0.059407,-0.035736
1765409984.068923,-11.302007,0.772358,0.531444,-0.157603,0.062156,-0.034056
1765409984.069173,-11.203967,0.778336,0.625299,-0.158061,0.057269,-0.026114
1765409984.069423,-11.418578,0.712578,1.003706,-0.157909,0.036957,-0.016341
1765409984.069673,-11.486129,0.349713,1.018651,-0.153480,0.025351,-0.016799
1765409984.069918,-11.137014,0.144668,0.291726,-0.145386,0.016188,-0.016646
1765409984.070168,-11.038975,0.008369,0.059780,-0.139583,0.002138,-0.018937
1765409984.070418,-11.168100,0.136298,0.470469,-0.135765,0.004123,-0.025504
1765409984.070668,-11.278096,0.327594,0.807030,-0.132558,0.004123,-0.025656
1765409984.070907,-11.189621,0.230153,0.779531,-0.124464,-0.004429,-0.012675
1765409984.071157,-11.049137,-0.093257,0.598996,-0.113926,-0.018173,-0.004123
1765409984.071407,-11.013868,-0.455524,0.765184,-0.111788,-0.030391,-0.004123
1765409984.071657,-10.698229,-0.674916,0.437590,-0.103389,-0.031612,-0.010996
1765409984.071943,-10.698229,-0.674916,0.437590,-0.103389,-0.042150,-0.010996
1765409984.072143,-10.421447,-0.512912,0.559541,-0.080634,-0.045815,-0.014050
1765409984.072343,-10.263031,-0.478240,0.582855,-0.071471,-0.045815,-0.012065
1765409984.072543,-10.263031,-0.478240,0.582855,-0.071471,-0.045662,-0.012065
1765409984.072743,-9.873264,-0.520086,0.619321,-0.055436,-0.046578,-0.010079
1765409984.072920,-9.978478,-0.706600,0.945720,-0.046884,-0.048564,-0.007025
1765409984.073170,-9.865494,-0.773553,0.967838,-0.038790,-0.035888,-0.013592
1765409984.073420,-9.788976,-0.634864,1.031205,-0.038026,-0.035888,-0.020769
1765409984.073670,-9.814680,-0.491392,1.142994,-0.030391,-0.035125,-0.016646
1765409984.073897,-9.634743,-0.350311,1.134027,-0.024893,-0.040775,-0.012217
1765409984.074147,-9.720228,-0.326399,1.351028,-0.021380,-0.043524,-0.010690
1765409984.074397,-9.542084,-0.409493,1.050932,-0.016799,-0.036652,-0.005192
1765409984.074647,-9.380080,-0.375418,0.859636,-0.006414,-0.038790,-0.001985
1765409984.074893,-9.348397,-0.307269,0.803443,-0.007636,-0.031307,-0.006414
1765409984.075143,-9.527139,-0.240316,0.971425,-0.006872,-0.024740,-0.002902
1765409984.075393,-9.577354,-0.221186,0.945720,-0.005345,-0.024740,-0.005192
1765409984.075643,-9.577354,-0.221186,0.945720,-0.005345,-0.026573,-0.005192
1765409984.075956,-9.450023,0.122549,0.717958,-0.008552,-0.015272,-0.003360
1765409984.076156,-9.312529,-0.143472,0.399330,-0.012981,-0.011301,0.005651
1765409984.076356,-9.562408,-0.352104,0.652798,-0.013286,-0.016646,0.003665
1765409984.076556,-9.600070,-0.345528,0.459708,-0.005956,-0.010385,-0.001527
1765409984.076756,-9.600070,-0.345528,0.459708,-0.005956,-0.002443,-0.001527
1765409984.077070,-9.456598,-0.127331,0.264228,-0.009468,-0.000611,0.002138
1765409984.077270,-9.581538,-0.394548,0.310856,-0.006872,-0.005040,0.011606
1765409984.077470,-9.546865,-0.438785,0.098039,-0.001680,0.004887,0.006414
1765409984.077670,-9.378884,-0.264228,-0.046628,-0.001985,0.004887,-0.001222
1765409984.077870,-9.378884,-0.264228,-0.046628,-0.001985,0.006261,-0.001222
1765409984.077975,-9.601864,-0.019130,0.011358,-0.000916,0.011301,0.011454
1765409984.078175,-9.693925,-0.269010,0.249880,0.000611,0.011301,0.011454
1765409984.078375,-9.812290,-0.275586,0.326399,0.005192,0.019090,0.003207
1765409984.078575,-9.928263,-0.026303,0.334768,0.005040,0.019090,0.000916
1765409984.078775,-9.964728,0.050215,0.168580,0.004734,0.015272,0.006414
1765409984.078926,-10.023313,-0.007174,0.312052,0.002443,0.013897,0.006567
1765409984.079126,-10.151840,0.037064,0.563128,0.003512,0.018021,0.002596
1765409984.079326,-10.151840,0.167384,0.416069,0.002749,0.016035,0.003665
1765409984.079526,-10.038258,0.135103,0.255858,0.000458,0.011148,0.008094
1765409984.079726,-9.979075,0.031683,0.281564,0.002291,0.009468,0.008858
1765409984.079926,-10.047822,-0.029890,0.389168,0.002443,0.011454,0.006109
1765409984.080126,-9.982663,0.062769,0.269010,-0.000916,0.012675,0.000916
1765409984.080326,-9.982663,0.062769,0.269010,-0.000916,0.008094,0.000916
1765409984.080526,-10.118960,0.206839,0.346724,-0.003054,0.005956,0.005956
1765409984.080726,-10.087276,0.060976,0.245098,-0.000153,0.010690,0.007330
1765409984.080906,-10.043041,-0.001793,0.247489,-0.004276,0.008094,0.001222
1765409984.081106,-10.144667,0.041846,0.381396,-0.003054,0.006567,-0.002443
1765409984.081306,-10.227163,0.200861,0.412482,-0.004276,0.002749,-0.003512
1765409984.081506,-10.181131,0.263032,0.290531,-0.006109,0.004123,-0.000153
1765409984.081706,-10.120157,0.139885,0.297107,-0.007178,0.006261,0.002443
1765409984.081828,-10.089668,0.101626,0.245098,-0.007941,0.001222,0.002902
1765409984.082028,-10.059779,0.197274,0.180536,-0.006109,0.001222,0.000764
1765409984.082228,-10.051410,0.157819,0.184720,-0.008247,-0.000916,-0.001833
1765409984.082428,-10.151840,0.122549,0.394548,-0.012981,-0.003360,-0.000458
1765409984.082628,-10.235533,0.109995,0.431612,-0.011759,-0.006261,-0.002902
1765409984.082906,-10.133906,0.064562,0.270206,-0.011606,-0.003971,-0.002443
1765409984.083106,-10.054996,-0.023912,0.180536,-0.013897,-0.003971,-0.001222
1765409984.083306,-10.121950,0.028097,0.274390,-0.012370,-0.008858,-0.004887
1765409984.083506,-10.172164,0.053802,0.279770,-0.009010,-0.007330,-0.004123
1765409984.083706,-10.040649,0.018532,0.242707,-0.009163,-0.003512,-0.003207
1765409984.083898,-10.027497,-0.036466,0.255261,-0.014508,-0.011912,-0.005040
1765409984.084098,-10.111190,-0.014945,0.376016,-0.012675,-0.013439,-0.005651
1765409984.084298,-10.062768,0.017934,0.292922,-0.011759,-0.014813,-0.005803
1765409984.084498,-9.930654,-0.031086,0.198470,-0.008858,-0.010843,-0.003054
1765409984.084698,-9.904350,-0.057389,0.231349,-0.010385,-0.014661,-0.006567
1765409984.084824,-9.906742,-0.009565,0.274390,-0.011912,-0.016646,-0.004123
1765409984.085024,-9.915112,-0.025705,0.336561,-0.013134,-0.014508,-0.002596
1765409984.085224,-9.888808,-0.062171,0.346724,-0.011759,-0.014355,-0.004887
1765409984.085424,-9.897775,-0.074127,0.294118,-0.008705,-0.012370,-0.003054
1765409984.085624,-9.867287,-0.083692,0.236131,-0.010385,-0.012523,-0.005803
1765409984.085806,-9.852941,-0.081899,0.300096,-0.010690,-0.013592,-0.004734
1765409984.086006,-9.912122,-0.043042,0.414873,-0.010843,-0.014508,-0.004734
1765409984.086206,-9.943806,-0.035868,0.319225,-0.015272,-0.012675,-0.003512
1765409984.086406,-9.893590,-0.032281,0.244500,-0.011759,-0.011454,-0.003512
1765409984.086606,-9.906742,-0.123745,0.319225,-0.009927,-0.011454,-0.000305
1765409984.086861,-9.977283,-0.119560,0.456121,-0.013744,-0.012370,-0.003971
1765409984.087061,-9.980869,-0.062171,0.298302,-0.014355,-0.010690,-0.003512
1765409984.087261,-9.913916,-0.081301,0.259445,-0.009468,-0.012370,-0.000764
1765409984.087461,-9.897178,-0.114778,0.412482,-0.011912,-0.013439,-0.005040
1765409984.087661,-10.016139,-0.124342,0.548780,-0.010843,-0.012828,0.000764
1765409984.087890,-9.937230,-0.142874,0.377810,-0.008705,-0.009010,0.000916
1765409984.088140,-9.797942,-0.162602,0.305476,-0.010690,-0.008094,-0.000764
1765409984.088390,-9.826636,-0.187709,0.399330,-0.011148,-0.010385,-0.001833
1765409984.088640,-9.952174,-0.157221,0.472262,-0.007941,-0.013439,-0.002596
1765409984.088912,-9.870276,-0.090268,0.365854,-0.008094,-0.010537,-0.002443
1765409984.089112,-9.814680,-0.101626,0.302487,-0.005956,-0.009774,0.000458
1765409984.089312,-9.850550,-0.118364,0.363462,-0.004887,-0.009163,0.000000
1765409984.089512,-9.903154,-0.078910,0.466882,-0.005651,-0.009163,0.001833
1765409984.089712,-9.818865,-0.068747,0.299498,-0.005651,-0.006720,0.001833
1765409984.089880,-9.714849,-0.060378,0.183525,-0.006414,-0.008399,0.000153
1765409984.090080,-9.803323,-0.006576,0.372429,-0.005192,-0.010996,-0.001069
1765409984.090280,-9.867287,0.057389,0.432807,-0.005498,-0.003054,0.001222
1765409984.090480,-9.754303,0.001196,0.243902,-0.007483,-0.003054,0.002749
1765409984.090680,-9.754303,0.001196,0.243902,-0.007483,-0.004581,0.002749
1765409984.090928,-9.932447,0.010760,0.433405,-0.003818,-0.006414,0.000764
1765409984.091095,-9.956957,0.053802,0.414873,-0.005498,-0.006261,0.001985
1765409984.091261,-9.793160,0.031683,0.215806,-0.006872,-0.005040,0.003512
1765409984.091428,-9.727402,-0.017934,0.148254,-0.007789,-0.004429,0.001374
1765409984.091595,-9.822452,-0.008369,0.301889,-0.006414,-0.006414,-0.000153
1765409984.091761,-9.959349,0.071736,0.319225,-0.004887,-0.001833,-0.000458
1765409984.091921,-9.917501,0.078312,0.258250,-0.009927,-0.001833,0.001374
1765409984.092121,-9.878048,-0.004185,0.309660,-0.008705,-0.000764,0.001527
1765409984.092321,-10.025107,-0.043042,0.448350,-0.008399,-0.004581,0.001985
1765409984.092521,-10.026900,0.014945,0.379005,-0.005803,-0.004734,-0.002291
1765409984.092721,-9.897178,0.000598,0.194883,-0.008247,-0.002749,-0.000764
1765409984.092843,-9.905546,0.000598,0.265423,-0.007941,-0.002749,0.001985
1765409984.093043,-10.099234,0.007174,0.437590,-0.006720,-0.006567,0.001069
1765409984.093243,-10.115973,0.038857,0.443568,-0.010385,-0.004429,-0.001985
1765409984.093443,-10.062170,-0.012554,0.329388,-0.009316,-0.001680,0.001069
1765409984.093643,-9.995814,-0.003587,0.314443,-0.009316,-0.002902,-0.000305
1765409984.093819,-9.969511,0.017934,0.281564,-0.006720,-0.005651,-0.000153
1765409984.094019,-9.953370,-0.015543,0.272597,-0.006414,-0.005803,-0.003971
1765409984.094219,-9.964130,-0.015543,0.340746,-0.008858,-0.006261,-0.002749
1765409984.094419,-9.943806,0.066954,0.225968,-0.010537,-0.006261,-0.002596
1765409984.094619,-9.943208,0.004782,0.172166,-0.007941,-0.005498,0.001527
1765409984.094861,-9.964130,-0.111191,0.359278,-0.010537,-0.008705,-0.002138
1765409984.095111,-9.964130,-0.111191,0.359278,-0.010537,-0.006261,-0.002138
1765409984.095361,-9.918099,0.046031,0.269608,-0.008705,-0.005651,-0.000611
1765409984.095611,-9.933045,-0.017336,0.377810,-0.008094,-0.005956,-0.000916
1765409984.095863,-9.935436,-0.050215,0.313247,-0.009774,-0.008247,-0.000764
1765409984.096063,-9.959946,-0.011956,0.208034,-0.006414,-0.004276,0.000000
1765409984.096263,-9.982663,-0.043042,0.344333,-0.011148,-0.006109,-0.003665
1765409984.096463,-10.007771,-0.083692,0.419656,-0.011606,-0.007483,-0.001374
1765409984.096663,-10.014346,-0.057389,0.335964,-0.008247,-0.007483,-0.003971
1765409984.096914,-9.973696,0.008369,0.317432,-0.006261,-0.005956,-0.002138
1765409984.097114,-9.910329,-0.139885,0.355691,-0.010843,-0.005651,0.000764
1765409984.097314,-9.952174,-0.120756,0.329388,-0.010843,-0.012217,-0.001985
1765409984.097514,-9.970109,-0.040650,0.283357,-0.008247,-0.008247,-0.002138
1765409984.097714,-9.882831,-0.076518,0.324605,-0.008552,-0.004887,-0.002138
1765409984.097908,-9.927068,-0.101028,0.350311,-0.008858,-0.009010,-0.000153
1765409984.098108,-10.040051,-0.064562,0.426829,-0.008247,-0.013592,-0.001985
1765409984.098308,-9.959349,-0.083692,0.307269,-0.006720,-0.005651,-0.000611
1765409984.098508,-9.768052,-0.077714,0.223577,-0.007330,-0.007178,-0.001069
1765409984.098708,-9.831419,-0.064562,0.294118,-0.006720,-0.010996,-0.003207
1765409984.098860,-9.947989,0.014347,0.369440,-0.003665,-0.010232,-0.002749
1765409984.099060,-9.907937,-0.028694,0.284553,-0.006261,-0.005956,-0.000916
1765409984.099260,-9.846962,-0.059182,0.340746,-0.008247,-0.007483,0.000153
1765409984.099460,-9.868484,-0.017934,0.325801,-0.007636,-0.008247,-0.001374
1765409984.099660,-9.868484,-0.017336,0.302487,-0.003512,-0.007025,0.001680
1765409984.099819,-9.890601,-0.058584,0.311454,-0.005498,-0.006872,-0.000916
1765409984.100019,-9.950979,-0.035868,0.438785,-0.008552,-0.006109,-0.000764
1765409984.100219,-9.948587,0.044237,0.345528,-0.007941,-0.003818,0.002291
1765409984.100419,-9.928861,0.029890,0.339550,-0.004887,-0.002443,-0.000153
1765409984.100619,-9.945002,-0.034672,0.442372,-0.007483,-0.007025,-0.001069
1765409984.100877,-9.959946,-0.020325,0.386179,-0.008705,-0.006261,-0.000153
1765409984.101077,-9.943806,-0.016738,0.260043,-0.005956,-0.003971,-0.001222
1765409984.101277,-9.916904,-0.041248,0.325801,-0.009774,-0.003971,-0.000611
1765409984.101477,-9.996411,0.008369,0.396939,-0.007483,-0.007483,-0.000916
1765409984.101677,-9.956957,0.025705,0.265423,-0.008247,-0.007483,-0.001985
1765409984.101943,-9.931252,-0.029292,0.295313,-0.008705,-0.007330,-0.000611
1765409984.102143,-9.985053,-0.072932,0.380201,-0.009010,-0.006567,-0.001069
1765409984.102343,-9.990434,0.020923,0.349115,-0.008705,-0.005651,-0.001374
1765409984.102543,-9.961740,0.056791,0.301889,-0.009316,-0.006567,-0.001680
1765409984.102743,-9.911524,-0.084888,0.325203,-0.011301,-0.005040,-0.003054
1765409984.102935,-9.911524,-0.084888,0.325203,-0.011301,-0.009468,-0.003054
1765409984.103135,-9.943806,0.024510,0.280966,-0.008399,-0.006720,-0.002902
1765409984.103335,-9.929459,-0.033477,0.363462,-0.009621,-0.006109,0.001222
1765409984.103535,-9.705881,-0.259445,0.530846,-0.006872,-0.007789,-0.000611
1765409984.103735,-9.230630,-0.069345,-0.130320,-0.008094,-0.003665,-0.005498
1765409984.103879,-9.538497,0.303682,0.021521,-0.010385,-0.008094,-0.014966
1765409984.104079,-10.273791,0.322812,0.933764,-0.007941,0.012828,0.003971
1765409984.104279,-10.019726,-0.096246,0.864419,-0.002596,0.012828,0.021228
1765409984.104479,-9.713055,-0.234338,0.687470,-0.011912,0.007483,-0.003818
1765409984.104679,-9.683165,-0.150048,0.222382,-0.017410,0.000153,-0.009163
1765409984.104921,-9.726207,-0.332377,-0.343137,-0.007789,-0.007789,0.005956
1765409984.105171,-9.998802,-0.080703,0.371832,0.004581,-0.004276,-0.006261
1765409984.105421,-10.161406,0.399330,0.993544,-0.009010,0.019853,-0.016952
1765409984.105671,-10.159015,0.489000,0.792683,-0.016493,0.017715,0.001222
1765409984.105889,-9.900764,-0.322812,0.118364,-0.008094,-0.010537,0.021075
1765409984.106089,-9.549855,-0.828551,-0.086083,-0.010843,-0.010537,0.007025
1765409984.106289,-10.065758,-0.104017,0.569106,-0.010843,0.003054,0.007025
1765409984.106489,-10.062170,0.445959,0.497967,-0.008399,0.015730,-0.015577
1765409984.106689,-10.062170,0.445959,0.497967,-0.008399,0.000305,-0.015577
1765409984.107014,-9.909132,-0.025108,0.214012,-0.009163,0.010996,0.012065
1765409984.107214,-10.022716,-0.298900,0.564323,-0.006720,0.010996,0.004276
1765409984.107414,-9.796746,-0.459110,0.314443,-0.006414,0.011606,-0.003207
1765409984.107614,-9.805714,-0.177547,0.077714,-0.006261,-0.002138,-0.009163
1765409984.107814,-9.927666,0.300096,0.154830,-0.002749,0.001833,-0.009010
1765409984.108044,-9.973098,0.261836,0.479436,-0.005498,0.010232,0.001985
1765409984.108244,-9.849353,0.002391,0.402917,-0.010385,0.010232,0.007025
1765409984.108444,-9.789574,-0.203252,0.157819,-0.007636,-0.002138,0.004581
1765409984.108644,-9.720228,-0.271999,0.020325,-0.006109,0.004123,0.000153
1765409984.108844,-9.832017,-0.161406,0.331779,-0.005651,0.005498,-0.005498
1765409984.108923,-9.855330,0.112984,0.390961,-0.004581,0.011912,-0.007636
1765409984.109123,-9.916306,0.325203,0.199665,-0.008858,0.009468,-0.001374
1765409984.109323,-9.977283,0.066954,0.254065,-0.010232,0.007178,0.005803
1765409984.109523,-10.129124,-0.236729,0.539216,-0.006872,0.008552,0.010690
1765409984.109723,-10.135101,-0.282162,0.580464,-0.005498,0.008552,0.000764
1765409984.109899,-9.986250,-0.069943,0.316834,-0.008858,0.008858,-0.007636
1765409984.110099,-9.890003,0.139885,0.184122,-0.006567,0.004887,-0.005651
1765409984.110299,-10.020324,0.258250,0.354495,-0.005803,0.004887,0.001680
1765409984.110499,-9.994021,0.074127,0.484218,-0.008247,0.011454,0.005956
1765409984.110699,-9.885818,-0.214012,0.230751,-0.009774,0.004734,0.005192
1765409984.110887,-9.918698,-0.243902,0.112984,-0.009774,-0.000153,0.005192
1765409984.111087,-10.008368,-0.065758,0.242109,-0.003207,0.000916,-0.006109
1765409984.111287,-9.966521,0.063367,0.355691,-0.002596,0.012981,-0.005498
1765409984.111487,-9.881036,0.101028,0.299498,-0.007330,0.002291,-0.003971
1765409984.111687,-9.921089,0.133907,0.164993,-0.010232,0.002291,-0.001527
1765409984.111871,-10.011356,0.027499,0.221186,-0.009010,0.001222,0.006567
1765409984.112071,-9.977283,-0.251076,0.367049,-0.006414,0.005498,0.005040
1765409984.112271,-9.959349,-0.225968,0.396939,-0.008399,0.008705,-0.005803
1765409984.112471,-9.964728,0.033477,0.240316,-0.006261,0.001374,-0.009010
1765409984.112671,-9.979673,0.148254,0.138690,-0.009774,0.000916,-0.002902
1765409984.112895,-10.014346,0.068149,0.390363,-0.006109,-0.000916,0.000764
1765409984.113095,-10.081299,0.029890,0.460904,-0.005192,0.005040,0.000000
1765409984.113295,-9.995216,-0.090268,0.298302,-0.010537,0.003512,0.002138
1765409984.113495,-9.956957,-0.167384,0.181133,-0.008247,0.000305,0.000916
1765409984.113695,-10.120754,-0.086083,0.436394,-0.007330,-0.004581,-0.003054
1765409984.113860,-10.148253,0.047824,0.443568,-0.007483,0.002902,-0.003512
1765409984.114060,-9.992227,0.054998,0.205643,-0.008858,0.000458,-0.001680
1765409984.114260,-9.939621,-0.046628,0.156624,-0.009163,-0.004581,0.000305
1765409984.114460,-10.123145,-0.064562,0.400526,-0.006872,-0.007330,0.001374
1765409984.114660,-10.099234,-0.107604,0.431612,-0.006872,0.001680,-0.001833
1765409984.114885,-9.947989,-0.136298,0.310856,-0.010232,0.001527,-0.001374
1765409984.115218,-10.021520,-0.038259,0.328790,-0.008247,-0.009316,-0.002138
1765409984.115552,-10.087276,0.032281,0.322812,-0.007178,-0.004734,-0.001833
1765409984.116920,-10.009563,-0.008369,0.345528,-0.006109,-0.001222,0.001680
1765409984.120825,-9.927666,-0.052009,0.307269,-0.009163,0.000305,-0.000611
1765409984.123866,-10.066953,-0.060976,0.423242,-0.010996,-0.006567,0.001222
1765409984.125839,-10.067551,-0.092061,0.294118,-0.007330,-0.004581,0.000153
1765409984.128836,-9.915112,-0.092061,0.209230,-0.006109,-0.004581,-0.000764
1765409984.130827,-9.916306,-0.064562,0.343735,-0.005498,-0.003207,-0.002138
1765409984.133868,-9.946198,0.042444,0.265423,-0.008858,-0.006872,0.000611
1765409984.134368,-9.930654,0.077714,0.157819,-0.004734,-0.009163,-0.000305
1765409984.139596,-9.882233,0.007771,0.257652,-0.007330,-0.003665,0.000305
1765409984.140919,-9.952174,-0.130320,0.431612,-0.007941,-0.004276,0.001069
1765409984.143824,-9.951577,-0.126734,0.333572,-0.007636,-0.008094,-0.002291
1765409984.145861,-9.899570,0.000000,0.191296,-0.005956,-0.004123,-0.004734
1765409984.148887,-9.809898,0.047824,0.180536,-0.009316,-0.003360,-0.000916
1765409984.149387,-9.868484,0.027499,0.306074,-0.008247,-0.008858,0.002443
1765409984.153853,-9.949782,0.002391,0.396341,-0.005498,-0.008858,-0.000305
1765409984.155901,-9.882831,-0.026303,0.242109,-0.010385,-0.007483,0.000153
1765409984.158910,-9.846962,-0.114180,0.264228,-0.009774,-0.003054,0.000611
1765409984.161904,-9.955761,-0.135103,0.430416,-0.007789,-0.006872,0.000764
1765409984.163864,-9.966521,-0.007174,0.440579,-0.008094,-0.003971,-0.001527
1765409984.165834,-9.848158,0.055595,0.215208,-0.008247,-0.004276,-0.002749
1765409984.168853,-9.775824,0.021521,0.173362,-0.008858,-0.003971,0.002596
1765409984.169353,-9.942013,-0.015543,0.414275,-0.006567,-0.007941,0.000000
1765409984.173838,-10.038857,-0.029292,0.460306,-0.005192,-0.003512,0.000916
1765409984.175930,-9.914514,-0.114778,0.277379,-0.004276,-0.002902,0.000305
1765409984.177948,-9.840983,-0.098637,0.274390,-0.004734,-0.004734,-0.000305
1765409984.180940,-9.943806,0.023912,0.453730,-0.004734,-0.004887,-0.000305
1765409984.183903,-9.883428,0.057389,0.332377,-0.007330,-0.003665,0.000458
1765409984.184936,-9.788976,-0.047226,0.204448,-0.006109,-0.003665,0.003818
1765409984.188891,-9.788976,-0.047226,0.204448,-0.006109,-0.007636,0.003818
1765409984.190876,-9.979075,-0.058584,0.481827,-0.010232,-0.003971,0.000611
1765409984.192013,-9.940817,-0.061573,0.369440,-0.010232,0.000764,0.000611
1765409984.195976,-9.863700,-0.054998,0.261836,-0.004887,-0.000916,-0.001985
1765409984.198894,-9.879243,-0.007771,0.362865,-0.006720,-0.000916,-0.000305
1765409984.201004,-9.894188,-0.007174,0.374223,-0.007789,-0.002291,0.000916
1765409984.202965,-9.820659,0.017934,0.241511,-0.007025,-0.000153,0.001527
1765409984.203930,-9.808702,-0.031086,0.282759,-0.007025,-0.000305,0.001374
1765409984.208923,-9.887612,-0.075921,0.361071,-0.008552,-0.001680,0.000000
1765409984.210976,-9.904350,-0.089670,0.348517,-0.008399,-0.005345,-0.000458
1765409984.213047,-9.808702,-0.027499,0.234338,-0.006261,-0.003054,-0.003665
1765409984.215957,-9.747727,-0.032281,0.236729,-0.008094,0.000153,-0.001222
1765409984.218955,-9.892395,-0.054998,0.377810,-0.008705,0.000153,0.002291
1765409984.220963,-9.986848,-0.072334,0.416069,-0.005651,0.001527,-0.000153
1765409984.221958,-9.852941,-0.020923,0.225968,-0.006261,0.004276,0.001222
1765409984.225858,-9.796746,-0.059780,0.202056,-0.009316,0.003512,0.000916
1765409984.228868,-9.935436,-0.129125,0.382592,-0.010079,0.002291,0.001069
1765409984.230910,-10.029889,-0.084290,0.425634,-0.006872,0.002291,0.000458
1765409984.233844,-10.029889,-0.084290,0.425634,-0.006872,0.005651,0.000458
1765409984.234904,-9.797942,-0.049020,0.193687,-0.005651,0.004734,0.001069
1765409984.238856,-9.859515,-0.031683,0.321019,-0.007483,0.002749,0.001374
1765409984.240856,-10.001792,0.018532,0.384983,-0.008399,0.003360,0.000764
1765409984.243863,-9.921686,-0.036466,0.224773,-0.007483,0.003360,0.002749
1765409984.245849,-9.921686,-0.036466,0.224773,-0.007483,0.002443,0.002749
1765409984.248857,-9.986848,-0.138690,0.382592,-0.004734,0.004887,-0.000611
1765409984.250921,-9.972500,-0.067551,0.368245,-0.005345,0.004887,-0.001222
1765409984.253861,-9.839788,-0.003587,0.173362,-0.004276,0.003971,-0.001527
1765409984.255869,-9.859515,0.044237,0.266021,-0.007178,0.003971,0.000153
1765409984.258871,-9.921089,0.000000,0.320421,-0.005345,0.002902,0.003512
1765409984.260877,-9.893590,-0.083094,0.218795,-0.007483,0.003665,0.003818
1765409984.263832,-9.925871,-0.127331,0.212817,-0.005498,0.004123,-0.000764
1765409984.265849,-10.013748,-0.130918,0.341942,-0.006720,0.003207,0.000458
1765409984.268876,-10.063366,-0.008369,0.411286,-0.007178,0.007483,-0.002138
1765409984.270889,-9.943806,0.010163,0.274988,-0.006567,0.006261,-0.001069
1765409984.273862,-9.884026,0.001793,0.225371,-0.007178,0.003360,0.003818
1765409984.275858,-9.967718,-0.038857,0.298900,-0.007025,0.000305,0.000916
1765409984.278957,-10.001194,-0.110593,0.312052,-0.007025,-0.000916,0.000916
1765409984.280924,-9.861309,-0.103419,0.183525,-0.005345,0.001680,-0.000611
1765409984.283986,-9.867287,-0.025108,0.175753,-0.006261,0.000764,-0.003360
1765409984.285966,-10.035867,0.037064,0.377212,-0.005040,0.000000,-0.001069
1765409984.286962,-10.049617,0.103419,0.397537,-0.007483,0.001985,0.003665
1765409984.290859,-9.928263,0.047226,0.205643,-0.007483,0.005651,0.003665
1765409984.293906,-9.827832,-0.092061,0.088474,-0.006567,0.000611,0.005956
1765409984.296061,-9.952174,-0.161406,0.232544,-0.003207,-0.003512,0.002902
1765409984.298901,-10.111788,-0.124342,0.370636,-0.004429,0.000764,-0.000153
1765409984.300907,-10.053802,-0.032879,0.320421,-0.003818,0.004887,-0.000611
1765409984.304927,-9.958152,-0.007174,0.254663,-0.005192,0.002596,0.000305
1765409984.305427,-10.015541,-0.019130,0.343137,-0.008552,-0.002749,-0.001833
1765409984.308866,-9.933045,-0.002989,0.240316,-0.002749,0.000458,0.002443
1765409984.309366,-9.849353,-0.047226,0.148254,-0.000611,0.004887,0.004734
1765409984.313879,-9.945002,-0.103419,0.349115,-0.003512,0.004887,0.001833
1765409984.315902,-10.126732,-0.095648,0.536824,-0.002596,-0.000611,0.000153
1765409984.318961,-10.112385,-0.023314,0.417264,-0.005498,0.002138,-0.001833
1765409984.320964,-10.013150,0.043639,0.277977,-0.007025,0.000764,-0.000611
1765409984.323914,-10.041247,0.075921,0.349115,-0.004581,-0.001985,0.003207
1765409984.325934,-10.014346,-0.014347,0.361071,-0.005956,-0.002902,0.002138
1765409984.328921,-9.888808,-0.085485,0.197872,-0.005498,0.001069,0.004429
1765409984.331924,-9.802725,-0.142276,0.153037,-0.004429,0.001680,0.001680
1765409984.333985,-9.965326,-0.089670,0.355691,-0.004734,-0.007330,0.001069
1765409984.336961,-10.101624,0.026303,0.490196,-0.005192,-0.004276,-0.001985
1765409984.338929,-10.032280,0.118962,0.371832,-0.007941,0.002749,0.000000
1765409984.339429,-9.901959,0.115375,0.240316,-0.007178,-0.000305,0.001985
1765409984.343928,-9.921686,-0.093257,0.269010,-0.005040,-0.007789,0.006109
1765409984.345903,-9.949782,-0.208034,0.351506,-0.003971,-0.005192,0.005956
1765409984.348904,-9.882831,-0.209230,0.177547,-0.005345,-0.001069,-0.000611
1765409984.351016,-9.882233,-0.059780,0.240913,-0.007636,-0.002596,-0.001222
1765409984.351881,-9.977880,0.089670,0.388570,-0.007025,-0.002596,-0.002749
1765409984.355902,-10.001194,0.114778,0.449546,-0.004734,0.001069,0.001069
1765409984.357871,-9.860114,0.028694,0.226566,-0.007178,0.001069,0.003971
1765409984.360898,-9.788976,-0.099235,0.184122,-0.005803,-0.004887,0.008399
1765409984.363930,-9.830223,-0.185318,0.225968,-0.006109,-0.005040,0.003971
1765409984.365941,-9.845766,-0.154232,0.272597,-0.005956,-0.001374,0.001069
1765409984.368888,-9.885221,-0.005978,0.337159,-0.005651,-0.002291,-0.001222
1765409984.370950,-9.923481,0.096246,0.385581,-0.003512,-0.002291,0.001374
1765409984.373946,-9.909731,0.080703,0.334768,-0.006872,-0.001985,0.004581
1765409984.375924,-9.807508,-0.020923,0.193687,-0.008552,-0.000611,0.004429
1765409984.378917,-9.756096,-0.167384,0.159015,-0.007483,0.001069,0.005956
1765409984.380882,-9.825441,-0.170971,0.231349,-0.003207,0.002138,0.006261
1765409984.383876,-9.893590,-0.104615,0.388570,-0.002291,0.003665,0.001527
1765409984.385884,-9.941415,0.033477,0.373027,-0.003971,0.006109,-0.001069
1765409984.388899,-9.879243,0.056791,0.276184,-0.004581,0.000000,0.000916
1765409984.390912,-9.882831,0.049617,0.309660,-0.005803,0.000000,0.002138
1765409984.391948,-9.881634,-0.008369,0.224773,-0.005192,0.002596,0.005498
1765409984.395973,-9.878048,-0.139885,0.273792,-0.003665,0.005651,0.003971
1765409984.399019,-9.918099,-0.202654,0.400526,-0.006261,0.003665,0.003054
1765409984.400966,-9.992825,-0.133907,0.463893,-0.004581,0.006567,-0.001833
1765409984.405591,-9.919296,0.040053,0.260641,-0.003818,0.006567,-0.001833
1765409984.406091,-9.919296,0.040053,0.260641,-0.003818,0.007025,-0.001833
1765409984.408944,-9.866092,0.088474,0.283357,-0.004276,0.007025,0.007330
1765409984.410953,-9.892395,-0.086083,0.343137,-0.003665,0.009163,0.008552
1765409984.413941,-9.884026,-0.219990,0.430416,-0.002902,0.003054,0.007636
1765409984.415914,-9.968913,-0.186514,0.418460,-0.002749,0.003054,0.000764
1765409984.419012,-9.968913,-0.186514,0.418460,-0.002749,0.003665,0.000764
1765409984.420924,-9.823647,0.099235,0.230751,-0.004123,0.004276,0.000611
1765409984.422999,-9.882233,0.123147,0.298302,-0.005040,0.000611,0.004276
1765409984.423960,-9.882233,0.123147,0.298302,-0.005040,0.003054,0.004276
1765409984.428861,-9.956359,-0.126734,0.249283,-0.003818,0.003207,0.009010
1765409984.430959,-10.005977,-0.200263,0.355093,-0.007025,0.005040,0.001833
1765409984.432945,-10.016738,-0.077714,0.440579,-0.006261,0.008247,-0.003360
1765409984.435979,-9.843973,0.047824,0.265423,-0.005192,0.008247,0.000000
1765409984.438958,-9.747727,0.139885,0.112386,-0.008094,0.006872,0.002902
1765409984.439458,-9.937230,0.105213,0.320421,-0.009316,0.002291,0.007025
1765409984.443925,-10.035269,-0.120756,0.454328,-0.003207,0.007178,0.009927
1765409984.445925,-9.989238,-0.294118,0.373027,-0.001680,0.010385,0.007636
1765409984.446993,-9.950979,-0.270206,0.222382,-0.002138,0.012370,0.001222
1765409984.448939,-9.931850,-0.077116,0.348517,0.002443,0.005345,-0.002902
1765409984.453010,-9.864896,0.064562,0.240316,0.002902,0.006261,-0.001527
1765409984.455985,-9.875656,0.162602,0.203252,-0.000611,0.005192,0.001833
1765409984.458010,-9.935436,0.086083,0.344333,-0.002138,0.008247,0.006872
1765409984.460947,-9.956957,-0.096844,0.303682,-0.002443,0.009621,0.011454
1765409984.463946,-9.956957,-0.096844,0.303682,-0.002443,0.008552,0.011454
1765409984.465955,-9.852941,-0.109995,0.280966,-0.003207,0.013439,0.002596
1765409984.468966,-9.907339,-0.015543,0.318030,-0.003512,0.010079,0.003360
1765409984.470957,-9.939023,0.059780,0.239120,-0.002749,0.007636,0.001985
1765409984.473971,-9.886416,0.052606,0.084888,-0.006872,0.009163,0.005803
1765409984.475940,-9.863700,-0.106408,0.086681,-0.003971,0.011301,0.008705
1765409984.478920,-9.902557,-0.260641,0.290531,-0.006109,0.010385,0.006720
1765409984.480940,-9.948587,-0.204448,0.304878,-0.007330,0.010385,-0.000458
1765409984.481965,-9.948587,-0.204448,0.304878,-0.007330,0.007941,-0.000458
1765409984.485900,-9.835006,0.117169,0.084888,-0.000153,0.007789,0.002749
1765409984.488943,-9.923481,0.123147,0.264228,-0.000305,0.009010,0.006872
1765409984.489443,-9.893590,-0.010760,0.208034,-0.001985,0.009316,0.006567
1765409984.493980,-9.904350,-0.049020,0.156026,0.001222,0.012523,0.007025
1765409984.495971,-9.952174,-0.065758,0.325203,0.003207,0.013286,0.006720
1765409984.496997,-10.098038,-0.084888,0.535031,-0.001069,0.011759,0.005040
1765409984.500959,-10.085484,-0.020923,0.501554,-0.003207,0.010690,0.005040
1765409984.504143,-9.993423,-0.060976,0.367049,-0.001985,0.010843,0.005803
1765409984.505996,-9.924676,-0.104017,0.132114,-0.004887,0.005345,0.007789
1765409984.508946,-9.888210,-0.101626,0.080105,-0.003207,0.002902,0.003512
1765409984.510910,-9.974891,-0.060976,0.306074,-0.003207,0.006872,0.004123
1765409984.511953,-10.112385,0.069345,0.481827,-0.003971,0.008094,0.004581
1765409984.517109,-9.995216,0.065758,0.255858,-0.005803,0.007789,0.004123
1765409984.518971,-9.904947,0.087279,0.175753,-0.001374,0.007025,0.007025
1765409984.520965,-9.923481,-0.041248,0.286944,-0.000764,0.001833,0.009621
1765409984.521910,-9.881634,-0.028097,0.193687,-0.004734,0.008247,0.006109
1765409984.525997,-9.922284,0.012554,0.135103,-0.002596,0.008705,0.006261
1765409984.529011,-10.013150,-0.098039,0.503348,-0.000153,0.007178,0.009163
1765409984.530938,-9.900764,-0.130320,0.358680,-0.001985,0.007483,0.005803
1765409984.533942,-9.869080,-0.106408,0.279173,-0.003818,0.005498,0.005192
1765409984.535933,-9.812887,-0.099833,0.054998,0.000458,0.002596,0.008858
1765409984.538924,-9.913317,-0.018532,0.210426,0.000916,0.002596,0.003512
1765409984.539424,-9.960544,0.040650,0.350909,-0.000153,0.009621,0.001527
1765409984.543901,-9.897775,0.086083,0.282162,-0.001680,0.009468,0.001985
1765409984.544401,-9.782400,0.139885,0.202056,-0.001985,0.009621,0.006414
1765409984.548932,-9.854136,0.016738,0.218795,-0.002443,0.004734,0.006109
1765409984.550946,-9.846962,-0.063965,0.247489,-0.000764,0.008552,0.009468
1765409984.553967,-9.735173,-0.124940,0.087279,-0.000153,0.004887,0.008399
1765409984.555965,-9.748923,-0.049617,0.129723,-0.001374,0.009774,0.004123
1765409984.556984,-9.748923,-0.049617,0.129723,-0.001374,0.008552,0.004123
1765409984.560907,-9.962935,-0.001793,0.355093,0.000305,0.009774,0.010843
1765409984.563933,-9.885818,-0.066954,0.221784,0.000458,0.012675,0.009316
1765409984.565897,-9.940817,-0.124342,0.457915,-0.000611,0.013439,0.005803
1765409984.568920,-9.776422,-0.005978,0.121951,0.000764,0.016035,0.002749
1765409984.570943,-9.916306,0.081899,0.326997,-0.003207,0.007636,0.005498
1765409984.571959,-9.919893,0.065758,0.335964,-0.007483,0.015882,0.005803
1765409984.575976,-9.958751,0.071138,0.320421,-0.001985,0.015882,0.007636
1765409984.578967,-9.955164,-0.079507,0.479436,-0.000916,0.014966,0.011454
1765409984.580930,-9.945002,-0.124342,0.415471,-0.002749,0.014508,0.008399
1765409984.583955,-9.997607,-0.081301,0.375418,-0.003512,0.009468,0.007025
1765409984.585976,-9.863700,-0.040650,0.074127,-0.001833,0.008705,0.008247
1765409984.588989,-9.846962,-0.066954,0.222382,-0.003665,0.008399,0.010537
1765409984.590975,-9.846962,-0.065160,0.224773,-0.003054,0.010690,0.009010
1765409984.593994,-10.051410,-0.148852,0.359876,0.001069,0.008858,0.009468
1765409984.595975,-9.881634,-0.052606,0.282162,0.003665,0.014661,0.010079
1765409984.598912,-9.982065,-0.059780,0.355093,0.000000,0.014813,0.009927
1765409984.600929,-9.970109,0.004185,0.450741,0.000000,0.012370,0.007178
1765409984.603976,-9.858918,-0.043042,0.164993,-0.000153,0.010385,0.006872
1765409984.605918,-9.754900,0.039455,0.133309,0.001374,0.011148,0.010996
1765409984.608975,-9.806311,-0.041846,0.190100,0.001680,0.011148,0.009163
1765409984.610920,-9.943806,-0.009565,0.398733,0.003512,0.014661,0.010232
1765409984.613963,-9.835006,-0.102822,0.141679,0.002902,0.019395,0.010996
1765409984.617094,-9.903154,-0.041846,0.315638,0.000611,0.010843,0.010079
1765409984.619047,-9.890003,-0.071736,0.227762,0.000305,0.015272,0.009468
1765409984.620070,-9.919893,-0.015543,0.292922,0.000000,0.015272,0.008552
1765409984.621994,-9.794355,-0.010760,0.062171,0.000000,0.022297,0.008858
1765409984.624972,-9.775824,-0.049617,0.060976,-0.001069,0.019242,0.011606
1765409984.628964,-9.938425,0.015543,0.338355,0.003971,0.025809,0.010537
1765409984.630925,-9.971304,0.062171,0.425036,0.001680,0.026573,0.009621
1765409984.632004,-9.931850,0.026303,0.410091,-0.000764,0.025809,0.013592
1765409984.636021,-9.830223,-0.088474,0.174558,0.000153,0.016952,0.011148
1765409984.638969,-9.860114,-0.090866,0.185916,-0.000153,0.020006,0.009621
1765409984.640956,-9.687947,-0.116571,-0.045433,0.000916,0.020006,0.007636
1765409984.643954,-9.687947,-0.116571,-0.045433,0.000916,0.026725,0.007636
1765409984.645979,-9.854136,0.031086,0.235533,0.002902,0.025656,0.014203
1765409984.647958,-10.086082,-0.076518,0.486609,0.000611,0.019242,0.012828
1765409984.648949,-10.054399,-0.049617,0.363462,0.000611,0.022907,0.009010
1765409984.653979,-9.948587,-0.057389,0.249880,0.000153,0.022755,0.011912
1765409984.656015,-9.765661,-0.138690,0.106408,-0.000611,0.022297,0.009774
1765409984.658971,-9.876852,-0.028694,0.098039,0.004123,0.022602,0.007178
1765409984.660942,-9.942013,-0.005380,0.310856,0.003512,0.025656,0.009163
1765409984.661960,-9.790769,0.074127,0.199665,0.006109,0.024129,0.010385
1765409984.665995,-9.942610,0.022716,0.306074,-0.000153,0.024129,0.012675
1765409984.668950,-9.917501,-0.075323,0.251076,-0.000153,0.022907,0.012675
1765409984.670943,-9.844571,-0.127929,0.223577,0.000458,0.016493,0.009316
1765409984.671915,-9.745336,-0.117169,0.115973,0.001985,0.026878,0.010232
1765409984.675948,-9.732782,0.076518,-0.004782,0.006414,0.020769,0.007025
1765409984.678954,-10.035867,0.128527,0.410091,0.000611,0.019853,0.011759
1765409984.680956,-10.227163,0.148254,0.626494,0.001680,0.024435,0.014050
1765409984.683961,-10.029889,-0.117169,0.322812,-0.000153,0.025504,0.018631
1765409984.685951,-9.855330,-0.107006,0.101626,-0.003054,0.014661,0.015119
1765409984.688897,-10.057388,-0.015543,0.367049,-0.002749,0.014050,0.009316
1765409984.690958,-9.890003,-0.103419,0.222382,0.000458,0.017104,0.013897
1765409984.693960,-9.763269,-0.007771,-0.033477,0.003360,0.018937,0.012370
1765409984.695981,-9.921686,0.051411,0.309660,-0.000153,0.020464,0.015424
1765409984.698973,-10.054996,-0.055595,0.485414,-0.000611,0.020006,0.013744
1765409984.701043,-10.054996,-0.055595,0.485414,-0.000611,0.018937,0.013744
1765409984.702050,-9.677187,-0.203252,-0.113582,0.005192,0.016188,0.011454
1765409984.705969,-9.695121,-0.080105,0.019130,0.004887,0.023976,0.009774
1765409984.708973,-9.797344,-0.047824,0.240316,0.006567,0.022144,0.012981
1765409984.710965,-9.855330,-0.011956,0.282162,0.007178,0.022755,0.014813
1765409984.713963,-9.946198,0.037064,0.279770,0.006567,0.025198,0.015272
1765409984.715966,-9.954566,-0.007174,0.267814,0.002596,0.022755,0.013592
1765409984.719013,-10.049019,-0.078910,0.298302,0.001527,0.017562,0.016035
1765409984.721018,-9.989238,-0.040650,0.279770,0.005192,0.024740,0.011148
1765409984.723971,-9.707675,-0.074127,-0.057389,0.001985,0.024740,0.012217
1765409984.725013,-9.485890,0.045433,-0.282162,0.006414,0.027031,0.016035
1765409984.728968,-9.775226,0.034672,0.160808,0.003818,0.022144,0.011759
1765409984.730924,-10.053802,0.056791,0.536824,0.004429,0.028711,0.017868
1765409984.733935,-9.962935,-0.082496,0.325203,0.004734,0.023671,0.017562
1765409984.735916,-9.887612,-0.056193,0.271401,0.005651,0.023671,0.015730
1765409984.738946,-9.833213,0.012554,0.221186,0.002902,0.019548,0.013897
1765409984.740930,-9.814680,0.034672,0.197274,0.003818,0.028863,0.015424
1765409984.743972,-9.814680,0.034672,0.197274,0.003818,0.029016,0.015424
1765409984.745963,-9.976088,-0.017934,0.384983,0.008094,0.026573,0.018784
1765409984.748904,-10.096244,-0.014347,0.467480,0.005345,0.032681,0.017257
1765409984.750934,-9.936632,-0.114778,0.320421,0.006261,0.029627,0.021380
1765409984.753980,-9.725011,-0.117169,0.097441,0.005040,0.029322,0.017715
1765409984.755942,-9.739358,-0.051411,0.142276,0.004276,0.021686,0.015882
1765409984.758978,-9.835006,-0.046628,0.087279,0.005956,0.022907,0.015272
1765409984.760925,-9.953967,0.068747,0.223577,0.009774,0.024893,0.017410
1765409984.763963,-9.985652,-0.014347,0.407102,0.006567,0.032070,0.020159
1765409984.765959,-9.921686,-0.076518,0.276184,0.005345,0.031154,0.020311
1765409984.768960,-9.780008,-0.032281,0.050215,0.005345,0.023366,0.018173
1765409984.770971,-9.832614,-0.035270,0.164395,0.005345,0.023671,0.017410
1765409984.773949,-9.815877,-0.057389,0.156624,0.004734,0.032529,0.017410
1765409984.775986,-9.745336,-0.083692,0.012554,0.008552,0.030238,0.018173
1765409984.776959,-9.818267,0.002989,0.185318,0.010537,0.032529,0.018937
1765409984.781002,-10.019726,0.028694,0.393950,0.007941,0.033750,0.017410
1765409984.783984,-10.039454,-0.022716,0.489000,0.007941,0.038485,0.021686
1765409984.785979,-9.877449,-0.003587,0.245098,0.004887,0.031001,0.019090
1765409984.788990,-9.877449,-0.003587,0.245098,0.004887,0.029627,0.019090
1765409984.790970,-9.623384,0.033477,-0.083094,0.007636,0.029322,0.018479
1765409984.793931,-9.671208,0.066356,-0.100430,0.006567,0.029322,0.021228
1765409984.796030,-9.671208,0.066356,-0.100430,0.006567,0.040317,0.021228
1765409984.799015,-10.212815,-0.002989,0.671927,0.003207,0.038332,0.019700
1765409984.800970,-9.986250,-0.151243,0.399330,0.001985,0.036957,0.022297
1765409984.803979,-9.803921,-0.077116,0.087279,0.005192,0.031001,0.018784
1765409984.806041,-9.655666,0.029890,-0.112984,0.008705,0.032223,0.015119
1765409984.807083,-9.803921,0.040650,0.105213,0.005040,0.030849,0.020464
1765409984.813554,-10.031085,-0.020325,0.388570,0.008399,0.039095,0.022449
1765409984.814054,-9.894786,-0.032879,0.206241,0.005956,0.041386,0.021380
1765409984.816013,-9.894786,-0.032879,0.206241,0.005956,0.045357,0.021380
1765409984.817067,-9.747727,-0.001793,0.086083,0.009927,0.034972,0.021075
1765409984.820979,-10.041844,0.044835,0.329986,0.008552,0.025351,0.019853
1765409984.821988,-9.976088,-0.062171,0.214012,0.004887,0.040012,0.016493
1765409984.825966,-9.953370,0.008369,0.303682,0.006414,0.040012,0.018631
1765409984.828953,-9.800333,-0.050215,0.011956,0.015272,0.041997,0.025504
1765409984.830964,-9.854136,-0.014347,0.130320,0.014203,0.033598,0.019548
1765409984.834012,-10.106407,0.168580,0.469871,0.008858,0.037415,0.014966
1765409984.836023,-10.072930,0.031086,0.477044,0.002902,0.044135,0.022755
1765409984.838938,-9.708273,-0.101028,-0.096844,0.009316,0.042913,0.021838
1765409984.840944,-9.708273,-0.101028,-0.096844,0.009316,0.037721,0.021838
1765409984.841926,-9.888808,-0.065758,0.198470,0.008094,0.041844,0.019090
1765409984.845997,-10.074127,0.071736,0.349115,0.010996,0.041844,0.019548
1765409984.848976,-10.072333,0.051411,0.324605,0.011759,0.044746,0.019090
1765409984.850992,-9.949782,-0.006576,0.252869,0.008247,0.044746,0.022297
1765409984.853996,-9.949782,-0.006576,0.252869,0.008247,0.038026,0.022297
1765409984.856008,-9.913317,-0.004782,0.281564,0.008247,0.039706,0.018937
1765409984.858939,-9.966521,-0.001196,0.133907,0.009316,0.035277,0.021686
1765409984.860937,-9.959946,-0.002391,0.112386,0.010537,0.034056,0.025504
1765409984.863917,-9.895982,-0.015543,0.136896,0.009774,0.040775,0.023213
1765409984.865906,-9.965924,0.033477,0.257054,0.011301,0.045051,0.021228
1765409984.868971,-9.956957,-0.010163,0.226566,0.008247,0.041081,0.023518
1765409984.870940,-9.852343,-0.053802,0.144668,0.008247,0.037721,0.022907
1765409984.873928,-9.870276,-0.087279,0.033477,0.009774,0.043982,0.021075
1765409984.874952,-9.780606,-0.096844,-0.053802,0.008399,0.046273,0.020311
1765409984.878947,-9.844571,-0.124342,0.078910,0.014050,0.046273,0.023518
1765409984.880943,-9.952174,-0.029890,0.408297,0.012675,0.049175,0.020464
1765409984.883930,-10.129124,0.102822,0.502152,0.010690,0.047495,0.021686
1765409984.886004,-9.949782,0.090866,0.216404,0.007178,0.043066,0.023366
1765409984.888975,-9.857722,-0.072932,0.070540,0.006720,0.035583,0.027642
1765409984.890940,-9.754900,-0.094452,-0.075921,0.007636,0.037874,0.025045
1765409984.893975,-9.866092,-0.084290,-0.069345,0.013439,0.040775,0.025351
1765409984.895981,-9.832017,0.032879,0.044237,0.017715,0.043371,0.024893
1765409984.898943,-10.004781,0.041846,0.410091,0.013897,0.051007,0.023060
1765409984.901040,-9.965924,0.050215,0.392157,0.011301,0.047495,0.024435
1765409984.902033,-9.793160,0.025108,-0.028694,0.007636,0.041844,0.025656
1765409984.905999,-9.795551,-0.037661,0.012554,0.010232,0.037263,0.025809
1765409984.909107,-9.784791,-0.057389,0.051411,0.011454,0.037263,0.023824
1765409984.911033,-9.812290,-0.121951,0.059780,0.013439,0.042608,0.026573
1765409984.914066,-9.823647,-0.010760,0.075323,0.018173,0.049022,0.022297
1765409984.914566,-9.998802,0.048422,0.324008,0.013897,0.047953,0.023824
1765409984.917072,-9.980869,0.028097,0.240913,0.017715,0.045968,0.030543
1765409984.920961,-9.785987,-0.062769,-0.013152,0.012217,0.043524,0.028711
1765409984.923995,-9.741151,-0.089670,-0.022716,0.007025,0.044135,0.022755
1765409984.925992,-9.915112,0.021521,0.182927,0.012065,0.047495,0.025045
1765409984.929039,-9.919296,0.014347,0.089670,0.015882,0.050244,0.025656
1765409984.931024,-9.938425,0.179340,0.356289,0.014203,0.051160,0.026725
1765409984.932012,-9.965326,0.031086,0.434003,0.011301,0.049633,0.028711
1765409984.935955,-9.947392,0.005978,0.358082,0.012065,0.044899,0.029322
1765409984.939015,-9.879841,-0.065758,-0.019130,0.014203,0.043830,0.023671
1765409984.940942,-9.850550,0.012554,-0.034075,0.012981,0.043830,0.025809
1765409984.943920,-10.041844,0.038857,0.136298,0.016799,0.044899,0.023671
1765409984.945918,-10.124342,0.054998,0.372429,0.021533,0.050549,0.028405
1765409984.948944,-10.056790,0.016738,0.242707,0.012370,0.052993,0.026878
1765409984.950961,-9.882831,-0.016738,0.062769,0.015424,0.053298,0.027489
1765409984.953972,-9.804518,0.004185,0.060976,0.018021,0.049480,0.027794
1765409984.956062,-9.808702,0.118962,-0.058584,0.016799,0.055589,0.025198
1765409984.959003,-9.824244,0.135103,-0.037661,0.011912,0.054062,0.027336
1765409984.960981,-10.045432,0.127929,0.379005,0.013744,0.055589,0.028100
1765409984.963990,-10.098636,0.056193,0.561932,0.010537,0.054214,0.032376
1765409984.966021,-9.996411,-0.053204,0.344333,0.010843,0.054214,0.027947
1765409984.968975,-9.762074,-0.025108,-0.082496,0.010690,0.046273,0.027336
1765409984.970978,-9.777617,0.025108,-0.092061,0.012981,0.043982,0.025809
1765409984.974035,-9.843973,-0.054400,0.049020,0.012065,0.048869,0.027031
1765409984.976087,-9.774031,0.043639,-0.175753,0.018173,0.052382,0.028863
1765409984.978086,-9.837397,0.090866,0.022119,0.017562,0.052993,0.028863
1765409984.981062,-9.958152,0.154232,0.336561,0.017410,0.056963,0.029016
1765409984.984002,-9.943208,0.130918,0.291726,0.015577,0.060018,0.033445
1765409984.986163,-9.704685,0.015543,-0.062171,0.011606,0.058338,0.029169
1765409984.988993,-9.684361,0.050215,-0.181731,0.012370,0.048717,0.025351
1765409984.990995,-9.867885,0.109995,0.029292,0.011148,0.050091,0.024587
1765409984.994036,-9.958751,0.109995,0.035868,0.016799,0.056200,0.027642
1765409984.996014,-9.827832,0.127929,0.083692,0.018784,0.061087,0.031612
1765409984.999088,-10.005977,0.078910,0.393352,0.018784,0.061087,0.029322
1765409985.001026,-9.975489,-0.026901,0.288140,0.018784,0.056352,0.029322
1765409985.004040,-9.844571,0.030488,-0.095648,0.012370,0.050396,0.027794
1765409985.006029,-9.751313,0.123745,-0.226566,0.012217,0.051618,0.025045
1765409985.009081,-9.864896,0.206839,0.194285,0.014508,0.057269,0.028558
1765409985.011134,-9.918698,0.142276,0.283357,0.014508,0.057269,0.034667
1765409985.014382,-9.918698,0.142276,0.283357,0.014508,0.057269,0.034667
1765409985.016045,-9.892395,-0.108202,-0.062769,0.016341,0.053603,0.028711
1765409985.016961,-9.996411,0.046628,0.156624,0.016493,0.056963,0.027642
1765409985.020957,-9.996411,0.046628,0.156624,0.016493,0.055894,0.027642
1765409985.024009,-9.867287,0.191296,-0.050813,0.010843,0.056810,0.024129
1765409985.026039,-9.867287,0.191296,-0.050813,0.010843,0.056047,0.024129
1765409985.029001,-9.793758,0.037064,0.027499,0.015424,0.062156,0.035277
1765409985.029501,-9.942013,0.063965,0.186514,0.013592,0.062156,0.028863
1765409985.034051,-9.941415,-0.086083,0.156026,0.010537,0.065973,0.031307
1765409985.036048,-9.899570,-0.070540,-0.004185,0.015577,0.059254,0.029322
1765409985.037022,-10.076518,0.086083,0.169177,0.012370,0.061545,0.020617
1765409985.040999,-9.997607,0.175753,0.221186,0.012523,0.063683,0.024129
1765409985.044011,-9.898971,0.144668,-0.017934,0.014508,0.068875,0.034361
1765409985.044511,-9.817072,0.007174,0.077714,0.012675,0.058948,0.034208
1765409985.048959,-10.056790,-0.038259,0.344333,0.012370,0.059101,0.029474
1765409985.050967,-10.191295,0.100430,0.282162,0.017257,0.060934,0.031307
1765409985.053948,-10.070539,0.002391,0.150646,0.017562,0.055894,0.031154
1765409985.055967,-9.815279,-0.023912,-0.160210,0.010690,0.058796,0.030238
1765409985.058987,-9.675393,0.076518,-0.387374,0.010690,0.058643,0.030238
1765409985.060968,-9.895982,0.197872,-0.093257,0.015119,0.071777,0.031307
1765409985.063088,-10.003586,0.194883,0.291726,0.014966,0.071777,0.036957
1765409985.066037,-10.083092,0.015543,0.473458,0.013134,0.072998,0.036194
1765409985.068989,-9.991630,-0.137494,0.211023,0.011912,0.061850,0.035736
1765409985.070996,-10.004781,-0.125538,0.208034,0.015424,0.054825,0.030238
1765409985.074053,-9.763867,-0.058584,-0.157819,0.015424,0.060323,0.030238
1765409985.076982,-9.586321,0.135103,-0.379603,0.019548,0.060323,0.030849
1765409985.079052,-9.586321,0.135103,-0.379603,0.019548,0.056047,0.030849
1765409985.080990,-9.965326,0.104017,0.186514,0.013439,0.060934,0.035125
1765409985.084009,-10.019128,0.084888,0.189503,0.015424,0.068417,0.032529
1765409985.086089,-9.793758,0.020325,0.015543,0.014813,0.066279,0.037721
1765409985.089069,-9.847560,-0.017336,-0.053802,0.016341,0.061697,0.034667
1765409985.091144,-9.965326,0.051411,0.125538,0.016035,0.062308,0.031001
1765409985.094070,-9.988043,0.130320,0.076518,0.018479,0.068111,0.033750
1765409985.096018,-9.839190,0.053802,0.022716,0.016646,0.069028,0.038943
1765409985.099009,-9.812290,-0.056193,0.022716,0.011912,0.068722,0.033445
1765409985.101055,-9.801530,0.066954,0.028694,0.014661,0.065668,0.032834
1765409985.102015,-9.763867,0.071736,0.038259,0.019700,0.065973,0.032834
1765409985.107935,-9.793160,0.164993,0.070540,0.015730,0.064904,0.033445
1765409985.109004,-9.932447,0.188905,0.096246,0.017257,0.063225,0.037110
1765409985.110977,-9.803921,-0.058584,-0.124342,0.016646,0.057727,0.041539
1765409985.113957,-9.673599,-0.119560,-0.381396,0.016646,0.062461,0.041539
1765409985.116030,-9.826636,-0.037064,-0.052606,0.020617,0.068570,0.030696
1765409985.119099,-10.072930,0.117169,0.347322,0.024435,0.072693,0.032376
1765409985.121082,-9.999999,0.136896,0.367049,0.023976,0.071777,0.032529
1765409985.124078,-9.674795,0.159613,-0.117767,0.019853,0.071166,0.031612
1765409985.126034,-9.689142,0.137494,-0.380201,0.019090,0.064599,0.035125
1765409985.130090,-9.854136,0.080703,-0.107006,0.024740,0.065668,0.040928
1765409985.131044,-9.940218,0.019727,0.159015,0.023060,0.070860,0.038943
1765409985.133988,-10.017933,0.045433,0.172764,0.018326,0.078191,0.037415
1765409985.136017,-9.885221,-0.023314,-0.062769,0.016799,0.074067,0.036194
1765409985.139050,-9.806910,0.059780,-0.011358,0.017715,0.069944,0.032834
1765409985.139550,-9.763269,0.251674,-0.116571,0.015882,0.079107,0.031001
1765409985.143954,-9.759683,0.211023,-0.049020,0.020464,0.076969,0.039401
1765409985.146007,-9.866092,0.049617,0.043042,0.021991,0.074067,0.043982
1765409985.147079,-10.147655,0.101626,0.297704,0.016493,0.071471,0.034514
1765409985.151024,-10.119559,0.059780,0.252272,0.015424,0.076816,0.037415
1765409985.154020,-9.842180,0.002391,-0.028694,0.017410,0.067959,0.037721
1765409985.156060,-9.782400,0.086083,-0.168580,0.018021,0.074373,0.032681
1765409985.159032,-9.659253,0.111191,-0.324008,0.015730,0.074373,0.036652
1765409985.161019,-9.718434,0.117169,-0.277379,0.019548,0.076816,0.041844
1765409985.164025,-9.753705,0.057389,-0.108202,0.019853,0.080787,0.042608
1765409985.165990,-9.840983,0.126734,0.120756,0.016035,0.081245,0.034819
1765409985.167075,-9.925871,0.229555,0.035868,0.019700,0.080940,0.040623
1765409985.171050,-9.872069,0.059780,0.184122,0.019548,0.080940,0.045968
1765409985.173995,-9.872069,0.072932,0.276781,0.020159,0.080940,0.040928
1765409985.176042,-9.855330,0.041248,-0.025108,0.018937,0.076358,0.041539
1765409985.176996,-9.885221,-0.123147,-0.255261,0.021533,0.067501,0.044288
1765409985.181000,-10.005379,-0.036466,0.013152,0.022907,0.083841,0.035888
1765409985.183976,-9.944403,0.100430,0.212817,0.017868,0.083841,0.034056
1765409985.184967,-9.674795,0.204448,-0.143472,0.017257,0.082009,0.037568
1765409985.188168,-9.649688,0.188307,-0.398733,0.017257,0.069486,0.039706
1765409985.191065,-9.738162,0.134505,-0.328790,0.020006,0.071929,0.042302
1765409985.192055,-9.771041,-0.001196,-0.260641,0.025504,0.081551,0.051160
1765409985.196080,-9.720228,-0.145265,-0.069345,0.028405,0.089034,0.049175
1765409985.198982,-9.707077,-0.100430,-0.176351,0.021838,0.086743,0.040012
1765409985.199482,-9.917501,0.141081,-0.037661,0.024435,0.093768,0.033598
1765409985.204073,-9.881634,0.240913,-0.011358,0.028100,0.093768,0.036499
1765409985.206064,-9.852941,0.318030,0.145863,0.019853,0.088728,0.043677
1765409985.207206,-9.892993,0.244500,-0.032281,0.021533,0.085216,0.044746
1765409985.211042,-9.919893,0.001196,-0.182927,0.022297,0.081092,0.053298
1765409985.214121,-9.903154,-0.194285,-0.133309,0.025962,0.087048,0.051160
1765409985.216110,-10.147655,-0.130918,0.385581,0.024435,0.087048,0.038637
1765409985.218995,-10.154830,0.026901,0.362865,0.022755,0.089492,0.034056
1765409985.221026,-9.950381,0.196078,-0.039455,0.025198,0.074373,0.035430
1765409985.224051,-9.892993,0.423242,-0.372429,0.022449,0.074984,0.034819
1765409985.226109,-9.768052,0.386179,-0.491989,0.024129,0.083994,0.045204
1765409985.229071,-9.805116,0.118364,-0.102822,0.028253,0.083689,0.056200
1765409985.231025,-9.924676,-0.163797,0.166786,0.025198,0.086437,0.048869
1765409985.234044,-10.015541,-0.137494,0.037064,0.022297,0.088575,0.040012
1765409985.236018,-9.836202,0.088474,-0.252272,0.025045,0.088117,0.035736
1765409985.239064,-9.836202,0.088474,-0.252272,0.025045,0.080940,0.035736
1765409985.241062,-9.907937,0.502152,0.088474,0.021533,0.082620,0.039859
1765409985.243990,-9.886416,0.301291,-0.148852,0.021075,0.087048,0.053909
1765409985.246037,-9.736967,-0.039455,-0.388570,0.023824,0.076053,0.059865
1765409985.248075,-9.803921,-0.178742,-0.404711,0.020159,0.076053,0.048564
1765409985.250989,-9.803921,-0.178742,-0.404711,0.020159,0.086437,0.048564
1765409985.253991,-9.850550,0.173362,-0.044237,0.024129,0.095753,0.038179
1765409985.254491,-9.756694,0.437590,-0.080105,0.024587,0.089034,0.039248
1765409985.259026,-9.849951,0.537422,-0.130320,0.018173,0.089339,0.044288
1765409985.260978,-9.994618,0.351506,-0.045433,0.020311,0.089339,0.057421
1765409985.264005,-9.857722,-0.100430,-0.120756,0.027794,0.090713,0.063835
1765409985.266091,-9.868484,-0.338355,-0.060976,0.024740,0.085368,0.051313
1765409985.269057,-9.918099,-0.126136,-0.122549,0.023366,0.085368,0.036805
1765409985.271028,-9.991630,0.237327,-0.049617,0.022755,0.090255,0.032376
1765409985.274066,-9.903154,0.558345,-0.145863,0.020617,0.090255,0.039706
1765409985.276038,-10.015541,0.455524,-0.037064,0.021838,0.092852,0.052840
1765409985.279102,-10.125537,0.057389,0.255858,0.024435,0.087506,0.061087
1765409985.281074,-10.138689,-0.339550,0.037064,0.027947,0.079871,0.056047
1765409985.284077,-10.020324,-0.241511,-0.211621,0.025045,0.077885,0.041081
1765409985.286089,-9.857722,0.044835,-0.522477,0.023671,0.082314,0.037415
1765409985.289045,-9.846962,0.315638,-0.250478,0.026573,0.085368,0.040623
1765409985.289545,-9.873264,0.566714,-0.056193,0.026725,0.095295,0.043830
1765409985.292009,-9.953370,0.408895,0.007174,0.027031,0.093921,0.058948
1765409985.296011,-9.953370,0.408895,0.007174,0.027031,0.088270,0.058948
1765409985.298982,-9.991032,-0.246294,-0.104615,0.028100,0.080023,0.054520
1765409985.300997,-9.964130,-0.280966,-0.277379,0.026725,0.081245,0.043371
1765409985.304043,-9.772835,-0.007174,-0.449546,0.032223,0.085674,0.038179
1765409985.306035,-9.660448,0.436394,-0.416069,0.026878,0.088575,0.035277
1765409985.309023,-9.660448,0.436394,-0.416069,0.026878,0.091935,0.035277
1765409985.309523,-10.032280,0.465088,0.027499,0.029169,0.096364,0.062766
1765409985.312147,-9.882831,-0.092061,0.017934,0.028558,0.096669,0.068417
1765409985.316044,-9.836202,-0.324008,-0.156026,0.025656,0.094379,0.054978
1765409985.318277,-9.893590,-0.128527,-0.166188,0.023671,0.088575,0.040317
1765409985.321086,-9.948587,0.289933,0.004782,0.029780,0.089492,0.035277
1765409985.324026,-9.776422,0.674318,-0.179340,0.028405,0.091019,0.044135
1765409985.326100,-9.771639,0.593018,-0.208034,0.024282,0.093157,0.056810
1765409985.327076,-9.756694,0.055595,-0.340746,0.026573,0.088270,0.073762
1765409985.328999,-9.950979,-0.359876,-0.096844,0.029016,0.088270,0.062156
1765409985.334044,-9.875058,-0.203850,-0.087877,0.030696,0.093921,0.041386
1765409985.336033,-9.760879,0.214012,-0.340746,0.026878,0.095600,0.039859
1765409985.339014,-9.882831,0.406504,-0.142874,0.026114,0.089034,0.042150
1765409985.341024,-10.019128,0.523673,0.066954,0.025962,0.090103,0.049633
1765409985.344066,-9.885221,0.293520,-0.090866,0.029322,0.101251,0.062308
1765409985.346092,-9.684361,-0.120158,-0.409493,0.030696,0.094073,0.064904
1765409985.349061,-9.913317,-0.136896,-0.218197,0.027947,0.088881,0.050702
1765409985.351078,-10.124342,0.113582,0.069345,0.032987,0.097738,0.046426
1765409985.354075,-9.928263,0.236729,-0.078910,0.031001,0.104611,0.050396
1765409985.354575,-9.648493,0.394548,-0.504543,0.028405,0.097891,0.054978
1765409985.359075,-9.750119,0.318030,-0.407700,0.031001,0.094531,0.056810
1765409985.361022,-9.892395,0.090866,-0.206241,0.034514,0.099266,0.059865
1765409985.364051,-9.820060,-0.096246,-0.143472,0.035125,0.107970,0.058948
1765409985.364551,-9.855330,0.037064,-0.137494,0.031001,0.109650,0.049175
1765409985.367046,-9.971903,0.349115,-0.059780,0.030391,0.102931,0.045662
1765409985.371082,-9.881634,0.456719,-0.123147,0.029627,0.103084,0.056047
1765409985.374138,-9.851745,0.315638,-0.190100,0.031765,0.104611,0.063072
1765409985.376098,-9.874461,0.135103,-0.144668,0.029169,0.104458,0.063683
1765409985.379046,-9.939621,-0.010760,-0.069943,0.032376,0.103236,0.065363
1765409985.381052,-9.980869,0.109995,-0.004782,0.035125,0.102931,0.056047
1765409985.382061,-9.936632,0.239120,-0.079507,0.035125,0.104611,0.056047
1765409985.386050,-9.710664,0.249880,-0.461502,0.031918,0.094837,0.058185
1765409985.388142,-9.576756,0.182927,-0.753228,0.028711,0.094837,0.061239
1765409985.391144,-9.576756,0.182927,-0.753228,0.028711,0.102778,0.061239
1765409985.394062,-10.032877,0.279173,-0.004185,0.035430,0.120493,0.060018
1765409985.396063,-9.852343,0.111191,-0.112386,0.034667,0.113316,0.066890
1765409985.399156,-9.748325,0.059780,-0.407102,0.029780,0.107360,0.056963
1765409985.401141,-9.918698,0.157819,-0.306671,0.031154,0.107360,0.054214
1765409985.403235,-9.942610,0.236729,-0.176949,0.033292,0.109345,0.058796
1765409985.406094,-9.769248,0.277977,-0.295313,0.030238,0.111330,0.056047
1765409985.407182,-9.840983,0.308465,-0.267814,0.027489,0.110872,0.056810
1765409985.411039,-9.939621,0.270206,-0.242707,0.027489,0.111788,0.056810
1765409985.414078,-9.798540,0.134505,-0.201459,0.035277,0.111330,0.066737
1765409985.416106,-9.825441,0.104017,-0.407102,0.035583,0.110567,0.061239
1765409985.419188,-9.924078,0.025108,-0.395744,0.032376,0.110108,0.062766
1765409985.421104,-9.812290,0.041846,-0.227164,0.036499,0.110108,0.060018
1765409985.423182,-9.934240,0.313247,-0.069345,0.031307,0.114537,0.051007
1765409985.424066,-9.855330,0.451937,-0.389168,0.031001,0.118202,0.053145
1765409985.429139,-9.856527,0.335964,-0.522477,0.035125,0.109192,0.069486
1765409985.431044,-10.019128,0.074127,-0.032281,0.035736,0.121868,0.068264
1765409985.433173,-10.130320,-0.002391,0.347920,0.038026,0.121868,0.064752
1765409985.436045,-9.948587,0.070540,-0.011358,0.038026,0.112246,0.064752
1765409985.439075,-9.831419,0.241511,-0.486609,0.037721,0.093921,0.055131
1765409985.441077,-9.751313,0.432807,-0.706600,0.034361,0.101098,0.060934
1765409985.444091,-9.654470,0.263032,-0.730512,0.040623,0.111941,0.071471
1765409985.446070,-9.707077,-0.080105,-0.400526,0.040012,0.111941,0.073915
1765409985.449047,-9.707077,-0.080105,-0.400526,0.040012,0.109803,0.073915
1765409985.451099,-10.153633,0.251076,-0.114778,0.040164,0.121562,0.051771
1765409985.454016,-9.988043,0.422047,-0.093257,0.041844,0.121562,0.061392
1765409985.456014,-9.818267,0.404113,-0.398733,0.032834,0.111330,0.066126
1765409985.458995,-10.006575,0.310856,-0.133907,0.028405,0.109498,0.062919
1765409985.461033,-10.100429,0.127929,-0.179938,0.034819,0.117897,0.068875
1765409985.464068,-9.946198,0.024510,-0.242707,0.040470,0.109650,0.070402
1765409985.466081,-9.937230,0.188905,-0.331181,0.034972,0.105527,0.054672
1765409985.469028,-10.088473,0.524868,-0.190100,0.034972,0.112094,0.054672
1765409985.470017,-9.855330,0.373027,-0.384385,0.038790,0.112094,0.073151
1765409985.474051,-9.776422,0.166188,-0.356289,0.036805,0.104916,0.072235
1765409985.476032,-9.782400,0.065758,-0.547585,0.034056,0.109650,0.065057
1765409985.479041,-9.912720,0.167384,-0.463893,0.044440,0.110108,0.071319
1765409985.480051,-10.034073,0.249880,-0.031086,0.039554,0.113774,0.064599
1765409985.484039,-10.019128,0.316834,0.025108,0.037721,0.124158,0.065057
1765409985.486014,-9.624580,0.066356,-0.582855,0.039554,0.114385,0.074831
1765409985.489042,-9.598277,0.098039,-0.612147,0.038790,0.103694,0.064599
1765409985.491042,-9.885221,0.527260,-0.228360,0.035125,0.103694,0.051771
1765409985.494096,-9.885221,0.561932,-0.414873,0.035125,0.122937,0.051771
1765409985.495083,-9.495455,0.193089,-0.813606,0.042761,0.112246,0.083230
1765409985.499038,-9.840983,0.048422,-0.430416,0.040164,0.105680,0.066584
1765409985.501037,-10.216402,0.261836,0.115973,0.037415,0.120340,0.059559
1765409985.504064,-9.869678,0.444763,-0.215208,0.042761,0.124158,0.064446
1765409985.504564,-9.704088,0.496174,-0.561932,0.036652,0.109650,0.065363
1765409985.507078,-9.894786,0.468675,-0.304878,0.034056,0.115606,0.066890
1765409985.511118,-9.891200,0.194883,-0.312649,0.038637,0.121104,0.078802
1765409985.513132,-9.880439,0.032281,-0.483022,0.039706,0.118508,0.076205
1765409985.516087,-10.095646,0.218795,-0.234935,0.033598,0.120340,0.059407
1765409985.519056,-10.089668,0.554758,-0.138690,0.039248,0.122173,0.064752
1765409985.521072,-9.803921,0.328192,-0.341344,0.040012,0.121562,0.075595
1765409985.524069,-9.731586,0.205045,-0.509923,0.032529,0.116217,0.072388
1765409985.526049,-9.882831,0.144070,-0.352702,0.035583,0.113926,0.067501
1765409985.529042,-9.797942,0.185318,-0.449546,0.040623,0.120340,0.069180
1765409985.531092,-9.814680,0.364060,-0.664754,0.040775,0.115606,0.062919
1765409985.532087,-9.885221,0.404113,-0.415471,0.035583,0.125227,0.060323
1765409985.536029,-9.965326,0.456121,-0.179340,0.043371,0.136223,0.070860
1765409985.539052,-9.666426,0.264825,-0.386179,0.038790,0.124311,0.071777
1765409985.539552,-9.709468,0.410689,-0.482425,0.028863,0.121104,0.062461
1765409985.544045,-9.936632,0.494381,-0.594213,0.037110,0.129045,0.065973
1765409985.546027,-9.895385,0.192492,-0.306074,0.044135,0.127976,0.084147
1765409985.549057,-10.018531,0.031086,-0.115973,0.041997,0.127976,0.071471
1765409985.550089,-10.159015,0.393352,-0.162602,0.037721,0.129351,0.052534
1765409985.553142,-9.886416,0.530846,-0.523075,0.038026,0.127060,0.065363
1765409985.556101,-9.625775,0.560736,-0.637255,0.039859,0.119730,0.073609
1765409985.559118,-9.860114,0.355691,-0.439981,0.036499,0.121868,0.070860
1765409985.561026,-10.032280,0.142276,-0.436394,0.036805,0.121868,0.073762
1765409985.564114,-9.814083,0.043042,-0.665351,0.044135,0.125380,0.069486
1765409985.566090,-9.903154,0.368245,-0.351506,0.042455,0.129503,0.059407
1765409985.569093,-10.071137,0.598398,-0.151841,0.041844,0.131031,0.064446
1765409985.571097,-9.787182,0.377810,-0.377810,0.038485,0.124617,0.074984
1765409985.574097,-9.745934,0.208632,-0.839311,0.036346,0.117592,0.074220
1765409985.576059,-9.745934,0.208632,-0.839311,0.036346,0.121257,0.074220
1765409985.577083,-10.176947,0.461502,-0.258250,0.040775,0.138361,0.073304
1765409985.581033,-10.023313,0.341942,-0.118364,0.039554,0.139277,0.076205
1765409985.582087,-10.040051,0.186514,-0.213415,0.029322,0.133321,0.069028
1765409985.586084,-9.818267,0.217599,-0.645026,0.037874,0.127365,0.070555
1765409985.589123,-9.830821,0.264228,-0.486609,0.042150,0.122478,0.071471
1765409985.591107,-9.890003,0.468675,-0.357484,0.037874,0.134238,0.064599
1765409985.594090,-9.942610,0.445959,-0.602582,0.040012,0.134238,0.071777
1765409985.596104,-9.683165,0.089670,-0.958871,0.041233,0.125380,0.081551
1765409985.597136,-10.041844,0.181731,-0.455524,0.040623,0.122784,0.066126
1765409985.599082,-10.278573,0.469273,0.046628,0.036194,0.137750,0.061239
1765409985.604043,-10.070539,0.583453,-0.261836,0.037721,0.121868,0.073457
1765409985.605173,-9.805116,0.321616,-0.855452,0.036346,0.121868,0.078038
1765409985.609161,-9.805116,0.321616,-0.855452,0.036346,0.118508,0.078038
1765409985.611211,-10.020324,0.292324,-0.430416,0.044746,0.130878,0.073304
1765409985.614065,-9.919296,0.306671,-0.379005,0.039095,0.134849,0.075442
1765409985.616129,-10.021520,0.455524,-0.361071,0.034667,0.128893,0.066584
1765409985.618086,-10.060975,0.465686,-0.504543,0.037415,0.128893,0.072540
1765409985.621054,-10.060975,0.465686,-0.504543,0.037415,0.122173,0.072540
1765409985.624109,-9.872069,0.208034,-0.420253,0.035888,0.135612,0.067195
1765409985.626094,-9.976088,0.545194,-0.485414,0.039554,0.135612,0.064599
1765409985.629090,-9.814083,0.463893,-0.859636,0.042761,0.124922,0.085216
1765409985.631338,-9.769248,0.097441,-0.773553,0.043524,0.119730,0.082161
1765409985.632099,-9.994021,0.247489,-0.240316,0.042150,0.134390,0.068111
1765409985.636117,-10.063366,0.434003,-0.046628,0.042608,0.127671,0.073762
1765409985.639100,-9.856527,0.393950,-0.326399,0.042455,0.127671,0.078496
1765409985.641119,-9.812290,0.327594,-0.804639,0.037874,0.113316,0.075442
1765409985.644112,-9.758488,0.152439,-0.861430,0.037415,0.121715,0.077274
1765409985.645076,-9.606647,0.254065,-0.851267,0.050244,0.130878,0.078496
1765409985.649058,-9.621591,0.343137,-0.642037,0.040623,0.137903,0.073457
1765409985.651086,-9.693925,0.496174,-0.613343,0.039859,0.138666,0.071471
1765409985.654070,-9.729793,0.389766,-0.670732,0.044440,0.132863,0.077885
1765409985.656083,-9.560018,0.300096,-0.595409,0.040317,0.135765,0.076969
1765409985.659066,-9.775226,0.423242,-0.460306,0.038485,0.135765,0.070708
1765409985.659566,-9.794952,0.461502,-0.401722,0.045968,0.140804,0.080634
1765409985.662066,-9.686153,0.196078,-0.703013,0.045357,0.135001,0.089797
1765409985.666088,-9.750119,0.179938,-0.730512,0.045357,0.132710,0.089797
1765409985.669095,-9.945002,0.508130,-0.334768,0.044899,0.136987,0.072388
1765409985.669595,-9.812290,0.601387,-0.402917,0.044746,0.138361,0.080329
1765409985.674036,-9.812290,0.601387,-0.402917,0.044746,0.137139,0.080329
1765409985.676048,-9.775226,0.211621,-0.675514,0.042455,0.141110,0.084452
1765409985.679093,-9.914514,0.100430,-0.381396,0.052534,0.147982,0.089950
1765409985.681072,-9.994021,0.099235,-0.481827,0.044746,0.143553,0.083383
1765409985.684026,-10.123145,0.358680,-0.429220,0.043524,0.143553,0.071624
1765409985.686106,-10.123145,0.358680,-0.429220,0.043524,0.150120,0.071624
1765409985.689043,-9.833811,0.535629,-0.701817,0.049480,0.148593,0.089034
1765409985.691045,-10.008368,0.420253,-0.337159,0.038943,0.142790,0.077580
1765409985.694052,-10.159015,0.462697,-0.392157,0.045509,0.145691,0.084758
1765409985.695216,-9.940817,0.130320,-0.662362,0.047800,0.143706,0.095753
1765409985.699070,-10.007172,0.260043,-0.610952,0.047037,0.138972,0.076511
1765409985.699570,-10.178144,0.578670,-0.214610,0.045968,0.147677,0.075136
1765409985.702081,-9.843375,0.538020,-0.656384,0.043982,0.147371,0.088270
1765409985.706133,-9.679578,0.398135,-1.104735,0.042761,0.139583,0.087048
1765409985.707211,-9.792562,0.433405,-0.595409,0.045357,0.139583,0.082467
1765409985.711084,-9.774031,0.365854,-0.600191,0.046120,0.149662,0.091019
1765409985.714054,-9.647297,0.328192,-0.840507,0.048717,0.136223,0.089034
1765409985.716086,-9.820060,0.414873,-0.901482,0.045051,0.136376,0.080787
1765409985.717149,-10.038857,0.461502,-0.903874,0.045051,0.143248,0.088117
1765409985.719165,-9.930654,0.359876,-0.676710,0.050396,0.148593,0.090103
1765409985.726484,-9.986848,0.398135,-0.288140,0.050244,0.155923,0.089492
1765409985.726984,-9.891200,0.367049,-0.682688,0.047495,0.155312,0.088728
1765409985.729109,-9.991630,0.287542,-0.877571,0.055589,0.136223,0.090255
1765409985.731118,-10.196077,0.379603,-0.350311,0.055589,0.143095,0.090255
1765409985.734105,-10.027497,0.571497,-0.398135,0.056658,0.154396,0.083689
1765409985.736128,-9.718434,0.512912,-0.870397,0.052076,0.145233,0.089492
1765409985.737077,-9.785389,0.431612,-0.900287,0.048258,0.140194,0.086132
1765409985.741126,-10.106407,0.623505,-0.490196,0.047342,0.140194,0.086285
1765409985.744080,-9.994618,0.398733,-0.551172,0.053145,0.146150,0.094379
1765409985.746146,-9.623982,0.238522,-0.816595,0.050702,0.142484,0.095448
1765409985.749074,-9.779410,0.365854,-0.858441,0.047037,0.135307,0.082314
1765409985.751078,-10.072930,0.565519,-0.503945,0.048411,0.136070,0.084147
1765409985.752111,-9.821855,0.598996,-0.886537,0.055589,0.138361,0.092546
1765409985.756062,-9.531323,0.518890,-1.095170,0.049938,0.141721,0.090103
1765409985.759079,-9.496651,0.492587,-0.975610,0.044135,0.147677,0.089034
1765409985.759579,-9.638927,0.357484,-0.885940,0.051313,0.137597,0.095906
1765409985.764093,-9.747129,0.326399,-0.865614,0.054672,0.150884,0.092852
1765409985.766091,-9.855330,0.582855,-0.685677,0.054978,0.150884,0.085827
1765409985.769085,-9.872069,0.463893,-0.374821,0.047953,0.156534,0.092546
1765409985.770101,-9.697512,0.548780,-0.677307,0.047342,0.142484,0.091630
1765409985.774105,-9.759085,0.657580,-0.909852,0.041692,0.135459,0.089950
1765409985.776117,-9.769248,0.546987,-1.023434,0.046731,0.150884,0.097586
1765409985.779071,-9.772237,0.351506,-0.999522,0.050855,0.150884,0.101098
1765409985.781117,-9.965326,0.478240,-0.424438,0.051465,0.155007,0.089492
1765409985.784173,-10.029889,0.461502,-0.273195,0.048411,0.157298,0.088728
1765409985.786131,-9.708273,0.546389,-0.872788,0.050855,0.145539,0.095906
1765409985.789074,-9.522954,0.454328,-1.318149,0.047800,0.139277,0.093921
1765409985.791088,-9.661644,0.664156,-0.748446,0.050244,0.150426,0.089644
1765409985.794092,-9.725011,0.564323,-0.710186,0.050244,0.162490,0.089644
1765409985.796139,-9.610233,0.331181,-0.969632,0.051924,0.151495,0.108734
1765409985.797162,-9.723815,0.228957,-0.896102,0.045815,0.148440,0.091783
1765409985.801151,-9.973696,0.520086,-0.640842,0.046884,0.151647,0.085521
1765409985.804168,-9.685556,0.492587,-1.089192,0.049480,0.160352,0.097738
1765409985.806122,-9.450023,0.435198,-1.311573,0.046120,0.155160,0.098349
1765409985.809144,-10.084887,0.543998,-0.245098,0.045968,0.167530,0.091630
1765409985.809644,-10.163198,0.492587,-0.126136,0.053909,0.167530,0.103084
1765409985.814129,-9.640123,0.154830,-1.010282,0.053451,0.155312,0.105680
1765409985.816132,-9.506814,0.346724,-1.552487,0.049480,0.145844,0.085827
1765409985.819130,-10.011955,0.661167,-0.716164,0.052229,0.155312,0.083078
1765409985.822436,-9.949782,0.739479,-0.508130,0.056047,0.160047,0.100182
1765409985.824116,-9.796746,0.748446,-0.873984,0.051007,0.160047,0.096517
1765409985.825151,-9.873264,0.657580,-0.940937,0.040164,0.162032,0.097738
1765409985.830137,-10.089668,0.478240,-0.810617,0.057421,0.158214,0.109192
1765409985.831098,-9.867287,0.293520,-0.885342,0.057574,0.156076,0.108123
1765409985.834142,-9.867287,0.293520,-0.885342,0.057574,0.161421,0.108123
1765409985.836136,-9.986848,0.498565,-0.922405,0.053909,0.163712,0.094837
1765409985.839098,-9.741151,0.638450,-0.885940,0.057727,0.160047,0.104916
1765409985.841114,-9.843375,0.662362,-0.969632,0.049938,0.161421,0.097128
1765409985.843110,-10.119559,0.604974,-0.822573,0.046578,0.161421,0.104153
1765409985.846082,-10.119559,0.604974,-0.822573,0.046578,0.160658,0.104153
1765409985.849078,-9.973696,0.292922,-0.772358,0.051160,0.157603,0.093921
1765409985.849578,-10.130320,0.624103,-0.561932,0.050549,0.165544,0.089339
1765409985.854124,-9.824244,0.619321,-0.911047,0.052993,0.160810,0.104153
1765409985.856073,-9.626971,0.598996,-1.184840,0.050855,0.148288,0.102014
1765409985.859090,-9.626971,0.598996,-1.184840,0.050855,0.152716,0.102014
1765409985.861151,-9.763269,0.595409,-0.882353,0.055589,0.158825,0.107207
1765409985.864129,-9.710065,0.387374,-1.064084,0.056047,0.146913,0.107970
1765409985.866074,-9.855929,0.471664,-0.939742,0.050855,0.162643,0.092852
1765409985.869100,-9.823050,0.786705,-0.865614,0.054672,0.162643,0.094684
1765409985.871054,-9.603060,0.834529,-1.066475,0.060628,0.155007,0.104611
1765409985.874107,-9.764465,0.703611,-0.775347,0.049327,0.151036,0.100029
1765409985.876150,-9.894188,0.763988,-0.813008,0.046731,0.154396,0.095295
1765409985.879081,-9.740554,0.578073,-1.196796,0.050244,0.154396,0.107207
1765409985.881111,-9.556431,0.419656,-1.334888,0.052229,0.150120,0.104611
1765409985.884109,-9.995814,0.801052,-0.579268,0.052687,0.163559,0.085827
1765409985.885136,-9.875656,0.846485,-0.630081,0.054367,0.171653,0.098197
1765409985.889064,-9.611428,0.720349,-1.129842,0.049022,0.162185,0.104916
1765409985.891163,-9.611428,0.720349,-1.129842,0.049022,0.157756,0.104916
1765409985.892116,-10.035867,0.542802,-0.557150,0.046426,0.160658,0.107360
1765409985.896120,-9.866092,0.316834,-0.642635,0.051618,0.161879,0.107970
1765409985.897195,-9.680773,0.534433,-1.084409,0.048258,0.159436,0.093004
1765409985.901105,-9.615016,0.741272,-1.260760,0.041539,0.163254,0.090103
1765409985.904170,-9.615016,0.741272,-1.260760,0.041539,0.161879,0.090103
1765409985.906105,-9.726207,0.824366,-0.668938,0.051618,0.164323,0.100029
1765409985.908162,-9.791965,0.775347,-0.667145,0.045662,0.167988,0.102320
1765409985.912173,-9.595288,0.493783,-1.305595,0.046273,0.161727,0.106291
1765409985.913229,-9.525944,0.455524,-1.555476,0.051160,0.155312,0.099418
1765409985.916253,-9.752509,0.598398,-1.113701,0.051313,0.167224,0.094226
1765409985.918247,-9.820659,0.761597,-0.697035,0.049786,0.177304,0.095142
1765409985.921207,-9.703490,0.778336,-0.798661,0.042913,0.177609,0.095295
1765409985.924105,-9.829028,0.755021,-0.841702,0.043982,0.170890,0.101251
1765409985.926134,-9.850550,0.514706,-1.054519,0.047647,0.170890,0.103542
1765409985.929092,-9.662840,0.488403,-1.319345,0.053451,0.168599,0.101404
1765409985.931096,-9.748923,0.505739,-0.984577,0.045815,0.173180,0.093462
1765409985.934050,-9.951577,0.680894,-0.817790,0.050244,0.174860,0.097128
1765409985.936057,-9.931850,0.659971,-0.795672,0.045204,0.163865,0.104458
1765409985.939091,-9.811692,0.641439,-1.206958,0.042150,0.163865,0.100335
1765409985.941089,-9.904350,0.780727,-1.151363,0.041539,0.175318,0.101251
1765409985.944063,-9.916306,0.567910,-1.033596,0.043524,0.176235,0.111177
1765409985.944563,-9.916306,0.567910,-1.033596,0.043524,0.171348,0.111177
1765409985.949151,-10.285748,0.588235,-0.709589,0.040623,0.172264,0.096975
1765409985.951144,-9.992825,0.506934,-0.980392,0.043677,0.175013,0.101709
1765409985.952144,-9.563604,0.507532,-1.438307,0.051771,0.170126,0.105374
1765409985.956125,-9.640123,0.697035,-1.306791,0.048869,0.167683,0.100640
1765409985.959124,-10.104015,0.787900,-0.577475,0.044593,0.174249,0.104916
1765409985.961132,-10.136297,0.518890,-0.691057,0.050549,0.171042,0.114995
1765409985.962152,-9.678980,0.493783,-1.346246,0.048106,0.164017,0.109345
1765409985.965062,-9.577952,0.463893,-1.474175,0.044135,0.164628,0.099724
1765409985.969081,-9.771639,0.671927,-1.175275,0.052534,0.163254,0.105374
1765409985.970099,-9.861907,0.597800,-0.907460,0.050702,0.165392,0.108734
1765409985.974122,-9.788378,0.667145,-0.928981,0.047495,0.170279,0.102473
1765409985.977108,-9.600669,0.786107,-1.105930,0.049480,0.178220,0.106138
1765409985.979111,-9.552844,0.514108,-1.557867,0.051007,0.164323,0.119424
1765409985.981141,-9.850550,0.416667,-1.249402,0.051313,0.174860,0.111788
1765409985.984101,-10.109993,0.619321,-0.652200,0.054825,0.174860,0.104305
1765409985.987181,-9.790769,0.640842,-1.152558,0.053756,0.180358,0.113468
1765409985.989122,-9.362145,0.520684,-1.530368,0.049633,0.169210,0.115148
1765409985.989622,-9.652678,0.742468,-1.302009,0.049633,0.164934,0.115148
1765409985.994097,-10.110592,0.698230,-0.756815,0.052076,0.180663,0.115759
1765409985.995136,-9.748923,0.365854,-1.011478,0.055741,0.180663,0.124769
1765409985.998408,-9.773433,0.520086,-1.076638,0.051924,0.171195,0.104916
1765409986.000177,-9.748923,0.698230,-1.001315,0.049327,0.177915,0.104458
1765409986.004144,-9.870873,0.757413,-0.968436,0.058032,0.173028,0.116828
1765409986.006129,-9.914514,0.718556,-0.948111,0.059712,0.169515,0.113621
1765409986.007123,-9.837397,0.766977,-1.195600,0.051771,0.174555,0.109192
1765409986.011157,-9.811692,0.661167,-1.326518,0.053298,0.177304,0.113926
1765409986.014280,-9.765661,0.741272,-1.024629,0.060170,0.173944,0.115912
1765409986.016188,-9.913916,0.805834,-0.689263,0.056352,0.173944,0.113774
1765409986.019194,-9.913916,0.805834,-0.689263,0.056352,0.169973,0.113774
1765409986.019694,-9.842180,0.769966,-1.506456,0.050855,0.169362,0.113468
1765409986.024092,-9.650884,0.840507,-1.383309,0.044899,0.175624,0.116064
1765409986.026130,-9.729196,0.836322,-0.997130,0.049022,0.184634,0.118508
1765409986.029211,-9.678980,0.703013,-1.166906,0.048106,0.184634,0.123242
1765409986.032032,-9.703490,0.585844,-1.335485,0.051924,0.169362,0.120799
1765409986.034161,-9.904350,0.630081,-1.229077,0.048411,0.176693,0.114537
1765409986.036147,-10.043041,0.718556,-0.872788,0.058643,0.178525,0.119424
1765409986.039147,-9.848158,0.625299,-0.893711,0.055436,0.167530,0.119424
1765409986.041155,-9.595288,0.716164,-1.543520,0.052076,0.167530,0.118050
1765409986.044111,-9.643112,0.720349,-1.660688,0.052229,0.167072,0.121562
1765409986.046174,-9.928861,0.664754,-1.373744,0.057727,0.171806,0.122326
1765409986.049096,-10.130917,0.797465,-0.789694,0.060170,0.171806,0.121257
1765409986.051100,-9.952772,0.630081,-1.182449,0.052993,0.180511,0.116828
1765409986.054119,-9.699903,0.710784,-1.808943,0.058032,0.164934,0.117133
1765409986.056083,-9.587517,0.728120,-1.664873,0.058490,0.168446,0.117133
1765409986.059149,-9.841581,0.834529,-1.087996,0.061392,0.178220,0.116370
1765409986.059649,-10.051410,0.808226,-0.595409,0.060476,0.184787,0.124464
1765409986.064154,-9.777617,0.643233,-1.244620,0.054825,0.168904,0.122631
1765409986.066144,-9.805116,0.865614,-1.476566,0.053145,0.162185,0.115454
1765409986.069148,-9.704685,0.906265,-1.460425,0.056352,0.170126,0.123089
1765409986.071138,-9.687349,0.778933,-1.276901,0.055589,0.166919,0.126907
1765409986.074158,-9.657459,0.595409,-1.327116,0.048717,0.170431,0.122173
1765409986.076103,-9.803323,0.891918,-1.322334,0.048717,0.175776,0.122173
1765409986.079173,-9.592299,0.680296,-1.556671,0.056963,0.163712,0.135001
1765409986.081194,-9.610831,0.665949,-1.448470,0.060170,0.163712,0.128282
1765409986.084164,-9.657459,0.653395,-1.327116,0.052382,0.176540,0.122020
1765409986.086156,-9.608439,0.609158,-1.398254,0.055741,0.182649,0.130420
1765409986.089141,-9.610233,0.572692,-1.325920,0.061545,0.173486,0.124006
1765409986.092089,-9.699903,0.894309,-1.093974,0.060170,0.181885,0.113621
1765409986.094066,-9.565996,0.952893,-1.724055,0.056200,0.181885,0.124769
1765409986.096142,-9.370515,0.879962,-1.570421,0.061392,0.184939,0.130725
1765409986.098254,-9.751911,0.846485,-0.951698,0.058032,0.184939,0.125227
1765409986.102195,-9.947392,0.839311,-0.577475,0.056047,0.185856,0.130267
1765409986.104105,-9.525346,0.673123,-1.493304,0.048869,0.177151,0.126449
1765409986.106148,-9.461381,0.851267,-1.981707,0.049175,0.164475,0.122631
1765409986.109174,-9.752509,0.927786,-1.431731,0.055436,0.180358,0.127976
1765409986.111143,-9.878048,0.789096,-0.997728,0.059559,0.189368,0.133321
1765409986.114170,-9.652080,0.634864,-1.256576,0.053909,0.191201,0.132710
1765409986.116170,-9.772835,0.689861,-1.220708,0.055741,0.178831,0.125380
1765409986.121289,-9.818267,0.886537,-1.305595,0.061697,0.176693,0.122173
1765409986.121789,-9.670610,0.923601,-1.424557,0.063225,0.170890,0.130725
1765409986.124138,-9.556431,0.760402,-1.436514,0.053145,0.183412,0.125075
1765409986.126131,-9.670013,0.905069,-1.355811,0.061850,0.189368,0.127060
1765409986.129172,-9.893590,0.745457,-1.052128,0.064294,0.184481,0.133016
1765409986.131166,-9.775226,0.729316,-1.457436,0.062461,0.178984,0.124922
1765409986.134132,-9.830821,0.933764,-1.524390,0.058338,0.182038,0.120799
1765409986.136233,-9.762672,0.827355,-1.366571,0.064752,0.195171,0.128129
1765409986.139138,-9.886416,0.842300,-1.171090,0.067806,0.186008,0.130878
1765409986.141128,-9.920491,0.891918,-1.145385,0.058185,0.181732,0.120951
1765409986.144107,-9.880439,1.141798,-1.426351,0.062614,0.187994,0.119271
1765409986.146093,-9.589908,1.041368,-1.730033,0.065210,0.187077,0.136528
1765409986.147136,-9.739956,0.749641,-1.465208,0.062003,0.171806,0.131641
1765409986.151109,-10.070539,0.824964,-0.978001,0.054520,0.187688,0.116217
1765409986.154185,-9.750119,1.085605,-1.573410,0.062003,0.186619,0.120951
1765409986.155136,-9.329267,1.082018,-2.005021,0.055741,0.178067,0.124617
1765409986.160530,-9.522954,1.244022,-1.759923,0.055741,0.173791,0.118202
1765409986.161030,-9.893590,1.042563,-1.163917,0.057879,0.187688,0.132710
1765409986.164170,-9.531323,0.648613,-1.421569,0.058490,0.193644,0.143706
1765409986.166199,-9.487684,0.754424,-1.685198,0.053909,0.184481,0.120340
1765409986.170001,-9.894786,1.047346,-1.328312,0.053909,0.180816,0.116828
1765409986.171215,-9.835604,1.073051,-1.271520,0.060476,0.180663,0.130267
1765409986.174137,-9.547464,0.924797,-1.496293,0.057116,0.185092,0.129809
1765409986.176145,-9.613222,1.087996,-1.539933,0.055436,0.184634,0.125533
1765409986.179207,-9.795551,0.936753,-1.559062,0.056963,0.179136,0.134543
1765409986.181198,-9.732184,0.731707,-1.517814,0.058338,0.173791,0.130878
1765409986.184147,-9.806910,1.003108,-1.496293,0.057421,0.188757,0.123700
1765409986.186101,-9.652080,0.795672,-1.403634,0.052382,0.192117,0.129656
1765409986.189109,-9.683763,0.939742,-1.644548,0.052687,0.176998,0.122478
1765409986.192154,-9.880439,1.171090,-1.470588,0.049786,0.184481,0.118508
1765409986.194181,-9.677187,1.120277,-1.483142,0.054978,0.203265,0.135459
1765409986.195182,-9.641916,0.830942,-1.258967,0.060018,0.201433,0.139735
1765409986.199148,-9.831419,0.687470,-1.219512,0.053145,0.185245,0.129656
1765409986.201194,-9.960544,0.907460,-1.352224,0.055131,0.185245,0.122020
1765409986.204178,-9.630558,0.968436,-1.773075,0.062614,0.191354,0.127060
1765409986.206139,-9.503824,1.128646,-1.758728,0.061850,0.187230,0.129198
1765409986.209161,-9.918698,0.987566,-1.269727,0.052076,0.185550,0.128434
1765409986.211102,-9.806311,0.824964,-1.590148,0.057421,0.187383,0.133016
1765409986.213201,-9.506216,0.732903,-2.031922,0.060628,0.187383,0.133321
1765409986.216264,-9.506216,0.732903,-2.031922,0.060628,0.193644,0.133321
1765409986.219165,-9.885221,1.190818,-1.122668,0.059559,0.187688,0.122631
1765409986.221221,-9.615016,1.054519,-1.842420,0.051465,0.187688,0.132558
1765409986.224184,-9.615016,1.054519,-1.842420,0.051465,0.185398,0.132558
1765409986.226139,-9.774031,1.000119,-1.593137,0.055436,0.204029,0.134238
1765409986.227180,-9.774031,1.000119,-1.593137,0.055436,0.193797,0.134238
1765409986.232527,-10.017933,0.688068,-1.148972,0.051160,0.181580,0.130114
1765409986.234209,-9.709468,0.857245,-1.939263,0.047037,0.181580,0.127976
1765409986.236165,-9.532519,0.876973,-2.263271,0.051007,0.178678,0.131794
1765409986.239176,-9.719033,0.975610,-1.639168,0.061850,0.183718,0.134238
1765409986.241156,-9.824244,0.891918,-1.291248,0.055894,0.198837,0.138208
1765409986.244151,-9.696316,0.830344,-1.444285,0.059407,0.191964,0.139583
1765409986.246164,-9.625775,0.740076,-1.684600,0.061087,0.177456,0.136681
1765409986.247219,-9.741750,0.907460,-1.594930,0.059254,0.179594,0.132558
1765409986.251121,-9.653275,1.031803,-1.722860,0.063225,0.190132,0.133474
1765409986.252117,-9.289812,0.900885,-1.935676,0.061239,0.190132,0.140194
1765409986.256108,-9.516378,0.803443,-1.820301,0.061087,0.183718,0.136376
1765409986.259136,-9.581538,0.932568,-1.763510,0.058338,0.183718,0.134696
1765409986.261122,-9.508607,0.886537,-1.914156,0.061545,0.189216,0.140041
1765409986.264206,-9.361548,0.918819,-1.879483,0.063988,0.198073,0.138514
1765409986.264706,-9.954566,1.065280,-1.028814,0.060476,0.198073,0.135918
1765409986.269183,-9.954566,1.065280,-1.028814,0.060476,0.193339,0.135918
1765409986.271149,-9.388450,0.819584,-2.199904,0.060323,0.179289,0.146150
1765409986.274136,-9.285029,0.926590,-2.226805,0.057727,0.178220,0.134238
1765409986.276179,-9.826636,1.337876,-1.322931,0.069944,0.192881,0.142484
1765409986.279140,-9.916306,0.887135,-1.031803,0.066432,0.192881,0.158367
1765409986.281157,-9.916306,0.887135,-1.031803,0.066432,0.184481,0.158367
1765409986.283220,-9.604255,1.107126,-2.257293,0.061850,0.190895,0.140041
1765409986.286141,-9.659253,1.052128,-1.734816,0.071777,0.201738,0.153022
1765409986.289174,-9.814680,1.051530,-1.229077,0.067501,0.199753,0.147982
1765409986.291191,-9.863700,1.043161,-1.255978,0.052534,0.208610,0.141568
1765409986.294141,-9.721423,1.211741,-1.636179,0.064446,0.205862,0.146760
1765409986.297132,-9.839788,1.159732,-1.443687,0.071624,0.195019,0.159741
1765409986.299145,-9.687947,0.882353,-1.657699,0.061392,0.189674,0.152411
1765409986.301194,-9.907937,0.948111,-1.516021,0.051313,0.193033,0.142026
1765409986.304314,-9.770443,0.973218,-1.651124,0.060170,0.207083,0.148288
1765409986.306138,-9.564800,0.912841,-1.704926,0.061697,0.192270,0.149204
1765409986.307184,-9.560018,1.062291,-2.013391,0.052840,0.185092,0.140346
1765409986.311208,-9.872069,1.317551,-1.786824,0.057574,0.199753,0.140346
1765409986.313195,-9.522357,0.995935,-2.104256,0.065973,0.195935,0.162796
1765409986.316224,-9.922284,0.942133,-1.267336,0.064599,0.195935,0.151647
1765409986.319276,-10.139884,1.093974,-1.107126,0.055436,0.206014,0.137445
1765409986.321240,-9.831419,1.113104,-1.576996,0.060934,0.197157,0.153785
1765409986.324195,-9.347799,1.074247,-2.398374,0.063988,0.188452,0.148135
1765409986.326283,-9.347799,1.074247,-2.398374,0.063988,0.184329,0.148135
1765409986.330589,-9.975489,0.828551,-1.262554,0.061697,0.204182,0.154854
1765409986.331221,-9.603060,0.964849,-1.902798,0.073762,0.201738,0.151647
1765409986.332220,-9.130797,0.903874,-2.262075,0.057574,0.201891,0.147524
1765409986.335229,-9.482305,1.285270,-1.890841,0.063377,0.191812,0.135459
1765409986.337226,-9.744141,1.538737,-1.566834,0.062156,0.197157,0.150884
1765409986.341152,-9.712457,1.123864,-1.649928,0.058338,0.190590,0.157145
1765409986.344198,-9.430295,1.218914,-2.094691,0.064904,0.206778,0.153174
1765409986.346196,-9.265901,0.920612,-2.417503,0.066126,0.196851,0.158520
1765409986.347178,-9.827832,0.966045,-1.450263,0.062614,0.196851,0.152258
1765409986.351217,-9.898373,1.218914,-1.615256,0.064294,0.205403,0.146302
1765409986.354185,-9.504422,1.199187,-2.049258,0.061087,0.208458,0.154243
1765409986.357239,-9.354375,1.199187,-2.382831,0.060934,0.200669,0.150426
1765409986.359148,-9.966521,1.401243,-1.117288,0.064141,0.204334,0.153327
1765409986.360179,-9.733380,1.036585,-1.561454,0.064294,0.209985,0.169210
1765409986.364149,-9.467957,0.869799,-2.235174,0.064752,0.198226,0.154091
1765409986.365164,-9.622189,1.117886,-2.050454,0.065210,0.201433,0.142332
1765409986.369168,-9.915112,1.218316,-1.373744,0.064294,0.203724,0.154549
1765409986.371180,-9.520563,1.052128,-1.899808,0.063683,0.200822,0.155312
1765409986.374147,-9.347201,1.293041,-2.406743,0.054367,0.200822,0.142484
1765409986.376157,-9.754303,1.308584,-2.065997,0.055436,0.205556,0.151647
1765409986.379126,-9.973696,1.276901,-1.376136,0.066279,0.207541,0.160047
1765409986.381143,-10.112385,1.310378,-1.142396,0.061239,0.218232,0.151036
1765409986.384147,-9.756694,1.286466,-1.668460,0.057269,0.220064,0.152564
1765409986.385145,-9.550453,1.099952,-2.091105,0.059407,0.198378,0.156840
1765409986.389142,-9.771041,1.135820,-1.823888,0.063530,0.188299,0.152258
1765409986.391175,-9.824843,1.345050,-1.713295,0.063225,0.200517,0.145539
1765409986.394118,-9.446436,1.389287,-2.325442,0.061545,0.205251,0.150120
1765409986.396110,-9.353179,1.175275,-2.381037,0.061087,0.198531,0.154091
1765409986.399187,-9.694523,1.100550,-2.033118,0.064446,0.195630,0.149051
1765409986.401161,-9.694523,1.100550,-2.033118,0.064446,0.201127,0.149051
1765409986.404156,-9.650884,1.468197,-2.027140,0.056963,0.206625,0.141873
1765409986.406150,-9.620994,1.518412,-1.905787,0.051618,0.206625,0.146913
1765409986.409216,-9.620994,1.518412,-1.905787,0.051618,0.204334,0.146913
1765409986.410176,-9.846365,1.321138,-1.559660,0.056505,0.196546,0.160199
1765409986.414149,-9.448229,1.011478,-2.201100,0.049175,0.189674,0.152564
1765409986.416138,-9.446436,1.380918,-2.477283,0.051771,0.193339,0.139583
1765409986.419237,-9.580342,1.305595,-2.130559,0.051771,0.193339,0.156076
1765409986.421275,-9.632950,1.086800,-1.902200,0.052076,0.193186,0.148135
1765409986.424271,-9.698708,1.379722,-1.758728,0.053145,0.206472,0.140194
1765409986.424771,-9.391438,1.109517,-2.091105,0.053145,0.208916,0.153022
1765409986.430634,-9.477522,1.135820,-2.170014,0.059865,0.193033,0.150120
1765409986.432271,-9.684361,1.066475,-1.886657,0.055283,0.188452,0.143401
1765409986.434193,-9.653275,1.321138,-1.709708,0.059254,0.206167,0.145539
1765409986.436149,-9.222859,1.367169,-2.348756,0.058338,0.185703,0.149357
1765409986.439161,-9.266499,1.260760,-2.184361,0.051924,0.185703,0.153480
1765409986.441134,-9.266499,1.260760,-2.184361,0.051924,0.196851,0.153480
1765409986.444169,-9.589908,1.183644,-2.131755,0.059254,0.203571,0.155160
1765409986.446174,-9.227641,0.912243,-2.480870,0.055894,0.205862,0.157909
1765409986.449192,-9.573170,1.197991,-2.022955,0.055436,0.218232,0.141568
1765409986.450226,-9.826636,1.394070,-1.620038,0.053909,0.218232,0.147677
1765409986.454166,-9.826636,1.394070,-1.620038,0.053909,0.208152,0.147677
1765409986.456164,-9.489478,1.023434,-2.168818,0.055589,0.205862,0.155923
1765409986.459170,-9.626971,1.183644,-2.120995,0.054672,0.199142,0.148593
1765409986.461163,-9.707675,1.092778,-1.934481,0.058338,0.203724,0.156840
1765409986.464169,-9.463174,1.201578,-2.128766,0.062919,0.203724,0.156992
1765409986.466194,-9.463174,1.201578,-2.128766,0.062919,0.210138,0.156992
1765409986.469170,-9.436274,1.283477,-2.250119,0.061697,0.202196,0.159894
1765409986.470133,-9.374700,1.176470,-2.412721,0.059865,0.202196,0.163406
1765409986.474235,-9.586321,1.169297,-2.027738,0.054672,0.220064,0.157756
1765409986.476213,-9.799137,1.291248,-1.642754,0.055894,0.220064,0.159436
1765409986.479154,-9.546865,1.077236,-2.238163,0.058032,0.206014,0.170126
1765409986.481211,-9.896580,1.059302,-1.872310,0.058643,0.200517,0.158520
1765409986.484163,-9.820060,1.147776,-1.960186,0.063530,0.209069,0.160658
1765409986.486167,-9.644905,1.094572,-2.055834,0.061087,0.207236,0.160658
1765409986.489190,-9.469152,1.062888,-2.522716,0.060323,0.200058,0.153174
1765409986.491180,-9.824843,1.581779,-1.936872,0.061850,0.206014,0.154091
