time,acc_x_g,acc_y_g,acc_z_g,gyro_x_rad_s,gyro_y_rad_s,gyro_z_rad_s
1765407966.446349,-9.505618,2.903515,-0.579268,-0.006720,-0.004429,-0.000764
1765407966.446549,-9.354375,2.904113,-0.671329,-0.005192,-0.003207,0.000611
1765407966.446749,-9.335245,2.901124,-0.634864,-0.006414,-0.007025,0.000000
1765407966.446949,-9.520563,2.920851,-0.478838,-0.008552,-0.007941,-0.001833
1765407966.447153,-9.520563,2.920851,-0.478838,-0.008552,-0.007025,-0.001833
1765407966.447403,-9.490674,2.911286,-0.563128,-0.007483,-0.006567,-0.001222
1765407966.447653,-9.425512,2.928025,-0.637255,-0.005498,-0.008552,-0.001527
1765407966.447903,-9.520563,2.950143,-0.530846,-0.008094,-0.007636,0.001527
1765407966.448143,-9.560018,2.939981,-0.466284,-0.007178,-0.007941,-0.000764
1765407966.448343,-9.560018,2.939981,-0.466284,-0.007178,-0.003971,-0.000764
1765407966.448543,-9.423719,3.137254,-0.677307,-0.009621,-0.007636,-0.002291
1765407966.448743,-9.432089,3.267575,-0.620516,-0.012981,-0.008399,-0.000153
1765407966.448943,-9.546268,3.304638,-0.512912,-0.017562,-0.010079,-0.002138
1765407966.449112,-9.565996,3.292683,-0.512315,-0.015424,-0.010079,-0.000611
1765407966.449362,-9.594690,3.302247,-0.510521,-0.025351,-0.007330,-0.002291
1765407966.449612,-9.598277,3.233500,-0.455524,-0.026420,-0.007330,-0.008247
1765407966.449862,-9.707077,3.136657,-0.418460,-0.025809,-0.011606,-0.013439
1765407966.450165,-9.771639,3.007532,-0.423242,-0.023518,-0.015272,-0.018479
1765407966.450415,-9.736967,2.887374,-0.535031,-0.019090,-0.015272,-0.030085
1765407966.450665,-9.685556,2.801291,-0.468675,-0.015730,-0.012828,-0.045662
1765407966.450915,-9.727402,2.916667,-0.278575,-0.006109,-0.017257,-0.059254
1765407966.451128,-9.600669,2.908895,-0.480631,-0.003207,-0.014661,-0.072540
1765407966.451328,-9.316713,2.908895,-0.845289,-0.003207,-0.026878,-0.072540
1765407966.451528,-9.319702,3.217360,-0.848876,0.006109,-0.024282,-0.098655
1765407966.451728,-9.619798,3.558105,-0.319225,0.017410,-0.027489,-0.106443
1765407966.451928,-9.490674,3.761358,-0.366451,0.015882,-0.019700,-0.110872
1765407966.452150,-9.326876,3.848039,-0.851267,0.012828,-0.034056,-0.111788
1765407966.452400,-9.123624,3.638211,-1.172884,0.012828,-0.040775,-0.111788
1765407966.452650,-9.591104,3.742228,-0.555954,0.012065,-0.038943,-0.129962
1765407966.452900,-9.598277,3.662123,-0.254663,0.010385,-0.029016,-0.135459
1765407966.453123,-9.326876,3.770922,-0.902080,0.012675,-0.038790,-0.147066
1765407966.453373,-9.206120,3.815160,-0.985174,0.011454,-0.045968,-0.157909
1765407966.453623,-9.274270,3.980153,-0.744859,0.015730,-0.038943,-0.166461
1765407966.453873,-9.337039,4.081779,-0.661167,0.015119,-0.044135,-0.175471
1765407966.454153,-9.416546,4.350789,-0.509326,0.014508,-0.049786,-0.189368
1765407966.454403,-9.195359,4.575562,-0.975610,0.016799,-0.064294,-0.185856
1765407966.454653,-9.205523,4.432089,-0.980392,0.006872,-0.064294,-0.189063
1765407966.454903,-9.380678,4.510999,-0.765782,0.000611,-0.065057,-0.202349
1765407966.455221,-9.527737,4.473338,-0.407102,0.006109,-0.064752,-0.205862
1765407966.455554,-9.458392,4.557627,-0.675514,0.006414,-0.066126,-0.216246
1765407966.455888,-9.821257,4.774031,-0.340746,-0.000916,-0.070555,-0.225867
1765407966.456135,-10.221185,5.387971,-0.107604,-0.002596,-0.070555,-0.230907
1765407966.456385,-10.294117,5.387373,0.105811,-0.012370,-0.071013,-0.224035
1765407966.456635,-9.909132,4.939024,-0.091463,-0.021228,-0.083383,-0.216399
1765407966.456885,-9.909132,4.939024,-0.091463,-0.021228,-0.096517,-0.216399
1765407966.457777,-9.881634,4.902558,-0.555954,-0.033598,-0.104153,-0.239001
1765407966.458027,-9.992227,5.120158,0.068149,-0.033292,-0.103389,-0.238696
1765407966.458277,-10.059779,5.235532,-0.047824,-0.051160,-0.102778,-0.244652
1765407966.458527,-9.636537,5.102821,-0.980392,-0.065210,-0.123242,-0.239612
1765407966.458128,-9.916306,5.051410,-0.497967,-0.067653,-0.139125,-0.252287
1765407966.458378,-9.930654,4.666427,-0.374223,-0.066737,-0.125838,-0.251982
1765407966.458628,-9.757292,4.887613,-0.159613,-0.070555,-0.140041,-0.264810
1765407966.458878,-9.705881,5.129722,-0.910449,-0.092241,-0.149051,-0.275653
1765407966.459178,-9.675393,5.038259,-0.615734,-0.092546,-0.154702,-0.273057
1765407966.459428,-9.526542,4.894189,-0.814801,-0.098044,-0.154243,-0.278096
1765407966.459678,-9.378884,5.047823,-0.700622,-0.111330,-0.151953,-0.291994
1765407966.459928,-9.240792,5.107006,-0.896700,-0.122326,-0.153633,-0.286343
1765407966.460159,-9.518172,4.874462,-0.581659,-0.133474,-0.174097,-0.286801
1765407966.460492,-9.689142,4.868484,-0.630081,-0.146608,-0.168904,-0.301157
1765407966.460826,-9.762074,4.957556,-0.038259,-0.154702,-0.168904,-0.310472
1765407966.461118,-9.270085,4.998206,-0.750837,-0.164934,-0.177762,-0.310167
1765407966.461368,-9.538497,5.107006,-0.168580,-0.180663,-0.200975,-0.317039
1765407966.461618,-9.528335,5.200262,-0.236729,-0.200669,-0.184481,-0.321926
1765407966.461868,-9.245575,4.861310,-0.307269,-0.208000,-0.219759,-0.311236
1765407966.462155,-9.250956,4.870875,-0.419058,-0.219759,-0.219759,-0.318261
1765407966.462405,-9.809898,4.811692,0.062769,-0.228464,-0.223119,-0.325897
1765407966.462655,-8.733858,4.282640,-1.434720,-0.235183,-0.230907,-0.322842
1765407966.462905,-8.417024,4.450023,-1.085007,-0.242819,-0.230907,-0.344528
1765407966.465001,-9.161882,4.956958,-0.248685,-0.242819,-0.252440,-0.344528
1765407966.465334,-9.958751,4.959349,0.636059,-0.259770,-0.241292,-0.337808
1765407966.465668,-8.219750,3.969990,-1.783835,-0.272904,-0.227242,-0.328493
1765407966.465047,-7.321855,3.464849,-1.956002,-0.281456,-0.288328,-0.345292
1765407966.465297,-9.038736,3.908416,-0.058584,-0.287718,-0.288328,-0.362090
1765407966.465547,-9.038736,3.908416,-0.058584,-0.287718,-0.312305,-0.362090
1765407966.465797,-9.638927,4.431491,-0.104017,-0.310625,-0.270155,-0.369268
1765407966.465150,-7.129363,3.806791,-2.315877,-0.316123,-0.253204,-0.353080
1765407966.465483,-7.323648,3.388928,-1.986489,-0.308640,-0.291994,-0.345444
1765407966.465817,-9.596484,3.464849,0.351506,-0.321162,-0.334449,-0.357662
1765407966.466124,-9.596484,3.464849,0.351506,-0.321162,-0.300240,-0.357662
1765407966.466374,-9.636537,3.371592,-0.334768,-0.331853,-0.272599,-0.372781
1765407966.466624,-8.419415,3.626255,-1.188426,-0.337656,-0.272599,-0.367588
1765407966.466874,-8.451697,3.703969,-0.830942,-0.343459,-0.282525,-0.357509
1765407966.467086,-8.831898,3.411047,-0.436992,-0.350026,-0.296881,-0.342543
1765407966.467336,-8.839669,3.107364,-0.768173,-0.360563,-0.279624,-0.351095
1765407966.467586,-7.773791,3.499521,-1.928503,-0.352317,-0.250913,-0.343306
1765407966.467836,-7.755260,2.992587,-0.643233,-0.374002,-0.279471,-0.331089
1765407966.468195,-8.636416,2.766618,-0.177547,-0.388052,-0.279929,-0.341779
1765407966.468528,-9.543280,2.727164,0.832138,-0.379042,-0.281303,-0.337961
1765407966.468862,-9.054279,2.770205,-0.033477,-0.390496,-0.279776,-0.337045
1765407966.469144,-10.092059,3.423003,0.540411,-0.412639,-0.277638,-0.345444
1765407966.469394,-9.823050,2.875418,0.756217,-0.414930,-0.269239,-0.322690
1765407966.469644,-10.057388,2.636298,1.001315,-0.428827,-0.272446,-0.324217
1765407966.469894,-9.270683,2.352343,0.086083,-0.433562,-0.251524,-0.328340
1765407966.470111,-8.555116,2.133548,0.339550,-0.435700,-0.251524,-0.318872
1765407966.470361,-9.108081,2.199306,0.691057,-0.435852,-0.280693,-0.331242
1765407966.470611,-8.799616,2.354136,0.502750,-0.447153,-0.294590,-0.330936
1765407966.470861,-9.019607,2.679938,0.744859,-0.447153,-0.291077,-0.330936
1765407966.471141,-8.919176,2.669775,0.229555,-0.433103,-0.282525,-0.314137
1765407966.471474,-9.038138,1.904591,0.835724,-0.448986,-0.290466,-0.313527
1765407966.471808,-9.434480,2.064204,1.569225,-0.448070,-0.276569,-0.330020
1765407966.472105,-8.292682,2.525107,0.236131,-0.433867,-0.261450,-0.315817
1765407966.472355,-7.474892,2.790531,-1.120277,-0.447459,-0.256869,-0.316428
1765407966.472605,-7.649449,2.771999,-0.451937,-0.447764,-0.251829,-0.298255
1765407966.472855,-8.486369,1.981109,0.849474,-0.448986,-0.241139,-0.281762
1765407966.473136,-8.856407,1.769488,1.085007,-0.445473,-0.226631,-0.287107
1765407966.473386,-9.422523,2.005021,1.721664,-0.448986,-0.207236,-0.294284
1765407966.473636,-8.975369,1.866332,0.634864,-0.452957,-0.178373,-0.295353
1765407966.473886,-7.497608,1.755739,-0.188905,-0.433409,-0.187536,-0.285579
1765407966.474147,-6.643352,2.062410,-0.989957,-0.435700,-0.173944,-0.295048
1765407966.474480,-6.807149,2.248924,-0.918221,-0.428522,-0.182191,-0.277944
1765407966.474814,-7.561572,2.034911,0.179340,-0.437380,-0.182038,-0.270308
1765407966.475159,-8.531802,2.015782,0.698828,-0.427453,-0.186314,-0.268781
1765407966.475409,-8.491152,1.700741,0.673123,-0.425468,-0.174249,-0.276417
1765407966.475659,-8.491152,1.700741,0.673123,-0.425468,-0.151953,-0.276417
1765407966.475909,-6.942849,2.422286,-0.748446,-0.436158,-0.141721,-0.269086
1765407966.476100,-6.902199,2.306313,-0.815997,-0.447764,-0.166766,-0.275195
1765407966.476350,-7.578909,2.957914,-0.694644,-0.430660,-0.169362,-0.268781
1765407966.476600,-8.401482,2.594452,-0.075323,-0.447459,-0.188452,-0.260839
1765407966.476850,-8.165948,2.880201,-0.822573,-0.459371,-0.150120,-0.270613
1765407966.477172,-7.608799,2.847919,-1.024032,-0.458454,-0.115606,-0.260992
1765407966.477505,-6.388091,2.719392,-2.571736,-0.460287,-0.092852,-0.253662
1765407966.477839,-7.452773,3.130679,-1.104735,-0.456927,-0.115912,-0.254273
1765407966.478107,-9.034552,2.811453,0.817193,-0.472199,-0.082314,-0.240070
1765407966.478357,-9.833811,2.176590,1.992468,-0.473268,-0.071777,-0.244652
1765407966.478607,-8.411047,2.308704,0.285151,-0.489608,-0.035125,-0.252287
1765407966.478857,-6.755140,2.219034,-1.532759,-0.485943,-0.079107,-0.246942
1765407966.479154,-6.413796,2.116810,-2.020564,-0.485943,-0.079107,-0.248775
1765407966.479404,-7.847919,2.136537,-0.236729,-0.487012,-0.059101,-0.249233
1765407966.479654,-9.030367,2.481468,1.181253,-0.495717,-0.059101,-0.260992
1765407966.479904,-9.083571,2.822811,0.909254,-0.479071,-0.055589,-0.255342
1765407966.480190,-7.659014,2.326638,-0.558345,-0.490372,-0.026267,-0.242819
1765407966.480440,-7.077952,1.949426,-1.120277,-0.484416,-0.037263,-0.248928
1765407966.480690,-7.310496,2.232783,-0.720349,-0.490372,-0.039095,-0.251371
1765407966.480940,-7.795910,2.869440,-0.607365,-0.490067,-0.045509,-0.254425
1765407966.481146,-7.795910,2.869440,-0.607365,-0.490067,-0.019700,-0.254425
1765407966.481479,-7.948946,2.870038,-0.271401,-0.494495,0.008247,-0.242666
1765407966.481813,-6.966761,2.906504,-1.704926,-0.500451,0.009468,-0.235641
1765407966.482142,-6.914155,2.911286,-1.468197,-0.508698,0.008858,-0.240834
1765407966.482392,-8.629841,3.236489,0.055595,-0.504575,0.002291,-0.225867
1765407966.482642,-10.158416,2.778575,0.997130,-0.520152,0.018479,-0.231518
1765407966.482892,-10.080702,2.467121,0.661167,-0.516487,0.082772,-0.240681
1765407966.483092,-8.912003,2.451578,-0.341942,-0.511752,0.082772,-0.246026
1765407966.483342,-8.483978,2.446795,-0.681492,-0.518777,0.076205,-0.244804
1765407966.483592,-9.471543,2.476686,1.385700,-0.525191,0.043982,-0.244041
1765407966.483842,-10.169774,2.631516,1.351626,-0.526719,0.045815,-0.251066
1765407966.484135,-8.745216,2.301530,-0.322214,-0.513127,0.074220,-0.248775
1765407966.484385,-6.843017,2.167025,-1.881874,-0.515876,0.074220,-0.257174
1765407966.484635,-7.250118,2.165232,-0.870397,-0.525191,0.048717,-0.251371
1765407966.484885,-9.549257,2.376853,1.254184,-0.516945,0.026878,-0.238543
1765407966.485193,-10.560138,1.989478,1.669058,-0.521526,0.029016,-0.243430
1765407966.485443,-9.140363,2.107245,-0.335964,-0.516028,0.059865,-0.242972
1765407966.485693,-8.099592,1.823290,-0.528455,-0.512363,0.059865,-0.250607
1765407966.485943,-7.828789,1.901004,-0.833931,-0.527940,0.058490,-0.251829
1765407966.486203,-7.632711,2.200502,-1.535150,-0.513279,0.057879,-0.248164
1765407966.486453,-7.313485,2.575920,-2.247728,-0.512516,0.057879,-0.238848
1765407966.486703,-7.313485,2.575920,-2.247728,-0.512516,0.053909,-0.238848
1765407966.486953,-9.136776,2.556791,-0.141081,-0.529315,0.088117,-0.235794
1765407966.487118,-9.056670,1.960784,0.197274,-0.527177,0.105832,-0.229838
1765407966.487368,-7.883787,1.611071,-1.544117,-0.522901,0.125533,-0.229991
1765407966.487618,-7.931013,1.640961,-0.703013,-0.528093,0.109498,-0.247400
1765407966.487868,-8.152199,1.622429,-0.218795,-0.527329,0.127824,-0.248928
1765407966.488140,-8.357244,1.431133,0.249880,-0.521679,0.102473,-0.249080
1765407966.488473,-8.620276,2.065997,-0.331181,-0.523817,0.109956,-0.262061
1765407966.488807,-8.784073,2.464132,-0.664754,-0.520152,0.117286,-0.250455
1765407966.489198,-8.509085,1.785629,0.124342,-0.514959,0.144164,-0.231518
1765407966.489448,-8.463653,1.059899,0.063367,-0.513890,0.150884,-0.232740
1765407966.489698,-7.533476,1.004304,-0.878766,-0.510072,0.120188,-0.237016
1765407966.489948,-7.917264,1.032998,-0.575084,-0.511294,0.120188,-0.243430
1765407966.490265,-8.603538,1.911764,-0.637255,-0.505949,0.125380,-0.245721
1765407966.490515,-9.325681,2.406145,-0.020325,-0.503048,0.134543,-0.247553
1765407966.490765,-8.976564,2.413917,-0.420851,-0.506255,0.164323,-0.221744
1765407966.491015,-8.919176,1.769488,-0.442372,-0.506713,0.155923,-0.213956
1765407966.491109,-8.427187,1.646939,-1.324127,-0.500604,0.161574,-0.216399
1765407966.491359,-8.688426,1.187829,-0.104615,-0.504422,0.159741,-0.233656
1765407966.491609,-8.247847,1.952415,-0.968436,-0.497550,0.186619,-0.237168
1765407966.491859,-7.794116,2.156862,-1.072453,-0.506255,0.178984,-0.236252
1765407966.492132,-8.661525,2.336202,-0.013152,-0.505186,0.198073,-0.225104
1765407966.492465,-9.641318,1.960784,0.436394,-0.506102,0.198073,-0.209527
1765407966.492799,-9.641318,1.960784,0.436394,-0.506102,0.224340,-0.209527
1765407966.493135,-7.819822,1.123864,-0.951698,-0.505949,0.232740,-0.219759
1765407966.493385,-6.922524,1.343855,-2.099474,-0.498008,0.223119,-0.228616
1765407966.493635,-7.093495,1.591942,-2.075562,-0.502284,0.211054,-0.233503
1765407966.493885,-8.694404,2.150884,-0.065758,-0.483500,0.196699,-0.226326
1765407966.494208,-10.123145,1.556073,1.345050,-0.495564,0.204793,-0.214261
1765407966.494458,-10.248086,1.426351,1.001913,-0.493579,0.224493,-0.214872
1765407966.494708,-9.483500,0.963654,0.235533,-0.492357,0.238848,-0.222660
1765407966.494958,-8.657340,0.664754,0.449546,-0.473726,0.205556,-0.219301
1765407966.495129,-8.760759,0.661167,0.010760,-0.494495,0.172264,-0.244499
1765407966.495379,-8.862385,2.060616,0.298900,-0.481056,0.184939,-0.256869
1765407966.495629,-7.984217,2.364897,-1.665471,-0.486860,0.197615,-0.239765
1765407966.495879,-7.821616,2.513749,-1.813725,-0.477086,0.176387,-0.224035
1765407966.496138,-7.963294,2.064801,-1.322334,-0.490525,0.206625,-0.229533
1765407966.496471,-7.693686,2.045074,-1.377331,-0.492357,0.245873,-0.219606
1765407966.496805,-7.792921,1.642754,-1.475968,-0.499993,0.232740,-0.224340
1765407966.497099,-9.561213,1.932090,0.461502,-0.497244,0.256563,-0.229533
1765407966.497349,-9.935436,2.223816,0.508130,-0.489608,0.280693,-0.218842
1765407966.497599,-10.115973,2.272836,0.817790,-0.497855,0.290314,-0.218995
1765407966.497849,-9.638330,1.707317,0.338355,-0.504422,0.301615,-0.207847
1765407966.498121,-8.486967,1.250598,-0.707795,-0.497550,0.294284,-0.214261
1765407966.498371,-7.471304,0.962458,-2.198709,-0.501673,0.271071,-0.217926
1765407966.498621,-7.939382,1.587757,-1.305595,-0.489150,0.271071,-0.224340
1765407966.498871,-9.707077,1.407221,0.787900,-0.487012,0.276111,-0.222813
1765407966.499167,-10.423838,1.737805,1.248206,-0.485638,0.301157,-0.227089
1765407966.499500,-9.295790,1.401243,-0.447154,-0.486401,0.305738,-0.219911
1765407966.499834,-7.736728,1.164515,-1.918938,-0.491899,0.309098,-0.221439
1765407966.500079,-8.094213,1.683405,-2.126972,-0.481667,0.284358,-0.225562
1765407966.500329,-9.600669,1.967360,0.027499,-0.478002,0.291994,-0.230907
1765407966.500579,-9.907937,2.094093,-0.102224,-0.490983,0.316581,-0.228311
1765407966.500829,-9.607244,2.321855,-0.193687,-0.492205,0.333838,-0.212123
1765407966.501136,-9.982065,1.899808,0.219990,-0.502131,0.319177,-0.215177
1765407966.501386,-10.502151,2.523911,0.907460,-0.485332,0.316886,-0.215330
1765407966.501636,-9.754900,1.409612,-0.240913,-0.492816,0.329104,-0.209985
1765407966.501886,-8.479196,1.617647,-1.199187,-0.488692,0.331700,-0.224798
1765407966.502140,-9.051888,1.700143,-0.489000,-0.501215,0.323606,-0.233198
1765407966.502473,-10.379004,2.274031,0.939742,-0.486707,0.352317,-0.229991
1765407966.502807,-9.445240,1.936872,-0.517097,-0.485638,0.352317,-0.221897
1765407966.503215,-8.438545,1.513630,-0.872788,-0.492510,0.354302,-0.237016
1765407966.503465,-8.170133,1.445480,-1.342659,-0.499688,0.344375,-0.242514
1765407966.503715,-9.891200,1.740794,0.560736,-0.491136,0.325897,-0.245873
1765407966.503965,-11.524389,1.897417,1.652917,-0.495412,0.340252,-0.244041
1765407966.504237,-11.728836,1.889048,2.236968,-0.496328,0.356440,-0.239001
1765407966.504487,-9.749520,1.348637,0.169177,-0.496328,0.348346,-0.239001
1765407966.504737,-8.529411,1.351028,-0.734098,-0.493426,0.311236,-0.249080
1765407966.504987,-8.034432,1.518412,-1.789813,-0.497550,0.289245,-0.250302
1765407966.505196,-8.034432,1.518412,-1.789813,-0.497550,0.284816,-0.250302
1765407966.505446,-9.628167,2.107843,-0.848876,-0.505796,0.301309,-0.243124
1765407966.505696,-9.628167,2.107843,-0.848876,-0.505796,0.301004,-0.243124
1765407966.505946,-8.458272,1.588952,-2.056432,-0.492663,0.339947,-0.255953
1765407966.506154,-7.794116,1.844213,-2.777379,-0.490525,0.339947,-0.257327
1765407966.506487,-7.794116,1.844213,-2.777379,-0.490525,0.344375,-0.257327
1765407966.506821,-11.663676,2.428264,1.616451,-0.496175,0.341168,-0.251218
1765407966.507234,-11.085604,1.580583,0.805834,-0.495412,0.389274,-0.237474
1765407966.507484,-10.271400,1.567432,0.296509,-0.499535,0.370184,-0.256563
1765407966.507734,-8.824724,0.980990,-1.300813,-0.509920,0.368657,-0.255494
1765407966.507984,-8.169536,1.588355,-2.727164,-0.491288,0.335060,-0.260839
1765407966.509834,-8.953849,1.590148,-1.834648,-0.488692,0.354607,-0.264505
1765407966.510084,-9.780008,1.574605,0.135103,-0.497397,0.354607,-0.261603
1765407966.510334,-10.209229,1.252391,-0.277977,-0.496939,0.348193,-0.251066
1765407966.510584,-10.995934,1.041965,0.631875,-0.486554,0.348193,-0.262061
1765407966.509893,-10.908655,1.410808,-0.234338,-0.483500,0.351248,-0.267559
1765407966.510226,-10.439979,1.134624,-0.558345,-0.470061,0.342695,-0.256258
1765407966.510560,-9.262912,0.591822,-1.590148,-0.472810,0.361021,-0.264505
1765407966.510136,-9.190578,1.093974,-0.997728,-0.472810,0.351248,-0.264505
1765407966.510386,-9.821855,2.055237,-0.658776,-0.465174,0.323606,-0.277944
1765407966.510636,-10.769964,2.240555,0.357484,-0.486401,0.315206,-0.268628
1765407966.510886,-10.350309,1.859756,-0.807030,-0.490830,0.344375,-0.255953
1765407966.511107,-10.017933,1.555476,-0.571497,-0.484569,0.361174,-0.254578
1765407966.511357,-10.017933,1.555476,-0.571497,-0.484569,0.356440,-0.254578
1765407966.511607,-10.346722,1.134624,-0.423242,-0.487623,0.384387,-0.274889
1765407966.511857,-10.467478,1.334290,-0.587040,-0.488845,0.384387,-0.283289
1765407966.512107,-10.410090,2.057030,-0.159015,-0.485638,0.368352,-0.281151
1765407966.512440,-10.958869,1.756337,0.554758,-0.494343,0.368352,-0.271377
1765407966.512774,-11.194404,1.506456,1.016858,-0.494343,0.361174,-0.271377
1765407966.513071,-10.701816,1.177068,-0.214012,-0.505033,0.348651,-0.277486
1765407966.513321,-9.481706,0.774749,-0.957078,-0.506560,0.342237,-0.287870
1765407966.513571,-9.094332,1.328312,-1.348637,-0.489608,0.310167,-0.289397
1765407966.513821,-10.682686,1.341463,0.546389,-0.490525,0.310167,-0.281151
1765407966.514155,-11.203370,1.454447,1.430536,-0.512821,0.311541,-0.289703
1765407966.514405,-11.131037,1.456839,0.208034,-0.503658,0.307571,-0.280693
1765407966.514655,-9.196555,0.413080,-2.183764,-0.497855,0.314596,-0.282220
1765407966.514905,-9.552844,1.307986,-1.660688,-0.486096,0.276111,-0.308181
1765407966.515140,-9.895982,1.879483,-1.276901,-0.495717,0.301615,-0.301004
1765407966.515473,-10.613341,1.718077,-0.857245,-0.499840,0.286649,-0.295353
1765407966.515807,-9.835006,1.882472,-1.382114,-0.499840,0.303142,-0.295048
1765407966.516126,-9.465566,1.795193,-1.337876,-0.502589,0.289856,-0.288481
1765407966.516376,-9.201338,1.694165,-1.820301,-0.502589,0.306196,-0.288481
1765407966.516626,-8.658535,1.401243,-2.437828,-0.503200,0.310625,-0.284358
1765407966.516876,-8.095408,0.873984,-2.336800,-0.499535,0.320093,-0.277944
1765407966.517128,-8.857005,0.969034,-1.487924,-0.491594,0.305280,-0.295201
1765407966.517378,-9.953370,1.207556,-0.164993,-0.502437,0.299782,-0.305738
1765407966.517628,-10.254064,1.525586,-1.483740,-0.505949,0.298408,-0.310320
1765407966.517878,-10.017335,1.582974,-1.596126,-0.499688,0.301309,-0.303600
1765407966.518102,-9.579147,1.138809,-1.169297,-0.492663,0.313679,-0.297339
1765407966.518435,-9.456000,0.541607,-1.001913,-0.496786,0.290008,-0.297950
1765407966.518769,-9.791965,0.572692,-0.439981,-0.501979,0.290008,-0.315970
1765407966.519144,-10.453131,0.750239,-0.136298,-0.488845,0.259312,-0.316123
1765407966.519394,-10.850071,1.172884,-0.567910,-0.483500,0.253814,-0.319941
1765407966.519644,-10.460305,1.743185,-1.181253,-0.475559,0.264963,-0.313374
1765407966.519894,-9.632352,1.181851,-1.218316,-0.492357,0.261603,-0.302684
1765407966.520183,-9.632950,1.351028,-1.139407,-0.483500,0.261603,-0.309098
1765407966.520433,-10.126732,0.868006,-0.492587,-0.491594,0.259007,-0.308945
1765407966.520683,-9.803921,1.488522,-1.621234,-0.489761,0.265726,-0.311999
1765407966.520933,-10.667144,1.416786,-1.366571,-0.496939,0.251829,-0.317039
1765407966.521125,-11.007292,1.733620,-0.527857,-0.497092,0.275500,-0.317650
1765407966.521458,-10.844093,1.706121,-0.107604,-0.495106,0.268933,-0.313679
1765407966.521792,-8.984336,1.197991,-1.825681,-0.512058,0.297339,-0.305738
1765407966.522135,-7.816833,1.000119,-3.064323,-0.524275,0.252593,-0.313374
1765407966.522385,-8.950262,1.099952,-1.626016,-0.507629,0.218384,-0.314137
1765407966.522635,-10.683882,1.613462,-0.273792,-0.506713,0.214872,-0.333838
1765407966.522885,-10.646819,1.826877,-0.162602,-0.515570,0.246484,-0.333074
1765407966.523122,-9.232423,0.949306,-1.862745,-0.530842,0.257480,-0.324980
1765407966.523372,-9.285029,1.004304,-1.425155,-0.507934,0.216704,-0.322231
1765407966.523622,-11.276899,0.823768,0.198470,-0.510378,0.195935,-0.329256
1765407966.523872,-12.156860,1.122071,0.733501,-0.505186,0.198989,-0.337503
1765407966.524105,-11.768888,0.793878,-0.807030,-0.515876,0.207847,-0.344528
1765407966.524438,-11.031800,0.976805,-0.999522,-0.489456,0.181580,-0.347735
1765407966.524772,-11.779650,1.483142,0.153037,-0.491136,0.154854,-0.352469
1765407966.525140,-11.507052,2.210665,0.160210,-0.486401,0.154854,-0.346513
1765407966.525390,-11.507052,2.210665,0.160210,-0.486401,0.143859,-0.346513
1765407966.525640,-10.849473,1.630798,-1.239837,-0.497397,0.140194,-0.334754
1765407966.525890,-11.765901,1.345050,-0.237924,-0.496175,0.137597,-0.333074
1765407966.526145,-13.095407,1.395265,1.517814,-0.496786,0.186925,-0.340710
1765407966.526395,-12.030128,1.371353,-0.515304,-0.507018,0.186925,-0.351858
1765407966.526645,-10.216402,1.516021,-1.774868,-0.494954,0.173486,-0.337198
1765407966.526895,-10.521279,1.117886,-1.018651,-0.498313,0.153174,-0.343459
1765407966.527100,-11.482542,1.258967,0.417862,-0.500604,0.131031,-0.336739
1765407966.527350,-11.783834,1.096365,-0.528455,-0.507171,0.146760,-0.346666
1765407966.527600,-11.266139,0.620516,-1.419775,-0.499535,0.133016,-0.345597
1765407966.527850,-10.942131,0.863821,-0.829746,-0.498924,0.155312,-0.355829
1765407966.528146,-10.963652,0.718556,-0.089670,-0.490219,0.134696,-0.356440
1765407966.528479,-10.108798,0.622908,-0.783118,-0.503200,0.134696,-0.356745
1765407966.528813,-10.108798,0.622908,-0.783118,-0.503200,0.091019,-0.356745
1765407966.529183,-10.509324,0.839311,-0.630679,-0.499230,0.086285,-0.343001
1765407966.529433,-10.685077,0.578073,-1.613462,-0.484722,0.075747,-0.346971
1765407966.529683,-10.849473,0.538020,-0.805834,-0.492510,0.078343,-0.357814
1765407966.529933,-10.438784,0.860832,-1.023434,-0.494343,0.090713,-0.366519
1765407966.530129,-10.438784,0.860832,-1.023434,-0.494343,0.087354,-0.366519
1765407966.530379,-11.432925,1.823290,-0.842898,-0.496481,0.072235,-0.342695
1765407966.530629,-12.024149,0.821975,0.080703,-0.522901,0.074526,-0.345139
1765407966.530879,-11.734815,0.879962,-0.303085,-0.513738,0.103389,-0.340405
1765407966.531132,-12.010999,0.659373,-1.024629,-0.513432,0.079718,-0.346513
1765407966.531382,-12.010999,0.659373,-1.024629,-0.513432,0.082772,-0.346513
1765407966.531632,-10.954685,0.957676,-1.010282,-0.519541,0.066737,-0.360563
1765407966.531882,-10.495576,0.738283,-0.772358,-0.532522,0.066737,-0.359342
1765407966.532137,-10.416068,1.085605,-1.288857,-0.530995,0.012065,-0.361480
1765407966.532387,-11.121470,1.058106,-0.313247,-0.517861,0.012065,-0.354149
1765407966.532637,-11.192012,0.589431,-0.435796,-0.531911,0.025962,-0.358425
1765407966.532887,-11.264944,0.606767,-0.148254,-0.516334,0.013286,-0.365908
1765407966.533142,-10.954087,0.459708,0.065758,-0.517556,0.026420,-0.364992
1765407966.533475,-11.275106,0.897896,-0.499761,-0.503964,-0.019242,-0.367283
1765407966.533809,-11.423958,0.780129,-0.143472,-0.517250,-0.026114,-0.365908
1765407966.534140,-11.284074,0.671329,-0.481827,-0.506560,-0.044440,-0.364534
1765407966.534390,-11.726445,0.948111,-0.188307,-0.498924,-0.050396,-0.365297
1765407966.534640,-11.082017,1.220708,-0.759206,-0.499382,-0.062003,-0.375835
1765407966.534890,-11.082017,1.220708,-0.759206,-0.499382,-0.083230,-0.375835
1765407966.535145,-10.758009,1.207556,-1.613462,-0.518930,-0.069486,-0.376293
1765407966.535395,-10.857243,1.270923,-1.331898,-0.500146,-0.061697,-0.366977
1765407966.535645,-11.764704,1.224294,0.428025,-0.519083,-0.054825,-0.378431
1765407966.535895,-11.763509,1.465806,0.129125,-0.530689,-0.051618,-0.377515
1765407966.536093,-11.367168,1.263749,-0.620516,-0.524428,-0.067806,-0.369268
1765407966.536426,-10.469870,0.998326,-1.034194,-0.517556,-0.078954,-0.370490
1765407966.536760,-10.506933,0.982783,-0.985174,-0.513585,-0.078954,-0.367588
1765407966.537135,-10.972619,0.967240,-0.597800,-0.525344,-0.089186,-0.380569
1765407966.537385,-11.406622,0.864419,-0.509326,-0.525191,-0.103847,-0.377057
1765407966.537635,-11.951218,0.920612,0.005978,-0.523053,-0.089034,-0.374919
1765407966.537885,-11.477760,0.558943,-0.384983,-0.517708,-0.084910,-0.371712
1765407966.538167,-11.420970,0.642037,-0.229555,-0.520915,-0.083536,-0.371864
1765407966.538417,-11.087995,0.240316,-0.811812,-0.516028,-0.119730,-0.373086
1765407966.538667,-10.523073,0.023912,-0.945122,-0.522137,-0.125075,-0.377973
1765407966.538917,-10.431609,0.045433,-2.330224,-0.511600,-0.133016,-0.378278
1765407966.539094,-11.194404,0.741272,-1.034792,-0.506560,-0.140346,-0.379958
1765407966.539427,-12.184360,0.886537,-0.296509,-0.506560,-0.144928,-0.379958
1765407966.539761,-11.805356,1.529172,0.260641,-0.518014,-0.127213,-0.379042
1765407966.540115,-11.307984,0.722142,-0.478240,-0.523817,-0.138208,-0.366977
1765407966.540365,-10.988162,0.279770,-1.084409,-0.528704,-0.166919,-0.361785
1765407966.540615,-12.005019,0.131516,-0.365256,-0.531605,-0.189216,-0.380264
1765407966.540865,-12.063604,0.685079,-0.253467,-0.531605,-0.163712,-0.380264
1765407966.542157,-11.570419,0.454328,-0.115973,-0.516181,-0.164170,-0.377209
1765407966.542407,-11.184241,1.030607,0.104615,-0.507782,-0.167072,-0.374460
1765407966.542657,-10.422045,0.012554,-1.221903,-0.517861,-0.187230,-0.360563
1765407966.542907,-10.864417,0.341942,-0.884744,-0.499688,-0.210901,-0.366519
1765407966.542244,-11.868722,-0.387374,0.376016,-0.505033,-0.210596,-0.372475
1765407966.542577,-12.437229,0.228360,1.293639,-0.490983,-0.203724,-0.378584
1765407966.542911,-11.252988,-0.090866,-0.031683,-0.496481,-0.210901,-0.381791
1765407966.543084,-11.732423,0.237924,0.608560,-0.492816,-0.242361,-0.386372
1765407966.543334,-11.102342,0.274988,-0.157819,-0.474948,-0.274584,-0.383929
1765407966.543584,-11.960783,0.449546,0.533835,-0.474184,-0.274584,-0.374613
1765407966.543834,-11.576995,-0.227762,-0.546389,-0.477238,-0.276722,-0.372322
1765407966.544208,-11.261357,-0.517695,-0.039455,-0.462578,-0.304822,-0.374460
1765407966.544458,-12.158056,-0.017934,-0.074127,-0.451429,-0.307723,-0.396146
1765407966.544708,-12.251313,0.737685,0.626494,-0.437532,-0.312916,-0.392175
1765407966.544958,-10.983977,1.038976,-1.116690,-0.452804,-0.289856,-0.388205
1765407966.545072,-11.291844,0.976805,-0.584648,-0.439365,-0.303295,-0.366214
1765407966.545405,-10.964849,0.044835,-0.652200,-0.450819,-0.289550,-0.356134
1765407966.545739,-11.972141,0.078312,0.060976,-0.441197,-0.332005,-0.375377
1765407966.546136,-11.368961,-0.017934,-0.404113,-0.454942,-0.291688,-0.382402
1765407966.546386,-11.324723,0.502750,0.121951,-0.433867,-0.319635,-0.387441
1765407966.546636,-10.628883,0.242707,-0.489598,-0.441503,-0.310472,-0.374766
1765407966.546886,-10.310855,0.214610,-0.997130,-0.440587,-0.362854,-0.375071
1765407966.547103,-10.621711,0.039455,-1.361789,-0.435241,-0.362854,-0.370795
1765407966.547353,-11.084408,-0.297107,-0.399330,-0.438143,-0.370795,-0.376446
1765407966.547603,-10.731108,-0.282162,-0.531444,-0.433714,-0.343306,-0.373697
1765407966.547853,-10.444163,-0.401722,-0.636657,-0.420886,-0.357203,-0.370948
1765407966.548151,-9.772835,-0.331181,-1.207556,-0.425315,-0.387441,-0.379347
1765407966.548484,-10.022716,-0.222382,-1.332496,-0.413861,-0.387441,-0.368352
1765407966.548818,-10.401721,-0.420851,-1.720468,-0.405920,-0.399811,-0.368352
1765407966.549136,-11.226684,-0.569106,-0.384983,-0.398895,-0.408363,-0.356593
1765407966.549386,-11.768888,-0.603778,0.185916,-0.396146,-0.395077,-0.362243
1765407966.549636,-11.843614,-0.846485,0.692850,-0.396910,-0.400117,-0.366214
1765407966.549886,-10.682686,-1.037781,-0.743663,-0.389274,-0.386983,-0.369115
1765407966.550108,-10.041844,-0.392157,-1.639168,-0.363923,-0.413250,-0.368810
1765407966.550441,-10.578670,-0.155428,-0.249880,-0.371406,-0.407142,-0.367588
1765407966.550775,-9.857722,-0.148254,-1.425155,-0.363465,-0.407142,-0.357203
1765407966.551116,-10.515302,-0.206241,-0.740076,-0.362701,-0.410654,-0.359189
1765407966.551366,-11.496889,-0.468077,0.347322,-0.349873,-0.412639,-0.357203
1765407966.551616,-11.336679,-0.394548,0.205643,-0.349873,-0.407294,-0.357356
1765407966.551866,-10.909850,-0.378407,0.377810,-0.348651,-0.417221,-0.365450
1765407966.552166,-10.679698,-0.151243,-0.478240,-0.341779,-0.417221,-0.355829
1765407966.552416,-11.328311,-0.294118,-0.743663,-0.321315,-0.447001,-0.349873
1765407966.552666,-12.131753,-0.215208,1.037781,-0.323148,-0.444099,-0.352011
1765407966.552916,-11.741987,-0.709589,0.536824,-0.332463,-0.419359,-0.354149
1765407966.553104,-11.085007,-0.383190,0.527260,-0.314901,-0.430355,-0.359189
1765407966.553354,-11.346843,-0.327594,0.535629,-0.314137,-0.448681,-0.368046
1765407966.553604,-11.202772,0.369440,0.608560,-0.308792,-0.467312,-0.369115
1765407966.553854,-11.041367,0.407700,0.072932,-0.308487,-0.473115,-0.355829
1765407966.554141,-10.445958,-0.064562,-0.484218,-0.301767,-0.473115,-0.337045
1765407966.554474,-10.964849,-0.166188,-0.227762,-0.298713,-0.474031,-0.340099
1765407966.554808,-11.143589,-0.799856,0.850072,-0.279624,-0.486249,-0.331853
1765407966.555127,-10.853658,-1.206360,-0.159015,-0.279929,-0.480293,-0.349110
1765407966.555377,-10.187708,-0.242707,-1.401243,-0.270155,-0.462730,-0.370642
1765407966.555627,-10.282160,0.020325,-0.490794,-0.262977,-0.448833,-0.355218
1765407966.555877,-10.371830,-0.266021,-0.271401,-0.256105,-0.454026,-0.337503
1765407966.556176,-10.400524,-0.689861,-0.356289,-0.258243,-0.446237,-0.344833
1765407966.556509,-9.972500,-0.899091,-0.352104,-0.245873,-0.413250,-0.346208
1765407966.556843,-9.244977,-1.064084,-1.361789,-0.228464,-0.428980,-0.345444
1765407966.557144,-9.890003,-0.444763,-0.014945,-0.224035,-0.428980,-0.362701
1765407966.557394,-11.128645,-0.360473,1.519608,-0.233503,-0.406836,-0.361021
1765407966.557644,-10.789094,-0.341942,0.894309,-0.216246,-0.401644,-0.352164
1765407966.557894,-9.968315,-0.279173,-0.121951,-0.210749,-0.409891,-0.350026
1765407966.558140,-10.182925,-0.808226,0.948111,-0.215177,-0.407753,-0.341321
1765407966.558390,-10.309659,-0.826160,0.172166,-0.199753,-0.394161,-0.342543
1765407966.558640,-10.554159,-0.853658,0.734098,-0.202044,-0.407447,-0.349720
1765407966.558890,-10.222381,-0.539216,0.315041,-0.192270,-0.382096,-0.358120
1765407966.559093,-10.709588,-0.144668,1.426351,-0.172417,-0.384387,-0.341016
1765407966.559426,-9.848158,-0.902678,0.534433,-0.178678,-0.372017,-0.329256
1765407966.559760,-9.653275,-0.656982,0.461502,-0.169821,-0.376446,-0.337198
1765407966.560143,-9.858918,-0.807030,0.462099,-0.162185,-0.352469,-0.326660
1765407966.560393,-10.099234,-0.948111,0.377212,-0.149357,-0.375835,-0.319483
1765407966.560643,-10.219989,-1.249402,0.932568,-0.157603,-0.367741,-0.331547
1765407966.560893,-9.571974,-1.365375,0.535629,-0.147982,-0.345750,-0.329104
1765407966.561201,-8.949066,-1.315160,-0.443568,-0.134849,-0.338419,-0.328035
1765407966.561451,-9.613820,-0.636059,0.296509,-0.126144,-0.344070,-0.327882
1765407966.561701,-10.094451,-1.067073,0.726925,-0.130878,-0.332311,-0.304974
1765407966.561951,-9.632950,-1.763510,0.480033,-0.117592,-0.321315,-0.306043
1765407966.565865,-8.970588,-1.734816,-0.308465,-0.117592,-0.281914,-0.306043
1765407966.566198,-8.827115,-1.538737,-0.205643,-0.098960,-0.284816,-0.305127
1765407966.566532,-10.362864,-1.385700,1.553084,-0.099266,-0.301462,-0.310472
1765407966.565914,-10.761597,-1.346843,2.003826,-0.090561,-0.272904,-0.301157
1765407966.566164,-9.149927,-1.579388,-0.236729,-0.081092,-0.237321,-0.287870
1765407966.566414,-8.342897,-1.575801,-0.937350,-0.074526,-0.248775,-0.288023
1765407966.566664,-9.848756,-1.483740,1.310378,-0.070555,-0.264810,-0.284663
1765407966.566085,-9.999401,-1.539335,1.230273,-0.071166,-0.239154,-0.281609
1765407966.566335,-8.900644,-1.621234,-0.130918,-0.069333,-0.210596,-0.278707
1765407966.566585,-8.730869,-1.382114,-0.359876,-0.070708,-0.210596,-0.280845
1765407966.566835,-9.458392,-1.353419,0.759206,-0.062308,-0.226173,-0.270461
1765407966.567128,-10.041844,-1.181253,0.982783,-0.060628,-0.207083,-0.268628
1765407966.567461,-10.041844,-1.181253,0.982783,-0.060628,-0.175471,-0.268628
1765407966.567795,-8.876733,-1.771879,-0.116571,-0.063988,-0.175318,-0.250149
1765407966.568147,-9.314920,-1.807747,0.332975,-0.053451,-0.183718,-0.251524
1765407966.568397,-9.595885,-1.923720,0.771760,-0.053909,-0.161268,-0.250607
1765407966.568647,-9.413557,-1.328312,0.811812,-0.038332,-0.142332,-0.246790
1765407966.568897,-9.348397,-1.061693,0.658776,-0.041692,-0.137139,-0.237779
1765407966.569121,-9.317909,-1.096365,0.482425,-0.039401,-0.146608,-0.221439
1765407966.569371,-9.795551,-1.252989,0.620516,-0.049633,-0.146608,-0.213956
1765407966.569621,-9.753705,-1.413199,0.514108,-0.034667,-0.129351,-0.199295
1765407966.569871,-9.478717,-1.447872,0.173362,-0.036499,-0.110719,-0.196851
1765407966.570140,-9.501433,-1.317551,0.857843,-0.028100,-0.102473,-0.192117
1765407966.570390,-9.510998,-1.090387,0.865614,-0.029932,-0.093310,-0.183107
1765407966.570640,-9.742945,-0.776542,0.775944,-0.024282,-0.105985,-0.172722
1765407966.570890,-9.674795,-0.621114,0.408895,-0.021991,-0.088270,-0.152564
1765407966.571115,-9.495455,-1.055715,0.370636,-0.020311,-0.087048,-0.132710
1765407966.571365,-9.681372,-1.115495,0.664156,-0.018479,-0.075289,-0.126144
1765407966.571615,-9.820060,-1.117886,0.827355,-0.018479,-0.071777,-0.126144
1765407966.571865,-9.661046,-0.932568,0.447154,-0.015424,-0.063835,-0.106901
1765407966.572124,-9.661046,-0.932568,0.447154,-0.015424,-0.062308,-0.106901
1765407966.572374,-9.784791,-0.771162,0.796270,-0.015882,-0.040928,-0.093310
1765407966.572624,-9.797942,-0.952893,0.820182,-0.016341,-0.040928,-0.079412
1765407966.572874,-9.797942,-0.952893,0.820182,-0.016341,-0.045204,-0.079412
1765407966.573081,-9.741151,-0.911645,0.535629,-0.010232,-0.034819,-0.060476
1765407966.573331,-9.502629,-0.763988,0.251076,-0.003971,-0.033292,-0.052534
1765407966.573581,-9.612027,-0.720947,0.389766,-0.004581,-0.028863,-0.048258
1765407966.573831,-9.716641,-0.429220,0.427427,0.001222,-0.028863,-0.036652
1765407966.574092,-9.698708,-0.473458,0.434003,-0.001527,-0.016799,-0.023824
1765407966.574342,-9.707077,-0.546987,0.478240,0.007941,-0.012065,-0.012370
1765407966.574592,-9.508009,-0.786705,0.251674,0.005651,-0.012828,-0.004581
1765407966.574842,-9.927666,-0.552367,0.628886,0.006872,-0.018479,-0.008094
1765407966.575171,-10.102222,-0.474055,0.815399,0.010690,-0.004734,-0.000916
1765407966.575371,-9.655666,-0.406504,0.196078,0.014813,0.000916,0.007483
1765407966.575571,-9.738162,-0.271999,0.307867,0.011148,-0.001985,0.003054
1765407966.575771,-9.895982,-0.141081,0.369440,0.010232,-0.001985,0.007483
1765407966.575971,-10.045432,-0.052606,0.353898,0.009927,-0.005803,0.010843
1765407966.576174,-9.941415,0.005978,0.317432,0.009774,0.005651,0.010537
1765407966.576374,-9.840983,0.017336,0.243305,0.008247,0.007178,0.015882
1765407966.576574,-9.991630,0.027499,0.257652,0.010537,-0.001833,0.014813
1765407966.576774,-10.111190,0.105213,0.368245,0.006872,-0.000153,0.011606
1765407966.576974,-10.111190,0.105213,0.368245,0.006872,0.003360,0.011606
1765407966.577153,-9.918099,0.343735,0.133907,0.006261,0.003207,0.014813
1765407966.577320,-9.940218,0.319823,0.169775,0.007025,-0.001069,0.015730
1765407966.577486,-10.054996,0.192492,0.208034,0.006109,-0.002749,0.016952
1765407966.577653,-10.130320,0.186514,0.321616,0.003512,-0.002749,0.014661
1765407966.577820,-10.130320,0.186514,0.321616,0.003512,0.004123,0.014661
1765407966.577986,-9.895385,0.157221,-0.038857,0.001680,-0.003054,0.011759
1765407966.578108,-9.956957,0.205643,0.201459,0.001985,-0.006261,0.006414
1765407966.578308,-10.237326,0.357484,0.530846,0.002902,-0.001985,0.005040
1765407966.578508,-10.118362,0.353898,0.319823,0.002138,-0.001985,0.006720
1765407966.578708,-10.004781,0.322214,0.135103,-0.000611,-0.003207,0.004429
1765407966.578908,-10.090864,0.204448,0.356289,-0.002902,-0.008247,0.002291
1765407966.579169,-10.230749,0.308465,0.486609,-0.001374,-0.009927,-0.001069
1765407966.579369,-10.106407,0.401722,0.325203,-0.003054,-0.005040,-0.002902
1765407966.579569,-9.860114,0.408297,0.089670,-0.002291,-0.005345,-0.001680
1765407966.579769,-9.967119,0.329986,0.216404,-0.003971,-0.011301,-0.001833
1765407966.579969,-10.231946,0.302487,0.591822,-0.006109,-0.014050,-0.003054
1765407966.580229,-10.173959,0.258250,0.435198,-0.007330,-0.006872,-0.007025
1765407966.580479,-9.941415,0.286944,0.233142,-0.011759,-0.005651,-0.007178
1765407966.580729,-9.943806,0.340746,0.318030,-0.014355,-0.013439,-0.007483
1765407966.580979,-10.075322,0.372429,0.496174,-0.015577,-0.016341,-0.008705
1765407966.581130,-9.983260,0.296509,0.363462,-0.016799,-0.009774,-0.008399
1765407966.581330,-9.803323,0.184720,0.197274,-0.018937,-0.011148,-0.007178
1765407966.581530,-9.855330,0.072932,0.266619,-0.020464,-0.018021,-0.008705
1765407966.581730,-9.985652,0.092659,0.460306,-0.020922,-0.016188,-0.013592
1765407966.581930,-9.910329,0.138690,0.386179,-0.021838,-0.010385,-0.015272
1765407966.582212,-9.757890,0.136896,0.185318,-0.023671,-0.009010,-0.013592
1765407966.582412,-9.806311,0.045433,0.307867,-0.025198,-0.013134,-0.010385
1765407966.582612,-9.897775,-0.022119,0.309660,-0.023824,-0.010232,-0.008247
1765407966.582812,-9.771639,-0.141081,0.147059,-0.023824,-0.008552,-0.009774
1765407966.583012,-9.833213,-0.234935,0.328790,-0.024435,-0.009621,-0.011301
1765407966.583184,-9.943208,-0.211621,0.459110,-0.021686,-0.007636,-0.013134
1765407966.583434,-9.972500,-0.088474,0.419656,-0.023976,-0.007636,-0.012675
1765407966.583684,-9.761477,-0.100430,0.144668,-0.021380,-0.004887,-0.006261
1765407966.583934,-9.821855,-0.313247,0.328790,-0.018479,-0.009774,-0.005803
1765407966.584199,-9.980869,-0.274988,0.491989,-0.016646,-0.010232,-0.010079
1765407966.584399,-10.070539,-0.153037,0.515304,-0.017715,-0.007636,-0.011759
1765407966.584599,-9.881634,-0.112386,0.264228,-0.016952,-0.007636,-0.008399
1765407966.584799,-9.893590,-0.194883,0.418460,-0.015272,-0.008247,-0.005040
1765407966.584999,-9.967718,-0.284553,0.417862,-0.014050,-0.009163,-0.004887
1765407966.585153,-9.922284,-0.271999,0.339550,-0.011454,-0.011759,-0.006567
1765407966.585353,-9.767454,-0.170373,0.225968,-0.012675,-0.004123,-0.007636
1765407966.585553,-9.833213,-0.173362,0.342539,-0.014355,-0.007941,-0.005040
1765407966.585753,-9.961740,-0.148254,0.480631,-0.013439,-0.006109,-0.003360
1765407966.585953,-9.928861,-0.235533,0.369440,-0.009468,-0.004123,0.000764
1765407966.586238,-9.775226,-0.358680,0.175155,-0.007941,-0.006720,-0.000305
1765407966.586488,-9.881634,-0.310856,0.389766,-0.009010,-0.013134,-0.002443
1765407966.586738,-10.016738,-0.204448,0.465088,-0.006567,-0.010232,-0.001527
1765407966.586988,-9.864896,-0.189503,0.255261,-0.005956,-0.004581,0.002596
1765407966.587221,-9.720228,-0.202056,0.136298,-0.005192,-0.006567,0.005956
1765407966.587421,-9.793160,-0.271401,0.257652,-0.004276,-0.006567,0.006414
1765407966.587621,-9.793160,-0.271401,0.257652,-0.004276,-0.007636,0.006414
1765407966.587821,-9.989238,-0.208034,0.407700,-0.003512,-0.006109,0.003207
1765407966.588021,-9.846962,-0.148254,0.190100,-0.004123,-0.001680,0.002138
1765407966.588246,-9.874461,-0.109995,0.247489,-0.002138,-0.008399,0.001680
1765407966.588446,-10.052606,-0.058584,0.491989,-0.002291,-0.008399,0.003665
1765407966.588646,-10.052606,-0.058584,0.491989,-0.002291,-0.007789,0.003665
1765407966.588846,-9.978478,-0.056791,0.320421,-0.003665,-0.001374,0.007789
1765407966.589046,-9.933045,-0.047824,0.243902,-0.002291,-0.004887,0.005651
1765407966.589198,-10.010758,-0.028694,0.400526,-0.003818,-0.006567,0.005956
1765407966.589398,-10.136297,0.027499,0.523075,-0.002443,-0.007941,0.006872
1765407966.589598,-10.022716,-0.007771,0.364658,-0.001527,-0.002596,0.009621
1765407966.589798,-9.856527,-0.095648,0.156624,-0.002749,-0.009163,0.009163
1765407966.589998,-9.882831,-0.074127,0.251076,-0.003207,-0.009163,0.007330
1765407966.590235,-10.011356,-0.029890,0.373027,-0.001680,-0.008247,0.003665
1765407966.590402,-10.040649,0.017934,0.437590,-0.001527,-0.006872,0.001985
1765407966.590568,-9.921089,0.065758,0.263032,-0.001985,-0.002902,0.005040
1765407966.590735,-9.830223,0.063367,0.237924,-0.000764,-0.008552,0.004734
1765407966.590902,-9.997009,0.056193,0.389168,0.002138,-0.008552,0.002596
1765407966.591068,-9.997009,0.056193,0.389168,0.002138,-0.007025,0.002596
1765407966.591226,-10.009563,0.133907,0.253467,-0.001527,-0.005956,0.002291
1765407966.591426,-9.854136,0.209230,0.144668,-0.002138,-0.003207,0.002291
1765407966.591626,-9.905546,0.141679,0.309660,-0.002749,-0.004887,0.001527
1765407966.591826,-10.072930,0.176949,0.535629,-0.005651,-0.007636,0.001833
1765407966.592026,-10.072930,0.176949,0.535629,-0.005651,-0.006872,0.001833
1765407966.592282,-9.854136,0.105213,0.161406,-0.008247,-0.008094,0.001833
1765407966.592482,-9.912122,0.124940,0.307269,-0.009163,-0.008094,0.000611
1765407966.592682,-10.085484,0.139885,0.527260,-0.007483,-0.009163,-0.002138
1765407966.592882,-10.046029,0.156624,0.429220,-0.007178,-0.009163,-0.000916
1765407966.593082,-9.815279,0.094452,0.145863,-0.007330,-0.005498,-0.001222
1765407966.593218,-9.751313,0.042444,0.170373,-0.008858,-0.006720,-0.002443
1765407966.593418,-9.950979,0.060976,0.461502,-0.013592,-0.011301,-0.002902
1765407966.593618,-9.956359,0.081301,0.405308,-0.012217,-0.006261,-0.002596
1765407966.593818,-9.742945,0.059780,0.114778,-0.011148,-0.005040,-0.002596
1765407966.594018,-9.725608,0.057389,0.227164,-0.011301,-0.007330,-0.003665
1765407966.594255,-9.997607,0.008369,0.489000,-0.012065,-0.008552,-0.005956
1765407966.594455,-10.068149,-0.043042,0.538020,-0.014050,-0.007941,-0.005803
1765407966.594655,-9.981467,-0.004185,0.298900,-0.014050,-0.005956,-0.005803
1765407966.594855,-9.829028,0.068149,0.211023,-0.012065,-0.005651,-0.006872
1765407966.595055,-9.906144,0.002989,0.358680,-0.012523,-0.005498,-0.005956
1765407966.595158,-10.026900,-0.046628,0.505739,-0.012828,-0.005956,-0.005192
1765407966.595408,-9.979075,-0.019727,0.363462,-0.010690,-0.002291,-0.004581
1765407966.595658,-9.778812,-0.051411,0.137494,-0.010690,-0.002749,-0.004581
1765407966.595908,-9.821855,-0.068149,0.236729,-0.010843,-0.010385,-0.005040
1765407966.596128,-10.077114,-0.008369,0.559541,-0.012675,-0.008247,-0.005651
1765407966.596328,-10.150645,-0.041248,0.445361,-0.010232,-0.006109,-0.003512
1765407966.596528,-9.943208,-0.038259,0.243305,-0.007941,-0.001985,-0.005040
1765407966.596728,-9.888808,-0.028694,0.259445,-0.012217,-0.003512,-0.005040
1765407966.596928,-10.031682,-0.123745,0.528455,-0.013134,-0.010537,0.000153
1765407966.597151,-10.071735,-0.087279,0.458513,-0.010690,-0.006261,-0.001985
1765407966.597351,-9.849353,-0.037064,0.145265,-0.010232,-0.001680,-0.004734
1765407966.597551,-9.807508,-0.077714,0.200861,-0.013134,-0.006109,-0.001985
1765407966.597751,-10.028095,-0.103419,0.502152,-0.013286,-0.012217,-0.001680
1765407966.597951,-10.075920,-0.124342,0.454328,-0.010079,-0.011301,0.000764
1765407966.598193,-9.864896,-0.131516,0.166188,-0.009316,-0.002749,-0.000305
1765407966.598393,-9.771041,-0.138690,0.143472,-0.008399,-0.004123,-0.001680
1765407966.598593,-9.989238,-0.186514,0.410091,-0.007941,-0.010996,-0.001527
1765407966.598793,-10.093256,-0.102224,0.455524,-0.005192,-0.008399,0.000611
1765407966.598993,-9.870873,-0.126734,0.185318,-0.006414,-0.005803,0.002291
1765407966.599159,-9.752509,-0.181731,0.133907,-0.006414,-0.000458,0.002291
1765407966.599359,-10.011356,-0.160210,0.410091,-0.005803,-0.010843,-0.001222
1765407966.599559,-10.161406,-0.077714,0.561932,-0.006261,-0.009468,0.000305
1765407966.599759,-9.939023,-0.062769,0.273792,-0.004581,-0.006567,-0.000916
1765407966.599959,-9.794952,-0.051411,0.159613,-0.007789,-0.004734,-0.000305
1765407966.600191,-9.985652,-0.037064,0.433405,-0.004887,-0.009316,-0.001374
1765407966.600391,-10.080104,-0.007174,0.485414,-0.007483,-0.005192,0.002902
1765407966.600591,-9.897178,0.003587,0.239718,-0.006720,-0.004429,0.002291
1765407966.600791,-9.787780,-0.019130,0.132114,-0.006261,-0.004581,0.000611
1765407966.600991,-10.028693,0.013152,0.477044,-0.007483,-0.008247,-0.001374
1765407966.601157,-10.105211,-0.004782,0.563725,-0.006567,-0.008247,0.003054
1765407966.601357,-9.936632,0.000000,0.312052,-0.005345,-0.007789,-0.001069
1765407966.601557,-9.767454,0.013152,0.147059,-0.008552,-0.005040,0.002138
1765407966.601757,-9.933045,-0.022119,0.387374,-0.003512,-0.009316,0.001680
1765407966.601957,-10.115973,-0.016141,0.590626,-0.006261,-0.012065,0.003665
1765407966.602134,-9.967718,-0.009565,0.312052,-0.007789,-0.004734,0.003512
1765407966.602334,-9.681969,-0.025705,0.022716,-0.005651,-0.003207,0.001985
1765407966.602534,-9.791965,-0.022716,0.252869,-0.007330,-0.005498,0.003512
1765407966.602734,-10.044236,-0.002391,0.534433,-0.006414,-0.009621,0.000916
1765407966.602934,-9.984456,0.035270,0.363462,-0.009163,-0.003512,-0.001222
1765407966.603183,-9.709468,0.023314,0.025108,-0.007636,-0.001833,-0.000458
1765407966.603383,-9.820659,-0.011956,0.261836,-0.007483,-0.007483,-0.000764
1765407966.603583,-10.163198,0.011358,0.652798,-0.007636,-0.003054,-0.001374
1765407966.603783,-10.127929,0.000000,0.479436,-0.006414,-0.003054,0.000611
1765407966.603983,-9.835006,0.025108,0.144668,-0.008247,-0.001985,-0.002596
1765407966.604215,-9.796148,0.039455,0.182329,-0.008094,-0.007025,-0.001374
1765407966.604415,-9.994021,-0.002989,0.456121,-0.007636,-0.010996,-0.000305
1765407966.604615,-10.103418,0.045433,0.500359,-0.007483,-0.003512,-0.002749
1765407966.604815,-9.906742,0.040650,0.236729,-0.008399,-0.003512,-0.002443
1765407966.605015,-9.728598,0.014347,0.086083,-0.009316,-0.007636,-0.001069
1765407966.605299,-10.033475,0.053204,0.475849,-0.010537,-0.010843,-0.001833
1765407966.605499,-10.228358,0.004782,0.636059,-0.008858,-0.007941,-0.001527
1765407966.605699,-10.013150,-0.013152,0.339550,-0.007941,-0.005345,-0.000305
1765407966.605899,-9.827234,-0.029890,0.148254,-0.008858,-0.005345,-0.001833
1765407966.606099,-9.827234,-0.029890,0.148254,-0.008858,-0.007941,-0.001833
1765407966.606209,-10.115973,-0.036466,0.590626,-0.011912,-0.013897,-0.003512
1765407966.606409,-9.999401,0.013749,0.303682,-0.014050,-0.004581,-0.001222
1765407966.606609,-9.999401,0.013749,0.303682,-0.014050,-0.002749,-0.001222
1765407966.606809,-9.905546,-0.093257,0.324605,-0.009163,-0.010232,-0.000458
1765407966.607009,-10.114178,-0.094452,0.607365,-0.008858,-0.010996,-0.000458
1765407966.607194,-10.002987,-0.060976,0.352104,-0.008094,-0.004123,-0.002138
1765407966.607394,-9.770443,-0.052606,0.160210,-0.008094,-0.004123,-0.000305
1765407966.607594,-9.856527,-0.078312,0.290531,-0.011148,-0.006872,-0.003818
1765407966.607794,-10.137493,-0.057389,0.563128,-0.006872,-0.008247,-0.000764
1765407966.607994,-10.027497,-0.034672,0.360473,-0.007178,-0.007789,-0.000305
1765407966.608223,-9.790769,-0.096844,0.156624,-0.006567,-0.004276,-0.001222
1765407966.608423,-9.935436,-0.040650,0.335964,-0.006109,-0.008399,-0.001222
1765407966.608623,-10.114776,-0.041846,0.592420,-0.005956,-0.008247,0.001833
1765407966.608823,-10.069942,-0.020923,0.384983,-0.006872,-0.008247,0.000764
1765407966.609023,-9.853538,-0.038259,0.215208,-0.007025,-0.005192,0.000916
1765407966.609092,-9.875656,-0.109397,0.318030,-0.007789,-0.008552,0.000458
1765407966.609292,-10.050214,-0.080105,0.523673,-0.008094,-0.010232,-0.000916
1765407966.609492,-10.023313,0.033477,0.363462,-0.005956,-0.005956,-0.000611
1765407966.609692,-9.760879,-0.024510,0.124940,-0.008705,-0.005345,-0.000305
1765407966.609892,-9.864896,-0.029292,0.283357,-0.006109,-0.008552,-0.001222
1765407966.610245,-10.129124,-0.082496,0.607365,-0.008399,-0.009163,-0.002443
1765407966.610445,-10.096244,-0.022716,0.422645,-0.007330,-0.005803,0.000611
1765407966.610645,-9.864896,0.006576,0.218197,-0.008399,-0.005040,-0.000305
1765407966.610845,-9.842180,-0.050813,0.302487,-0.009468,-0.005345,-0.000916
1765407966.611045,-10.035867,-0.071736,0.529651,-0.005956,-0.010690,0.001833
1765407966.611188,-10.035867,-0.071736,0.529651,-0.005956,-0.004581,0.001833
1765407966.611388,-9.805116,-0.001793,0.090866,-0.010385,-0.004123,0.000611
1765407966.611588,-9.787182,0.004782,0.155428,-0.006567,-0.006567,-0.002138
1765407966.611788,-10.058583,-0.034672,0.535031,-0.008705,-0.006567,-0.000916
1765407966.611988,-10.051410,-0.001196,0.424438,-0.005956,-0.006567,-0.000153
1765407966.612154,-9.858918,0.010760,0.209230,-0.007330,-0.001985,0.000000
1765407966.612354,-9.787780,-0.005380,0.205643,-0.010385,-0.004123,-0.000916
1765407966.612554,-10.053802,-0.037064,0.484218,-0.010537,-0.009774,0.000916
1765407966.612754,-10.086082,0.022119,0.400526,-0.007330,-0.004734,0.000153
1765407966.612954,-9.833811,-0.000598,0.131516,-0.007636,-0.002138,-0.001527
1765407966.613174,-9.777020,-0.003587,0.164395,-0.007178,-0.006567,-0.003207
1765407966.613374,-10.051410,0.027499,0.477044,-0.009316,-0.010079,-0.000458
1765407966.613574,-10.087276,0.007771,0.487207,-0.007025,-0.008094,-0.002291
1765407966.613774,-9.864896,-0.021521,0.192492,-0.008705,-0.004123,-0.000611
1765407966.613974,-9.780008,-0.086681,0.202056,-0.009010,-0.006872,0.000000
1765407966.614182,-9.960544,-0.068149,0.419656,-0.006109,-0.011759,-0.001374
1765407966.614382,-10.059779,0.022716,0.399330,-0.008552,-0.009010,-0.003512
1765407966.614582,-9.863700,-0.026303,0.196078,-0.006720,-0.004581,0.000611
1765407966.614782,-9.868484,-0.046628,0.254663,-0.007330,-0.006872,-0.000916
1765407966.614982,-10.047226,-0.104017,0.533835,-0.010690,-0.011606,-0.001680
1765407966.615197,-10.074127,-0.037064,0.425036,-0.005192,-0.006872,-0.000764
1765407966.615397,-9.884026,-0.046628,0.263032,-0.007025,0.000000,-0.002138
1765407966.615597,-9.841581,-0.049617,0.307269,-0.010232,-0.008552,-0.001222
1765407966.615797,-9.964130,-0.029890,0.428025,-0.011148,-0.008858,-0.003054
1765407966.615997,-10.011955,0.020923,0.348517,-0.006872,-0.007330,-0.001833
1765407966.616253,-9.896580,-0.021521,0.208034,-0.005345,-0.004887,-0.000916
1765407966.616453,-9.882831,-0.075323,0.296509,-0.008552,-0.011759,-0.000764
1765407966.616653,-9.894786,-0.283357,0.937350,-0.008705,-0.011759,-0.002902
1765407966.616853,-9.329865,-0.105811,0.155428,-0.008858,0.000611,-0.008858
1765407966.617053,-9.428502,0.467480,-0.189503,-0.010843,-0.006567,-0.010690
1765407966.617236,-9.428502,0.467480,-0.189503,-0.010843,-0.003665,-0.010690
1765407966.617486,-9.884026,-0.168580,0.777140,-0.004734,0.008552,0.007483
1765407966.617736,-9.742945,-0.169775,0.649211,-0.014355,0.010843,-0.000916
1765407966.617986,-9.218077,-0.285748,-0.374223,-0.015577,0.004887,-0.001374
1765407966.618217,-9.540888,-0.301889,-0.441176,-0.004581,-0.018631,-0.002596
1765407966.618417,-9.540888,-0.301889,-0.441176,-0.004581,-0.003360,-0.002596
1765407966.618617,-10.389765,0.532640,1.217121,-0.006872,0.015882,-0.004429
1765407966.618817,-9.621591,0.130320,0.063367,-0.014355,0.015882,0.009927
1765407966.619017,-9.537301,-0.590029,-0.147059,-0.010537,-0.018173,0.010232
1765407966.619132,-9.799137,-0.662362,0.196078,-0.007025,-0.013134,-0.005498
1765407966.619332,-10.071137,0.261836,0.589431,-0.002749,0.009774,-0.017410
1765407966.619532,-9.825441,0.678503,0.181731,-0.008094,0.019242,-0.004123
1765407966.619732,-9.710065,0.103419,0.053802,-0.010537,0.006414,0.011148
1765407966.619932,-9.970109,-0.469871,0.414873,-0.006872,-0.002902,0.011454
1765407966.620148,-10.150046,-0.384983,0.640842,-0.007025,0.006720,-0.004123
1765407966.620348,-9.925871,0.011956,0.309660,-0.007789,0.011301,-0.010843
1765407966.620548,-9.707675,0.154830,0.060976,-0.009163,0.003665,-0.005192
1765407966.620748,-9.940817,0.209230,0.315638,-0.006872,0.000000,-0.000916
1765407966.620948,-10.007771,0.109995,0.480631,-0.005345,0.004734,0.002902
1765407966.621105,-9.772835,-0.063367,0.143472,-0.009468,0.002902,0.003054
1765407966.621305,-9.728000,-0.237327,0.017336,-0.010079,0.002902,0.001374
1765407966.621505,-9.976088,-0.166188,0.420253,-0.010079,0.001222,0.001374
1765407966.621705,-10.090864,0.036466,0.528455,-0.007483,0.008094,-0.005498
1765407966.621905,-9.894786,0.255858,0.308465,-0.011606,0.013592,-0.003512
1765407966.622192,-9.851147,0.166786,0.204448,-0.011606,0.003818,0.003054
1765407966.622392,-10.002987,-0.092061,0.337159,-0.011454,0.003818,0.008094
1765407966.622592,-10.103418,-0.350311,0.448350,-0.006567,0.007789,0.004429
1765407966.622792,-9.913916,-0.299498,0.285748,-0.006261,0.012828,-0.004887
1765407966.622992,-9.936632,0.089670,0.307269,-0.007636,0.006872,-0.008705
1765407966.623187,-10.009563,0.301291,0.425036,-0.008399,0.003818,-0.004276
1765407966.623387,-9.934240,0.147059,0.321019,-0.008094,0.007178,0.004581
1765407966.623587,-9.941415,-0.209230,0.328790,-0.008247,0.008094,0.004734
1765407966.623787,-9.947392,-0.324008,0.327594,-0.008858,0.002902,-0.001680
1765407966.623987,-10.050812,-0.084888,0.294118,-0.004276,0.002902,-0.004887
1765407966.624165,-10.050812,-0.084888,0.294118,-0.004276,0.005956,-0.004887
1765407966.624365,-9.961142,0.114180,0.352702,-0.007636,0.006720,-0.001374
1765407966.624565,-9.974294,-0.013152,0.319225,-0.010385,0.005498,0.002291
1765407966.624765,-9.991630,-0.033477,0.271401,-0.008094,0.001374,0.000153
1765407966.624965,-9.995216,-0.066954,0.279770,-0.005956,0.009010,-0.001985
1765407966.625146,-9.989837,-0.103419,0.333572,-0.009010,0.008552,-0.000305
1765407966.625346,-10.116570,-0.035868,0.474055,-0.009010,-0.001985,-0.001222
1765407966.625546,-10.081299,0.040053,0.303682,-0.007636,-0.000305,-0.001833
1765407966.625746,-9.881634,0.027499,0.055595,-0.009163,0.003665,-0.001374
1765407966.625946,-9.940218,-0.043639,0.248685,-0.007941,0.003665,0.002443
1765407966.626108,-9.940218,-0.043639,0.248685,-0.007941,0.002291,0.002443
1765407966.626308,-10.153036,0.013749,0.492587,-0.011454,0.002749,-0.000611
1765407966.626508,-10.028095,-0.069345,0.212817,-0.007483,0.007636,0.002902
1765407966.626708,-10.127929,-0.155428,0.400526,-0.006567,-0.003512,0.001985
1765407966.626908,-10.275584,-0.065758,0.538020,-0.008858,-0.003512,-0.002291
1765407966.627101,-9.964130,0.022716,0.186514,-0.007483,-0.002443,-0.002291
1765407966.627301,-9.671208,-0.068747,-0.117169,-0.009163,-0.002291,-0.000764
1765407966.627501,-9.982065,0.010760,0.353300,-0.006872,-0.007025,-0.001985
1765407966.627701,-10.206240,-0.009565,0.626494,-0.009927,-0.000458,-0.000611
1765407966.627901,-10.017933,-0.118364,0.221186,-0.007025,0.000153,-0.001374
1765407966.628084,-9.854136,-0.153635,0.089670,-0.008247,-0.009010,-0.002138
1765407966.628284,-9.940817,-0.023912,0.247489,-0.006109,-0.004581,-0.002749
1765407966.628484,-9.980869,0.119560,0.334170,-0.007941,-0.007025,-0.003054
1765407966.628684,-9.980869,0.119560,0.334170,-0.007941,-0.000611,-0.003054
1765407966.628884,-9.854136,-0.065160,0.166188,-0.009010,-0.004887,0.004123
1765407966.629172,-9.998802,-0.162602,0.401722,-0.007941,-0.009163,0.001985
1765407966.629372,-10.109993,-0.144070,0.528455,-0.008705,-0.007789,-0.004429
1765407966.629572,-9.973098,0.023314,0.269608,-0.005192,-0.006109,-0.004123
1765407966.629772,-9.888808,0.109995,0.114778,-0.007636,-0.004581,-0.000153
1765407966.629972,-9.977283,0.066954,0.368843,-0.009010,-0.007483,0.000305
1765407966.630136,-10.114178,-0.049020,0.596604,-0.009927,-0.009774,0.003360
1765407966.630469,-9.952772,-0.101626,0.306074,-0.009468,-0.006567,0.000153
1765407966.630803,-9.784791,-0.120158,0.025108,-0.006414,-0.008094,-0.001833
1765407966.631119,-9.837397,-0.064562,0.248087,-0.006261,-0.008399,-0.002291
1765407966.634110,-10.068746,0.023912,0.559541,-0.008552,-0.008705,-0.002443
1765407966.636131,-9.997607,0.089670,0.394548,-0.008094,-0.005651,0.000764
1765407966.638228,-9.759085,-0.028694,0.081301,-0.008399,-0.008705,0.001680
1765407966.641091,-9.807508,-0.130320,0.290531,-0.009468,-0.008705,-0.000764
1765407966.644133,-9.986848,-0.153037,0.429220,-0.009163,-0.009468,-0.000458
1765407966.646139,-9.863102,-0.026303,0.224175,-0.004429,-0.005498,-0.001222
1765407966.649099,-9.778812,0.053802,0.214012,-0.007636,-0.003360,-0.002749
1765407966.651153,-9.888808,0.043042,0.422047,-0.007636,-0.008858,-0.001374
1765407966.654200,-10.005977,-0.036466,0.514108,-0.005651,-0.008858,0.002138
1765407966.656097,-9.922284,-0.029292,0.310258,-0.009621,-0.003818,0.001069
1765407966.658143,-9.798540,-0.072932,0.224175,-0.008705,-0.002291,-0.001069
1765407966.661071,-9.844571,-0.076518,0.314443,-0.005651,-0.008247,-0.001527
1765407966.664114,-9.946198,-0.034672,0.408895,-0.009468,-0.005803,0.000305
1765407966.666078,-9.799137,0.028097,0.184122,-0.006414,-0.003207,-0.000458
1765407966.669164,-9.696915,-0.001793,0.124940,-0.005498,-0.003971,-0.000305
1765407966.671125,-9.897178,-0.083692,0.422047,-0.006720,-0.009774,0.001374
1765407966.674114,-10.037063,-0.099235,0.500956,-0.008552,-0.006872,-0.001374
1765407966.676135,-9.942610,-0.018532,0.282162,-0.009010,-0.004581,-0.003971
1765407966.679128,-9.814680,-0.046628,0.199665,-0.009163,-0.000764,-0.000916
1765407966.681162,-9.934838,-0.102822,0.442372,-0.008552,-0.007636,0.003207
1765407966.683188,-10.047822,-0.094452,0.508130,-0.006567,-0.006414,-0.000458
1765407966.686152,-9.831419,-0.063367,0.210426,-0.006720,0.002291,-0.000153
1765407966.689162,-9.675991,0.011956,-0.002391,-0.009621,0.000764,-0.002443
1765407966.691087,-9.887612,0.020325,0.420851,-0.008247,-0.003360,0.000764
1765407966.693150,-10.077712,-0.053204,0.595409,-0.006109,-0.002596,0.001222
1765407966.696098,-9.909731,-0.099235,0.279770,-0.007636,-0.001069,0.002138
1765407966.699162,-9.725608,-0.107604,0.163199,-0.007636,-0.001069,0.000153
1765407966.701122,-9.725608,-0.107604,0.163199,-0.007636,-0.006109,0.000153
1765407966.705806,-9.987445,0.001793,0.509326,-0.003360,-0.005498,-0.001374
1765407966.706306,-9.882831,0.090866,0.242109,-0.008247,0.002902,-0.000916
1765407966.708189,-9.769248,0.041846,0.119560,-0.007789,0.001374,0.001222
1765407966.711061,-9.849353,-0.099833,0.355691,-0.007789,0.000000,0.003512
1765407966.712129,-10.048421,-0.155428,0.477642,-0.005956,-0.003207,0.003054
1765407966.716106,-9.940817,-0.117169,0.324008,-0.007178,0.003818,-0.000764
1765407966.719081,-9.787780,-0.027499,0.200861,-0.007789,0.003818,-0.002443
1765407966.719581,-9.875656,0.022119,0.359876,-0.007178,-0.000305,0.000764
1765407966.724121,-10.012553,0.056193,0.421449,-0.008247,-0.003360,0.001222
1765407966.726083,-9.887612,0.007771,0.257054,-0.008552,0.003207,0.003512
1765407966.729112,-9.780008,-0.133309,0.102822,-0.005498,-0.000458,0.002443
1765407966.731105,-9.964130,-0.160210,0.395744,-0.006567,-0.000458,0.001527
1765407966.734119,-10.122547,-0.053802,0.529053,-0.006720,0.000000,-0.001374
1765407966.736115,-9.969511,0.065160,0.294118,-0.004581,0.005498,0.000611
1765407966.739072,-9.814680,0.011956,0.145863,-0.007025,0.005651,0.003360
1765407966.741107,-9.949782,0.000000,0.386179,-0.006109,-0.002902,0.002596
1765407966.743153,-10.019128,-0.062769,0.364658,-0.007789,-0.001069,0.004581
1765407966.746333,-10.019128,-0.062769,0.364658,-0.007789,-0.000153,0.004581
1765407966.749099,-9.887612,-0.098637,0.209230,-0.006567,0.000153,0.003054
1765407966.751104,-10.062170,-0.056791,0.431612,-0.007483,0.000153,-0.000611
1765407966.754304,-10.136894,-0.031086,0.483022,-0.002443,0.000000,-0.000305
1765407966.756123,-9.989238,0.013152,0.197274,-0.004429,0.002902,0.001680
1765407966.759134,-9.926469,-0.021521,0.204448,-0.004429,0.000611,0.001680
1765407966.761214,-10.080104,-0.082496,0.466284,-0.007636,-0.004887,0.001222
1765407966.764106,-10.156025,-0.090866,0.432807,-0.005651,-0.003971,-0.000764
1765407966.766151,-9.997607,-0.050215,0.177547,-0.005651,0.003207,0.000305
1765407966.769106,-9.855330,0.011956,0.095648,-0.004276,-0.003054,-0.000305
1765407966.771106,-10.019128,0.032281,0.353300,-0.004429,-0.003971,0.000000
1765407966.774163,-10.214011,0.010163,0.532042,-0.006720,-0.005803,0.000764
1765407966.776168,-10.075920,-0.031086,0.321019,-0.008094,-0.000611,0.000611
1765407966.779092,-9.863102,-0.075323,0.099235,-0.007483,-0.000153,0.000764
1765407966.781123,-9.932447,-0.149450,0.252869,-0.006414,-0.005040,0.001222
1765407966.784148,-10.104015,-0.081301,0.463295,-0.005498,-0.005040,0.002596
1765407966.786160,-9.996411,-0.001793,0.294118,-0.001374,0.001680,-0.000764
1765407966.789107,-9.827832,0.003587,0.087877,-0.004581,0.001680,-0.001374
1765407966.791141,-9.950979,0.003587,0.331181,-0.004581,-0.005040,-0.001374
1765407966.794107,-10.149448,-0.007771,0.493783,-0.006872,-0.007178,0.003207
1765407966.796149,-10.040051,-0.091463,0.301291,-0.006109,-0.002596,0.003818
1765407966.799066,-9.881634,-0.125538,0.159015,-0.001985,-0.003054,-0.000305
1765407966.801087,-9.912720,-0.063367,0.315638,-0.005498,-0.005040,0.000305
1765407966.804091,-10.041844,0.017934,0.429220,-0.005651,-0.006720,-0.001374
1765407966.806083,-9.936033,0.083692,0.247489,-0.008247,-0.005651,0.001374
1765407966.809156,-9.854136,0.012554,0.196676,-0.006720,-0.005651,-0.000153
1765407966.811088,-9.970109,-0.091463,0.349115,-0.007178,-0.010079,0.001985
1765407966.812132,-10.031085,-0.130320,0.396341,-0.005040,-0.007178,0.003207
1765407966.816155,-9.964130,-0.088474,0.289335,-0.004276,-0.003665,0.001833
1765407966.819210,-9.935436,-0.021521,0.319823,-0.006261,-0.006261,0.001833
1765407966.822080,-10.018531,0.039455,0.431612,-0.005956,-0.011912,0.000764
1765407966.824116,-9.992825,0.059182,0.353300,-0.004581,-0.005498,0.001374
1765407966.826123,-9.931850,0.019727,0.247489,-0.005956,-0.004581,0.001985
1765407966.829105,-9.936033,-0.054998,0.333572,-0.005498,-0.006720,0.003207
1765407966.831194,-10.017933,-0.139885,0.429220,-0.006414,-0.005803,0.003971
1765407966.834144,-9.964130,-0.091463,0.367049,-0.004581,-0.003512,0.001833
1765407966.836147,-9.933045,-0.082496,0.279770,-0.004887,-0.002138,0.001985
1765407966.839115,-9.943806,-0.040053,0.351506,-0.005803,-0.008094,-0.001680
1765407966.839615,-10.002390,0.031086,0.453730,-0.006109,-0.007941,-0.001374
1765407966.844112,-9.855929,0.012554,0.271999,-0.009163,-0.004123,0.003818
1765407966.844612,-9.752509,-0.064562,0.066954,-0.009163,-0.004123,0.003818
1765407966.849079,-9.912720,-0.087279,0.314443,-0.007941,-0.002138,0.001069
1765407966.851094,-10.098038,-0.070540,0.575084,-0.009163,-0.004887,-0.000458
1765407966.854098,-10.011955,-0.022716,0.417862,-0.009621,-0.005192,-0.001680
1765407966.856086,-9.777617,-0.020325,0.133907,-0.010537,-0.001374,-0.000153
1765407966.859095,-9.823050,-0.005978,0.272597,-0.008858,-0.006414,-0.000916
1765407966.861123,-10.029889,-0.067551,0.459708,-0.006720,-0.002596,-0.000153
1765407966.864140,-9.962337,-0.117169,0.339550,-0.006567,-0.003512,0.001833
1765407966.866125,-9.780008,-0.117767,0.131516,-0.003818,0.000916,-0.001069
1765407966.869094,-9.779410,-0.066954,0.151841,-0.001527,-0.005040,0.001833
1765407966.871110,-9.972500,0.034672,0.404113,-0.000916,-0.005040,-0.000764
1765407966.874132,-10.065758,0.109995,0.468675,-0.006414,-0.002596,0.000916
1765407966.876081,-9.829626,0.087279,0.135103,-0.008399,0.001069,0.001069
1765407966.879069,-9.751911,0.022716,0.014347,-0.007636,0.000000,0.004429
1765407966.879569,-9.953370,-0.114778,0.295313,-0.005498,-0.004581,0.004887
1765407966.884143,-10.108798,-0.148852,0.539813,-0.004887,0.000000,0.000458
1765407966.886129,-9.980869,-0.107006,0.367647,-0.006414,0.006109,0.002138
1765407966.889130,-9.768052,-0.019130,0.106408,-0.008399,0.007025,0.000458
1765407966.891120,-9.842777,0.033477,0.251674,-0.008094,-0.001069,0.001833
1765407966.894090,-10.080104,0.016738,0.505739,-0.006567,0.000458,0.002138
1765407966.896128,-9.972500,-0.111789,0.288737,-0.007941,0.000000,0.001222
1765407966.899105,-9.766259,-0.098039,0.044237,-0.006567,0.001833,0.003665
1765407966.901126,-9.953370,-0.063367,0.329388,-0.006414,0.001222,0.001680
1765407966.903170,-10.117167,0.002989,0.572095,-0.004123,0.001222,0.002443
1765407966.906137,-10.026302,0.022716,0.438785,-0.005040,0.003971,0.003971
1765407966.907202,-9.807508,-0.020325,0.166188,-0.005345,0.005345,0.002138
1765407966.909092,-9.858320,-0.093257,0.170971,-0.004429,-0.002443,0.004429
1765407966.914133,-10.108798,-0.131516,0.506934,-0.002902,-0.001222,0.003818
1765407966.916107,-10.114776,-0.096844,0.522477,-0.002138,-0.001222,0.001527
1765407966.919126,-9.913916,-0.023912,0.312052,-0.002138,0.000916,0.001527
1765407966.921136,-9.924676,0.031086,0.294118,-0.006567,-0.003054,-0.000764
1765407966.924151,-10.005977,0.071736,0.453132,-0.008705,-0.007636,-0.001069
1765407966.926238,-10.005977,0.071736,0.453132,-0.008705,-0.003971,-0.001069
1765407966.928336,-9.875656,-0.064562,0.117169,-0.008705,0.000611,0.004276
1765407966.930139,-9.875656,-0.064562,0.117169,-0.008705,-0.001985,0.004276
1765407966.934056,-9.960544,-0.087877,0.320421,-0.007483,0.002138,0.000611
1765407966.936127,-9.942610,-0.108202,0.308465,-0.006567,0.002138,0.003512
1765407966.939098,-9.942610,-0.108202,0.308465,-0.006567,0.003512,0.003512
1765407966.941128,-9.918698,-0.068149,0.238522,-0.005192,0.001680,0.001069
1765407966.944139,-9.997607,-0.049020,0.353898,-0.002902,0.002902,0.001374
1765407966.945110,-9.887612,-0.090268,0.217599,-0.003665,0.005192,0.001222
1765407966.949052,-9.796746,-0.080105,0.140483,-0.001527,0.005040,0.001985
1765407966.951067,-9.921089,0.022119,0.331779,-0.003818,0.000611,-0.001069
1765407966.954051,-10.059181,0.034672,0.499761,-0.002291,0.002749,0.000611
1765407966.954551,-9.961740,0.068149,0.288140,-0.002138,0.003818,0.003665
1765407966.959109,-9.967718,0.007174,0.359876,-0.004581,0.001985,0.003512
1765407966.961142,-10.014346,-0.111789,0.456719,-0.003818,0.002138,0.007178
1765407966.964179,-10.077712,-0.211621,0.505739,-0.003360,-0.005192,0.006109
1765407966.964679,-9.935436,-0.132712,0.338355,-0.006261,-0.002443,-0.000153
1765407966.969110,-9.861309,-0.025108,0.199665,-0.005956,-0.002443,-0.000305
1765407966.971089,-9.950381,0.035868,0.222382,-0.001527,-0.009163,0.000764
1765407966.974059,-9.962935,0.050215,0.351506,-0.002596,-0.008399,0.002596
1765407966.976044,-9.836202,-0.051411,0.155428,-0.005040,0.001527,0.005651
1765407966.979116,-9.756096,-0.089072,-0.004782,-0.004581,0.000611,0.003360
1765407966.981114,-9.964728,0.002391,0.355093,-0.005651,-0.005345,0.000611
1765407966.984151,-9.964728,0.002391,0.355093,-0.005651,0.001680,0.000611
1765407966.986109,-9.919296,0.062769,0.271401,-0.003665,0.005040,0.003971
1765407966.989096,-9.800333,-0.075323,0.126136,-0.003665,0.006414,0.004276
1765407966.991083,-9.931850,-0.191296,0.375418,-0.002749,-0.002138,0.004734
1765407966.994108,-10.145862,-0.027499,0.529053,-0.005345,-0.002138,-0.001985
1765407966.996291,-9.931252,-0.101626,0.214012,-0.002291,0.000458,0.002902
1765407966.998225,-9.691534,-0.008369,-0.040650,-0.003971,0.001222,0.002443
1765407967.001197,-10.010161,0.004782,0.464491,-0.006567,0.000764,0.002443
1765407967.003197,-10.148253,0.001196,0.654591,-0.003512,0.000611,0.004276
1765407967.004178,-9.894786,-0.001196,0.173362,-0.004887,0.002138,0.004887
1765407967.008092,-9.820659,-0.001196,0.187709,-0.007941,0.001527,0.002596
1765407967.011082,-9.912720,0.005978,0.292922,-0.005040,-0.001833,0.003207
1765407967.013144,-10.069344,-0.065160,0.515304,-0.005956,-0.006414,0.003207
1765407967.016071,-9.924676,0.032281,0.280368,-0.006720,-0.000458,0.002138
1765407967.019105,-9.732184,-0.060976,0.043042,-0.007636,0.002596,0.002749
1765407967.021149,-9.782400,-0.033477,-0.020325,-0.005192,-0.005498,0.002902
1765407967.024084,-9.996411,-0.119560,0.346724,-0.004887,-0.005192,0.003207
1765407967.026149,-9.922284,-0.037661,0.328790,-0.001374,0.004123,-0.001527
1765407967.028145,-9.703490,-0.046628,0.011956,-0.003360,0.008247,0.003054
1765407967.031117,-9.878048,-0.037064,0.381396,-0.003360,0.000458,0.002749
1765407967.034117,-10.090266,0.062171,0.500956,-0.001069,-0.000153,0.000305
1765407967.036117,-9.999401,0.052009,0.450741,-0.004276,0.006872,0.004429
1765407967.039132,-9.671806,0.096246,-0.101626,-0.006872,0.003971,0.004581
1765407967.041127,-9.919893,-0.025108,0.280368,-0.010690,-0.002596,0.004123
1765407967.043190,-10.109993,-0.070540,0.558345,-0.007330,0.001374,0.004734
1765407967.046099,-10.001792,-0.194285,0.435198,-0.001222,0.002291,0.003971
1765407967.049055,-9.639525,-0.103419,-0.028694,-0.003360,0.003512,-0.001527
1765407967.051066,-9.776422,-0.040053,0.079507,-0.004429,-0.002596,0.002749
1765407967.052157,-9.905546,-0.029890,0.153037,-0.003207,-0.001374,0.003360
1765407967.056107,-9.939023,-0.044835,0.347920,-0.006414,0.004276,0.002902
1765407967.059082,-9.795551,-0.004185,0.279770,-0.006567,0.014813,0.004581
1765407967.061083,-9.916306,-0.112386,0.282162,-0.006567,-0.002138,0.004429
1765407967.064080,-10.126732,0.039455,0.447154,-0.006872,-0.002138,0.005651
1765407967.066099,-10.224771,0.046031,0.547585,-0.002749,0.003665,0.002749
1765407967.069089,-9.960544,-0.005978,0.449546,-0.005803,0.009927,0.006872
1765407967.071053,-9.960544,-0.005978,0.449546,-0.005803,0.002596,0.006872
1765407967.074140,-10.154231,-0.174558,0.512912,-0.007941,-0.001527,0.003207
1765407967.076108,-10.054996,-0.153037,0.277379,-0.003207,-0.001527,0.002749
1765407967.079140,-9.985652,-0.129723,0.320421,-0.003207,0.001069,0.003360
1765407967.081132,-9.684361,-0.093257,0.041846,-0.004734,0.004123,-0.000153
1765407967.084110,-9.895385,-0.029890,0.170971,-0.003054,-0.006720,0.000305
1765407967.086066,-9.973696,0.055595,0.237924,-0.001680,0.001374,0.000305
1765407967.087154,-9.988043,0.092061,0.264228,-0.003971,0.001374,0.002291
1765407967.089132,-9.856527,0.030488,0.221186,-0.005345,0.011301,0.001985
1765407967.094139,-9.961142,0.011956,0.309660,-0.007178,0.005345,0.002749
1765407967.096088,-10.115973,-0.040650,0.554161,-0.003818,0.005345,0.004276
1765407967.099111,-10.100429,-0.087877,0.302487,-0.009163,0.006567,0.002443
1765407967.100200,-9.885221,-0.118364,0.293520,-0.004429,0.012981,0.006567
1765407967.104095,-9.837397,-0.050215,0.219393,-0.001069,0.004581,0.003207
1765407967.106146,-10.201457,-0.025108,0.706002,-0.002291,-0.000153,0.003054
1765407967.109186,-9.924676,0.007174,0.217599,0.000000,0.004581,0.002138
1765407967.111220,-9.807508,-0.026303,0.094452,-0.005498,0.003971,0.003207
1765407967.114098,-9.768650,-0.055595,0.181731,-0.005498,0.007025,0.002749
1765407967.116100,-10.084887,-0.001196,0.553563,0.000000,-0.000153,0.001680
1765407967.118234,-10.052606,0.057389,0.425634,-0.003818,0.009621,0.002749
1765407967.121326,-9.720826,0.080703,-0.001196,-0.005345,0.009621,0.004276
1765407967.124237,-9.720826,0.080703,-0.001196,-0.005345,0.005345,0.004276
1765407967.126197,-10.025107,-0.114778,0.561334,-0.005040,-0.001680,0.003512
1765407967.128169,-10.062170,-0.225968,0.497370,-0.002749,0.004429,0.004123
1765407967.131193,-9.726207,-0.223577,-0.008967,-0.000916,0.002596,0.004734
1765407967.134079,-9.837996,0.101626,0.167384,-0.003054,0.002596,-0.000764
1765407967.136095,-9.988043,0.115375,0.396939,-0.004734,-0.000764,0.004887
1765407967.139104,-10.164991,0.065758,0.514108,-0.002443,0.001374,0.005651
1765407967.141071,-9.850550,-0.017934,0.219990,-0.003818,0.010537,0.004276
1765407967.143137,-9.850550,-0.017934,0.219990,-0.003818,0.006567,0.004276
1765407967.146099,-9.931252,-0.185318,0.263032,-0.004276,-0.000458,0.004276
1765407967.149133,-10.209229,-0.095648,0.601387,-0.002596,-0.001527,0.000153
1765407967.151165,-9.928263,0.084888,0.204448,-0.003360,0.010996,0.004123
1765407967.153214,-9.803921,0.124342,0.144668,-0.003971,0.010996,0.008094
1765407967.156181,-9.803921,0.124342,0.144668,-0.003971,0.000305,0.008094
1765407967.159117,-10.274986,-0.186514,0.682688,-0.002443,0.003360,0.007941
1765407967.159617,-9.935436,-0.203252,0.221784,0.000916,0.011454,0.008094
1765407967.164085,-9.747129,-0.197274,-0.049020,-0.005040,0.006261,0.004123
1765407967.166095,-9.999999,0.034672,0.352702,-0.002749,0.001527,0.000305
1765407967.167069,-10.155428,0.000000,0.603180,0.000000,0.005192,0.007178
1765407967.171085,-9.911524,0.000000,0.159015,-0.000764,0.011301,0.002902
1765407967.174151,-9.670013,-0.029890,-0.040053,-0.001069,0.011301,0.008399
1765407967.175119,-9.800931,-0.115973,0.246891,0.001527,0.000916,0.009163
1765407967.177145,-10.092059,-0.173960,0.572692,-0.002138,0.000916,0.009316
1765407967.181123,-10.092059,-0.173960,0.572692,-0.002138,0.004123,0.009316
1765407967.183162,-9.900764,0.011956,0.099833,-0.002749,0.009010,0.001374
1765407967.186139,-9.907937,0.071736,0.323410,-0.002443,0.010690,0.008705
1765407967.189154,-10.072930,0.052606,0.460306,0.001222,0.004581,0.010996
1765407967.189654,-10.071137,-0.096844,0.442372,0.001374,0.004581,0.004276
1765407967.194178,-9.829626,-0.108800,0.071736,0.000458,0.009621,0.007941
1765407967.196119,-9.583930,-0.227762,-0.233142,-0.000458,0.006720,0.008552
1765407967.197142,-9.857722,0.047824,0.296509,-0.000764,0.005345,0.003360
1765407967.201196,-10.156623,0.077714,0.555954,-0.000764,0.010843,0.003360
1765407967.204205,-9.990434,0.068149,0.265423,-0.001374,0.009316,0.009468
1765407967.206187,-9.760879,-0.122549,-0.005978,-0.000916,0.010079,0.010690
1765407967.209174,-9.803921,-0.065758,0.132114,-0.003207,0.013439,0.011454
1765407967.209674,-9.956957,-0.187709,0.377810,0.001680,0.011759,0.008858
1765407967.213142,-10.087276,-0.089670,0.535031,0.001680,0.013439,0.008858
1765407967.216099,-10.023911,0.071138,0.431612,0.004123,0.013286,0.002902
1765407967.218082,-9.882831,0.111191,0.384983,-0.001527,0.017715,0.010385
1765407967.221050,-9.835604,0.021521,0.113582,-0.005651,0.007178,0.011759
1765407967.222121,-10.047822,-0.083692,0.438785,-0.001374,0.005651,0.008705
1765407967.224069,-9.939621,-0.206839,0.292324,-0.002902,0.012981,0.009927
1765407967.229135,-9.676588,-0.194883,-0.025108,0.000764,0.008705,0.009621
1765407967.231123,-9.635341,-0.060976,0.016141,0.002291,0.006109,0.003818
1765407967.234114,-10.094451,0.105213,0.503348,0.001833,0.005498,0.009621
1765407967.236079,-9.941415,-0.074127,0.349713,0.000153,0.013439,0.012675
1765407967.239119,-9.803921,-0.128527,0.053204,0.000458,0.011301,0.009316
1765407967.241138,-9.747727,-0.168580,0.042444,-0.000305,0.011301,0.008399
1765407967.244127,-9.978478,-0.126734,0.350311,0.003665,0.007483,0.006109
1765407967.246150,-10.105808,-0.043042,0.465686,0.005956,0.015424,0.006109
1765407967.249148,-9.830223,0.127929,0.190100,0.008247,0.015424,0.007941
1765407967.250148,-9.683165,0.092659,0.115375,0.002138,0.016799,0.008247
1765407967.254171,-9.928263,0.056193,0.358680,-0.001069,0.003818,0.007178
1765407967.256123,-10.193686,-0.010760,0.612147,-0.001527,0.004429,0.007789
1765407967.258152,-10.011955,-0.020923,0.114778,-0.005803,0.008094,0.008094
1765407967.261113,-9.740554,-0.010760,-0.011956,-0.000916,0.011454,0.007789
1765407967.264095,-9.781204,-0.033477,0.168580,0.000916,0.009010,0.010843
1765407967.266183,-10.230749,0.093257,0.734098,0.000764,0.010996,0.008094
1765407967.269147,-9.983260,-0.017934,0.394548,-0.005651,0.017562,0.012217
1765407967.271100,-9.855330,-0.023912,0.074127,-0.000458,0.007941,0.009621
1765407967.274112,-9.931850,-0.051411,0.296509,-0.002443,0.003818,0.012523
1765407967.276104,-10.069344,-0.161406,0.547585,0.000764,0.003360,0.010537
1765407967.279087,-9.875058,-0.087279,0.133907,0.003207,0.010996,0.009010
1765407967.281129,-9.745336,-0.039455,0.011358,0.003971,0.010232,0.007025
1765407967.284146,-9.843375,0.046628,0.194883,-0.001374,0.009774,0.008247
1765407967.286165,-9.884624,0.047824,0.187111,-0.002291,0.005040,0.010690
1765407967.289228,-9.781204,0.063367,0.144668,-0.004887,0.016952,0.008094
1765407967.291224,-9.689142,0.034672,-0.043042,-0.004276,0.009468,0.010232
1765407967.294082,-9.872069,-0.034672,0.249283,-0.002443,0.009468,0.009163
1765407967.296129,-9.872069,-0.034672,0.249283,-0.002443,0.013439,0.009163
1765407967.298145,-9.868484,-0.065758,0.274390,-0.000611,0.018937,0.005956
1765407967.301107,-9.744739,-0.001196,0.051411,-0.000916,0.017868,0.010690
1765407967.304093,-9.882233,0.001793,0.291726,0.001374,0.009010,0.009927
1765407967.306118,-9.961740,0.071736,0.316834,0.000611,0.009010,0.010843
1765407967.308104,-9.961740,0.071736,0.316834,0.000611,0.012523,0.010843
1765407967.311137,-9.814680,-0.173362,0.026901,-0.001069,0.010996,0.012370
1765407967.312157,-9.963533,-0.181731,0.205643,0.004581,0.010537,0.009927
1765407967.317817,-10.120754,-0.037064,0.603778,0.006414,0.022297,0.007789
1765407967.318317,-10.007172,-0.035868,0.463893,0.004123,0.023060,0.010996
1765407967.321060,-10.004184,0.069345,0.239120,-0.001069,0.011759,0.008858
1765407967.324088,-10.065758,-0.013152,0.299498,-0.004581,0.012217,0.007483
1765407967.326082,-9.950979,-0.041248,0.352702,0.001374,0.012217,0.010385
1765407967.329085,-9.976088,-0.007174,0.411884,0.004276,0.013286,0.012828
1765407967.329585,-10.062170,-0.020325,0.667145,-0.000611,0.013744,0.010690
1765407967.332143,-9.934240,-0.047824,0.137494,-0.000458,0.005803,0.013592
1765407967.336089,-9.818267,-0.058584,-0.104017,0.001833,0.012981,0.010079
1765407967.339055,-9.780008,-0.027499,-0.023912,-0.000153,0.012981,0.010690
1765407967.341059,-9.917501,-0.021521,0.325203,-0.000153,0.018021,0.010690
1765407967.344113,-9.830223,0.043042,0.181731,-0.003818,0.018479,0.009774
1765407967.346091,-9.812887,-0.044835,0.179340,-0.001527,0.018479,0.016035
1765407967.349101,-9.930056,-0.145863,0.257054,0.001985,0.015119,0.014203
1765407967.349601,-10.057388,-0.202056,0.494978,0.002749,0.017868,0.014508
1765407967.354137,-10.057388,-0.202056,0.494978,0.002749,0.019548,0.014508
1765407967.354637,-9.739358,0.042444,0.019727,0.001985,0.017715,0.006567
1765407967.359120,-9.918698,0.124342,0.435796,0.001222,0.017715,0.009163
1765407967.361087,-9.966521,0.051411,0.386179,0.003971,0.013439,0.014661
1765407967.362134,-9.914514,-0.029890,0.126734,0.000764,0.011606,0.015424
1765407967.366087,-9.914514,-0.052606,0.205045,0.006567,0.013286,0.015424
1765407967.369139,-9.982065,-0.205643,0.373027,0.005651,0.017410,0.014813
1765407967.371052,-10.085484,0.007174,0.473458,0.002443,0.014661,0.008858
1765407967.372159,-9.833213,0.023912,0.080105,0.000000,0.015730,0.011759
1765407967.376071,-9.872667,0.032281,0.093257,-0.000153,0.010996,0.014966
1765407967.379170,-9.954566,-0.071138,0.136298,0.003207,0.010079,0.016493
1765407967.381145,-10.069942,-0.040053,0.227164,0.001833,0.014050,0.013439
1765407967.384117,-9.993423,-0.084290,0.150048,-0.002138,0.023671,0.013439
1765407967.386139,-9.990434,0.025108,0.324008,0.003207,0.023366,0.011912
1765407967.389150,-10.100429,0.013152,0.420253,0.001222,0.016188,0.009621
1765407967.391115,-10.111190,0.126136,0.475849,-0.001833,0.020159,0.009010
1765407967.394129,-9.824244,0.082496,-0.068747,0.002902,0.017104,0.014050
1765407967.396130,-9.866092,-0.075323,-0.011956,0.003512,0.017104,0.017104
1765407967.399129,-10.182328,-0.028694,0.580464,0.001069,0.019090,0.010690
1765407967.401071,-10.187110,-0.023912,0.716164,0.001374,0.027184,0.013592
1765407967.402079,-9.955761,0.052606,0.312052,0.001985,0.023366,0.013286
1765407967.406119,-9.960544,-0.075921,0.395146,-0.001069,0.011606,0.013592
1765407967.409157,-10.005379,-0.056193,0.285748,-0.002749,0.005345,0.010996
1765407967.411060,-9.918099,-0.079507,-0.014945,0.002291,0.010996,0.013744
1765407967.414102,-9.609037,-0.028694,-0.352702,0.003360,0.019090,0.010996
1765407967.416061,-9.922883,0.121951,0.194883,0.001222,0.016493,0.010232
1765407967.421926,-9.922883,0.121951,0.194883,0.001222,0.023366,0.010232
1765407967.422426,-9.946795,0.038259,0.120756,0.004887,0.019090,0.015730
1765407967.423191,-9.840983,-0.037064,0.017934,0.000000,0.020311,0.012981
1765407967.426137,-9.953370,-0.028694,0.343137,0.001374,0.021228,0.013897
1765407967.427117,-10.052606,-0.138690,0.397537,0.003971,0.016493,0.018021
1765407967.431110,-9.974891,-0.059182,0.154232,0.001374,0.018631,0.008247
1765407967.434095,-9.923481,0.120756,0.136298,0.001527,0.021991,0.009774
1765407967.436138,-9.970109,0.023314,0.283357,0.003207,0.016341,0.018021
1765407967.439100,-10.133906,0.049020,0.583453,-0.001680,0.021686,0.012217
1765407967.439600,-9.980869,0.044835,0.202056,-0.006261,0.022602,0.011148
1765407967.444127,-9.892395,0.068149,-0.059780,-0.002138,0.019853,0.014508
1765407967.446108,-10.002390,-0.046628,0.313247,0.003971,0.019090,0.019242
1765407967.449086,-10.202055,-0.133907,0.565519,0.000611,0.020617,0.013744
1765407967.451128,-9.946198,-0.092061,0.174558,-0.002291,0.025198,0.011606
1765407967.454123,-9.652080,0.145265,-0.262434,0.000458,0.017715,0.011301
1765407967.456104,-9.796746,0.154232,0.013152,0.002902,0.016341,0.015424
1765407967.459103,-10.099234,0.060976,0.428025,-0.000153,0.016188,0.014355
1765407967.461086,-10.149448,-0.005978,0.484218,0.003665,0.024740,0.014966
1765407967.464121,-9.849951,-0.160210,0.064562,0.004123,0.015577,0.017715
1765407967.466084,-10.016738,-0.065160,0.312649,0.002902,0.015577,0.009468
1765407967.469130,-10.200860,-0.013152,0.599593,0.001374,0.020464,0.011759
1765407967.469630,-9.919893,-0.011956,0.137494,0.000000,0.019242,0.010996
1765407967.472202,-9.663438,0.022716,-0.199067,-0.001222,0.019242,0.011148
1765407967.476175,-9.813485,0.044835,-0.099833,-0.001069,0.012523,0.011912
1765407967.478159,-10.025107,-0.112386,0.199067,0.003512,0.016952,0.016035
1765407967.481161,-10.025107,-0.112386,0.199067,0.003512,0.025504,0.016035
1765407967.484096,-9.947989,-0.050215,0.229555,0.001833,0.025656,0.011454
1765407967.486143,-10.047822,-0.008369,0.340148,0.004276,0.021380,0.012370
1765407967.489038,-9.910329,0.062171,0.034672,0.004734,0.016035,0.013439
1765407967.491180,-9.812290,0.190698,-0.136298,0.001069,0.017562,0.009316
1765407967.493115,-9.716043,0.056791,-0.143472,-0.002291,0.026573,0.014813
1765407967.496099,-10.031085,-0.130320,0.410689,0.003512,0.020464,0.018479
1765407967.499118,-10.230152,-0.049020,0.746054,0.005803,0.020464,0.011912
1765407967.499618,-9.850550,-0.142276,0.181731,-0.001374,0.023976,0.017562
1765407967.502129,-9.704685,-0.005978,-0.217599,-0.000611,0.019395,0.011454
1765407967.506134,-10.179338,0.136896,0.447154,0.001985,0.014661,0.010996
1765407967.509074,-10.379004,0.166188,0.919416,0.003665,0.022602,0.018021
1765407967.509574,-9.979673,-0.095050,0.245098,-0.001222,0.022602,0.018021
1765407967.516206,-9.611428,-0.221784,-0.261836,-0.002596,0.014203,0.012828
1765407967.516706,-9.824843,-0.038857,-0.144668,0.003360,0.007941,0.012675
1765407967.518164,-10.105211,-0.038857,0.456719,0.006109,0.016035,0.015730
1765407967.521103,-9.942610,0.101626,0.451937,0.004734,0.037415,0.013439
1765407967.522125,-9.775226,-0.004782,0.289335,0.001527,0.031307,0.018173
1765407967.526102,-9.775226,-0.004782,0.289335,0.001527,0.014661,0.018173
1765407967.529162,-10.225968,-0.011358,0.376614,0.001222,0.027336,0.016341
1765407967.531088,-10.020324,-0.303085,0.220588,0.002138,0.027336,0.020159
1765407967.534090,-10.020324,-0.303085,0.220588,0.002138,0.032987,0.020159
1765407967.536082,-9.886416,0.065160,0.448350,0.001069,0.033292,0.011759
1765407967.539104,-9.879243,0.187111,0.260043,0.001222,0.016799,0.012523
1765407967.539604,-9.985053,0.138690,0.316834,0.001069,0.028863,0.016188
1765407967.544081,-9.796746,0.029890,0.155428,0.003512,0.028863,0.021533
1765407967.546122,-9.555235,-0.285748,-0.212817,0.006414,0.023671,0.025198
1765407967.549134,-9.850550,-0.215806,0.243305,0.005956,0.013439,0.013744
1765407967.551094,-10.172164,0.029890,0.600191,0.006261,0.023671,0.013286
1765407967.552100,-9.874461,0.093855,0.129125,0.010843,0.026725,0.013134
1765407967.556054,-9.675991,0.243902,-0.060378,0.001222,0.019548,0.013439
1765407967.559088,-9.835006,0.246294,0.064562,-0.000611,0.021228,0.018631
1765407967.561083,-9.966521,-0.037064,0.199665,0.002443,0.024740,0.025198
1765407967.563108,-9.888808,-0.212219,0.098039,0.007941,0.024740,0.021380
1765407967.566091,-9.808702,-0.160210,0.004782,0.005040,0.032070,0.016493
1765407967.568184,-9.554040,-0.134505,-0.211621,0.002291,0.030849,0.014050
1765407967.569087,-9.735771,0.106408,0.053802,0.002443,0.029780,0.011454
1765407967.574105,-9.904947,0.158417,0.369440,0.001222,0.032223,0.013439
1765407967.576089,-9.899570,0.236729,0.341942,0.000153,0.034819,0.014203
1765407967.579119,-9.899570,0.236729,0.341942,0.000153,0.035888,0.014203
1765407967.581107,-9.895982,-0.065758,0.216404,0.005192,0.027184,0.020617
1765407967.584067,-10.077712,-0.142874,0.520086,0.003512,0.031001,0.019242
1765407967.586087,-9.832614,-0.109995,0.089670,0.006109,0.032681,0.016646
1765407967.589080,-9.742347,0.124940,-0.084888,0.003818,0.034667,0.008705
1765407967.591113,-9.742347,0.124940,-0.084888,0.003818,0.034056,0.008705
1765407967.594105,-10.170969,0.135701,0.557150,0.003665,0.027489,0.017562
1765407967.596083,-10.036465,-0.048422,0.216404,0.003665,0.030696,0.022144
1765407967.599117,-9.735771,-0.127331,-0.292922,0.003512,0.026878,0.016799
1765407967.601139,-9.782400,-0.032281,-0.001196,0.004429,0.026878,0.016799
1765407967.602165,-10.089668,0.107604,0.498565,0.008094,0.028711,0.014661
1765407967.605210,-10.065758,0.070540,0.326399,0.004734,0.030543,0.016341
1765407967.607176,-9.857722,0.080105,0.117767,-0.001985,0.033139,0.015272
1765407967.611240,-9.759683,-0.010163,-0.138690,0.002291,0.024129,0.020159
1765407967.614094,-9.813485,-0.157819,0.107604,0.008399,0.024129,0.021991
1765407967.615140,-10.059181,0.093257,0.269010,0.004734,0.034361,0.012828
1765407967.619158,-9.861309,0.043639,-0.004782,-0.000458,0.036652,0.016188
1765407967.621144,-9.771041,0.145265,-0.151841,0.001833,0.033598,0.014661
1765407967.623164,-10.116570,0.121951,0.437590,0.000916,0.034819,0.020617
1765407967.626156,-10.235533,-0.010760,0.759206,0.003512,0.038637,0.021228
1765407967.627139,-10.027497,-0.237924,0.271401,0.001985,0.036957,0.024587
1765407967.631128,-9.733380,-0.251076,-0.163199,0.007330,0.028405,0.019090
1765407967.634103,-9.927068,-0.047824,0.018532,0.006567,0.023213,0.012217
1765407967.635101,-10.013748,0.174558,0.303682,0.006567,0.029322,0.012217
1765407967.639133,-9.928861,0.308465,0.072932,0.008247,0.037415,0.016341
1765407967.639633,-9.751313,0.089670,-0.216404,0.006872,0.032376,0.024893
1765407967.643168,-10.083690,-0.046628,0.217599,0.007789,0.030391,0.024893
1765407967.646067,-10.117167,-0.325203,0.429818,0.007330,0.032070,0.023060
1765407967.649089,-10.009563,-0.175753,0.276184,0.007330,0.034819,0.016341
1765407967.651136,-9.833811,0.020325,0.084888,0.000764,0.037721,0.014355
1765407967.653137,-9.971304,0.162602,0.159015,0.006720,0.029474,0.014661
1765407967.656080,-10.108798,0.274390,0.245098,0.007636,0.031307,0.019395
1765407967.657147,-9.879841,0.095648,0.007771,0.005040,0.031307,0.023518
1765407967.661078,-9.838593,-0.139287,-0.059780,0.003054,0.031001,0.025809
1765407967.664118,-10.002390,-0.242109,0.191296,0.007178,0.030085,0.025198
1765407967.666068,-10.247488,-0.181731,0.547585,0.005040,0.029169,0.014050
1765407967.669077,-9.959349,0.114778,0.202056,0.007178,0.032376,0.013134
1765407967.671077,-9.935436,0.284553,0.052009,0.007789,0.032376,0.017410
1765407967.674112,-10.040051,0.258250,0.085485,0.005498,0.027336,0.025198
1765407967.674612,-10.181729,0.087279,0.275586,0.009621,0.025351,0.028405
1765407967.679095,-10.181729,0.087279,0.275586,0.009621,0.038026,0.028405
1765407967.681144,-9.903154,-0.211621,0.188307,0.007330,0.030391,0.023518
1765407967.684153,-10.149448,-0.081899,0.598996,0.005345,0.030391,0.019548
1765407967.685094,-10.120754,0.069345,0.310856,0.006414,0.020769,0.016035
1765407967.689173,-9.666426,0.219990,-0.424438,0.007330,0.029016,0.015577
1765407967.691169,-9.543877,0.237327,-0.398733,0.005956,0.034056,0.021991
1765407967.692194,-9.875656,0.110593,0.399928,0.003207,0.038179,0.027336
1765407967.696146,-10.026302,-0.102224,0.447154,0.005956,0.032529,0.026878
1765407967.699137,-9.912720,-0.191296,-0.049020,0.005803,0.030391,0.021075
1765407967.701135,-9.683763,-0.014347,-0.344333,0.006567,0.032834,0.018326
1765407967.704133,-9.887612,0.125538,0.055595,0.006414,0.030543,0.015577
1765407967.706100,-9.887612,0.125538,0.055595,0.006414,0.030849,0.015577
1765407967.709165,-10.161406,0.213415,0.532042,0.005498,0.037263,0.022144
1765407967.711162,-9.698708,-0.025108,-0.300096,0.006567,0.034361,0.028863
1765407967.714195,-9.577952,-0.238522,-0.372429,0.007483,0.029627,0.029780
1765407967.716144,-10.046627,-0.225371,0.472860,0.006109,0.029627,0.019242
1765407967.721820,-10.187708,0.002391,0.633668,0.005345,0.042455,0.019548
1765407967.722320,-9.910329,0.218795,0.248685,0.005345,0.038332,0.017868
1765407967.724126,-9.746531,0.197274,-0.157819,0.002749,0.028863,0.021991
1765407967.726122,-9.984456,0.063367,0.058584,0.005651,0.026573,0.026878
1765407967.729125,-10.056191,-0.239120,0.092061,0.007025,0.026573,0.027642
1765407967.731118,-10.142276,-0.133309,0.405308,0.012523,0.040470,0.020464
1765407967.734114,-9.767454,-0.088474,0.083692,0.011148,0.042455,0.023366
1765407967.736152,-9.921089,0.186514,0.245696,0.005192,0.025962,0.014203
1765407967.739120,-10.167382,0.345528,0.308465,0.005192,0.025198,0.020769
1765407967.739620,-9.782997,-0.013152,-0.214012,0.007330,0.037568,0.029016
1765407967.744111,-9.635341,-0.049617,-0.220588,0.008094,0.040317,0.025962
1765407967.746113,-9.742945,-0.254663,0.109995,0.005651,0.034208,0.024893
1765407967.748163,-10.096842,-0.002989,0.313247,0.014966,0.034208,0.016341
1765407967.751073,-10.096842,-0.002989,0.313247,0.014966,0.042913,0.016341
1765407967.754096,-9.861309,0.198470,0.163797,0.010690,0.039248,0.025809
1765407967.756098,-9.701099,0.000598,-0.214012,0.008399,0.027184,0.026573
1765407967.760111,-9.950381,-0.108800,0.060976,0.007941,0.025962,0.025198
1765407967.761077,-9.903752,-0.086681,-0.063367,0.015119,0.038332,0.023366
1765407967.764082,-9.903752,-0.086681,-0.063367,0.015119,0.044135,0.023366
1765407967.766139,-9.855330,0.269010,0.239120,0.011912,0.048258,0.019090
1765407967.767055,-10.058583,0.154232,0.444763,0.012065,0.036652,0.026725
1765407967.771137,-10.012553,0.107604,0.048422,0.012217,0.034056,0.026573
1765407967.774117,-9.753107,-0.094452,-0.224773,0.010996,0.040164,0.028253
1765407967.776112,-9.592299,-0.154232,-0.150048,0.008094,0.043677,0.025504
1765407967.779146,-10.040649,0.020325,0.392157,0.009621,0.037263,0.021686
1765407967.781126,-10.115375,0.114778,0.362865,0.007178,0.035583,0.021686
1765407967.784080,-9.757292,0.207437,-0.326399,0.007330,0.039401,0.022144
1765407967.786195,-9.481706,0.102822,-0.459110,0.008247,0.039401,0.026114
1765407967.789198,-9.855330,0.072932,0.325203,0.010385,0.038485,0.027031
1765407967.791105,-10.202055,0.014347,0.796270,0.008399,0.040623,0.027184
1765407967.794121,-9.992825,-0.022716,0.090268,0.008247,0.037110,0.026267
1765407967.796117,-9.550453,0.045433,-0.628886,0.011912,0.034361,0.026267
1765407967.797163,-9.670013,0.143472,-0.371234,0.014508,0.034361,0.025045
1765407967.801115,-10.190099,0.026303,0.591224,0.015272,0.040012,0.029322
1765407967.802130,-10.178144,0.032281,0.517097,0.013592,0.050396,0.027794
1765407967.806138,-9.730989,-0.041846,-0.241511,0.011759,0.046731,0.026573
1765407967.809113,-9.730989,-0.041846,-0.241511,0.011759,0.041997,0.026573
1765407967.811116,-9.956957,0.163797,0.132712,0.008705,0.041233,0.030391
1765407967.814128,-10.025704,-0.014347,0.240913,0.011148,0.043982,0.033139
1765407967.816136,-9.756694,-0.094452,-0.099235,0.010232,0.045815,0.029322
1765407967.819166,-9.656861,-0.197274,-0.301291,0.014050,0.043219,0.026573
1765407967.821106,-9.860114,0.098039,-0.021521,0.015577,0.037415,0.023060
1765407967.825781,-10.242706,0.216404,0.521879,0.014203,0.045204,0.024740
1765407967.826281,-10.058583,0.218795,0.336561,0.007789,0.052382,0.027794
1765407967.829086,-9.747727,-0.010163,-0.325203,0.010537,0.045968,0.034819
1765407967.831167,-9.964130,-0.241511,-0.046628,0.015424,0.035583,0.030696
1765407967.834128,-10.430414,-0.102822,0.737087,0.014508,0.044288,0.026267
1765407967.834628,-10.200860,0.099235,0.496174,0.014203,0.049327,0.023213
1765407967.838220,-9.729793,0.340746,-0.256456,0.011759,0.044746,0.022297
1765407967.839064,-9.673599,0.242707,-0.414873,0.010690,0.032376,0.030543
1765407967.844134,-10.109993,0.080105,0.175753,0.011606,0.032376,0.031307
1765407967.844634,-10.202055,-0.197872,0.402319,0.015272,0.046578,0.035125
1765407967.848110,-9.870873,-0.184720,0.096844,0.017410,0.048717,0.024282
1765407967.851071,-9.870873,-0.184720,0.096844,0.017410,0.045051,0.024282
1765407967.854114,-10.027497,0.341942,-0.038259,0.012828,0.028405,0.027947
1765407967.856112,-10.254662,0.200861,0.313845,0.011454,0.039095,0.031460
1765407967.859112,-10.007172,-0.050215,0.291726,0.011148,0.054520,0.036041
1765407967.861108,-9.507411,-0.302487,-0.428025,0.013592,0.049022,0.033445
1765407967.862123,-9.814680,-0.075323,-0.141081,0.017104,0.030238,0.025045
1765407967.866081,-10.235533,0.228957,0.492587,0.021533,0.042455,0.024129
1765407967.869124,-10.074724,0.313247,0.411286,0.020922,0.051924,0.031918
1765407967.871130,-9.778215,0.095648,-0.046628,0.010537,0.049938,0.033139
1765407967.874134,-9.772237,-0.091463,-0.145863,0.008705,0.031001,0.033750
1765407967.874634,-10.005977,-0.135701,0.012554,0.013439,0.025504,0.023824
1765407967.879144,-10.180533,0.217599,0.350909,0.017715,0.038943,0.026267
1765407967.881084,-9.814083,0.213415,0.017934,0.017257,0.049175,0.033750
1765407967.884091,-9.667622,0.170971,-0.267814,0.010996,0.040012,0.035430
1765407967.886170,-9.924676,-0.048422,-0.098039,0.009621,0.042761,0.034667
1765407967.889144,-10.022716,-0.161406,-0.033477,0.016341,0.042761,0.029627
1765407967.891121,-9.963533,0.081301,0.300096,0.015577,0.051160,0.027336
1765407967.894150,-9.811094,0.240913,0.143472,0.008705,0.054367,0.027336
1765407967.896146,-9.769248,0.117169,-0.175155,0.013134,0.037721,0.035583
1765407967.897174,-10.074127,-0.068747,-0.007174,0.016035,0.045051,0.036041
1765407967.901121,-10.294117,0.000000,0.383788,0.017715,0.045051,0.033139
1765407967.904146,-10.294117,0.000000,0.383788,0.017715,0.050549,0.033139
1765407967.906133,-9.799137,0.308465,0.034075,0.012065,0.047953,0.028253
1765407967.907153,-9.771639,0.338953,-0.263032,0.008399,0.034056,0.032529
1765407967.911157,-10.005977,0.158417,0.035868,0.009621,0.032376,0.037415
1765407967.914227,-9.808702,-0.165591,-0.062171,0.016341,0.050244,0.038943
1765407967.916097,-9.716641,0.001196,-0.047824,0.016646,0.051771,0.028100
1765407967.919073,-9.868484,0.214610,0.110593,0.010232,0.036041,0.027336
1765407967.921072,-9.919893,0.247489,-0.132712,0.015730,0.036041,0.032987
1765407967.924098,-9.827832,0.087279,-0.204448,0.014355,0.044899,0.032987
1765407967.926122,-9.720228,-0.086083,0.033477,0.014355,0.056200,0.034667
1765407967.929142,-9.851147,-0.086083,0.226566,0.014203,0.052840,0.034361
1765407967.930120,-10.101624,0.020325,0.230751,0.014966,0.044899,0.030696
1765407967.934181,-10.044236,0.213415,-0.108202,0.010232,0.044899,0.027947
1765407967.936098,-9.727402,0.132712,-0.376016,0.015272,0.048869,0.034056
1765407967.938149,-9.758488,0.057389,0.060976,0.018326,0.054367,0.034819
1765407967.941089,-9.918099,0.156026,0.423840,0.012370,0.051771,0.030085
1765407967.944055,-9.881634,0.176351,0.104017,0.009621,0.045662,0.032681
1765407967.946051,-9.580342,0.057987,-0.645624,0.016799,0.045662,0.039095
1765407967.949104,-9.631754,-0.032281,-0.307269,0.016799,0.043677,0.039095
1765407967.951048,-9.940218,-0.010760,0.355093,0.021533,0.055436,0.032987
1765407967.954125,-10.020923,0.098039,0.249880,0.014355,0.055436,0.028863
1765407967.956081,-9.742945,0.270803,-0.279770,0.014661,0.052076,0.028405
1765407967.959072,-9.622189,0.196676,-0.502152,0.014355,0.047342,0.035277
1765407967.961088,-9.919893,0.033477,0.010163,0.014355,0.052229,0.035277
1765407967.964095,-10.072930,-0.098637,0.392157,0.018784,0.055741,0.036346
1765407967.966123,-10.056191,0.131516,0.270206,0.013744,0.061239,0.027336
1765407967.969103,-9.799137,0.341942,-0.253467,0.011606,0.048717,0.028405
1765407967.971070,-10.014346,0.432209,0.020325,0.013744,0.043219,0.030085
1765407967.974140,-9.903154,0.176949,0.032281,0.015119,0.053603,0.038485
1765407967.976084,-9.699903,0.070540,-0.090268,0.009468,0.052382,0.034819
1765407967.979125,-9.641916,0.053802,-0.367049,0.007789,0.051618,0.031612
1765407967.979625,-9.707077,0.142276,-0.472860,0.012065,0.049327,0.031307
1765407967.984073,-9.874461,0.252272,-0.126136,0.013592,0.059865,0.032376
1765407967.986091,-9.922883,0.204448,0.194883,0.014966,0.066279,0.037721
1765407967.989114,-9.875656,0.104615,0.057389,0.010690,0.062003,0.034514
1765407967.991081,-9.988043,0.141081,0.228360,0.005345,0.053145,0.028253
1765407967.993082,-9.969511,0.218795,0.144668,0.013744,0.058643,0.035888
1765407967.996139,-9.531323,-0.063367,-0.567910,0.015272,0.053603,0.042761
1765407967.999077,-9.903154,0.013152,0.031086,0.012065,0.045815,0.029169
1765407967.999577,-10.159015,0.101626,0.367049,0.013592,0.051160,0.027947
1765407968.004086,-10.052007,0.312052,0.115973,0.019853,0.051160,0.031001
1765407968.004586,-9.814083,0.316834,-0.315638,0.010232,0.051771,0.035125
1765407968.007191,-9.924676,0.053802,-0.162004,0.008552,0.053909,0.038790
1765407968.011092,-10.181729,0.010760,0.196676,0.019700,0.056810,0.036346
1765407968.014165,-10.181729,0.010760,0.196676,0.019700,0.057727,0.036346
1765407968.016199,-10.115375,0.224175,0.139885,0.013592,0.061392,0.028253
1765407968.019124,-9.829626,0.311454,-0.313247,0.013744,0.059407,0.032834
1765407968.019624,-9.941415,0.098039,-0.096246,0.011912,0.048869,0.034819
1765407968.022184,-10.129124,0.138092,0.037064,0.008858,0.049327,0.027947
1765407968.026199,-10.141678,0.240316,0.382592,0.008705,0.058185,0.032529
1765407968.029225,-9.574963,0.065758,-0.572095,0.012065,0.063072,0.037110
1765407968.031159,-9.600669,-0.054998,-0.420851,0.014966,0.047189,0.034208
1765407968.034100,-10.178144,0.141081,0.428025,0.015730,0.056200,0.028253
1765407968.036123,-10.215207,0.294118,0.255858,0.019090,0.054367,0.032681
1765407968.038088,-9.868484,0.398135,-0.321616,0.014050,0.049786,0.029932
1765407968.039206,-9.664036,0.178144,-0.545194,0.003818,0.050091,0.035277
1765407968.044106,-10.068746,0.025108,0.197274,0.014661,0.053756,0.035430
1765407968.046093,-10.156623,-0.070540,0.257054,0.019548,0.057269,0.035277
1765407968.048173,-10.016738,0.167384,-0.025108,0.010232,0.053603,0.029474
1765407968.051091,-9.774031,0.270206,-0.333572,0.011759,0.057727,0.031460
1765407968.052105,-9.784791,0.079507,-0.059780,0.015577,0.052687,0.038026
1765407968.054089,-10.045432,0.096844,0.194883,0.014813,0.049327,0.030696
1765407968.059129,-9.938425,0.176351,0.075323,0.012675,0.059407,0.028863
1765407968.061082,-9.472739,0.190100,-0.669536,0.020464,0.056658,0.037721
1765407968.064056,-9.509803,-0.031683,-0.677905,0.017104,0.047647,0.037568
1765407968.066073,-10.154830,0.075323,0.349115,0.010079,0.054672,0.028405
1765407968.069087,-10.063366,0.145863,0.105213,0.011759,0.067042,0.032834
1765407968.069587,-9.742347,0.205643,-0.237924,0.014966,0.062614,0.034208
1765407968.072120,-9.672404,0.167384,-0.373027,0.009774,0.054672,0.036652
1765407968.076154,-9.672404,0.167384,-0.373027,0.009774,0.052534,0.036652
1765407968.077155,-9.864896,-0.124342,-0.078910,0.011606,0.055894,0.037568
1765407968.081115,-9.739358,0.058584,-0.445959,0.017562,0.054672,0.036346
1765407968.084052,-9.843375,0.154232,-0.125538,0.013439,0.058185,0.033903
1765407968.086069,-10.131515,0.126734,0.201459,0.016035,0.048564,0.038943
1765407968.088134,-10.263031,0.230751,0.253467,0.015577,0.053603,0.030391
1765407968.091071,-9.869678,0.127929,-0.205643,0.010232,0.063377,0.034208
1765407968.094099,-9.745934,0.185916,-0.364658,0.016035,0.063683,0.040928
1765407968.096095,-9.937828,-0.142276,-0.078910,0.019853,0.052076,0.040470
1765407968.098167,-10.209229,0.069943,0.403515,0.016646,0.060476,0.033598
1765407968.101089,-10.139884,0.298900,0.270803,0.021380,0.067959,0.035736
1765407968.104085,-9.588712,0.159613,-0.375418,0.014508,0.044593,0.039706
1765407968.106061,-9.782400,0.271401,-0.348517,0.011148,0.044593,0.034056
1765407968.109114,-10.009563,0.166188,0.192492,0.009927,0.053756,0.038943
1765407968.109614,-9.616809,-0.054400,-0.479436,0.016952,0.055436,0.047037
1765407968.114109,-9.584527,0.062171,-0.582257,0.015272,0.048869,0.037721
1765407968.116094,-9.927068,0.001793,0.098637,0.011301,0.059712,0.035583
1765407968.118158,-10.149448,0.126734,0.308465,0.025656,0.059712,0.041844
1765407968.121068,-9.852343,0.182927,-0.204448,0.025656,0.057574,0.041844
1765407968.123121,-9.908535,0.170971,-0.047824,0.014966,0.052840,0.037415
1765407968.126221,-9.983260,0.179938,-0.309660,0.017868,0.052840,0.043219
1765407968.128199,-9.983260,0.179938,-0.309660,0.017868,0.047495,0.043219
1765407968.131178,-9.857722,0.070540,-0.215806,0.016188,0.064752,0.036957
1765407968.134131,-9.857722,0.070540,-0.215806,0.016188,0.058643,0.036957
1765407968.136111,-9.963533,0.008369,0.101028,0.018937,0.055283,0.040623
1765407968.139111,-10.163795,0.389766,0.227164,0.023518,0.055283,0.036346
1765407968.141100,-10.163795,0.389766,0.227164,0.023518,0.063683,0.036346
1765407968.144123,-9.638927,0.168580,-0.636657,0.017104,0.049022,0.041539
1765407968.146136,-10.045432,-0.021521,0.025108,0.017410,0.054520,0.041844
1765407968.149082,-10.267216,0.245098,0.711382,0.023824,0.069944,0.038943
1765407968.151119,-9.708870,0.161406,-0.200861,0.009774,0.068264,0.042913
1765407968.152135,-9.642514,0.276184,-0.748446,0.011301,0.038332,0.038943
1765407968.155036,-9.972500,0.088474,-0.225371,0.010843,0.066584,0.040775
1765407968.158122,-9.970109,0.130320,0.202654,0.029169,0.066584,0.044593
1765407968.161141,-9.733380,0.185318,-0.074725,0.019700,0.052840,0.039095
1765407968.164121,-9.870873,0.188905,-0.291129,0.014966,0.052840,0.042608
1765407968.166072,-10.151243,0.169775,-0.255858,0.021838,0.049480,0.043219
1765407968.169102,-10.176947,0.196078,0.235533,0.022755,0.063530,0.045204
1765407968.171074,-9.740554,0.100430,-0.057389,0.020311,0.077427,0.045968
1765407968.174083,-9.643710,0.121951,-0.221186,0.020311,0.058490,0.042761
1765407968.176158,-9.976685,0.150646,-0.164993,0.016646,0.046884,0.037568
1765407968.178170,-10.078907,0.329986,-0.131516,0.023671,0.059407,0.045815
1765407968.179124,-9.828429,0.273792,-0.111789,0.024740,0.073762,0.051007
1765407968.184115,-9.717239,0.136896,-0.184720,0.016646,0.060781,0.047647
1765407968.186139,-9.717239,0.136896,-0.184720,0.016646,0.050396,0.047647
1765407968.187168,-9.942610,0.321616,-0.247489,0.017257,0.057421,0.043066
1765407968.191088,-9.560018,0.260043,-0.816595,0.013592,0.057421,0.045815
1765407968.193178,-9.783595,0.233740,-0.209230,0.010690,0.063530,0.042150
1765407968.196162,-10.015541,0.051411,0.198470,0.017104,0.063530,0.052229
1765407968.198178,-10.043041,0.147657,-0.138690,0.017104,0.058643,0.052229
1765407968.201117,-9.789574,0.270206,-0.396939,0.009316,0.065363,0.041692
1765407968.204077,-9.942013,0.355691,0.099235,0.018173,0.064141,0.047800
1765407968.206139,-10.010758,0.133907,0.052606,0.020769,0.054367,0.050855
1765407968.209129,-10.297703,0.274988,0.246294,0.014966,0.050549,0.044593
1765407968.211076,-9.813485,0.157819,-0.603778,0.018326,0.067959,0.049633
1765407968.214141,-9.612624,-0.092061,-0.760402,0.024435,0.050244,0.054672
1765407968.214641,-10.118362,0.234338,0.000000,0.017410,0.057879,0.039706
1765407968.217061,-10.430414,0.202654,0.619919,0.016341,0.070708,0.045662
1765407968.221125,-9.949782,0.144668,-0.307269,0.023824,0.070708,0.049175
1765407968.222102,-9.716043,0.227164,-0.607963,0.012217,0.052840,0.042150
1765407968.226161,-10.132710,0.246294,0.259445,0.008094,0.062156,0.041997
1765407968.228319,-10.247488,0.076518,0.187709,0.020464,0.059407,0.057574
1765407968.229212,-10.247488,0.076518,0.187709,0.020464,0.052534,0.057574
1765407968.234063,-9.992825,0.178144,-0.315638,0.016493,0.058032,0.037415
1765407968.236138,-9.968913,0.425634,-0.133907,0.020617,0.066432,0.045509
1765407968.238149,-10.057388,0.345528,0.035270,0.020617,0.060018,0.049938
1765407968.241163,-10.056191,0.126136,-0.277379,0.012370,0.060170,0.049633
1765407968.244119,-10.015541,0.212817,-0.205643,0.021075,0.067959,0.044899
1765407968.246111,-9.831419,0.051411,-0.056791,0.025198,0.071777,0.050244
1765407968.249085,-9.902557,0.294118,0.069345,0.020617,0.060323,0.047037
1765407968.249585,-9.911524,0.238522,-0.334768,0.014355,0.057574,0.043219
1765407968.252110,-9.924676,0.283955,-0.412482,0.016341,0.057574,0.047953
1765407968.256071,-9.813485,0.176351,-0.382592,0.022144,0.067042,0.054672
1765407968.257105,-10.050812,0.066356,0.280368,0.016035,0.066126,0.049327
1765407968.261137,-10.028693,0.233142,0.010760,0.010232,0.068875,0.045968
1765407968.262135,-9.697512,0.112984,-0.686274,0.023213,0.063835,0.052993
1765407968.266111,-9.783595,0.096844,-0.484218,0.023366,0.063835,0.048717
1765407968.269051,-10.049019,0.133309,0.242109,0.024282,0.065973,0.049938
1765407968.271092,-10.107603,0.184122,0.101626,0.019853,0.065973,0.044593
1765407968.274196,-10.121950,0.422047,-0.241511,0.020464,0.060323,0.039859
1765407968.276086,-9.817072,0.270206,-0.274988,0.019395,0.060323,0.051465
1765407968.279167,-9.980869,0.180536,-0.159015,0.024282,0.060323,0.053298
1765407968.281093,-10.316236,0.164993,0.508130,0.024435,0.062919,0.049633
1765407968.284053,-9.924676,0.246294,-0.280966,0.025809,0.073151,0.052993
1765407968.286083,-9.649688,0.124342,-0.780727,0.028100,0.058948,0.050855
1765407968.287159,-9.829626,0.465686,-0.310258,0.024893,0.073151,0.044135
1765407968.290137,-9.852941,0.351506,-0.102224,0.022449,0.072846,0.053145
1765407968.294142,-9.860711,0.341344,-0.075921,0.013134,0.070402,0.050091
1765407968.295145,-9.829626,0.227164,-0.292324,0.016188,0.067195,0.051924
1765407968.297184,-9.729793,0.093257,-0.280966,0.023518,0.070250,0.051771
1765407968.300251,-9.898373,0.291726,0.017934,0.023518,0.062461,0.045051
1765407968.304072,-10.039454,0.529651,-0.040650,0.022449,0.066584,0.044135
1765407968.306088,-9.786584,0.509326,-0.625299,0.018021,0.064599,0.044899
1765407968.309153,-9.768052,0.406504,-0.561932,0.016188,0.070250,0.050549
1765407968.311183,-10.121950,0.371234,0.126734,0.021380,0.070250,0.052229
1765407968.314144,-10.121950,0.371234,0.126734,0.021380,0.076358,0.052229
1765407968.316157,-10.125537,0.301291,0.112386,0.018479,0.073762,0.046578
1765407968.318198,-9.763269,0.279173,-0.462099,0.014355,0.067653,0.049175
1765407968.321128,-9.946198,0.522477,-0.240913,0.018937,0.067959,0.049633
1765407968.323173,-9.982065,0.361071,-0.025108,0.009468,0.067959,0.044593
1765407968.326135,-9.877449,0.466284,-0.151841,0.006261,0.068875,0.045051
1765407968.329732,-9.537899,0.201459,-0.909852,0.008705,0.065363,0.050244
1765407968.331851,-9.571377,0.160210,-0.764586,0.012217,0.056200,0.044899
1765407968.334154,-10.203251,0.373027,0.292922,0.013897,0.076358,0.041233
1765407968.336114,-10.211022,0.399330,0.429818,0.019853,0.080634,0.048717
1765407968.337131,-9.789574,0.312052,-0.454328,0.011301,0.068111,0.040775
1765407968.341114,-9.638927,0.457915,-0.802845,0.009010,0.067042,0.040317
1765407968.344111,-9.952174,0.269010,-0.155428,0.014661,0.067042,0.048717
1765407968.346173,-9.952174,0.269010,-0.155428,0.014661,0.073915,0.048717
1765407968.347125,-9.855330,0.178144,-0.337757,0.013744,0.079260,0.042608
1765407968.349093,-9.652080,0.224773,-0.557150,0.017715,0.073151,0.041081
1765407968.354110,-9.760879,0.376614,-0.445959,0.025045,0.069028,0.047800
1765407968.356082,-9.995216,0.383190,-0.164395,0.018784,0.069944,0.042455
1765407968.359234,-9.995216,0.383190,-0.164395,0.018784,0.085521,0.042455
1765407968.361085,-9.852941,0.230751,-0.269010,0.020922,0.085827,0.054062
1765407968.363143,-9.686751,-0.121353,-0.652798,0.013286,0.057727,0.048411
1765407968.366108,-10.291725,0.380201,0.240913,0.010232,0.065821,0.037415
1765407968.369119,-10.166186,0.294118,-0.135103,0.021228,0.085827,0.055436
1765407968.371073,-9.543280,0.049617,-0.912841,0.016952,0.071777,0.048869
1765407968.374135,-9.839788,0.291129,-0.449546,0.007941,0.080023,0.039095
1765407968.375074,-10.241510,0.232544,0.353898,0.023366,0.080023,0.053909
1765407968.379051,-9.894786,0.121353,-0.175155,0.023976,0.071319,0.054672
1765407968.380089,-9.772835,0.135701,-0.338355,0.016952,0.071319,0.048869
1765407968.384099,-9.821855,0.190698,-0.274390,0.018631,0.073915,0.048106
1765407968.386105,-9.856527,0.144070,-0.392157,0.026420,0.060018,0.052076
1765407968.389037,-9.725011,0.262434,-0.480631,0.015882,0.062461,0.046273
1765407968.391037,-9.562408,0.301889,-0.615734,0.006720,0.076664,0.043524
1765407968.394080,-9.775226,0.218795,-0.321616,0.016799,0.076664,0.056200
1765407968.396043,-9.999999,-0.032281,-0.280966,0.024740,0.063835,0.059712
1765407968.399053,-10.112385,0.174558,0.035270,0.022907,0.075442,0.050855
1765407968.400090,-9.759085,0.260641,-0.447752,0.025809,0.085674,0.054214
1765407968.404072,-9.759683,0.149450,-0.504543,0.025809,0.066279,0.054214
1765407968.406128,-10.156025,0.213415,-0.212219,0.024740,0.060170,0.051924
1765407968.409084,-10.261834,0.376614,0.096246,0.025656,0.080176,0.049327
1765407968.411068,-9.527737,0.161406,-0.683883,0.027336,0.083994,0.060628
1765407968.414097,-9.655666,0.075921,-0.636059,0.024282,0.064141,0.057421
1765407968.416085,-10.416666,0.245098,0.437590,0.028711,0.070860,0.048869
1765407968.417111,-10.290529,0.237924,0.137494,0.034208,0.076664,0.062156
1765407968.419093,-9.802725,0.153037,-0.691057,0.029932,0.072846,0.053451
1765407968.425777,-9.949782,0.401124,-0.387374,0.018326,0.073762,0.049327
1765407968.426085,-10.159015,0.260641,0.102224,0.027336,0.076205,0.060476
1765407968.429096,-10.210424,0.175753,0.092061,0.025045,0.070708,0.057421
1765407968.431064,-9.836799,0.350311,-0.436394,0.021075,0.081856,0.053451
1765407968.434194,-9.710664,0.258250,-0.783118,0.027031,0.071777,0.059865
1765407968.436049,-9.852941,0.095648,-0.436394,0.026420,0.070708,0.060323
1765407968.437114,-10.229554,0.381396,0.168580,0.030238,0.070708,0.052993
1765407968.441069,-10.112385,0.405906,0.164993,0.030543,0.087201,0.055283
1765407968.442125,-9.577952,0.366451,-0.710186,0.033139,0.075289,0.062003
1765407968.446112,-9.708273,0.265423,-0.790889,0.033139,0.058643,0.062003
1765407968.448151,-10.260639,0.375418,0.211621,0.033750,0.067042,0.059101
1765407968.449083,-10.058583,0.160808,-0.130918,0.033445,0.078191,0.067653
1765407968.454128,-9.725011,0.144668,-0.651004,0.032223,0.072693,0.057421
1765407968.456110,-9.817072,0.347920,-0.426829,0.023824,0.074984,0.052993
1765407968.459127,-9.817072,0.347920,-0.041846,0.023824,0.069028,0.052993
1765407968.461083,-10.210424,0.212219,-0.086083,0.027031,0.076205,0.058032
1765407968.464105,-9.936632,0.463893,-0.450741,0.032834,0.080481,0.057269
1765407968.466106,-9.552844,0.174558,-0.737685,0.031765,0.077122,0.065668
1765407968.469049,-9.732184,0.381396,-0.500956,0.034208,0.071319,0.060628
1765407968.471125,-10.098038,0.462697,-0.101626,0.033903,0.075747,0.062614
1765407968.474067,-10.014346,0.349115,-0.284553,0.031612,0.082772,0.060781
1765407968.476138,-9.872069,0.418460,-0.404113,0.030696,0.077122,0.062156
1765407968.479034,-9.849951,0.366451,-0.316236,0.029169,0.074373,0.062919
1765407968.481055,-9.964130,0.361669,-0.396939,0.029474,0.074067,0.062308
1765407968.484129,-10.059779,0.392157,-0.302487,0.025504,0.080176,0.062614
1765407968.486141,-9.979075,0.463893,-0.228957,0.026725,0.087659,0.060781
1765407968.488166,-9.909132,0.505141,-0.329986,0.024587,0.081245,0.067959
1765407968.491108,-10.208033,0.343137,-0.062769,0.020006,0.067806,0.068111
1765407968.492120,-10.154231,0.361071,-0.127331,0.025962,0.080787,0.066890
1765407968.496119,-9.842180,0.119560,-0.528455,0.027336,0.080787,0.070250
1765407968.499122,-9.870873,0.145265,-0.671927,0.027336,0.076205,0.070250
1765407968.500131,-10.161406,0.319823,-0.099833,0.032529,0.076205,0.058948
1765407968.504078,-10.169774,0.399330,-0.002989,0.031612,0.083230,0.064446
1765407968.506121,-9.839788,0.407700,-0.425634,0.027642,0.082161,0.059559
1765407968.507092,-9.874461,0.551172,-0.255858,0.023671,0.076053,0.058490
1765407968.511136,-9.874461,0.551172,-0.255858,0.023671,0.072082,0.058490
1765407968.514055,-10.004781,0.322812,-0.445959,0.027031,0.063530,0.069180
1765407968.516067,-9.891200,0.435198,-0.426829,0.023824,0.076816,0.058490
1765407968.519191,-9.910329,0.424438,-0.313247,0.026725,0.082314,0.062766
1765407968.521091,-10.095646,0.489000,-0.071736,0.027184,0.076664,0.062003
1765407968.524213,-10.222381,0.530846,-0.122549,0.018326,0.071624,0.059865
1765407968.526139,-10.158416,0.594811,-0.236729,0.018021,0.079412,0.059559
1765407968.529111,-9.716641,0.295911,-0.890722,0.029016,0.079412,0.072388
1765407968.531109,-9.759085,0.256456,-0.787900,0.029016,0.071013,0.072388
1765407968.534060,-10.279769,0.511119,0.083692,0.024129,0.081551,0.059712
1765407968.536162,-10.109993,0.468675,-0.047824,0.033139,0.097433,0.068417
1765407968.537141,-9.684361,0.500956,-0.679101,0.030543,0.083841,0.063377
1765407968.540996,-9.714849,0.431612,-0.491392,0.013286,0.079260,0.059407
1765407968.544089,-9.942610,0.408895,-0.515304,0.023518,0.074984,0.065057
1765407968.546163,-9.872069,0.267814,-0.633668,0.022297,0.077274,0.064294
1765407968.549110,-9.885221,0.369440,-0.431612,0.017104,0.087048,0.055589
1765407968.549610,-9.880439,0.558345,-0.233142,0.023671,0.085216,0.055894
1765407968.554145,-9.928861,0.499163,-0.192492,0.024740,0.085216,0.063988
1765407968.556043,-10.003586,0.526662,-0.493783,0.024740,0.078802,0.063988
1765407968.557148,-9.945002,0.494978,-0.566714,0.025809,0.091783,0.060934
1765407968.561120,-9.806311,0.384983,-0.700024,0.027489,0.091783,0.064294
1765407968.564140,-9.595885,0.392157,-0.830942,0.026420,0.084605,0.062156
1765407968.566149,-10.062768,0.541607,0.089072,0.020311,0.091477,0.053451
1765407968.569142,-10.050214,0.609756,0.017336,0.026267,0.096669,0.061087
1765407968.571130,-9.733380,0.402319,-0.626494,0.023518,0.075289,0.065363
1765407968.574124,-9.790769,0.604376,-0.806432,0.010996,0.082161,0.054062
1765407968.576094,-9.894786,0.439981,-0.380201,0.017410,0.085827,0.064141
1765407968.579103,-9.901959,0.299498,-0.203252,0.027794,0.082467,0.066890
1765407968.581103,-9.900764,0.417862,-0.301291,0.019242,0.082467,0.056200
1765407968.584191,-9.837397,0.489598,-0.457915,0.013134,0.087201,0.054214
1765407968.586164,-9.736967,0.373625,-0.958871,0.022144,0.074067,0.064599
1765407968.587057,-10.005977,0.441774,-0.566117,0.026114,0.072082,0.057574
1765407968.591034,-10.117167,0.416069,-0.178144,0.019700,0.091019,0.050549
1765407968.594159,-9.997607,0.630081,-0.221186,0.025962,0.099876,0.058185
1765407968.596105,-9.967718,0.474055,-0.357484,0.024129,0.081398,0.063377
1765407968.599149,-10.225968,0.456719,-0.194883,0.017868,0.074831,0.059101
1765407968.601176,-10.114178,0.392157,-0.463295,0.020922,0.086743,0.062461
1765407968.604144,-9.595885,0.256456,-1.079627,0.020159,0.092088,0.058643
1765407968.606128,-9.619798,0.269608,-0.961262,0.019700,0.083536,0.055436
1765407968.609105,-10.187708,0.532640,0.320421,0.020617,0.091324,0.055436
1765407968.611124,-10.066953,0.441176,-0.169775,0.024893,0.088575,0.060018
1765407968.614067,-9.815877,0.416667,-0.697633,0.021991,0.081092,0.060781
1765407968.616076,-9.597081,0.267217,-1.064084,0.020617,0.083994,0.060781
1765407968.619071,-9.940218,0.245098,-0.581659,0.021991,0.079718,0.059407
1765407968.621126,-10.109993,0.418460,-0.027499,0.023824,0.090255,0.052382
1765407968.623152,-9.988043,0.498565,-0.157819,0.021075,0.097586,0.057574
1765407968.626141,-9.725011,0.521282,-0.730512,0.017562,0.090255,0.059101
1765407968.627182,-10.070539,0.538618,-0.463893,0.015577,0.074984,0.064294
1765407968.631170,-10.107603,0.350311,-0.321019,0.017868,0.081856,0.066890
1765407968.634111,-9.998802,0.324008,-0.425036,0.015882,0.089644,0.064599
1765407968.636112,-9.787182,0.438785,-0.573888,0.014508,0.093004,0.061392
1765407968.638216,-10.071735,0.567910,-0.194883,0.019548,0.085521,0.065363
1765407968.639168,-10.121352,0.439981,-0.232544,0.020159,0.081092,0.069486
1765407968.644112,-9.776422,0.283357,-0.759206,0.018631,0.081092,0.068417
1765407968.644612,-9.591104,0.055595,-0.988761,0.021075,0.086132,0.069180
1765407968.649071,-9.756096,0.133907,-0.679699,0.031612,0.076969,0.069028
1765407968.651069,-10.235533,0.209230,0.043042,0.024893,0.085827,0.060934
1765407968.654108,-9.961740,0.447154,-0.315041,0.023060,0.090561,0.060476
1765407968.654608,-9.628167,0.453730,-0.839311,0.021991,0.084299,0.066890
1765407968.657102,-9.666426,0.429220,-0.851267,0.023213,0.076053,0.071929
1765407968.661096,-9.892395,0.072932,-0.521282,0.022907,0.078038,0.073762
1765407968.664099,-9.915112,0.135103,-0.431612,0.032223,0.081856,0.065515
1765407968.666169,-9.996411,0.400526,-0.400526,0.027489,0.085979,0.062461
1765407968.667106,-9.970109,0.464491,-0.282162,0.023671,0.077580,0.062003
1765407968.671058,-9.804518,0.651004,-0.866810,0.029932,0.075747,0.065057
1765407968.674073,-9.802725,0.497370,-0.869201,0.031154,0.083078,0.072846
1765407968.676041,-9.756096,0.453132,-0.900885,0.029932,0.083078,0.070555
1765407968.678170,-10.105211,0.425634,-0.164395,0.031918,0.088728,0.072693
1765407968.679096,-9.805116,0.260641,-0.417264,0.027642,0.092088,0.070402
1765407968.684137,-9.805116,0.260641,-0.417264,0.027642,0.082314,0.070402
1765407968.686141,-9.665230,0.379603,-0.689861,0.018937,0.075747,0.074831
1765407968.687109,-9.635341,0.441176,-1.046150,0.025351,0.067195,0.075595
1765407968.691122,-9.778812,0.424438,-0.803443,0.027336,0.080634,0.074678
1765407968.694115,-9.999999,0.292922,-0.112386,0.026267,0.092699,0.072540
1765407968.696111,-9.985652,0.307269,-0.236729,0.032070,0.086743,0.078954
1765407968.699084,-10.174556,0.403515,-0.231946,0.028405,0.075136,0.072082
1765407968.701165,-9.855929,0.353898,-0.887733,0.023060,0.075136,0.069944
1765407968.702126,-9.787182,0.487805,-0.846485,0.035430,0.079260,0.071777
1765407968.706181,-9.598277,0.410091,-0.906265,0.028863,0.085216,0.073304
1765407968.709110,-9.721423,0.611549,-0.573888,0.021838,0.082009,0.068722
1765407968.710166,-9.813485,0.747250,-0.503348,0.026573,0.082009,0.074220
1765407968.714112,-9.609037,0.483620,-0.758010,0.027184,0.082009,0.085674
1765407968.716098,-9.820659,0.439383,-0.735294,0.019090,0.077427,0.071624
1765407968.719074,-10.207435,0.489598,-0.217599,0.021991,0.086285,0.073609
