time,acc_x_g,acc_y_g,acc_z_g,gyro_x_rad_s,gyro_y_rad_s,gyro_z_rad_s
0.0,0.045433,0.019727,-5.491989,0.246179,-2.03693,-0.007941
0.0025,-5.889972213664122,0.6971646161068702,-7.88841044,-0.0019298426717557248,-0.012274713511450382,0.00949260465648855
0.005,-5.727187177671755,0.8594150348091604,-7.685489410381679,-0.012675,0.0042870706106870205,-0.001833
0.0075,-6.627854262726406,0.6696190091897044,-7.62551168293613,-0.004571551992373693,-0.0009682471687321229,-0.003136835919923739
0.01,-7.012195,0.283357,-7.815638,0.085674,-0.08182810671755726,-0.008094
0.0125,-7.73258230333651,0.05412496796949439,-7.539753603050524,0.10386202745471877,-0.22180158646329845,-0.02960545948522404
0.015,-7.71487736351145,0.07669542030534261,-7.105935723778626,0.13394588229007634,-0.35921326122137404,-0.04367964534351146
0.0175,-7.8414181263740454,0.11099574458015432,-7.078819525458017,0.16265483007633585,-0.4567442588931299,-0.02799852625954198
0.02,-7.9017090044165625,-0.20009896782935999,-7.4379214447678805,0.2064874344291092,-0.5569956341279799,-0.01200005636135508
0.0225,-8.147232801868448,-0.5947559149285027,-7.671582558703525,0.2386867626310772,-0.6707932900285987,0.01582593914204003
0.025,-8.143856584175404,-0.7258549355576756,-7.943494314204004,0.2896776751191611,-0.7851057323164922,0.060273201715919884
0.0275,-7.628835640571021,-0.4429559174018557,-8.10948529764454,0.3406142137901499,-0.9320189936045682,0.08707023480371164
0.03,-8.793547652770222,-0.7396676696349308,-6.219892766642806,0.39129915828203293,-1.0103270077594846,0.1646724596134574
0.0325,-9.43474466217143,-1.743068304685714,-5.924372284114284,0.4280953401142858,-1.1715173406857142,0.2226019699428571
0.035,-8.603311601258351,-0.3746960172354674,-6.356296576205895,0.4866954223450905,-1.2158002768350813,0.28869112190657814
0.0375,-8.1164764939329,-1.609925123340472,-6.889038981727342,0.5774607183440399,-1.2747273897216274,0.3809260068522484
0.04,-7.000090422290078,-0.57109274274809,-7.0137587438167905,0.6208382122137405,-1.3115645581679392,0.43787496946564886
0.0425,-8.632334642251907,-2.218983399312983,-6.43249389877863,0.6883187729389315,-1.3247078427862593,0.5101701708778626
0.045,-7.850715393709294,-0.7342217536457518,-6.2875893669579055,0.7566857608895948,-1.3800272460047656,0.5156364983002383
0.0475,-9.424710027988564,-2.090722249418495,-4.139222021239272,0.8341660550238322,-1.337828751458532,0.5956712668827455
0.05,-7.9153367779622625,-0.7504006297358496,-6.466826537509423,0.8731086694339623,-1.3537263753962263,0.5719355859622641
0.0525,-8.524031,-1.533955,-5.951696,0.942718,-1.3426441749972144,0.608269
0.055,-8.696575658473282,-0.41327059099236535,-4.781323874809162,0.9993059615267176,-1.330159,0.5729798039694657
0.0575,-7.803682,0.370636,-6.209947,1.044274,-1.3766447016416845,0.554055
0.06,-9.316638858549622,-2.035697285801533,-4.910286442137399,1.0473298456488547,-1.3403786441221375,0.5584524872519084
0.0625,-8.983739,1.514825,-4.444045,1.091922,-1.31777998,0.500604
0.065,-8.738950599906984,-0.3200175179302249,-5.068418053906964,1.1508944883488372,-1.349358455325581,0.4406697478837209
0.0675,-9.959847155538613,-0.7269203662535918,-3.986324637407055,1.1147726606291704,-1.3415236374833173,0.48673436571973316
0.07,-9.019208152036002,-0.3638113684139448,-4.54184755073116,1.1074764936782897,-1.3102535721034867,0.41139731599549995
0.0725,-8.613993297159176,0.18626450882743967,-4.447207484003864,1.1205819582078176,-1.334588,0.3598919282745477
0.075,-9.055283403050511,-0.30013482516683215,-3.7379761393708377,1.1025400341277407,-1.3426988697807438,0.34885362993326996
0.0775,-9.511433759312975,0.6802743654961849,-3.1150377767175614,1.0580821098473283,-1.3185805451145038,0.27244776480916033
0.08,-11.312220486367968,1.8856431754432794,-2.077103486901806,1.0312018678360342,-1.2956118374451857,0.2162471863489038
0.0825,-9.03739818885715,1.1880421459142845,-3.3122843181999904,0.9458906698285713,-1.3084192248571427,0.14708086291428552
0.085,-9.702339502764541,1.9306786543755816,-1.3824984082745528,0.9027851144709245,-1.2278604069018109,0.06662216686367971
0.08750000000000001,-8.390713821374012,0.8510658786259337,-2.712057571183227,0.7904376717557248,-1.174987823091602,0.003173230343511242
0.09,-8.02721042839694,1.343655893893122,-2.7060248009160324,0.7553544083969468,-1.1115271526717556,-0.0411187442748088
0.0925,-8.270222928083887,2.2338410552907515,-1.7874892967016227,0.6261084991039085,-0.9802345678169686,-0.12264698699714018
0.095,-8.957277835538605,1.1084391402859863,-1.2020763310581497,0.5554958819065777,-0.9113813851286939,-0.11610102795042904
0.0975,-7.967550662306962,1.9505600899142095,-1.5855131118779717,0.49611603347950406,-0.739452,-0.13345000461391818
0.1,-8.436817900930562,2.179393278883324,-0.8799174897637828,0.3737847647816749,-0.6240894479599143,-0.12417660186113091
0.10250000000000001,-8.805583508941845,1.8905079945471899,-0.5276559982840793,0.30143569982840784,-0.5296271668255478,-0.11541544579599607
0.105,-8.609970436446996,1.5275209778796603,-0.5036522099713406,0.22255334361031523,-0.41797872871060204,-0.08248052538681953
0.1075,-8.920612758015265,1.3144597117557264,-0.14024089832061395,0.15962393755725196,-0.3122648392366414,-0.06743838396946569
0.11,-8.73338351466158,0.8594714778646325,0.3392945880648231,0.10788796266920875,-0.2235201458531935,-0.03158404030505243
0.1125,-8.44924397187127,0.5961453511322998,0.36829179737782575,0.06452353587604287,-0.11289946841477935,-0.009515685816448113
0.115,-9.292932736488552,0.12548421057251863,0.6346681275190836,0.0062906558015266255,-0.011541287938931022,-0.00042654404580146565
0.11750000000000001,-9.697538530584032,-0.19540470340883376,-0.12945803194278765,-0.006690860071513768,0.012463410870083383,0.00473002822407632
0.12,-10.104547733078753,0.02917970701670886,0.17798021136037548,-0.00868396840095472,-0.005543309116945142,0.00692152162291164
0.1225,-9.804946772586414,0.040023600143029275,0.14981326097735506,-0.00661709067938022,-0.01292818135876044,0.0019568798569725523
0.125,-9.92238855131265,-0.10655090692124104,0.3561559140811456,-0.01052573031026253,-0.01341809307875895,-0.00010978520286396157
0.1275,-9.940655882431468,-0.06562638560190687,0.4815343422169254,-0.008020302216924898,-0.008416880333730607,-0.0015270670321812134
0.13,-10.017394853682957,-0.06406318212157351,0.36337364815256157,-0.008238037377830649,-0.003818,2.892629320617749e-05
0.1325,-9.987775266889154,-0.005733864886769168,0.3473653678188313,-0.00938429721096541,-0.005414304219308528,-0.002253761859356356
0.135,-9.979957019976162,-0.05807959690107398,0.394820769058401,-0.005738363909415991,-0.0118748106793801,-0.00046526631704406617
0.1375,-9.979987480668264,-0.01688954224343732,0.42922066778043644,-0.009163,-0.007178,-0.000916
0.14,-10.018983139130441,-0.02566305043478249,0.4284198678260925,-0.008624979130434703,-0.0064105130434783915,-0.0011634173913043278
0.14250000000000002,-10.016307155995227,-0.01578725010727242,0.37767424967818275,-0.007627142598331572,-0.006022643480333659,-0.0025624384743742905
0.145,-9.822496811013105,-0.06109945501787568,0.31289828939212855,-0.007397785315852174,-0.0058024122050057535,-0.001560948128724657
0.1475,-9.869475948224077,-0.03412982822407556,0.22414477601907096,-0.007099040762812808,-0.005192,-0.0016261798808103523
0.15,-9.447429653460611,-0.3143871272076366,-0.22855235584725564,-0.010753701193317648,0.0006340377088310707,-0.001390134367541749
0.1525,-9.915542894016685,0.08092919470798177,0.2754652999761625,-0.005424709129916557,0.0014233779261025948,-0.007550774684147762
0.155,-9.965732486016002,0.14744339763199735,0.3537169991680015,-0.00979637043199998,0.002801773504000016,-0.007917037504000005
0.1575,-10.013697711466031,-0.023864534016686555,0.28430732486293053,-0.010687118283671061,0.000764,-0.0018388454350417131
0.16,-9.926586439672429,-0.13100287901729005,0.34257661357597924,-0.006650634940855319,-0.000468188680618779,0.0006306252957233348
0.1625,-10.05007613461582,-0.017877517370148477,0.3904978764512845,-0.01028089919655992,-0.00208910080344008,0.0022347983931198393
0.165,-10.021293246899049,-0.10126106101817633,0.3441028090738844,-0.009162351933275628,-0.0021891081878983405,0.001323073047446687
0.1675,-9.874559966972477,-0.10743888558184436,0.24869916901979677,-0.008206237643650409,-0.0043663290777402365,-0.0017725971994205867
0.17,-9.91361766542492,-0.01979571781150129,0.33753161891054334,-0.008555244044728436,-0.005073531239616633,-0.003042100447284338
0.17250000000000001,-10.019760022281151,0.04278802148562337,0.38159107388817914,-0.008938828555910546,-0.009038354549520788,-0.0016350655591054232
0.17500000000000002,-9.959708841501476,0.02901625163583753,0.2334231125143095,-0.007063904054949691,-0.003965276110140381,0.0018249141652105726
0.1775,-9.880395631952762,-0.011773778061095239,0.1865900452563718,-0.007160567384467072,-0.0031932330469361956,0.0006668495704042943
0.18,-9.855889537085536,-0.08900527034525656,0.2830638894712283,-0.012712645548989125,-0.005599779418351468,0.0019137477418351544
0.1825,-9.964099155698289,-0.10850258707309483,0.4039477424105752,-0.008479203409020225,-0.009335025651632963,-0.0007011692348366984
0.185,-9.99516867298969,-0.10524849525773197,0.36913585938144333,-0.008395224329896906,-0.008103822680412374,-0.001222
0.1875,-9.873621329546376,-0.031749041223727986,0.23052758979144689,-0.00697601241580784,-0.004210659255051529,-0.002645835105088047
0.19,-9.839002835005568,0.0424554876984253,0.19962092033084156,-0.006781148006998571,-0.004071892209320824,-0.0039220655765866055
0.1925,-9.95565712348656,0.01802735284237311,0.34718293291554025,-0.00932795181167489,-0.008274035094639741,-0.001883955393669473
0.195,-10.067551,-0.023314,0.460306,-0.00901,-0.0069803918862130195,0.003818
0.1975,-10.067551,-0.023314,0.460306,-0.00901,-0.004133119088411175,0.003818
0.2,-9.774148165358637,-0.10695538298488216,0.22131469142811253,-0.004341578111933113,-0.007941,-0.0018621387584432361
0.2025,-9.875462731945964,-0.009168672608555292,0.3548884001704735,-0.007818000472820861,-0.007941,-0.003406840617561925
0.20500000000000002,-10.00461028118261,0.09662985544347799,0.40451099471304264,-0.004966988243478276,-0.010694992939130406,-0.003288000104347812
0.20750000000000002,-9.885684355592094,0.05203263334703525,0.2657640815241097,-0.007498491092490137,-0.006010800863241073,-0.0010093159747035412
0.21,-9.856242551794693,-0.013979278745152639,0.25674986119297605,-0.006945718553439931,-0.0032345396941309665,-0.000982455940046186
0.2125,-9.907589012661758,-0.03910608553875643,0.3485184220121125,-0.008968765273844272,-0.005885790850071886,-0.0007732067535183658
0.215,-10.024432467788056,-0.024212937796467826,0.41550732396972245,-0.008720900958788908,-0.004761835357443249,-0.0015190495206055454
0.2175,-9.944888391428114,-0.010876308369931083,0.32773189687449916,-0.007808445000801411,-0.004478200865523321,-0.002551873909280333
0.22,-9.787796528475758,0.01117521801232254,0.24489543204071795,-0.009472450738815965,-0.0032936623562818124,-0.00025307748406107686
0.2225,-9.8566435623895,0.03938536740423256,0.3123986707270293,-0.00972974932333244,-0.0056958648615054955,-0.0001676858140905437
0.225,-10.039188075050841,0.010631326868949707,0.3979405601236475,-0.009167017896363787,-0.0064074254779142555,-0.0006088092898397444
0.2275,-9.944343680667046,-0.03526103947937865,0.32859192482225635,-0.010600034800292854,-0.004062566270235086,0.00017252611730253237
0.23,-9.824828128780029,-0.06310771548751763,0.17932517966713818,-0.00858513039723662,-0.002419786889621622,-0.002745313490343853
0.2325,-9.86518077089025,-0.05424939680640599,0.3013668148374947,-0.009717012953367882,-0.006819723080546418,-0.0026193658313707012
0.23500000000000001,-10.027338117497985,0.0034848593841687405,0.4828290714170559,-0.008558523501531532,-0.007622229218120237,0.00015408685474770496
0.23750000000000002,-9.97074831504111,-0.03289496343704683,0.4141129430920518,-0.01088202456875707,-0.002717435950346573,0.000541196163146867
0.24,-9.784420806059725,-0.04053898916469807,0.1803604306402567,-0.00970401281240536,0.0031542609146526313,-0.0009202224774365525
0.2425,-9.76809353326549,-0.0325658990150827,0.2168112926331091,-0.00834605322187898,-0.0016957762384153972,-0.00014406409594766687
0.245,-9.980198540648885,-0.054072887971365835,0.4581637427548777,-0.007793279367278606,-0.0024451466989954974,0.00015085330100450263
0.2475,-9.995343191230294,-0.011604767827076257,0.4051126513115554,-0.009331929276775555,-0.002443,-0.0021622361254672495
0.25,-9.997607,-0.003587,0.394548,-0.009621,0.0020850037019898198,-0.002596
0.2525,-9.772445286343768,-0.04136269722840449,0.18827371922824415,-0.007970552990152908,0.0011219565511168034,-0.0004375312657113103
0.255,-9.926158091351567,-0.043101607036121564,0.3864514907615025,-0.0097730680041464,-0.004431795987560803,-0.0004564473518858134
0.2575,-10.044119337848656,-0.06759318521330043,0.49841358822741444,-0.009390125808149269,-0.005580622575552191,0.00018151093533211245
0.26,-9.954470329480527,0.011217077027765952,0.37570735953824635,-0.007247788312777213,0.005306060900419224,-0.0018359176912327545
0.2625,-9.868399052518377,0.0077895669238714224,0.3166758244607811,-0.009777647536302338,0.005598482301476397,-0.00027952230390667016
0.265,-9.862622946120998,-0.06118311544483991,0.31570910494662047,-0.009889180640569385,-0.0007999977935943535,0.002017067153024881
0.2675,-9.941074698546494,-0.06103504712154867,0.3517336712662641,-0.009840223713106958,-0.0010418956648682604,-0.00023008151063154476
0.27,-9.864343948858732,-0.03967183712321365,0.2592691372320195,-0.009901606224666695,0.0034523851808453583,-0.0004146471285944928
0.2725,-9.769533295443294,0.0041737724708558605,0.17307740617205647,-0.00827423532970645,0.006037623074071881,-0.001084777901596227
0.275,-9.831202391756905,0.004641139646042746,0.2765760219720468,-0.008401038458235944,-0.001227090588179183,-0.0003026236511949578
0.2775,-9.91702175718361,-0.02705473728760227,0.36478735917378324,-0.00885972480656395,-0.0023725559509612283,0.00023209358584172637
0.28,-10.00301853096805,-0.05869400343347662,0.4510422389508792,-0.009251759046256426,-0.003303269470671966,0.0007519351072961129
0.28250000000000003,-10.026302,-0.062769,0.395744,-0.006872,0.004790869284177043,0.000305
0.28500000000000003,-9.84478230902308,-0.05989685603170898,0.21422430902307943,-0.007899207059920744,0.0020984547353695058,-0.0011623013849382372
0.28750000000000003,-9.93842149287296,-0.03191114567374685,0.3387176120560996,-0.008830918609037985,-0.0029732368900189316,-0.0007133561551709928
0.29,-9.953068777447376,0.024868392200372888,0.2957491771915806,-0.009629904677857706,-0.0001821506719957564,-0.001214986943778317
0.2925,-9.87256339811351,0.04324096363868893,0.23127837729816192,-0.010654173160671455,0.0022927457330135723,-0.0004466458832933708
0.295,-9.884760627688346,-0.02175552929813243,0.21393447296844714,-0.012194095170637497,0.0030513575788795903,-0.0021291900064391582
0.2975,-9.992226163811976,-0.05606381519639389,0.3774048043528645,-0.008843445846748248,0.0026648091178364474,-0.000840413805537676
0.3,-10.024718468626748,-0.023935549539859075,0.38905224077925266,-0.007788875463128961,0.003431676634397016,-0.0006138840922672556
0.3025,-9.915890617325054,-0.020186260465727218,0.2681786103343685,-0.008553796649152132,0.005192,0.0005344569166467652
0.305,-9.877856139366163,-0.0298336971916139,0.19219688840565494,-0.01009006349098,0.005131147176986892,0.00014082798634813433
0.3075,-9.981137678791143,-0.008122952023937802,0.35143105232555344,-0.010492564603231601,-0.003910525364452422,-0.001996016909634948
0.31,-10.05579717822833,0.013627987228092511,0.40742102682450154,-0.008723372231667591,-0.004927496391515061,-0.002691598051958373
0.3125,-9.967649982601097,-0.026212402558194965,0.325748394375149,-0.009741374831175022,0.0013063116707714316,0.0004890352744895527
0.315,-9.819597188832551,0.0008647986228482221,0.12907373163067304,-0.008578502359937403,0.0049976011392801195,-0.0025341418716744897
0.3175,-9.891207217101723,0.02538900569640067,0.2462992773458531,-0.009330063874804385,-0.0005152174397496188,-0.0007799513489827824
0.32,-10.064900607905194,-0.009355416800278973,0.4057672849076337,-0.012810151829905903,-0.0018313745416521446,0.00045313424886720414
0.3225,-10.074920710473084,-0.05028967153017959,0.38156030899836857,-0.012178265047308318,0.00011790796411093691,-0.00032202256443719695
0.325,-9.939976492576278,-0.037930531592856497,0.21691602285577014,-0.008428622759670063,0.003931502987106581,-0.0006134726035076485
0.3275,-9.89630276054777,-0.02086293553295418,0.243521319090254,-0.009967855408024353,0.0018791927893008617,-0.0007419519244013782
0.33,-9.954339765695691,-0.011751744944836846,0.32227406066195785,-0.009600468202238267,-0.0004730805079768386,-0.0022380338249067496
0.3325,-9.936422653215258,0.0015908122234335274,0.24389584099182463,-0.013286,-0.0011880048501362367,-0.0006518977547684033
0.335,-9.838566735408108,0.03982781692876795,0.10816098061550587,-0.013319874040141686,-0.0007368918945297047,-0.002114285953561583
0.3375,-9.815378391216058,0.009238779315229949,0.12888325232585615,-0.014580146021251487,0.0002716558205431023,-0.001232013034238481
0.34,-9.973626791478019,0.00717247326005617,0.32631656072497894,-0.016034479878391034,1.9493919550431877e-07,-0.0013738701824134742
0.3425,-10.113001390669353,-0.014024958434152458,0.43138230769553076,-0.016164179569875155,0.000515873968586393,-8.473723399112605e-05
0.34500000000000003,-10.091624049361407,-0.0649979665308947,0.3424940738004817,-0.016638721325509157,0.0019631639765274613,-0.0007494267587159258
0.34750000000000003,-9.988982436489584,-0.07125178981430653,0.28531018538349684,-0.014477222877442245,-0.0004385833715485534,-0.000764
0.35000000000000003,-9.953602729831388,-0.056762170255078716,0.3109855033722435,-0.01604832217898834,-0.005239440856031267,-0.001062338910505832
0.3525,-9.90096265479039,-0.024288817489580675,0.24983809932826742,-0.015433089051238061,-0.0068980101250306815,-0.0013699554743809694
0.355,-9.824810768715365,-0.036281627625944834,0.16375353890743075,-0.013897,-0.002235469411209086,-0.002138
0.3575,-9.796192831788412,-0.0007551728148616835,0.16178003039357683,-0.013897,0.0002860983469773143,-0.002138
0.36,-9.926433133537325,0.0024457236472669643,0.31707574810179057,-0.012193869427231496,-0.001589792256477269,0.0002851799769355002
0.3625,-10.103299616483431,-0.017795412823863984,0.459725455662335,-0.011332081356192823,-0.0039292768047974064,-0.0004532651802875342
0.365,-10.169091054244111,0.004725519242334435,0.47035473836865166,-0.011595099524091391,-0.0036831833266248405,-0.0010580995240913914
0.3675,-10.071349534839465,0.003997635215397072,0.37835835876247886,-0.01195933780375933,-0.0016874182606349541,-0.0009982399424408673
0.37,-9.971001122845578,0.0025882487310009915,0.2850568791905749,-0.012319582458854214,0.00032882014929399867,-0.0009260967065383579
0.3725,-10.028647278676868,-0.015298343816381614,0.4000162423267325,-0.012845796314131411,-0.005620795481548151,-0.000916
0.375,-9.948391868747132,-0.04964435291418082,0.27936651445617255,-0.015577,-0.00498341922900413,-0.0022173086278109225
0.3775,-9.82997101529196,-0.05824393917766081,0.200201580261492,-0.01659960262911909,-0.0024328547737088074,-0.0016660555049399506
0.38,-9.758769212326806,-0.09755359745843942,0.15125045703839546,-0.01830494216884577,-0.0006332221783115393,-0.0006238691001597331
0.3825,-9.910570862872532,-0.020066214750448737,0.3177661895942552,-0.01807170054578096,-0.004487465953321354,-0.003956797838420105
0.385,-9.979594272280073,0.016696069141831367,0.39804343621544014,-0.015579842199880303,-0.0004625907504488191,-0.0029032017259126236
0.3875,-9.91841241931747,-0.004825271869129712,0.30894046023794575,-0.01695426862867878,-0.000458,-0.00039750258296805414
0.39,-9.918834936841211,-0.03947369666083081,0.2974795227566453,-0.017320402073319537,-0.004198278410525765,-0.0004838729418006334
0.3925,-9.954086205020957,-0.03847568862645233,0.3733030997230627,-0.01664059949917767,-0.005642441653138107,-0.0018429217868322016
0.395,-9.983055082239382,-0.10220721815154497,0.435357693098456,-0.01709818193532819,-0.008678823470077243,0.0005848234700772449
0.3975,-9.911403368547258,-0.0790379603481371,0.2951182770522195,-0.014518796700829652,-0.002758355213925444,-0.0014578398373190343
0.4,-9.742070022183826,-0.05163495618521052,0.11508079847961133,-0.010570746164478194,-0.003040801243953021,-0.001378409191430541
0.4025,-9.913478597844794,-0.010939482367660156,0.30767650487813625,-0.011897201945116566,-0.0020720685677190678,0.0005279039575095713
0.405,-10.019646840493362,-0.01907809054234296,0.42013372828091,-0.013126161482443211,0.0002899347323694558,-0.00136194620714077
0.40750000000000003,-10.00434571120731,-0.039601086253006484,0.40387459018759,-0.013899086907166916,0.000305,2.8380913900930135e-05
0.41000000000000003,-9.922288869075896,-0.06989675802794515,0.24945092612257946,-0.013596352041918091,-0.0027545957732613814,0.0002978510892346413
0.41250000000000003,-9.924280131216259,-0.05098559496665583,0.3181261608764696,-0.015376167449984147,-0.005043048793267734,-0.0026257745951095974
0.41500000000000004,-9.936274771856176,0.014386169671910172,0.36292206738876137,-0.018362680629213538,-0.004584340557303376,-0.0015103408808988508
0.4175,-9.836578462132966,-0.003420297799891857,0.25504009447395276,-0.019444584686769385,-0.004734,-0.00014633285774234915
0.42,-9.785096969867514,-0.03686522680894411,0.2035579736035013,-0.01848470485222709,-0.004734,0.0009097235417540849
0.4225,-9.834962755442463,-0.05027882681604183,0.26103904761813906,-0.017334364447887503,-0.002291666234431806,0.0015454558846314226
0.425,-9.918635758500685,-0.07231760610213922,0.3574123112091051,-0.015425419998808185,-0.0007651355342351536,0.0025952191168583465
0.4275,-9.898819470999683,-0.07481881612503966,0.346551307841955,-0.019233109228816235,-0.00038242402094573286,-0.0008315332497619682
0.43,-9.906724894333491,-0.06027885767797459,0.34019955720974604,-0.017649196999522238,0.000153,-0.002138778385093184
0.4325,-9.978478,-0.004782,0.439981,-0.014355,0.0006213043601286161,0.000153
0.435,-9.978478,-0.004782,0.439981,-0.014355,0.001369805556270096,0.000153
0.4375,-9.875645351364213,0.023892249999999997,0.32923795677347717,-0.018775393004441622,-0.0006463966529187814,-0.0007310786008883249
0.44,-9.848345045225708,-0.05060407762043635,0.25048064042458873,-0.017777108526770093,-0.001069,-0.0006205431237606435
0.4425,-9.908260091916897,-0.0438852622164676,0.37894752502148205,-0.015002445725384029,-0.0005770448025425202,-0.0003237228626920139
0.445,-9.922647386536402,-0.07893304022600209,0.4154708755199813,-0.015567742421281857,0.0007423922453063424,-0.0006063712106409283
0.4475,-9.87070261983074,-0.058138224453937216,0.3395379420133793,-0.014815521750624646,0.0031756248923994605,-0.00048380985572660554
0.45,-9.81151128510982,0.024481853682170443,0.20253960235788127,-0.017112016634366928,0.0023943709625323007,-0.0007121450581395345
0.4525,-9.793289341819552,0.0015357864987078917,0.2312224685766582,-0.017888175118432388,0.0025665370262704574,-0.0006257797868217049
0.455,-9.945143345362757,-0.025706297184268388,0.3528576100512995,-0.01512181562739192,0.0015293188795700789,0.00015134381239311948
0.4575,-10.056413131471379,-0.026727465571207566,0.47535683313736754,-0.017338331624460565,0.003354785444182083,-0.001152438902369523
0.46,-10.019446398164952,-0.05313417574329346,0.3837565681824986,-0.01859546059664073,0.0035724425871146194,-0.0015696612484332297
0.4625,-9.891379866689887,-0.025108,0.26030277863694457,-0.016519864437478222,0.006109,-0.002366931289910586
0.465,-9.905934900206663,-0.025108,0.3054257565354701,-0.015590353493556244,0.006109,-0.0007867018135376603
0.4675,-9.938951682758196,-0.022254985113129105,0.3740667453593974,-0.015577,0.001250046015083832,-0.000764
0.47000000000000003,-9.90687204686704,-0.05965760238410655,0.34984687309220514,-0.020600876107998038,0.001218090596026509,-0.0006114894752929167
0.47250000000000003,-9.85869531032363,-0.0796783536204892,0.21916161489173294,-0.020245174379511056,-0.0003903268172293563,-0.001850689350407466
0.47500000000000003,-9.818139483582092,-0.014363400373134341,0.10372719384328714,-0.017118658861940313,0.0023349765858209303,-0.001045962686567146
0.47750000000000004,-9.952628484975126,-0.015338289129353247,0.37075704936567544,-0.017990026822139318,0.0049490804664179475,0.00032344626865673577
0.48,-10.047007332586055,-0.028140432679863152,0.467771808674775,-0.018173,0.006704466447253348,0.000611
0.4825,-9.972323332377108,0.005754125381144198,0.3176265119259101,-0.018622121999525048,0.005534247062455493,-0.0008480952030396425
0.485,-9.770880509241348,-0.004977008544458518,0.06551721253467094,-0.022603878946509705,0.005915317953618453,-0.0019617476797576
0.4875,-9.93470503918281,-0.04182619392804775,0.40397760096044194,-0.020922,0.004429,-0.0008361943024580853
0.49,-9.973814506143182,-0.08788660024931565,0.45963798203064055,-0.020099287835964357,0.004233006207258113,-0.0008107375196598095
0.4925,-9.957017866413468,-0.060866237628007296,0.34133158703559185,-0.01814042301858217,0.0037663480468340432,-0.0016506000466010346
0.495,-9.750551607322391,-0.026191122721936088,0.021111207792021747,-0.017264600594225472,0.008470899336288477,-0.00438591890259973
0.4975,-9.884198133490447,-0.008363813780872453,0.30726675928346114,-0.017639052631077783,0.005022178908528242,-0.0024817136701779444
0.5,-9.994994107123727,-0.02030109301910373,0.47252902660239243,-0.017257763613640422,0.0016866800571326548,-0.002291381181931798
0.5025000000000001,-9.994226414797815,0.0004662265031262214,0.3748413786974734,-0.018774916046530067,0.003703059957268386,-0.004693331942707976
0.505,-9.903195893301481,0.035057035566173025,0.1437583897658858,-0.021970735967510757,0.005336464099378884,-0.003068934333492589
0.5075000000000001,-9.956223763591892,0.05382817559703941,0.23055129857097098,-0.020709823900868972,0.0068829147280335115,-0.0012601856581911364
0.51,-10.04508703669139,-0.06884947208924241,0.4663431158203285,-0.02170334375838129,0.0042190100587432555,-0.0007009435779979859
0.5125,-10.001197165679702,-0.10641603099744787,0.3990209652524785,-0.020277907565418644,0.005549251254969418,-0.0016516491663205195
0.515,-9.77900483547152,0.0032394147905227474,0.058931031460851206,-0.020355334257021823,0.003377240203985569,-0.003630519592028862
0.5175,-9.788841508335164,0.046517649242114475,0.1985999396673444,-0.022616855851247415,0.0042566751200376444,-0.0018716497599247102
0.52,-9.996430092924335,0.0016053025357870947,0.46010513779141077,-0.02023733002044991,0.002596,0.0004931303476482434
0.5225,-10.011511019973534,-0.030441667443762324,0.41750177115120957,-0.021971081628774185,0.002596,-0.002107181722603114
0.525,-9.8971793326166,-0.0723308526798414,0.1416833948932813,-0.02321284788932804,0.0007639130592885241,-0.0009160724268774816
0.5275,-9.920468495696442,-0.01732744631146313,0.2184897218371532,-0.020554521223715448,-0.0007554859984189533,-0.0021818238513833833
0.53,-9.920170555943242,0.0028613493153457105,0.3190290789609985,-0.023965580556718612,-0.001644549312243135,-0.003958477549817779
0.5325,-9.936695567341241,0.10201223074203197,0.3073644128588045,-0.02334523203535707,0.00046609913003021726,-0.0032129210700162906
0.535,-9.833290578719444,-0.011691972814899886,0.20583277191152585,-0.025917736679860106,0.0025886227799766844,-0.0009075738207217325
0.5375,-9.98271458717243,-0.00017221928921822352,0.2927668823740568,-0.020968933780064595,0.002322693143472526,0.00047582467392604747
0.54,-10.07047338444418,-0.04480163145147844,0.3932768506401833,-0.02336420909895899,0.003663997132942462,0.0007637846978580872
0.5425,-9.963662395048582,-0.1150972381673113,0.3300176542728498,-0.026526178415356642,0.0030334609400426617,-0.0007531836132395816
0.545,-9.810636711344259,-0.05338848460372937,0.10354690813792672,-0.024029254403617802,3.3622679479874355e-05,-0.0009253464058790248
0.5475,-9.89365551106599,0.020347775431471697,0.24304181076142048,-0.02407642233502538,-0.000153,-0.0006635776649746208
0.55,-10.016138731063368,0.002391259660281014,0.3819936568990922,-0.0222970260451408,0.004429011835879946,0.0016799928953695738
0.5525,-10.00203870615683,0.016004936588846615,0.364005288041573,-0.023662541521755988,0.00504955281780811,0.001307505648026062
0.555,-9.995791287838951,-0.10038870641765685,0.28800785777346527,-0.02381028497695846,0.0054774291923355796,0.0010668897307785493
0.5575,-9.990216515605143,-0.09025306517260896,0.2555731275931765,-0.020443888909370204,0.0004282589635378857,0.0005489174322904044
0.56,-9.985658938508427,-0.04551627951512242,0.34057018446548376,-0.02244397703070891,-0.0009151138212883979,-0.0033526125975526268
0.5625,-9.904842440230633,0.01352207592983596,0.27162628512262466,-0.02400736259541985,0.0034980854312165015,-0.003749378106220562
0.5650000000000001,-9.863420568165504,-0.016143418955163844,0.2525615326088748,-0.025044382107381462,0.004271879816469392,-0.00015650229091206865
0.5675,-10.062730193885535,-0.017656818913305967,0.43370529446993517,-0.024657802530789665,0.0016941199323834777,-0.0023476825984061864
0.5700000000000001,-10.134316778283221,-0.035242312970536024,0.4471697180396838,-0.024082465472038416,0.0031928355892964313,-0.001553301548406533
0.5725,-10.016526162961515,-0.06916655244137114,0.3058200338544793,-0.021314426602525548,0.0023502861725796724,-0.003117810989176193
0.5750000000000001,-9.87688148847185,-0.028704257372654755,0.23201844182306053,-0.022601508847184957,0.0022916552278820757,-0.0028998702412867394
0.5775,-9.906110089708097,-0.028137564014442108,0.2746344324631293,-0.022087685962915365,0.002902,-0.0019841263765987493
0.58,-9.909132,-0.01076,0.231946,-0.021991,0.002953791875739124,-0.003818
0.5825,-9.909132,-0.01076,0.231946,-0.021991,0.006362511301742514,-0.003818
0.585,-9.90521103235095,-0.04553524435421796,0.3523527543017144,-0.027241963859526323,0.0028724134220044547,-6.96209543809992e-06
0.5875,-9.957501588169409,-0.027617330346517165,0.3962336596429825,-0.026307286384319208,0.0013780305215260634,-0.00038071074553728016
0.59,-9.851826935108363,-0.018369881609906723,0.21569841585139765,-0.024216150959752245,0.004581,-2.9039752321955016e-05
0.5925,-9.708273,-0.031683,0.066356,-0.026878,0.002846056044167035,-0.000916
0.595,-9.708273,-0.031683,0.066356,-0.026878,-0.00013279584253477437,-0.000916
0.5975,-9.979861033854911,0.043593925740478254,0.35713301217006843,-0.026249203970286066,-0.0010328206227280022,-0.0011678476244665749
0.6,-9.908690124472443,-0.0039022076220465995,0.2862749686929152,-0.02913486425196852,0.00676696163779532,-1.5752314960623206e-05
0.6025,-9.715208862513382,-0.07645788726929237,0.08193557840629628,-0.027495948220472417,0.0017238890330707945,-0.0007720480755905619
0.605,-9.78778,-0.104017,0.205643,-0.027794,0.0008088699410028967,-0.002138
0.6075,-9.884232263921756,-0.05648023260699344,0.26374400568583434,-0.028556930081802035,0.005307643016004785,-0.001375454072317704
0.61,-10.03781681862784,0.019366592036084724,0.35562784633061717,-0.029776504746379683,0.007941,-0.000166981014481277
0.6125,-9.924719636701747,-0.01981996345651728,0.21872217254094875,-0.02939647166257814,0.007941,-0.0016871133496874525
0.615,-10.023134460180604,0.03515429451389675,0.3969936386255415,-0.029322,0.007035316950861972,-0.001834711983112467
0.6175,-10.127750263020962,-0.02448131393881111,0.6073104521609292,-0.03161469658395572,0.0049859350614309406,0.002117479739821807
0.62,-9.985105825982133,-0.015628808580136717,0.29356206275354707,-0.029527339136100898,0.006923619474513925,-0.002290763014188124
0.6225,-9.954471207026799,0.034768960870206006,0.2688574358696789,-0.028349275295848634,0.006755560788229109,-0.002038399478717808
0.625,-9.928676879800065,-0.04856080244366867,0.29187420025388766,-0.029016,0.006617049587432562,0.000112246747064424
0.6275000000000001,-10.059475171847037,-0.1276366107584912,0.371447508130754,-0.029016,0.0005181042875276286,-0.002302040425261878
0.63,-9.9576866659111,-0.07808571605306014,0.2827608784221548,-0.03144592865720271,0.0043999821736095054,-0.00517793441470794
0.6325000000000001,-9.919446128282827,-0.020697642318420896,0.25315309055314983,-0.029926434083694047,0.0060897355940356356,-0.0035312644059643647
0.635,-9.91508257660572,-0.06757249828410715,0.2534081728926395,-0.02751003920300046,0.005355519601500229,-0.0007880405860290563
0.6375000000000001,-10.007897005936076,-0.08234630350619739,0.37718175484344757,-0.025545871836268705,0.0013298237769079155,-0.0028360480593607866
0.64,-9.907647025288421,0.0072280469894737,0.1598374774484206,-0.027978314560000026,0.005201648892631581,-0.0022627098189473603
0.6425,-9.80537388918737,0.010197172715789425,0.07471904470736979,-0.03244524831999993,0.005707172901052623,-0.0007455859115789716
0.645,-9.822826778647027,-0.04910789027535463,0.2209189944929193,-0.03226260084759206,0.005803,-0.001046365652124651
0.6475,-9.932139464329456,-0.046936253053872674,0.3176570237432441,-0.0331121272277714,0.00504112858686754,-0.004244573204519358
0.65,-9.830440468582148,-0.014705196036120208,0.2053435838630219,-0.02996998569250612,0.007000829342089855,-0.004131637222938892
0.6525,-9.691695180396604,0.04918768075542887,-0.0038595332389020076,-0.029932,0.009272430802643975,-0.004123
0.655,-9.79030634336366,0.03546505469559094,0.1991955472731548,-0.030369218110566837,0.007445980256589657,-0.0019416721716817987
0.6575,-9.90102090867454,0.009859068910761427,0.2733946473097106,-0.030264517992125987,0.00733,-0.0015800359842519712
0.66,-9.921251512531041,0.004429070431862231,0.2839620350113215,-0.030260111706364723,0.007766988188988797,-0.0015440098617727604
0.6625,-9.801317510550568,-0.021515508566965803,0.10871186171027097,-0.031885588754392805,0.017396199578289646,-0.0027944398125732024
0.665,-9.859913465171541,-0.005741627441860089,0.27763319728298774,-0.029155134915956657,0.010629534529127174,-0.0024695080865760888
0.6675,-10.078486427693074,-0.009800362710513166,0.5579355863677109,-0.031452147304434463,0.01138543431988041,-0.003468834598903829
0.67,-9.989956649889763,-0.03633822903937112,0.37651425733543287,-0.03221571803464565,0.010679083011023598,-0.0022837180346456532
0.6725,-9.923817925102364,-0.10149030160629888,0.36269452104566935,-0.031206773253543315,0.009166491489763787,-0.0012747732535433125
0.675,-9.961564828820961,-0.023494723144102767,0.33514078253275054,-0.02844354323144099,0.005547886462882023,-0.0018216567685589687
0.6775,-10.041275058956424,-0.03543930227037357,0.47883028771449,-0.030169486137178358,0.0014647709296582634,-0.002966958817812471
0.68,-9.845262766673853,-0.0032015585041343386,0.16587936822724786,-0.032060797367853326,0.007593663070838001,-0.0036622398130169115
0.6825,-9.897957111544931,0.04117976112798782,0.20947566930832065,-0.03303492668320726,0.005514171691376706,-0.0038582379352496213
0.685,-9.845897588158891,-0.06636655895649446,0.24034767822824757,-0.03116126259457765,0.005340850334173969,0.0007600568663303399
0.6875,-9.925932498423707,-0.07278875638398487,0.2596150969419924,-0.035578537752206804,0.0028169292244640603,-0.0016382466897856243
0.6900000000000001,-10.033433491945555,-0.0415653598078476,0.42092954458286297,-0.034959696704563635,0.006992173303442707,-0.00408403508726976
0.6925,-9.956146136813452,-0.09877949463570865,0.27639060493835044,-0.034190685002401924,0.004940356054443551,-0.0016485515196156884
0.6950000000000001,-9.862949277652193,0.0466695426695776,0.11737670517261108,-0.030548931163392412,0.0073312487735467825,-0.001678751226453217
0.6975,-9.799602367615813,0.0639008109822945,0.20352965575551812,-0.03300908764491876,0.007849221072034928,-0.0011607789279650723
0.7000000000000001,-9.840454923812478,0.02509848624563887,0.22931354318481253,-0.035920902502905895,0.005472701851995318,-3.288593568388644e-05
0.7025,-9.931772445963581,-0.06330528655559908,0.24680010195738095,-0.037534596370399076,0.004231961401007355,-0.0016457672685005894
0.705,-9.966942254276159,0.04049089469660526,0.3196550690109876,-0.036967041872909716,0.007747189890109814,-0.0030422936072622814
0.7075,-9.851726251992538,0.0025421996399315958,0.20553147685345796,-0.036699908571891975,0.011264370354391397,-0.0007368054561673666
0.71,-9.801121933680506,0.035787195862070256,0.1719961972976762,-0.037568,0.008070107361013384,-0.00018028990851511598
0.7125,-9.917774681335525,-0.05488851417624602,0.27541568461959587,-0.037568,0.007193629337712088,-0.0011813934318555097
0.715,-9.824967970733029,0.01609733310999504,0.11052675994895059,-0.033598,0.010090456555794835,-0.003818
0.7175,-9.881468293400337,-0.033901768174204885,0.1520265158458966,-0.033598,0.010984552227805705,-0.003818
0.72,-9.925950374797104,-0.011831930575928674,0.32625944347166125,-0.032845427943441786,0.013855880344867191,0.0006954622554316003
0.7225,-10.015121154048545,-0.056435196058252986,0.3418124686504856,-0.038207873378640844,0.011593791718446572,-0.002051125436893239
0.725,-10.012838124823364,0.03203458765897425,0.324750387564769,-0.039721408902496445,0.012216147998115875,-0.003350583137070196
0.7275,-9.791392505605272,-0.09197528837808311,0.08263618127806222,-0.04198435082744547,0.01209102352645627,-0.001967628450306151
0.73,-9.758151476691305,-0.02398366897571362,0.11616137408893507,-0.037395848921741213,0.011171463494074864,-0.0031679282928546155
0.7325,-9.98935551978381,-0.03449426888686427,0.41736099212971367,-0.038776656622335565,0.010703343377664437,-0.003311240828323287
0.735,-9.979639671929469,-0.012098058428649392,0.39600464246859773,-0.037750692717484574,0.01172270770071001,-0.0016915465678395834
0.7375,-9.841233693968945,-0.02285788643208258,0.14413451108683334,-0.03999968657252091,0.008973846531949705,-0.0025661098384957637
0.74,-9.987952270749735,-0.08734557989440309,0.40090921246039984,-0.03913211193241817,0.008399,-0.0018577232946145764
0.7425,-9.978212615597045,-0.06910157835862357,0.3325347680591071,-0.03635813152617774,0.009270006965917234,-0.002454682240406781
0.745,-10.088529489430424,0.036775198644556376,0.4778836727036766,-0.038878443806777206,0.007822797894736847,-0.006337144513338132
0.7475,-9.897034726768187,0.005557792303600921,0.16961083586817471,-0.04072048748046092,0.011978316844734601,-0.006921972334219655
0.75,-9.937828,0.096844,0.224175,-0.039859,0.005498,-0.002902
0.7525000000000001,-10.007980379670066,-0.04889147526202384,0.3963207775552302,-0.03858684117050419,0.008659765738268765,-0.000611
0.755,-9.958286251208394,-0.09675861820110762,0.33054929874205763,-0.03699946030661614,0.010340054531040517,-0.000611
0.7575000000000001,-9.82459687089734,-0.09609269510409184,0.05628452221104835,-0.03583854624551325,0.011130635836324499,-0.0019785417085427482
0.76,-9.879201794253495,0.03341432103456789,0.20793011577347487,-0.03710925877420937,0.0076377790389801255,-0.002748777680804121
0.7625000000000001,-9.913985289330695,0.06821928933069399,0.33310657368713203,-0.04027986236831692,0.012707115596039738,-0.0030022236831683236
0.765,-9.959804091131499,0.1023063048035758,0.26130597722888665,-0.041377411018583866,0.013744,-0.00245445822629969
0.7675000000000001,-9.953658689843065,-0.053558447567916556,0.2943601856990371,-0.041386,0.012739583787142485,-0.002443
0.77,-9.925547744756233,-0.11276600786999151,0.29273132824215436,-0.04292169123930036,0.012151705416201461,-0.0019212441285200602
0.7725,-9.925270672106015,-0.07803635350130844,0.31756823549798,-0.04318908987639651,0.012082561725695266,-0.0031324602305681064
0.775,-9.890254788863798,-0.0005571301877815849,0.2847887078916089,-0.04109605042785831,0.0123679478725933,-0.0027517376634181093
0.7775,-9.931163866550648,-0.027201051596255944,0.2513401966370615,-0.042664143163706175,0.008144092906865122,-0.002876761745079201
0.78,-9.955043884347825,0.01606472355072491,0.28463585226449184,-0.043878334112318784,0.006660874918478469,-0.003892040135869604
0.7825,-9.8482679976708,0.02033461190975543,0.1979575456752472,-0.04237764058786145,0.014508,-0.00435409582141724
0.785,-9.786181877253409,-0.026491920461860996,0.11948878457191912,-0.04510937546247397,0.012468288362608953,-0.00336
0.7875,-9.83048002661755,-0.045456716582496864,0.14919464778087976,-0.045708529724912385,0.010063544210088534,-0.003478267007307942
0.79,-9.88847410062671,-0.014211593623505398,0.23214054845354248,-0.04339046510900994,0.009365717427522116,-0.003660682284910522
0.7925,-9.834592518530906,-0.0063741087129796595,0.13956235764007255,-0.04451712917089942,0.012243422289599105,-0.0034107677111823104
0.795,-9.812381966436783,-0.04421642840038287,0.062376112765009095,-0.0450491457726692,0.017868,-0.0006114635568327008
0.7975,-9.888433857931036,-0.0272046889367817,0.23199466377394543,-0.04351578750957855,0.017868,-0.0009948031226053621
0.8,-10.072536666264005,0.030800758706190052,0.5039124666136833,-0.044755969959469157,0.015456215274576905,-0.0013609612016211967
0.8025,-10.007277122663911,-0.016524743650957466,0.39929819824525187,-0.046410125057617414,0.020801177893983926,0.0008023570023046893
0.805,-9.990995320672008,-0.07145773946669887,0.2928798938347491,-0.04521955239746499,0.014517176429510918,-0.0002244117852445407
0.8075,-9.995492173265575,-0.08757318527322729,0.33560344149946186,-0.043304330778428796,0.013368670371876123,-0.0007986648140619386
0.81,-9.9283893162676,-0.06299655209097167,0.30634052351771934,-0.046118982137201774,0.014299486098092395,-0.00330753968648707
0.8125,-9.880424165949306,-0.052337505978000964,0.20541501386896224,-0.04662936824485892,0.016256337637494022,-0.003733232902917265
0.8150000000000001,-9.886969337665057,0.022457495810832378,0.15375700124863867,-0.049633,0.011632775508038122,-0.0053079376275947665
0.8175,-10.029320853494616,0.04300267891680977,0.3425808751365697,-0.049633,0.013257929196191669,-0.003058417240518179
0.8200000000000001,-10.02457625613993,-0.009451241102194176,0.381396,-0.04917591742662033,0.015420330293518686,-0.0027486935234215934
0.8225,-9.915869304793912,-0.058179318275206254,0.22860743128725375,-0.049808154527584025,0.015677925668991757,-0.003002095846544072
0.8250000000000001,-9.918884784308823,-0.024504504587012556,0.12235752731109047,-0.048267125326248383,0.015419791138548078,-0.0009307356099086424
0.8275,-9.952193890330546,-0.02352451170117996,0.19485323849339728,-0.0498944379276393,0.01466922802531843,-0.003558525898257418
0.8300000000000001,-9.97308518695304,0.08836982188569752,0.42901610024027004,-0.04856556563523838,0.014508,-0.004428714830724437
0.8325,-9.973098,0.088474,0.42922,-0.048564,0.01955774682234147,-0.004429
0.835,-9.803282281080218,0.053814328233889756,0.18503902598263106,-0.050531218523062235,0.015548833053453393,0.001379930394328042
0.8375,-9.954086605273641,-0.04805450021508894,0.36680361534294753,-0.04900091402851907,0.013124737178363717,0.0018903103321915122
0.84,-10.147421978355116,-0.08467092495546533,0.5280880572585289,-0.047659951393869304,0.015843182130711345,-0.0007307258114516643
0.8425,-9.981128652918077,-0.09614164810218415,0.2722773095355961,-0.0512721660080423,0.015882,-0.0015137521028147996
0.845,-9.77989593727604,-0.10101229219227965,0.007946619548436923,-0.04828308256372912,0.01193808113619816,-0.003499964573925685
0.8475,-9.868640417232735,0.008708499176206294,0.1473881134999628,-0.04801026581016896,0.012284007406369233,-0.005249388301798667
0.85,-10.04905716675788,0.05417502036882785,0.3671555247114791,-0.04897995224271266,0.01339695224271266,-0.001542230362879286
0.8525,-9.934901754336765,-0.010479241384418213,0.26487896878621864,-0.052642187028332316,0.017558607726980098,-0.0009996388216355386
0.855,-9.715776362910823,-0.10103781223305519,-0.07858940678715523,-0.050615625227110606,0.016538595348394785,-0.0007674896741973854
0.8575,-9.890896713616998,-0.07102978523222067,0.1863690454505784,-0.04888138757155505,0.018215722469164985,-0.004280559754499841
0.86,-9.997064956265564,0.0059150867465324886,0.3735514641652395,-0.049920990805547356,0.02057834458070226,-0.003524372164060199
0.8625,-9.96889082,-0.03190535777777848,0.37950891669796566,-0.05104770461658844,0.025793469389671454,-0.0014168776838810264
0.865,-9.847617142464667,0.0074912039722288895,0.1365019972625848,-0.05450169473344903,0.027941771554673936,-0.004408948113067179
0.8675,-9.95162677924848,-0.032711923398466104,0.2585280576694906,-0.05615933582786175,0.02416372673680872,-0.003924398392532226
0.87,-10.056552680229444,-0.09037076871892916,0.44020479613766694,-0.0515153036328872,0.020794920344168265,-0.005329759196940723
0.8725,-9.980406406842441,-0.000888296385850168,0.40328403961414705,-0.05108202363987137,0.023578608231511314,-0.0035572195241157173
0.875,-9.85055,0.007174,0.235533,-0.052076,0.022882708777391927,-0.003512
0.8775000000000001,-9.85055,0.007174,0.235533,-0.052076,0.014637619202490529,-0.003512
0.88,-10.03739794495181,-0.01987851599936795,0.5205864493980089,-0.05581713701374624,0.014003624256596629,-0.0041502771053879
0.8825000000000001,-10.024027731142361,0.002901379263707312,0.36310869131931983,-0.051895538985621645,0.019443661064939305,-0.005541972223100051
0.885,-9.998335475061618,0.0033445198924484418,0.2953467520860397,-0.05357174933452837,0.017963751996414885,-0.002535021008290408
0.8875000000000001,-9.925274,-0.063965,0.17396,-0.056658,0.010640253994822171,-0.004887
0.89,-9.924042023529411,-0.06393349167732873,0.1729391313995935,-0.056626607633016045,0.013934833178342987,-0.00487895162115774
0.8925000000000001,-9.732831105882347,-0.05904319106256812,0.014493555091273397,-0.05175430410984539,0.019806793334373705,-0.0036297898548915235
0.895,-9.624749943906817,-0.022805525518077824,-0.023901377553991788,-0.058013394855617635,0.01970349005095849,-0.0050357357922834415
0.8975,-9.748512680366453,-0.011449765158562528,0.09708141319238726,-0.05928325758985199,0.016822189485553248,-0.005415295334742771
0.9,-10.040854440332282,0.005664087711256559,0.3906653687195634,-0.0598598299627614,0.02121824228014903,-0.0029800850186192983
0.9025,-9.89240065382242,-0.0308517055856425,0.19080601491184188,-0.059382647468513884,0.023714359124685162,-0.00193686503148616
0.905,-9.824218820298821,-0.028795288106505647,0.07521971702575549,-0.05779110864019533,0.022154694715423508,-0.0013252069623859108
0.9075,-9.909857505379918,-0.04847384275797898,0.1849102398372176,-0.05713944435090984,0.020944635207255403,-0.0016044045718272165
0.91,-10.149439337195517,-0.05380193918805115,0.4901859693842833,-0.054825271772463706,0.022755,-0.0033599533741161423
0.9125,-10.007507948581871,-0.0528055962183205,0.32584436151585117,-0.059277991816953965,0.022755,-0.002596034893143726
0.915,-9.78147117591433,0.059467810675455035,0.00860804349258143,-0.06152674217462935,0.025768447710049477,-0.0050055159472817586
0.9175,-9.845368636559071,0.08887015800489285,0.19025760300212952,-0.060294944847289096,0.02518356310630574,-0.0019144528008839304
0.92,-10.14207741967523,-0.019783941691712482,0.6001687818225877,-0.0600501874600097,0.0224861345758604,-0.0008882742365487015
0.9225,-10.185375653936015,-0.10600110830344114,0.5500335829859431,-0.060534956902569076,0.022583342603005332,-1.4672685409602418e-05
0.925,-9.854791626377294,-0.14597100759996756,0.11756514536926287,-0.05939656082359487,0.024097705238890176,-0.0011107225534621738
0.9275,-9.727719619966612,-0.11009151941171808,-0.07229554857460783,-0.058632156505286595,0.021806159468956206,-0.004165839049208989
0.93,-9.84788857539021,0.024852300290384988,0.2130050822323155,-0.057708771361161856,0.0193828387840292,-0.006151857005444696
0.9325,-9.98918648144656,0.08609566275825034,0.32086902906486875,-0.06374389385450857,0.02554799837918481,-0.006037734057408848
0.935,-9.900905105257504,0.05504762588291394,0.13420535540490142,-0.06231029141015692,0.03023051566032116,-0.004126055546935568
0.9375,-9.66765700015986,-2.7217968187998043e-05,-0.08719382831108624,-0.06294730269362961,0.029854753097274398,-0.0022067654863719924
0.9400000000000001,-9.751443773624072,-0.14621436349514488,0.06717255635206903,-0.06001896478752189,0.023226570498169705,-0.0016955064204998084
0.9425,-10.004355364851186,-0.11378995029126208,0.41037299985994014,-0.0601458019290148,0.02501063502785294,-0.003734079688047115
0.9450000000000001,-9.91883905701357,0.019724047597171654,0.2918292557651618,-0.062060862035038945,0.028802999976795383,-0.006246062030398023
0.9475,-9.805975121051766,0.05456877600657349,0.1679659881676254,-0.0651861819227609,0.026874533541495476,-0.006014394494658989
0.9500000000000001,-9.778749563422936,0.039484495128535815,0.1915124829205312,-0.0682879679539853,0.025558736213170525,-0.0037588298509214093
0.9525,-9.912726453795852,0.056306538911203415,0.27026642052780125,-0.06281259807468877,0.02308376571618256,0.000920268122821602
0.9550000000000001,-10.167424807886206,-0.0791683619609736,0.4372208379308776,-0.062459142544086556,0.018032137441805624,0.002441516952739264
0.9575,-10.080851971453301,-0.04357296694311092,0.31994122314894874,-0.06120360939806436,0.02418279035644036,-0.00032292994885516155
0.96,-9.878366918189066,-0.1762479383122032,0.02882685350235903,-0.06549223603042369,0.02945427222021,-0.0016762035204635865
0.9625,-9.887166919489562,-0.029951590139207812,0.12199408062645564,-0.068417,0.02699403387470988,-0.004276
0.965,-9.995947686018523,0.049841813567376395,0.3261775927091103,-0.06800369825728557,0.028154715684429944,-0.003272322428356706
0.9675,-10.018136943263348,0.03677211173932004,0.398214250374825,-0.06746016543276924,0.033046511105076906,-0.001952386775929773
0.97,-9.855610545895596,-0.07187317339797278,0.19946106510951717,-0.06558722822959054,0.034056,-0.00013968492424900345
0.9725,-9.863189267746245,-0.10438415472454074,0.1708867686811362,-0.06548247171953257,0.030008969449081734,-0.001276657996661133
0.975,-10.002294546098298,-0.07095265846727265,0.30134445408804905,-0.06465223834148616,0.02682390677847661,-0.004444144095038405
0.9775,-9.91212224341224,-0.03424630423200254,0.15453521060725064,-0.06471162600956591,0.02550623952049406,-0.004073629058545729
0.98,-9.748123645848969,0.026092204031632385,-0.01752779716545311,-0.0649257167064661,0.027336,-0.003198958920762918
0.9825,-9.809359411121106,0.08587030395410238,0.13750503431850147,-0.0682784283082649,0.027336,-0.0019575450953636026
0.985,-9.9082392999324,0.03460863453404196,0.3161065412650883,-0.06677642599710287,0.02223334953162727,-0.002429869473684205
0.9875,-10.038758050938256,0.008441672179396887,0.2719275687767647,-0.06501514672584284,0.020545366347426583,-0.0007211467258428407
0.99,-9.907658411970377,-0.05035104491926648,0.18007946543158954,-0.06889301685565132,0.025636804297681167,-0.0011940524851280765
0.9925,-9.850212574050353,-0.02359312091583093,0.09180151154240844,-0.07081092441619818,0.028992912732013425,-0.0016039361003829622
0.995,-9.862371841425084,-0.035908684177647615,0.15814278900927223,-0.06846549889702293,0.02308079010248901,-0.0004874441386041854
0.9975,-10.050159740610914,-0.0020516094131093274,0.2982316980620069,-0.07184979877359567,0.02787199202379601,-0.0025483000938107594
1.0,-10.035457963734126,0.0589039932502002,0.3107813809632765,-0.07047564958242765,0.03272679933646036,-0.001724170461045647
1.0025,-9.861518816561453,0.008182230748545932,0.08577205976552121,-0.07052648432237436,0.032987,0.00043216536525370313
1.0050000000000001,-9.972993878623035,-0.1254390837787081,0.27247843271204014,-0.06913923869516786,0.026407696943722518,-0.0027158495624039557
1.0075,-10.066090385907815,-0.10682022726993004,0.37887444103750334,-0.0685446766923036,0.027171895439452625,-0.0047542684029067495
1.01,-9.822025040857758,-0.03094947496982739,0.09644114341379281,-0.06871654087500001,0.028413017081896547,-0.005797210215517246
1.0125,-9.701790774375002,0.024439179374999023,0.013020595000001495,-0.07001087687499999,0.026859926875000027,-0.007090981249999977
1.0150000000000001,-9.841754683731743,0.02614986257682163,0.1290502315443737,-0.07086,0.02657707206572402,-0.00504
1.0175,-10.05418347483372,0.0023819190236188843,0.4885447264902544,-0.07086,0.027209083668536235,-0.00504
1.02,-9.986951856995708,-0.021502937339055964,0.31885560077253006,-0.06399448858369093,0.031150395021459262,-0.001987884549356196
1.0225,-9.834835373397638,-0.04100965199751061,0.12568999723709048,-0.06896693003733659,0.03127869738021157,-0.002482974505289352
1.025,-10.00641301988303,-0.07318533060428722,0.26790263464911424,-0.07386829834307974,0.021351286013645682,-0.004556719541910241
1.0275,-10.166407354819942,-0.03453869780109581,0.3550961423451812,-0.07303242190635183,0.021228,-0.0030684807599967714
1.03,-10.198715549236082,-0.026018638273709878,0.37203047845833076,-0.07284471398107545,0.03160846397415182,-0.002759928003692726
1.0325,-9.769061206735412,0.07542660856649044,-0.0029450697240287066,-0.07358108632055788,0.029932,-0.005529063064910338
1.035,-9.802314759861716,0.018634627392265027,0.16294644106335526,-0.07587174081182564,0.029932,-0.0014246352220302922
1.0375,-10.014933373503396,0.01694665409326421,0.39003274259068166,-0.0737568980151454,0.03257950695894789,-0.000995902654443988
1.04,-10.155309859570172,-0.10558835021491704,0.41312434019025207,-0.0755363891438638,0.033139,-0.006571515753376497
1.0425,-9.756764838044615,-0.13744653839582324,-0.008964053535829908,-0.07497447390602753,0.036116550602752706,-0.006347197019458949
1.045,-9.723710743495442,-0.1090681631901563,-0.039848262936932985,-0.07541746745710565,0.029768350363270878,-0.00787354554490587
1.0475,-10.115436044454698,0.05178152724310148,0.5053194575697495,-0.070097,0.028636043769118425,-0.00504
1.05,-10.134388654226976,0.03822015221992432,0.4273385238170495,-0.07100777482058149,0.03091881484004391,-0.004967004427685193
1.0525,-9.932711559022017,0.023733196608685125,0.1825812939715371,-0.07344267517820215,0.03763934390463445,-0.004771855263349958
1.055,-9.589313295961512,-0.11896079641440951,-0.1513881316062477,-0.07425795467323718,0.033635923130353254,-0.00022930912354797623
1.0575,-9.770238484256724,-0.06159484343071445,0.08065190717823353,-0.07209756577730836,0.02997212009386351,-0.0030472879197466878
1.06,-10.063687230685735,-0.03399782642112874,0.42246423055004434,-0.07313897995638483,0.029774727472740507,-0.00295809752362489
1.0625,-9.97315932611255,-0.12283934706851896,0.31554356604662115,-0.07572467223922769,0.036080696727101486,-0.0028226720037673654
1.065,-9.631171307153284,0.0708156291970809,-0.16158392873998217,-0.07493030293167396,0.036346,-0.006310779796577774
1.0675000000000001,-9.694927789489054,0.0426877693430644,0.012433638750755899,-0.07828356290534896,0.036346,-0.0037241584922818
1.07,-10.043723927995378,-0.017532675026027254,0.3736132179433276,-0.07571902308386355,0.034208,-0.0015379863088491516
1.0725,-10.033411305537612,-0.08516195645310976,0.33963784097010874,-0.076511,0.036253677383287344,-0.00336
1.075,-9.845312325209939,-0.18381332149861826,0.047365984649720416,-0.076511,0.039827542615538135,-0.00336
1.0775000000000001,-9.756642313598432,-0.2334715715710584,0.02743675458930874,-0.0749024641786179,0.033948184608865395,-0.004102276479791434
1.08,-9.906756906644421,0.003757326241515785,0.19373576665157366,-0.07556560473000361,0.03119180963166046,-0.008583211739182419
1.0825,-10.090424554056314,0.21093586159791924,0.34932619812603627,-0.07855934010568659,0.03387164877356261,-0.007346175613218698
1.085,-9.861611768154898,0.053242156583144684,0.12404784555808812,-0.07750766004555806,0.04025434984054673,0.0003229867881548702
1.0875000000000001,-9.774919135079722,-0.02971068054019317,0.01423683577393925,-0.07872354869291687,0.03799602719383869,0.002233831435079828
1.09,-9.962110981075647,-0.21941055639762264,0.3281163361267337,-0.08197772263287123,0.033120241771089076,0.002527206175049371
1.0925,-10.05744045127604,-0.18415930002693032,0.3598933798970301,-0.08007492056079206,0.03197905886099009,-0.0016579617172277675
1.095,-9.820662896138515,-0.19204918266317328,0.09379227694270781,-0.08031089619318828,0.03798895447317454,-0.006593273352317978
1.0975,-9.539902758714796,0.06028164864544093,-0.18852154347028074,-0.0792542437939416,0.036517104456695884,-0.007088055147311719
1.1,-9.74539356930465,0.16581368397652874,0.11878475973680619,-0.07764057179441573,0.031200564929752615,-0.00452520088920496
1.1025,-9.951382059863402,0.016584201703493118,0.2524850088678202,-0.07943786569385297,0.03409717250944159,2.955328887109792e-05
1.105,-9.959873644026194,-0.05037852102352627,0.2149301613291299,-0.07956919627455736,0.03828382512248359,0.00031547697307786283
1.1075,-9.76475381124246,0.015541250914357145,-0.03568336392762726,-0.08107601943063936,0.04310981799276254,-0.002548952284680423
1.11,-9.802560731194212,-0.0725492520337791,0.09210377253559004,-0.07972387498673095,0.03683227554644125,0.0004449914933656171
1.1125,-10.04707529613269,-0.03610450876325586,0.43853256145443564,-0.08149785388724985,0.034770405565744324,-0.005135469723307651
1.115,-10.106928585091971,0.05678003292334376,0.4008909489350285,-0.08013756973553328,0.038101697004815645,-0.004542569735533283
1.1175,-9.788802462826602,0.06167277005711671,-0.04460658551948776,-0.07799347313160777,0.040702558697290045,-0.002398473131607782
1.12,-9.736704254876502,0.06805558244177941,0.01403123280170357,-0.081379354580099,0.03758440875088197,-0.0013769838532109772
1.1225,-9.90693142728339,-0.13540758537541592,0.2942086966192945,-0.08088555876977434,0.03577487504055244,-9.331627077809848e-05
1.125,-10.003367257357183,-0.04706450698211195,0.17773431967686093,-0.0791434500865551,0.036923869474899014,-0.005525073629544143
1.1275,-9.880605977890726,-0.019303859364676525,-0.01132607783989431,-0.08135513709021595,0.04020449086404059,-0.0050261994409148796
1.1300000000000001,-9.57539314347003,0.07583858743991921,-0.28448096569175113,-0.08320182667463837,0.040479391108453874,-0.003391310529714129
1.1325,-9.812047971243526,0.04771315972880198,0.027885259765502213,-0.08875859229480751,0.034941407705192495,-0.0031082516008614437
1.135,-10.136915144824666,0.015090781943986699,0.5990458581878111,-0.08861301718051305,0.037462436658037196,-0.0036481065474229255
1.1375,-9.9718859742211,-0.057276758185975066,0.07666615184650777,-0.08664907141826053,0.03610821639600627,-0.004223210068567287
1.1400000000000001,-9.913070232592322,0.015111943923978091,-0.0530296946397274,-0.08780511605196686,0.035434014697461776,-0.005186265254420834
1.1425,-10.04055811878186,-0.00043697368168021423,0.1719107427408303,-0.08908755775284505,0.03670555775284504,-0.003916442247154956
1.145,-10.091446813146433,-0.10284753476367095,0.41083748034754575,-0.08560986846153842,0.03561498147358664,-0.0053058960148285594
1.1475,-10.004968520143246,-0.04160675650485529,0.06074387281553911,-0.086021082543371,0.034957692204360985,-0.0063451650867419876
1.1500000000000001,-9.893000053658529,0.032314927498808474,0.14215477515543892,-0.08268693122907676,0.0370663384265903,-0.00566845700621706
1.1525,-9.870858383266906,-0.04401363873215378,0.08617887406558727,-0.08360921116899422,0.04119323037815799,-0.004537023458339835
1.155,-10.058473234958427,-0.06767304677858442,0.27294534568659584,-0.08365711496266484,0.0383484799131494,-0.0030718334184187124
1.1575,-9.978471489608644,-0.11514355884552194,0.22315145175025208,-0.08467442748292113,0.03945075357729173,-0.0057855923084255394
1.16,-9.950129644617045,-0.04646068811219317,0.16716538820568325,-0.0877127413736065,0.04472138110032342,-0.004939228781014085
1.1625,-9.865773497427726,0.006378458724219389,0.09906216671179179,-0.08421420023891044,0.04179753251572817,-0.007492135207454106
1.165,-9.951999381430348,0.10811151476990011,0.29171918424129084,-0.08963954146144276,0.03651319350124384,-0.0068614577736317945
1.1675,-9.898398432574627,0.0803361515858211,0.10606482563432967,-0.08827094763059702,0.040870033302238776,-0.0036254139925373367
1.17,-9.813644240066456,-0.0061536168173697975,0.013737125420673513,-0.08840749311024088,0.040074027559036496,-0.001425734776314282
1.1725,-9.96266686685528,-0.09921295330172072,0.1685148219100635,-0.08778578526901061,0.03606276995911677,-0.0029028149239575434
1.175,-10.067132450606993,0.008524985841746213,0.25807610564575234,-0.08841470253034958,0.03773272401638151,-0.0048124040661109025
1.1775,-9.939491377469801,-0.1078930356883034,0.19712963249701382,-0.09176428674897118,0.04159770736758262,-0.003880575728129577
1.18,-9.765076207467736,-0.003342364479700148,-0.043852495134372005,-0.09330040190836981,0.038311851904818395,-0.0061271961832603675
1.1825,-9.819509620943476,0.03573833171270613,0.03854076470888247,-0.09321673048873776,0.03782544642583947,-0.004132557756055999
1.185,-9.807437255655712,0.011166997370891737,0.04298539742410007,-0.092546,0.040317,-0.0018474494553990823
1.1875,-9.802532414241002,-0.0020755821596244155,0.039061032003129895,-0.092546,0.040317,-0.0028492579812206572
1.19,-9.800212382703723,-0.005755458737633345,0.03691189890720966,-0.09254349161563825,0.04379734165803116,-0.0030414416297692213
1.1925000000000001,-9.668327896825241,-0.1031920251059866,-0.0979237134903501,-0.09229241948500548,0.04052846483592386,-0.0017844346019782746
1.195,-9.771291943345084,-0.06694244856471518,0.08347233899460368,-0.09328793696499886,0.039709157758985196,-0.005565884980033013
1.1975,-9.796544197175097,-0.044244924409448744,0.02934017657926758,-0.0912645630521958,0.04277331849987825,-0.005011591723354166
1.2,-9.82305,0.04065,0.071138,-0.089034,0.043367941980276145,-0.002138
1.2025000000000001,-9.82305,0.04065,0.071138,-0.089034,0.04273672818303744,-0.002138
1.205,-10.053031476102882,-0.055810325415430885,0.3009083254154309,-0.08979780280280593,0.03864661789243964,-0.004276802802805927
1.2075,-10.026159162088854,0.0037950496866722833,0.2413029503133277,-0.08992284732969603,0.04014470036165239,-0.004401847329696026
1.21,-9.928822120929896,0.02862138673447127,0.20815744741009845,-0.09192294435161638,0.04456795947693418,-0.005643578336360312
1.2125000000000001,-9.755263554147731,0.01477487713761978,-0.022133806486584945,-0.09206223299067656,0.04497386738385531,-0.0033649641086937977
1.215,-9.93083037050332,0.010792063866093177,0.25530118912008737,-0.09401978363361627,0.03970137046146671,-0.006468744089271327
1.2175,-9.868871034954106,0.008356683644927915,0.04027146944685905,-0.09435865544202901,0.042913,-0.003712881615942053
1.22,-9.850702682799517,0.04393798265941991,-0.03997562125845326,-0.09619556303623186,0.042913,-0.0059373064275362085
1.2225,-9.87749438603516,0.011304601653689753,0.08409330079472985,-0.097358688448262,0.04571753322629838,-0.00289688860881442
1.225,-9.984641913560521,-0.020078355440659147,0.25559759172738605,-0.09456101151586356,0.04249250702702686,-0.003954496122209239
1.2275,-9.92976130257332,-0.09925643262062553,0.15802189396404778,-0.09615972041627249,0.04483493285398931,-0.0055989003153579546
1.23,-9.638005716175858,0.07907598492672534,-0.20251969766922231,-0.09607999193300769,0.0469599990230286,-0.007704986434054415
1.2325,-9.730871743118076,0.08359821700153575,-0.09348705069102448,-0.09792677234300488,0.044296513068778874,-0.003927034041865467
1.235,-9.83285551653703,0.006904508137262941,0.00570739408067783,-0.10076340714750162,0.04307339821312459,-0.0026015456327513316
1.2375,-9.97586060222452,-0.029534813092874233,0.16786136553587325,-0.09953311278303008,0.0454603632636848,-0.0024697637562564527
1.24,-9.837485719338318,-0.06224370712191679,0.013991216918819868,-0.09881387481721315,0.055644533457349765,-0.0038986261046682776
1.2425,-9.881399121728379,-0.053387570151292384,0.13059876932948436,-0.10267929126037548,0.04885690662742114,-0.0033331962959910664
1.245,-10.005754548407252,-0.07755098572850462,0.24347678246154875,-0.104916,0.044299566506787486,-0.005498
1.2475,-10.02240373903952,0.006232097441566248,0.2031010263323365,-0.1016362374670632,0.04677630332341695,-0.0053846876668083255
1.25,-9.83395045596222,0.1107875414403778,-0.036688522314049586,-0.09612066139315231,0.048411,-0.005164596930342384
1.2525,-9.846777664299095,-0.03623923773632114,-0.0021519530137748405,-0.10179229797087748,0.048411,-0.00264405296812284
1.2550000000000001,-10.074285504067621,-0.06514328190174104,0.22972833136820092,-0.10144052496566294,0.04363737352350764,-0.006491151442155318
1.2575,-10.163691733239421,-0.016944606247577598,0.2797666464330587,-0.10115863976991253,0.043167154550683796,-0.0066794852192287426
1.26,-9.975484566418503,-0.07710588622093756,0.034488615949884394,-0.10261194664257318,0.050485032564751266,-0.002328860720395113
1.2625,-9.905093369786012,-0.14532288332800902,0.04321803685723392,-0.10580000051101879,0.04356449782817004,-0.006354967390609957
1.2650000000000001,-9.928861,0.02989,0.184122,-0.104916,0.042682702538193264,-0.006414
1.2675,-9.928861,0.02989,0.184122,-0.104916,0.0441269699747384,-0.006414
1.27,-9.83985916823627,-0.14207766689597937,-0.02074310988969188,-0.10118825444194043,0.04665182643102835,-0.003279826431028352
1.2725,-9.964517646136455,-0.11858649054453498,0.16328317259315633,-0.10113131045152172,0.04537629314652385,-0.004070762083946534
1.2750000000000001,-10.14680888313417,-0.05437810862423864,0.3854279518808619,-0.10273377309707431,0.04283124172602565,-0.005013968140342665
1.2775,-10.062619669426857,-0.07201455465640212,0.2041377695219024,-0.10366622012546338,0.044536955679118015,-0.005261933888413657
1.28,-9.970867026963216,-0.09197397606501305,0.011397022657540057,-0.10457965031650984,0.04636331773595668,-0.005490166854861708
1.2825,-9.783441791559097,-0.01621121105754446,-0.06569105606532191,-0.10340068667962676,0.04953553695178847,-0.005843697558320345
1.285,-10.063149223081817,-0.026774281360253234,0.3808195101806432,-0.10456272454835275,0.05245940293304984,-0.005227114643995797
1.2875,-9.955143606087503,-0.05090696119213779,0.20239332086239004,-0.10299865009511724,0.0507982476854787,-0.004200721433100788
1.29,-9.751814356442328,-0.13692104931272445,-0.03014104387158495,-0.10439308433769325,0.050396,-0.005885701260404316
1.2925,-9.657154973104218,-0.05170397310421704,-0.14074979297374626,-0.10235395542402546,0.04730153074303901,-0.004718374396181393
1.295,-10.003013445418324,0.06098386763534049,0.17937737273025306,-0.10812322337942347,0.04459316744316849,-0.007788273925474618
1.2975,-10.062265648339975,0.07861167446293327,0.2631127317053388,-0.10862371547847827,0.044968331733458336,-0.006161469819545284
1.3,-9.899484316763003,-0.042030899233222146,0.016942892532729625,-0.11241607073257057,0.04991156482246088,-0.00521375295505484
1.3025,-9.651082996824336,-0.04178011714604238,-0.18480232320751644,-0.11057002848861285,0.0508338338397834,-0.0020957777289377405
1.305,-10.025448945128495,-0.10038254244225794,0.19431047231077636,-0.11304313023806695,0.044404638299182966,-0.003282074845434026
1.3075,-10.105241806868245,-0.062367779330456265,0.27311640640748047,-0.10952489159107263,0.0487834101439885,-0.003982467832973374
1.31,-9.950299415853129,-0.1255484466306709,0.11065255231581134,-0.10769925711063111,0.04916778735541158,-0.004270593467722589
1.3125,-9.947392,-0.126734,0.107604,-0.107665,0.04892251932638332,-0.004276
1.315,-9.777633162563392,0.0002965671272354975,-0.07254882701092794,-0.10928770258199577,0.04459105372877425,-0.005160759264945312
1.3175000000000001,-10.082897257603754,0.04896683289340312,0.30893464428653844,-0.10683690588349033,0.046447132292321426,-0.005819434153573473
1.32,-9.960068936618852,-0.11107407605925765,0.07611432571830645,-0.10510329530213962,0.056234987641665,-0.0028390041194449995
1.3225,-9.834056910057244,-0.1031317726582278,-0.09504143305329414,-0.10431222432959768,0.056505,-0.006281721360961071
1.325,-9.919592159006644,-0.048178641762855315,0.07407472647778487,-0.10608078978663864,0.05353902014690458,-0.006728790486183987
1.3275000000000001,-10.075652067783935,-0.03233699157704226,0.3566224875548504,-0.10648509899927658,0.0548945310585967,-0.005469797916566216
1.33,-9.97437864063178,-0.004373489942126045,0.18468396366770673,-0.10629229957800819,0.057404084181335975,-0.0059527446636122635
1.3325,-9.898971,0.07835148927281532,0.04966295095493735,-0.11225802511143647,0.05221733030746702,-0.00693046854725881
1.335,-9.900823625810702,-0.01628959220216686,0.048437370108300036,-0.11145587142363841,0.0479389323559881,-0.004735006711662218
1.3375000000000001,-10.132529131784661,0.03979218916967808,0.2747329415162576,-0.1080629355831108,0.04617951037513725,-0.0048609148328362965
1.34,-9.873791583898068,-0.16950147643585933,-0.006676207739187833,-0.10979870945002763,0.05406659558439509,-0.006418597591200504
1.3425,-9.597003863673338,-0.05640595404288873,-0.2953685887789854,-0.10802466854791483,0.055966761003402726,-0.008319592776766657
1.345,-9.607671142606433,-0.02697574989593197,-0.1446815234910151,-0.10932590331125826,0.049406853713339735,-0.006591302809839196
1.3475,-9.761915301548322,0.07460679024084751,-0.0538820023178008,-0.1105856146606193,0.049327,-0.00904822932123858
1.35,-9.81377134723728,0.12307061852601038,-0.12578170669040145,-0.11147130898794598,0.053424022797508484,-0.005824285963918601
1.3525,-9.71558810926004,0.025072317801265828,-0.2783683448625818,-0.11446286241014805,0.05915475357293878,-0.0031496492177589693
1.355,-9.849477528236406,0.004099207820330783,-0.04272395042080629,-0.11766926912529549,0.055600473191489405,-0.006742444728132352
1.3575,-10.038381293132312,0.05862066378829034,0.27976613476823464,-0.11449360468323987,0.06468857367121064,-0.005621784975140373
1.36,-9.910725070909082,-0.1120281200000091,0.19310279818181042,-0.11052287818181802,0.066737,-0.0012461618181816144
1.3625,-9.765368011124668,0.007179537350574493,-0.02031292529885101,-0.11453217516467439,0.0582640906074652,-0.006631747938521598
1.365,-9.939702404801169,0.0737016950670893,0.11273139013417861,-0.11863477033422785,0.056213112788485,-0.007022501741888264
1.3675,-10.070182648792343,-0.008241748876119129,0.19260131590185803,-0.11720612874446441,0.05700096548653499,-0.0028173265158588437
1.37,-9.962520688442844,-0.1275327998491972,0.07743742492399269,-0.11653531621065227,0.05786316980969483,0.000248707198085109
1.3725,-9.819453151758035,-0.03118822088374313,-0.13990284768194647,-0.120799,0.056352725708884666,-0.004123
1.375,-9.835746714555766,-0.0415562886342155,-0.11138973221880907,-0.120799,0.05531207844990548,-0.004123
1.3775,-10.077091850195254,-0.006593547133789443,0.15967362124226003,-0.12004795452631581,0.05753449837203691,-0.006874922346323764
1.3800000000000001,-9.670416609502533,0.015057550293626425,-0.29678328299929235,-0.12026581155059465,0.06315609422955654,-0.007408086930356791
1.3825,-9.580132491551538,0.0605447280461552,-0.35287063416185394,-0.12148500232652426,0.06560888604397308,-0.00536288371744882
1.385,-9.70349316601432,-0.0001226577374704857,-0.10924924884009429,-0.12119473281145585,0.06049484414319807,-0.002779753852028641
1.3875,-9.939866971837706,-0.09063240964200314,0.21613839885440955,-0.12023937747016708,0.05418899837708842,-0.0032577443436754092
1.3900000000000001,-10.194342879680239,-0.07755481881965466,0.30776142999294753,-0.1206270766705855,0.06527070299553335,-0.010167428168352182
1.3925,-9.931613279250172,-0.0011293112617137419,-0.10225722104303053,-0.12427290501321808,0.065668,-0.00738373405431378
1.395,-9.69758341387452,-0.06941865206540723,-0.21076581579032835,-0.12172411213730717,0.0594040430986895,-0.005408451235068989
1.3975,-9.986911354307436,0.060551501449275624,0.17863816306961242,-0.12465301531955332,0.058122667559990446,-0.0068359846804466814
1.4000000000000001,-10.051695613257309,0.041935478260868575,0.2013498359230233,-0.1259845997148967,0.06183217020670013,-0.005504400285103279
1.4025,-9.883782982221694,-0.1227128553481446,-0.037038054547621255,-0.12467101087140393,0.0562,-0.004218132022157429
1.405,-9.908051561429508,-0.12196588000953004,-0.061680121424742655,-0.12581520720948242,0.0562,-0.00622110017511468
1.4075,-9.982409809934149,-0.0061767691698022395,0.0971831718485424,-0.12751619905926623,0.05802757873236119,-0.008521076641580451
1.41,-9.90316981926623,-0.025709949677798064,0.04521676131232527,-0.12648044666039515,0.06292335837488225,-0.0069205925776105875
1.4125,-9.824317087607835,-0.0542360932032583,-0.12150685738934731,-0.12719989400951387,0.06344744700475693,-0.00436847346609682
1.415,-9.82420183118849,-0.041892694097448585,-0.2544189873098796,-0.12401446349413608,0.06307315399830733,-0.005950612994801151
1.4175,-10.010012071948113,-0.014958752623271267,0.15109000586699717,-0.12438053570055482,0.06519491414550284,-0.0063305357005548155
1.42,-10.030031424551659,-0.14852029281675905,0.11086536417154472,-0.1238570435575049,0.06490905610136455,-0.0035312052436648226
1.4225,-10.046337840885622,-0.22770456008312992,0.11996369128287147,-0.12372543143473744,0.06235763138358235,-0.007204818140836209
1.425,-10.028940929846009,-0.05722926197248912,0.1692083302927012,-0.12113476017397432,0.06185,-0.011261187140002425
1.4275,-10.028693,-0.054998,0.169775,-0.121104,0.05825692228419656,-0.011301
1.43,-9.934551667218122,-0.07126899743334351,0.043865463363319174,-0.12219275117250238,0.05563946608737558,-0.008925837471892142
1.4325,-9.976344799186998,-0.04128032879961456,0.07844134647059575,-0.12579268580105235,0.0552295153897657,-0.008081866365375452
1.435,-9.977967728593544,-0.0626210907276418,-0.06554210227939046,-0.125561105066095,0.059175903098725835,-0.0058529918351791655
1.4375,-9.835935902027027,-0.0425365694980695,-0.18143093484555983,-0.1276867277992278,0.059254,-0.007323717664092664
1.44,-9.80691,-0.038259,-0.204448,-0.128129,0.058053553566564955,-0.007636
1.4425000000000001,-9.864400673372431,0.0023226042536573857,-0.23729958245367266,-0.12677129622331684,0.059759839687231295,-0.00911654364219258
1.445,-9.845470263440754,0.07420276401744812,-0.3323592730312604,-0.12615219294887328,0.065966009168888,-0.008130908563120869
1.4475,-9.750742173837255,0.026818535288804193,-0.354214456261786,-0.12688893785278504,0.07146661886379845,-0.005982800583155052
1.45,-10.044755345385969,0.024133565657041642,0.3503276356864893,-0.12691342293459046,0.072693,-0.0037419492751915545
1.4525000000000001,-9.990374337847307,-0.05085668734251535,0.35613337602002376,-0.12550892069253225,0.07774862381309997,-0.0025895002002502576
1.455,-9.796427688251086,-0.1555933638871319,-0.06606582306928177,-0.12966259646899073,0.058754652633166336,-0.0045797834193452205
1.4575,-9.886682667738727,-0.11083072075108294,-0.16516257899534637,-0.1273648807125662,0.057421,-0.006465412858289212
1.46,-10.114061390269377,-0.06847911557655828,0.1382695756474498,-0.131294051431947,0.06182557595935722,-0.005336209007561431
1.4625000000000001,-10.022978018571848,-0.02159838012547763,0.024293248951293984,-0.13358354484613089,0.06258575572154158,-0.006649837119808891
1.465,-9.879518911770536,0.12635578746101458,-0.08245849221870674,-0.13377465072004782,0.06067156409919325,-0.008659268390797793
1.4675,-9.893186064983022,0.016524814078811054,-0.1642228651725508,-0.13538610576640608,0.06013437738292663,-0.004997165850114466
1.47,-9.986897209499285,-0.07457676676680884,-0.06099946400572415,-0.13532436992846925,0.053552860085837,-0.0048580248354792455
1.4725,-9.990434,-0.077116,-0.056193,-0.135307,0.05887704999041821,-0.004887
1.475,-9.819226590519655,-0.06005225238763967,-0.1813271491573091,-0.13167426952247174,0.06685410990168571,-0.001254269522471744
1.4775,-9.686089794360882,-0.11455169007450605,-0.3180724867939484,-0.13310050284284053,0.06218169613969725,-0.0025908120698486838
1.48,-9.724582264638817,-0.0930734304084935,-0.3066149765889686,-0.130878,0.05224331292868678,-0.005190173496422807
1.4825,-9.793057124944994,-0.01881159862451169,-0.2839510860620054,-0.130878,0.058033511042387714,-0.004451273876452056
1.485,-9.8093,-0.001196,-0.278575,-0.130878,0.06922388708718999,-0.004276
1.4875,-9.83001016398116,-0.07465022682330424,-0.015108817222250243,-0.12876117030234357,0.07046651090703074,-0.002238261577911621
1.49,-10.05952818665633,-0.03764335412248805,0.27197552135488,-0.1271378753557159,0.06559662606714774,-0.0021425897262806375
1.4925,-10.09212542829582,-0.1212571695948531,0.25840465584565986,-0.13122642140192917,0.0634017646559486,-0.0034861486816719907
1.495,-9.806309671943447,-0.08574566614840676,-0.27688462151239684,-0.1384620150954067,0.06739565775265043,-0.006562246049470118
1.4975,-9.581071274842692,0.015908772067313795,-0.622458454067156,-0.1405612831574669,0.06466634528900084,-0.007093229974798805
1.5,-9.842223394803018,0.04178500682552988,-0.07291537193150521,-0.14245803496587234,0.0623365666387259,-0.004475743863010417
1.5025,-10.117676647404952,-0.04624652416528736,0.2804643199338769,-0.13639172482644643,0.06827652456198335,-0.004552750611570245
1.5050000000000001,-10.02565276676578,-0.07896743116595557,0.1999435289351601,-0.1326342166255343,0.068417,-0.003374763257689801
1.5075,-9.920381114002284,-0.10500226102690728,-0.041917566255348204,-0.13407961422982007,0.068417,-0.004242632998254401
1.51,-9.859565251111917,-0.09587500208620073,-0.24844044728721465,-0.13565617965954366,0.05650026483158275,-0.005922883332126046
1.5125,-9.92384164219691,-0.028880295008649276,-0.2209773662591691,-0.13511130525374204,0.05945457179318969,-0.00663425003279861
1.5150000000000001,-9.95972796615183,0.10456943189218866,-0.1978010165281162,-0.13530264895700403,0.0664254855316361,-0.007016312133102769
1.5175,-9.818560632845264,0.09291606546675149,-0.18993003273337575,-0.13705802063299238,0.06533338797634268,-0.0031478570268541066
1.52,-9.99981272593686,-0.0769462843643393,0.05537407879037419,-0.14019959381153982,0.06585749043183745,-0.0032583596854965625
1.5225,-10.130032800602253,-0.03535453495198558,0.18769546910729182,-0.1387512033764078,0.06740607650978067,-0.0035949744967397803
1.5250000000000001,-10.050145853965615,-0.0487311823117968,0.1327033452045021,-0.1394156537285122,0.06854540064018975,-0.003215199786603418
1.5275,-9.818467433816265,-0.18083995384174925,-0.16727622205382284,-0.14229824329883786,0.06682389972297399,-0.006574245763413579
1.53,-9.726754974540343,-0.07064117558496119,-0.43713926917906354,-0.1384052989717765,0.061894340648787856,-0.008501070692118532
1.5325,-9.827957248305674,0.04034412956528664,-0.2523235515842327,-0.1380833548320246,0.06307465711972798,-0.006047616164494483
1.5350000000000001,-9.832555698340775,0.09006668711633566,-0.12798805574617506,-0.14072412393889563,0.07701860893067078,-0.002828905128084414
1.5375,-9.798161498701297,-0.031799454545459,-0.10591152727272655,-0.140804,0.07291435584415569,-0.0006182571428570652
1.54,-10.172514316588643,-0.04001944163745408,0.2806996713327913,-0.140804,0.0664457152099752,-0.0014864572215033767
1.5425,-10.082768281451889,-0.13087116121802614,0.09905812614860066,-0.13420428422898908,0.0667867983045067,0.00037703586845309217
1.545,-9.770972161859214,-0.10133939728561535,-0.20702444770923878,-0.13593379063425434,0.06658651230659592,-0.004582795511916998
1.5475,-9.7466520734785,-8.443507482382151e-05,-0.27254197370813465,-0.1415125238229474,0.06747409465199149,-0.0052171387409929776
1.55,-10.025617841921104,0.08385223878788019,0.12402930506576099,-0.14600024054888516,0.06750747977129788,-0.0011048085991994484
1.5525,-9.909046760181349,0.017180599378238598,-0.04713567989637232,-0.14827542455958548,0.06737573422279794,-0.004667423471502577
1.555,-9.822711960000001,-0.04150227999999863,-0.27957123199999395,-0.14933601708665104,0.0655779487400469,-0.0038756944262295597
1.5575,-9.780197325254818,-0.1337134018081486,-0.27610866949995955,-0.14686575858868697,0.07211536267861457,-0.002821503435474794
1.56,-10.008719176848118,-0.08217322611361819,0.17831952521037597,-0.14689595241739958,0.06588956277157099,-0.004377857252198765
1.5625,-10.011687912927307,-0.10851779135559922,0.23656393265225933,-0.14875858278978388,0.06788253823182712,-0.00688924
1.565,-9.553559788574246,0.11910119861594437,-0.5599558335607137,-0.14695185985766876,0.068417,-0.008383462841717766
1.5675000000000001,-9.515380186455806,0.0660416811078082,-0.5520391745556704,-0.1484355980701614,0.06638686923978476,-0.005481725356024588
1.57,-9.618603,-0.025705,-0.236131,-0.142332,0.06775101494377964,-0.000153
1.5725,-9.618603,-0.025705,-0.236131,-0.142332,0.07452726777898684,-0.000153
1.575,-9.652947396181496,-0.1344652868120187,-0.16171606691809245,-0.14891227408367694,0.06786404424278157,-0.003954468002357013
1.5775000000000001,-9.789230686381043,-0.1184431207816118,-0.3392280229230493,-0.15229997085609048,0.067501,-0.003999745005205407
1.58,-9.861702362356635,-0.14524458287094164,-0.24770910305927316,-0.14852777879512236,0.06555304641796444,-0.006367198691295513
1.5825,-9.937889394634144,0.006280333064686672,0.08685873949098499,-0.14659202598091198,0.08053282248144224,-0.006604684262990411
1.585,-9.724806816422767,-0.06388542587957954,-0.08744740681276997,-0.14574261393896548,0.08609878793448796,-0.00037833955696957126
1.5875000000000001,-9.851716601636795,-0.19778085516909275,-0.05419226585628971,-0.14782204395234075,0.06879257052593561,-0.0051458569262246585
1.59,-10.129338739366961,-0.17854329042724695,0.1464808748826638,-0.1461839988831387,0.06647999919364538,-0.006687991806474956
1.5925,-10.065849614938545,-0.17067469714894043,-0.020505128220267052,-0.13820889617923163,0.07278848594793383,-0.005593485947933821
1.595,-9.84715662352076,-0.18523379893157826,-0.19764323440433373,-0.14068852015677924,0.07433856805380817,-0.007143568053808171
1.5975000000000001,-9.716529989065839,0.02957689214169018,-0.36444585685287334,-0.1419428314951272,0.07642772300927039,-0.010454614523413619
1.6,-9.701696,0.112386,-0.39933,-0.142026,0.07529667626686103,-0.011454
1.6025,-9.804897433524905,0.1133834456704981,-0.3145754734865889,-0.1406249057471264,0.07490703501915708,-0.0030474344827585015
1.605,-10.00050484125147,-0.0542024037849919,0.08706955580804426,-0.147219,0.0810348766007998,-0.004654979153140436
1.6075,-9.985021633648554,-0.03540215883556863,0.21461916924487995,-0.147219,0.08244765454481294,-0.0048436784333098035
1.61,-9.852100330647266,0.04032936800970058,-0.14244131456001963,-0.14587259333333327,0.082772,-0.003840230016969644
1.6125,-9.92199649685497,-0.009461506032469105,-0.10116377492362011,-0.15150588459833464,0.07575888459833463,-0.003098896219972464
1.615,-9.970813416426045,-0.03236773763613482,-0.06886979497034697,-0.15179357872641225,0.07604657872641227,-0.004250300885401063
1.6175,-9.983130568765333,0.014961271186871496,-0.04032383612553839,-0.1466872057575276,0.07468109545961449,-0.003029036765971037
1.62,-9.701851885551218,-0.09715913063082854,-0.5191871785780243,-0.1490754289824315,0.07908856028298575,-0.0037804986581771584
1.6225,-9.635571353429514,0.014716359551868452,-0.5544963714870641,-0.14782443659224628,0.07926,-0.005323202218102716
1.625,-9.807284735065712,0.03937131893667861,-0.19855329563918758,-0.14901561899641577,0.08295309832735961,-0.00518914229390681
1.6275,-9.87431154204301,0.042367339849462296,-0.002338668236563368,-0.15303328116129022,0.08056154326881725,-0.003945132774193574
1.6300000000000001,-9.658046328340411,-0.08670351129551601,-0.285387769730516,-0.15965781573522494,0.08618265381560321,-0.003225161919621723
1.6325,-9.609454429886053,0.008591288204017791,-0.5100818429083072,-0.15713082014107427,0.07910812175800307,-0.004288039045035296
1.635,-9.915272435107035,-0.05486792220183531,0.008331490316006884,-0.15442458544342508,0.077122,-0.00021673431192658493
1.6375,-9.919893,-0.056193,0.016738,-0.154396,0.07862623253383991,-0.000153
1.6400000000000001,-10.018910285911549,-0.1292765534124462,0.07096182223181453,-0.15243894179551706,0.07443748431499432,-0.0016585052283352268
1.6425,-9.576491868756476,-0.11688553588994208,-0.772798232055029,-0.1514168960661565,0.07224961300873319,-0.005953456430945293
1.645,-9.666655009710215,-0.03351209166745814,-0.7007976268693565,-0.1492030255391924,0.0709643602470309,-0.007533034052256524
1.6475,-9.794329723097386,0.008178144380046916,-0.4037567187078427,-0.14834747718764846,0.0738174334251781,-0.006392302916864624
1.6500000000000001,-9.906032341077323,0.08241271938439443,-0.17978024433857492,-0.1487232078417003,0.08481723048735873,-0.004344376474899106
1.6525,-9.870499443806484,-0.014529496643088058,-0.24759748467137885,-0.15522160164993157,0.08642895853947953,-0.005183120321770854
1.655,-9.941308235262438,-0.09892825899817526,-0.11956867620036377,-0.15613509751483343,0.08131290311273386,-0.004360555282975801
1.6575,-9.948587,-0.107604,-0.07052785697366312,-0.156229,0.08219748945198754,-0.004276
1.6600000000000001,-9.985007896340976,-0.03324363145714399,-0.21932715434373593,-0.15591999505770116,0.08323901810740127,-0.00672
1.6625,-9.973916288844437,0.02414488945991896,-0.05632432909677834,-0.15518103859055238,0.0854566942298816,-0.00672
1.665,-10.083823220384062,0.007018582552262634,0.12159712771955987,-0.15273604591308046,0.08374472358529703,-0.002412465448162128
1.6675,-10.07982112835789,-0.04833299963827824,0.1442710010106919,-0.1506064309505825,0.07897456455981704,-0.0018161955699771306
1.67,-9.796103761113134,-0.07608284991615313,-0.5145521425641024,-0.15111015091019578,0.08039378486328842,-0.007291294879086125
1.6725,-9.95415465843977,-0.031136468704572484,-0.30789081914591027,-0.15095837356660052,0.079565,-0.007934998345924463
1.675,-10.059269645846777,-0.014726765124894707,-0.08266880458945867,-0.15473428316003357,0.08329509659376139,-0.008596137420819912
1.6775,-9.909409109996997,0.0071711431184281384,-0.23589247396262603,-0.15939326227242684,0.087506,-0.010550666242864859
1.68,-9.706777452608309,0.015457432580664336,-0.49765592964729266,-0.1638192950790121,0.087506,-0.012956159944721445
1.6825,-9.766490292039231,0.19081724793587307,-0.3627467334962581,-0.16016406496263996,0.08121554123287644,-0.009033712892278785
1.685,-10.06853330521655,-0.030120588260078178,0.11484580143578624,-0.16020634960128963,0.08177317799892525,-0.0015619569349812057
1.6875,-10.054386262654488,-0.16822047028479312,0.06836306405158517,-0.15994829059645352,0.0791920245029554,-0.0021642824288017194
1.69,-9.792318861054586,-0.1860638189482707,-0.47528733293185815,-0.15985224057081698,0.0776759290217624,-0.009206797731002468
1.6925000000000001,-9.737752507267924,-0.13910123104673347,-0.49988678373742534,-0.15973814293257224,0.07710469264930428,-0.010577839843025393
1.695,-9.683186153481268,-0.09213864314520041,-0.5244862345429903,-0.1596240452943275,0.07653345627684621,-0.011948881955048198
1.6975,-9.992985396140169,0.23239567745815887,-0.2313630824686187,-0.15876401552301259,0.0867521338912134,-0.008302119665271954
1.7,-10.102812352458157,0.18854619796025182,-0.07563693284519105,-0.16399866924686185,0.09251052719665262,-0.00484708368200843
1.7025000000000001,-10.012599971105397,-0.0583612553022075,-0.0627035140168637,-0.1650571468189157,0.09152721703114705,-0.003753418970526741
1.705,-9.978123654807197,-0.08834098784480267,-0.15788903946434177,-0.16821597653374792,0.08760171759191715,-0.004710659092485231
1.7075,-9.976306566645368,-0.03582982645367373,-0.16069862522683706,-0.16729532207028752,0.08438713295846643,-0.006730990057508002
1.71,-9.850306965560671,-0.10816102711552279,-0.4010945859239482,-0.1672228558585614,0.08490080923225961,-0.005813349963671616
1.7125000000000001,-9.824148579527069,-0.09328946266334702,-0.33602953067827895,-0.164005137834474,0.0870148277535782,-0.006917845208463035
1.715,-9.867224561440825,0.012372445214412484,-0.373506870463124,-0.16671925365351645,0.08825983080617499,-0.00989040953687833
1.7175,-9.97043285151106,0.0074905134249126214,-0.20379098513620303,-0.1716859709802096,0.08876207763445867,-0.006360041173457471
1.72,-9.984642532031023,-0.00876403476005718,-0.29101376328647693,-0.16405582840038777,0.08828062309258364,-0.0014338433155598582
1.7225000000000001,-9.988440633902085,-0.10181753060107171,-0.20365742025205513,-0.1679371606737763,0.08663126336403287,-0.0020158207852642115
1.725,-9.972824140246212,-0.22394207504735308,-0.08917757722537446,-0.1703984852746213,0.08523670175189389,-0.005732025331439556
1.7275,-9.946158500464822,-0.18011557811225232,-0.19752048478102924,-0.16756527463083,0.08172686512569165,-0.008295822039525728
1.73,-9.974056923335326,0.024503341983489052,-0.32564668658930396,-0.16840926723770785,0.07408398995095113,-0.010049628223471696
1.7325,-9.892769965255875,0.10498221335049668,-0.3123619675152885,-0.168446,0.07985426201802365,-0.0071726758802704415
1.735,-9.890413583630364,-0.06426729970639353,-0.13141754270170972,-0.1665614269489017,0.08703718712643707,-0.002942163773756508
1.7375,-9.99504504028952,-0.21046390561401168,-0.06930920328447476,-0.16455218734870142,0.07760154063621433,-0.00717825060519438
1.74,-9.979793779485433,-0.09417790506416929,-0.23897238441457272,-0.16387039929201389,0.0768221720625266,-0.00990540283194452
1.7425,-9.794045986807262,0.07163796810047657,-0.6318197620840342,-0.16706695366723517,0.07644660584896884,-0.011527976833617577
1.745,-9.732390908707801,-0.030568632318543856,-0.6938332803412867,-0.16979729668356633,0.07862165644614827,-0.006932153431432886
1.7475,-9.990905909606502,0.11652339185598101,-0.010075722969570804,-0.17275971228931028,0.08278786689819995,-0.009942050699378611
1.75,-9.912440643979059,0.07019585918035746,-0.14839169471023647,-0.17521817638562917,0.08705352915688752,-0.006524645423361617
1.7525,-9.638950795462485,0.03737745597400323,-0.5682455131949119,-0.17454360952999942,0.08502982858999823,-0.0031511801191551536
1.7550000000000001,-9.685040817471108,0.04031722267834266,-0.3984970001914619,-0.17174302212726195,0.08268500324576755,-0.005397957221249443
1.7575,-9.85764659496784,-0.11149223679771653,-0.12424311050749853,-0.16930167625446743,0.08262,-0.005126781015010713
1.76,-9.697895044653336,-0.12781039565064883,-0.40411997028411245,-0.16889595020226822,0.08464477323979891,-0.006052386619899455
1.7625,-9.444725829903541,-0.025488208488747874,-0.8127977198070667,-0.17185980482315108,0.08685166147909965,-0.007093730610932457
1.7650000000000001,-9.562665016518784,0.17187070334472104,-0.9068538565187714,-0.17016335372013636,0.07953343399317356,-0.0067293269624572995
1.7675,-10.03859035752268,0.031184940651309348,0.07407752967434533,-0.17092125910211678,0.09665264992556433,-0.003081169993021545
1.77,-9.988285417843684,-0.14160082243777744,0.16047041121888872,-0.17045538793207723,0.10494015656431734,-7.88374040472297e-06
1.7725,-9.73626109688802,-0.2350697757314371,-0.17949548288164147,-0.17588518319039442,0.10413463426611126,-0.004681094506248396
1.7750000000000001,-9.823513333254196,-0.07586061476907241,-0.38367722704500434,-0.17581573346788545,0.08234289666389501,-0.010104014887807489
1.7775,-9.911352661186985,0.034471152179326975,-0.3453701927568589,-0.17377998169432027,0.07845936812380333,-0.007486759923420459
1.78,-9.856710676714293,0.001338517644526817,-0.21768123759191782,-0.1712085191893346,0.099876,-0.006165945321934586
1.7825,-9.755153580474683,0.0017127628002630438,-0.27126975876128356,-0.1704431032175525,0.099876,-0.005112793124887917
1.7850000000000001,-9.603192121658976,-0.27590218000002004,-0.5676209068202971,-0.17226198755760383,0.0856883983410128,-0.005497380552995436
1.7875,-9.829713071528166,-0.11723149344402978,-0.5070767400485605,-0.16925627140283533,0.0810364353881098,-0.007878742335709336
1.79,-9.772717437060807,-0.04647031214768358,-0.4413730694884162,-0.1710278101061776,0.09445131451254839,-0.006858779416023171
1.7925,-9.661829702396828,-0.06722728987565307,-0.34567245727158136,-0.1731263114507118,0.098197,-0.0074631582411245215
1.795,-9.706262063206582,-0.09396166313690077,-0.21990569626960169,-0.17812825895837073,0.098197,-0.008232882438877855
1.7975,-9.707077,-0.094452,-0.217599,-0.17822,0.08894128884910037,-0.008247
1.8,-10.092393035495359,0.10798211606015833,-0.20839723062794147,-0.172342989117208,0.09130880883939856,-0.008834797290781782
1.8025,-9.737848121871776,-0.08608357737026258,-0.59031131915782,-0.17685378855821124,0.09265852871834411,-0.00397878855821126
1.805,-9.576872644811106,-0.12846505286044613,-0.5494167929683896,-0.17609383370855822,0.09465294377794907,-0.0032188337085582303
1.8075,-9.787758384771582,-0.09437505225888174,-0.3862885435342569,-0.17570702412436548,0.08930743542512667,-0.00670786647208137
1.81,-9.835006,-0.086681,-0.350311,-0.175624,0.08750724624072044,-0.007483
1.8125,-9.865790873611552,-0.018654926451920018,-0.5017551685972708,-0.17828776412250077,0.09816188709933354,-0.008498004601713741
1.815,-9.677649584269775,0.0663471996390387,-0.5308611750843031,-0.18291912437425778,0.100335,-0.007190916585134213
1.8175000000000001,-9.728447908625373,-0.035044596642226616,-0.3885339973006643,-0.18345043249492904,0.09822495877359953,-0.004448027523794537
1.82,-10.043439859190734,-0.018899897813744335,-0.20103819763739084,-0.17700467609614667,0.09296809782823998,-0.005905198289648576
1.8225,-10.081514443185169,-0.04863644318516769,-0.23041317090563357,-0.18008228530544332,0.09795616602804852,-0.0060807304587592115
1.825,-9.759912826255492,-0.06688449466114064,-0.5462845356167653,-0.17975354117503659,0.09880887240370552,-0.003376821038517859
1.8275000000000001,-9.71423001967445,-0.12091496205709162,-0.4721470989195527,-0.17874422778013677,0.098807,-0.004988889407879298
1.83,-9.939113946660356,0.093159423472857,-0.3257100533396428,-0.17932532089041503,0.09137394571310176,-0.008436267086614246
1.8325,-10.133574479649518,0.15068118274347328,-0.13124952035048115,-0.18065256941803326,0.0947864270771417,-0.010995783307086632
1.835,-10.021968978797872,0.006426989103981151,-0.28190339363985256,-0.17915489109926883,0.10119276017350343,-0.0011775954789938758
1.8375000000000001,-9.985753860260482,-0.03225743543519894,-0.3644537092280856,-0.18329968360864063,0.09229329734752176,-0.0018257329733164318
1.84,-10.182983998783934,-0.04640693907979059,-0.12374207915199892,-0.18609426145602803,0.090408,-0.00700340389982548
1.8425,-10.06073778603382,-0.06892657691149404,-0.3501548967559601,-0.18574734517220096,0.09591124545858538,-0.0042830273966177205
1.845,-9.786045433939023,-0.2225214095099354,-0.732402333585973,-0.18406724191581286,0.09739395599802493,-0.0060621506060979935
1.8475000000000001,-9.747339885978565,-0.0052707573603931746,-0.6814882083699908,-0.1842747242639594,0.097433,-0.011887963902989622
1.85,-9.956464083725361,0.14069159097173167,-0.34594516350675675,-0.1834265534806367,0.09773315942028987,-0.0066712232359227314
1.8525,-9.99497087676684,0.10577153591709793,-0.11086533264248372,-0.18416871030051815,0.0983684543834197,-0.0013995846217615838
1.855,-9.972175078396624,-0.09719356025785104,-0.28529350944678655,-0.184329,0.09939233224566338,-0.000305
1.8575,-9.888236905098918,-0.09011745730376552,-0.35085038984683936,-0.19206795710274388,0.0891827633248248,-0.002802096952775933
1.86,-9.914138011337156,-0.16215664994269716,-0.42723893454155043,-0.1884168630468001,0.086896,-0.004704544957020124
1.8625,-9.85219810821629,-0.15852031158707847,-0.5073662780430737,-0.18809157179307115,0.09039720042134847,-0.005096914489700386
1.865,-9.738480261924158,-0.148982614508427,-0.6496959883052429,-0.18771664205524344,0.09948755907303367,-0.005752888122659174
1.8675,-9.55054437245639,-0.11980191244491845,-0.9531516176558198,-0.1857501041068065,0.09872798314685892,-0.0045917159112130726
1.87,-9.77564712901339,-0.012809830158780525,-0.6719227777412832,-0.18350053410883135,0.09505346589116864,-0.007093873099018757
1.8725,-9.986270907801373,0.13444042226821604,-0.22047947406243473,-0.18254830362890276,0.09600569637109727,-0.00766571026345526
1.875,-10.04952417488002,0.12187139576261266,0.13700099836123142,-0.1910185794217488,0.10856149748331967,-0.006612487065433688
1.8775,-9.843819672118778,0.08202305645977095,-0.1949901925478852,-0.1925436473984674,0.10517203725287365,-0.006269466409961693
1.8800000000000001,-9.630970294524893,0.04269543016091773,-0.5477370848084453,-0.19377050140613034,0.10118413398850555,-0.005962627360153243
1.8825,-10.204588648094704,0.15968677529209646,-0.2393201270221904,-0.1937426799739568,0.09058374165847907,-0.006567
1.885,-10.288438730812667,0.08770896857531789,-0.017079114159217923,-0.19364772162651672,0.09996724005682157,-0.006567
1.8875,-9.954453093396085,-0.0417075908078408,-0.39571226751371835,-0.19316119978039217,0.10492041681568619,-0.005239496941176495
1.8900000000000001,-10.082507087418753,-0.06751150661567826,-0.33898334921605056,-0.1975944491778206,0.09117118240917682,-0.006882575678776424
1.8925,-10.243490345305531,0.08524183620871999,-0.17828811622494076,-0.1950904731120668,0.08985646377343179,-0.006532733220806607
1.895,-10.104572431295525,-0.01093031005993554,-0.34704498755186897,-0.20089902209313049,0.100945,-0.004985595242047034
1.8975,-9.77222302906409,-0.02285127522360518,-0.5934168381742704,-0.20403653165514057,0.100945,-0.0060932714799446595
1.9000000000000001,-9.629142552243342,-0.10419522448669785,-0.8007814299619873,-0.2065312266159697,0.08955438220532234,-0.008000226615969701
1.9025,-10.123524290156682,-0.03582299431647117,-0.30556415934457204,-0.19953905280708048,0.08817208191364688,-0.0037266831575171167
1.905,-10.20449389666308,-0.09355111005382194,-0.18261012663078446,-0.1991559168568353,0.09401380779332623,-0.006025498858988183
1.9075,-10.207435,-0.095648,-0.178144,-0.199142,0.10138474892278652,-0.006109
1.9100000000000001,-9.756259950843692,-0.1531958624602636,-0.46703465461484217,-0.1928202065443869,0.09706149364636785,-0.006255324441183674
1.9125,-9.808235717507236,-0.21491118007663051,-0.597206360153261,-0.19537144578935034,0.08466585891000034,-0.007720119024161443
1.915,-9.776896896139567,-0.08760483030032393,-0.7927457754417302,-0.1976210121787621,0.08576725412570708,-0.009627012178762077
1.9175,-9.696336579545456,0.05497953181818108,-0.7838299254545469,-0.1986362222727273,0.09677718636363625,-0.008647125454545478
1.92,-9.518342918612179,-0.12491207748610154,-0.5939572735103154,-0.198684,0.11085002644277032,-0.007789
1.9225,-9.65527651759829,-0.17524829615439774,-0.49176204268763013,-0.20166305032165846,0.09578510453180782,-0.005305780700500258
1.925,-9.829863390439472,-0.11417493230532114,-0.36139930917502433,-0.19723092629144176,0.09714934942174251,-0.009779401233615984
1.9275,-9.636915082993893,-0.1803494622904926,-0.6469172069035041,-0.19447655638218375,0.09847895946147915,-0.006835353559100895
1.93,-9.514297690186337,-0.06187885221214012,-0.6643436630482578,-0.19134775524128056,0.098807,-0.006973217333970349
1.9325,-9.691036606434086,0.04799300547723573,-0.5907661283477676,-0.19885657260430775,0.09030080821743584,-0.01103540286100312
1.935,-9.974981049556288,0.059824828339982664,-0.30209529498729737,-0.20155313811631,0.09045587638254148,-0.0037344276145566506
1.9375,-9.799738945804922,0.011743677319893273,-0.6668443501334124,-0.19847681482359916,0.10059637035280167,-0.006272021345982804
1.94,-9.680057036544325,-0.04586676061903226,-0.7370924137918752,-0.19705239287518533,0.10344521424962934,-0.005227486700266846
1.9425000000000001,-9.794103146317406,-0.049776098196179674,-0.3924643580462476,-0.19538337477230588,0.10603539518658833,-0.004569059421294401
1.945,-10.02756280206719,-0.19141689066009374,-0.13577938324641198,-0.19177965059901328,0.10247354225041096,-0.0019262169509043133
1.9475,-9.876607709126366,-0.029902040764330617,-0.5160946917323279,-0.19606088367696786,0.0987579944420854,-0.00954036778485492
1.95,-9.82577623314451,0.04751523950825737,-0.6231600239363677,-0.1935458477039896,0.099724,-0.005999551789803721
1.9525000000000001,-9.844624349714287,-0.0012497022857156474,-0.4682491068571403,-0.18857684228571434,0.099724,-0.0011416234285713815
1.955,-9.872006172580875,-0.028632144146399835,-0.4160747134309312,-0.18933325307201893,0.099724,-0.0001964194427390522
1.9575,-9.701095725042931,-0.04230063767395022,-0.6057821301427154,-0.19873648660152782,0.1075609704032688,-0.0058421363368271395
1.96,-9.47169682799787,-0.020400196198259328,-0.899397691689461,-0.19883148993426897,0.11069049195238936,-0.005083972485343766
1.9625000000000001,-9.600595224808254,0.008141951769073709,-0.7557182443381353,-0.19435806847010284,0.10714010015670082,-0.0016803940288657895
1.965,-9.933197230515965,-0.07794686534456549,-0.2979882201778977,-0.1988599030957184,0.10584248769540977,-0.00285662186691978
1.9675,-10.022004115592477,-0.00963869014418721,-0.15962044448347337,-0.19721718838663738,0.11021602749421472,-0.0030882814691746297
1.97,-9.5978104228276,-0.11444527103447852,-0.7436302748965329,-0.1912144937931036,0.11684982006896541,-0.000548811793103524
1.9725000000000001,-9.636633649643873,-0.07129095190040693,-0.6903192616230653,-0.1937884278600695,0.10502343664985749,-0.0007075746801134717
1.975,-10.013081069650466,-0.1529573774681195,-0.2533540241379118,-0.1983739286962685,0.10232,-0.0014979324752007893
1.9775,-10.117815261406651,-0.24985426017583257,-0.2707193767071616,-0.19815897895780052,0.10678587705242973,-0.0007829579156010121
1.98,-9.689777055951097,-0.10441812386080565,-1.0094131421302541,-0.19646589612038565,0.1123465891464848,-0.004408739525041112
1.9825000000000002,-9.902732696588751,-0.08305579041749597,-0.5673105164062089,-0.19501706209654993,0.11475337960002376,-0.0021595943495858706
1.985,-10.31289943984776,-0.05881645880007155,0.2681716020591227,-0.19259819727388064,0.1078838795287291,0.0020971769294908316
1.9875,-10.333213594457957,-0.13483444882216616,-0.031478486916280884,-0.18780030578532012,0.1087567672699223,-0.0038625345398445986
1.99,-10.169187015375305,-0.023250980098499185,-0.30448591595561525,-0.18856062138016969,0.11046716626357324,-0.0072833325271464905
1.9925,-9.836061442972236,0.02448401926262681,-0.8323486054896729,-0.1957067977943802,0.10983172297872343,-0.007483
1.995,-9.928934158543072,0.10263567530759299,-0.720413518465086,-0.1994074595931296,0.0982751868826891,-0.006884170875867917
1.9975,-10.201331561479488,0.07561056256210749,-0.2830979975458276,-0.19957235143424082,0.11368343482498645,-0.007873172893086776
2.0,-10.158321324321228,0.17616074498797113,-0.28721667544965057,-0.1935680918776492,0.117133,-0.004647329705579104
2.0025,-9.80441135505939,0.09216585492997172,-0.6882813114259885,-0.19829662522401498,0.11476501984110088,-0.00405515135719552
2.005,-9.980437766247366,0.016642827360822926,-0.5711153998136613,-0.20120667146051702,0.10382277051479208,-0.005290033598881829
2.0075,-10.224039457133253,-0.0011540925311590896,-0.3101447590987703,-0.1957113080728671,0.10475037986577172,-0.002746223077660766
2.0100000000000002,-10.054292567404598,-0.08219918089448043,-0.5402508481371397,-0.19629817483272707,0.1204836852353581,-0.0012657581124544091
2.0125,-9.770241747803887,-0.06302990416898993,-0.739665617090488,-0.20657704693503465,0.121257,-0.007846933025110095
2.015,-9.89198644697249,0.16994971237937853,-0.6124087642559164,-0.20512849416895004,0.11439837952102898,-0.007425128645299522
2.0175,-10.156105098023033,0.09030231140611089,-0.3091982222278595,-0.2012669898435886,0.11101359009448185,-9.601800714547845e-05
2.02,-10.224499440023855,-0.1230152187547728,-0.21903898585877846,-0.19759384993320608,0.110261,0.0013879028530534325
2.0225,-10.065202223232482,-0.1461141273113746,-0.4018868417924121,-0.19884093508617384,0.11648570798161634,-0.0007374326273457911
2.025,-9.781312620413644,-0.17102182330524615,-0.7286903511298237,-0.20129420534278045,0.10935631486020707,-0.004493892895442226
2.0275,-9.757462858346003,-0.06072209711903047,-0.7845828515337507,-0.19820518601227036,0.09688197528343652,-0.00577309437055218
2.0300000000000002,-9.984568998695675,-0.07016826086957192,-0.45497012173909296,-0.20209801000000066,0.11251126304348065,-0.010000066086957067
2.0325,-9.984666352892496,0.19655628929036398,-0.6323496866328508,-0.20305851750487944,0.112857,-0.00872350008587701
2.035,-9.983858,0.260641,-0.676112,-0.203265,0.11213477867202264,-0.008399
2.0375,-10.000608086028883,-0.011189447889581594,-0.5751327498284492,-0.20607736210005595,0.10475848223091012,-0.0054649530040691485
2.04,-10.136735478538554,-0.06588393831553949,-0.2367982145575268,-0.20330596246737834,0.11493866049822087,-0.005167886272835121
2.0425,-9.860672613550532,-0.002025180022141859,-0.5844373586398834,-0.20420406421635298,0.10978540268859723,-0.0042224298339395925
2.045,-9.767882755610168,0.09494693396457954,-0.7460777145163208,-0.207097135925792,0.108276,-0.009335593663413843
2.0475,-9.914477470912392,0.13494987199493366,-0.6272585165814735,-0.2074789583128907,0.10414013258843101,-0.0043898287188417675
2.05,-10.020616515126251,-0.010792566511385271,-0.5084255739642152,-0.2084307080657023,0.11523331777396306,-0.0024611847021329316
2.0525,-9.827206862501207,-0.011413950533911005,-0.662138660904279,-0.21099752500240512,0.10973696897546806,-0.002440402712842571
2.055,-9.878730939341501,-0.0287460167146723,-0.617977825878692,-0.21084996424021496,0.102931,-0.001235935512399139
2.0575,-9.912067322672245,-0.06695215365880056,-0.534824213965936,-0.2081700959689273,0.102931,-0.000853723764565266
2.06,-9.83306168314874,-0.22616263832797845,-0.7015347895295991,-0.20724953957365724,0.09986636528760262,-0.0036824266952483844
2.0625,-9.689274320765245,-0.061100079314467926,-0.7713887957752092,-0.2090828619370267,0.10723317457154244,-0.01034288019131128
2.065,-9.69777878736643,0.22156879029786564,-0.6330208252860563,-0.20894533955555555,0.11369133157446795,-0.005951646411347683
2.0675,-9.96719678793177,-0.006771655887574814,-0.24170509620946362,-0.21264208745616095,0.10434073636800391,-0.0016615884458320456
2.07,-10.050203564832021,-0.08574122211003496,-0.36631028548865296,-0.21870153665666392,0.10361127216240064,-0.005410068354221927
2.0725000000000002,-9.86689187253661,-0.04516913584465644,-0.6812970863689611,-0.21578070183230336,0.10464781684024722,-0.0039021426443070096
2.075,-9.473943148237533,-0.1356358304200966,-1.1257013163689389,-0.21430814591984543,0.10534573713182041,-0.004085295605987501
2.0775,-9.645831698985312,-0.03860805050102191,-0.8701370696064339,-0.21197348829461027,0.10128138774142542,-0.005567868696064561
2.08,-9.69811,-0.01076,-0.795074,-0.211359,0.10780099844205986,-0.005956
2.0825,-9.715634536564185,0.21611769902377348,-0.8007581045895404,-0.20663994132488112,0.11614056957844697,-0.00873862828526151
2.085,-9.5670775755789,0.0908063506290605,-0.8383159910161683,-0.21504260384751547,0.118202,-0.003939499228136537
2.0875,-9.7283786764621,-0.019987623906421614,-0.6873580431020727,-0.21518420182663037,0.11264278352828093,-0.0010952246114405658
2.09,-10.083751459478362,-0.04431044354412299,-0.188408678328009,-0.2133045602143624,0.10931389417649175,-2.812470167920365e-05
2.0925000000000002,-10.072980592545953,-0.10160510980986792,-0.11703726566311204,-0.213192,0.1167598520331369,0.0
2.095,-9.652314918357266,-0.13493311366036237,-0.7294148350527795,-0.21184187992608916,0.11004479603981554,-0.006310427363652829
2.0975,-9.553676773430285,-0.05833900254157043,-1.0970670684294181,-0.21021935903677644,0.09887715226083266,-0.008982961771473001
2.1,-9.890389086585289,0.12285979417285084,-0.8769045606698117,-0.20847741193645353,0.1000286898607623,-0.010502754793596155
2.1025,-9.866934892623444,0.10094408625160982,-0.7730914846371819,-0.21122829186775444,0.11348529727780182,-0.007261771867754355
2.105,-9.643016391028874,-0.01535416877312705,-0.7577593044855626,-0.215351779205657,0.12361514080848557,-0.003006707215085413
2.1075,-9.852947135457715,-0.014316280273421828,-0.49984640481733,-0.2161489824460901,0.11874430888111345,-0.006548294715599239
2.11,-10.090882137449459,0.06613512684293205,-0.2599530917262751,-0.21369406295489893,0.11457965729393449,-0.007193545474339175
2.1125,-10.043638513781556,-0.09996739007057082,-0.41893108729511974,-0.21340679904294774,0.11831534257686299,-0.004415615635841806
2.115,-9.624991725972995,-0.03033224721002722,-0.9374136661900061,-0.21587936973957084,0.1192934191873644,-0.005990975276103216
2.1175,-9.652577214316375,0.018037018746084606,-0.8119556060597942,-0.21655511590788526,0.11977573380516039,-0.006087691051362437
2.12,-9.744701733229954,-0.015488928087601876,-0.4564810572074593,-0.21837157158922776,0.11605603539508708,-0.0024853112778929405
2.1225,-9.84932907475348,-0.06223760523942095,-0.49024340454335674,-0.22273158721515252,0.11084263592778917,-0.004190837675051826
2.125,-9.716124157743785,-0.05444439125239006,-0.9145074180210324,-0.220629692041109,0.11201192973231358,-0.004581
2.1275,-9.611680845953163,-0.05672778324034843,-1.0874520891695274,-0.21803096514747028,0.11358829464631122,-0.0029619089121573367
2.13,-9.778732981135057,-0.06754727500330276,-0.6703313550561654,-0.21713924762957165,0.11528972333673618,-0.00553438259323764
2.1325,-10.006489532299547,-0.07545300024743208,-0.3748125242063729,-0.22031249516065082,0.12375276631553607,-0.005630732438892553
2.1350000000000002,-9.92797213610945,-0.040994443516529415,-0.644518101514292,-0.20987794864766118,0.1253885477628278,-0.0011805337058147566
2.1375,-9.68914976199353,-0.08918714536465673,-1.0113019245218597,-0.21369917964343635,0.11414672494327394,-0.0055657249432739435
2.14,-9.877098937487855,0.06574463219125568,-0.725821585228511,-0.2187602158314427,0.1146659145186386,-0.006084914518638599
2.1425,-9.942379458856452,-0.02568806248605228,-0.5148550934638033,-0.21689566844156888,0.11925903825313398,-0.0036384846259602983
2.145,-9.80475180860603,-0.06688668279268599,-0.7948788850914302,-0.21551583765376395,0.11769051296129183,-0.0027599339349323173
2.1475,-9.822170442799717,0.04521453911247568,-0.8943636322219582,-0.21793444221328917,0.11992062929297703,-0.0059365170363363615
2.15,-9.940247990041097,0.1575121722079981,-0.5587923346357766,-0.2149406874024658,0.1234368746321998,-0.004426049723033016
2.1525,-9.96600989536482,0.023101579672412192,-0.4710520867306024,-0.2173252625218892,0.11962205409017831,-0.002232590367502656
2.1550000000000002,-10.043212434705891,-0.018942363459622226,-0.41446867392821074,-0.22300258464107744,0.11522675354436644,-0.003172768100698105
2.1575,-9.880243341032777,-0.02872709488901081,-0.8714592656655867,-0.22851234899291265,0.11465754960043613,-0.0025937363252589276
2.16,-9.688228772656256,0.010593149702838148,-1.2481247197586445,-0.22859390033473748,0.11066526043037657,-0.0046559400159400495
2.1625,-9.820106266298719,0.05693928822545738,-1.044497007994639,-0.22981969632045496,0.11359089376149871,-0.005503886235156404
2.165,-10.035547224550513,0.09302218045412466,-0.2803970167191716,-0.22594524368860047,0.1227814606255794,-0.005651
2.1675,-10.067662787447443,0.1505140392589605,-0.45415950112283365,-0.22793743198389044,0.12682262977688277,-0.0037988386049134246
2.17,-9.795169176147997,0.14387333949945666,-0.891300215408038,-0.2290619548784911,0.11389843271672158,-0.0015631946028292281
2.1725,-9.894291347778458,0.0677895006170973,-0.8500641874328936,-0.23551875697007063,0.113621,-0.002742856670780562
2.1750000000000003,-10.034856279726174,0.09460442130675652,-0.7350139212106508,-0.23256473778525036,0.10987978955080417,-3.257922171467876e-05
2.1775,-10.020916590116324,-0.10381006941354737,-0.7735182590164394,-0.236558,0.11107745865383122,-0.002749
2.18,-9.991246894552745,0.0204005506073084,-0.6970803072988319,-0.236558,0.11685829641716844,-0.002749
2.1825,-10.013687734237777,0.1493773850143871,-0.8031650481879243,-0.23314585039309668,0.12127689450623222,-0.002139345580057499
2.185,-9.944532999382837,-0.22641809752892866,-0.669708730675025,-0.23323724999758916,0.11186133271697202,0.0007360466730953999
2.1875,-10.009136201542914,-0.182593662427676,-0.7101324983124397,-0.232465606256027,0.11118574945756991,-0.0024491166827386693
2.19,-9.867205521322001,-0.1367017995593352,-0.9376879511579391,-0.2356425016309423,0.12110746175547811,-0.005399172333852172
2.1925,-9.50604887978193,-0.2529672389594153,-1.439242289477352,-0.23675773435937375,0.12047839033569598,-0.00573853926318248
2.195,-9.680578278279597,0.08505536838621469,-1.0188322843225586,-0.2280574393338932,0.11677534800527165,-0.009358117412243613
2.1975000000000002,-9.876250387411867,-0.023097370016803828,-0.38300815275599853,-0.23223522006236555,0.12402581656032695,-0.005748348486447211
2.2,-9.749998907827576,-0.02190779069268993,-0.7873040820073062,-0.22612052180999367,0.11584069942097312,-0.004671764057473839
2.2025,-9.708662458811922,-0.061563887111303714,-0.9939874514432872,-0.22740847356637364,0.10880053362213132,-0.006217193729358859
2.205,-9.765661,0.101626,-0.774749,-0.228311,0.10744156519878043,-0.005192
2.2075,-9.765661,0.101626,-0.774749,-0.228311,0.10811169597178215,-0.005192
2.21,-9.778233540263317,0.0010408978234105193,-0.8410437916173439,-0.23663310196883666,0.11002741766880055,-0.008112622804686501
2.2125,-9.602989004370215,0.1480094637455613,-1.1632069386568924,-0.23560099082484848,0.110108,-0.008600752293787883
2.215,-9.604691124499976,0.2938372464999932,-1.138924089000049,-0.23514033183333322,0.120619813499998,-0.0020389481666679673
2.2175000000000002,-10.049219537891059,0.04623477088835505,-0.3114070755475773,-0.23524195701327258,0.12373637112613023,0.0034658333621041667
2.22,-9.993449175938283,-0.07853953381002196,-0.324579832450554,-0.23637345232020107,0.1255643159658036,0.002778363685059798
2.2225,-9.736372844010267,-0.2602916623495051,-0.6431144907156275,-0.2387662391869434,0.1231709022227535,-0.0008593995289055698
2.225,-9.46837079460992,-0.10505087957445908,-1.3071333323404528,-0.24355721177304984,0.11119716964538955,-0.0065176851063832005
2.2275,-9.815664235871427,-0.0755562443455369,-1.0895158925165473,-0.24027444483050167,0.11677497154662209,-0.005236558085666406
2.23,-10.11624687392792,-0.09167951866521035,-0.53386453205194,-0.230458423375804,0.118202,-0.0042868305885208164
2.2325,-9.81437244661898,0.019010891286503365,-0.5724337271584299,-0.23035007734490442,0.12507469173214528,-0.004168198756889885
2.235,-9.610008341334595,-0.03943120370587254,-0.8569259105007482,-0.2304441503647238,0.11418251169227214,-0.003980667573589783
2.2375000000000003,-9.485881779047915,0.03697347833550115,-1.3365453978303632,-0.22848121593264228,0.113621,-0.0026183497409324906
2.24,-9.712879240000028,-0.04956001879158078,-1.1431165955971556,-0.22988378390632339,0.1188221852552699,-0.00012368180796228957
2.2425,-9.849384849312829,-0.14022736394793464,-0.795167883736467,-0.22576361314398394,0.13216339502643087,-0.0007244689167653345
2.245,-9.937641047379213,-0.02772677380672728,-0.45976228787211865,-0.2255217076232309,0.13984618020009784,-0.004274472576866956
2.2475,-9.828093349510823,-0.0496735518267849,-0.46388294636728183,-0.23002619964073787,0.13185717530392924,-0.005668875018444294
2.25,-9.78803867786012,0.20528713420565076,-0.9329593031496063,-0.23033979110699399,0.12247522116720705,-0.004804042843909217
2.2525,-9.740808680229701,0.13616838176318535,-0.9772032579488835,-0.2274581199352961,0.12202,-0.004734
2.255,-9.72475906703833,-0.07596248811529785,-0.8345391643268881,-0.23181382015204288,0.12652143039594554,0.0028053199746595554
2.2575,-9.680745667921025,-0.11070964625276941,-0.9384496027093165,-0.23620973505859966,0.12584496546510404,0.0011988541569001136
2.2600000000000002,-9.618463925877284,-0.08474902547250276,-1.1069405029928494,-0.23686208189960137,0.12044481258326606,-0.0035298927745026753
2.2625,-9.692461857325265,-0.0019457714519502262,-1.0874695421509224,-0.23165692512686162,0.12666140088394223,-0.0021219991160581347
2.265,-9.711261,0.016738,-1.079627,-0.230449,0.1303032678855549,-0.00168
2.2675,-9.990126188422732,0.024814472561091958,-0.5537264918438434,-0.2272932711266264,0.13284699470644248,-0.001436823713106943
2.27,-9.98326858249455,0.025186146834584627,-0.8506735321869743,-0.22399514511019614,0.133474,-5.988496972631364e-05
2.2725,-9.87844927201147,0.010165169383660036,-0.9378800228762532,-0.22720648147157188,0.13039544791208796,0.0004926650931676946
2.275,-10.029375574181016,-0.11375604066973478,-0.8086395378306304,-0.22606537418102413,0.13189463110895405,0.0022525976704682567
2.2775,-10.1661131695613,0.0022309400650993017,-0.4917708996434843,-0.22528892096109135,0.1334091580778173,-0.0006341142768561316
2.2800000000000002,-9.805031670731436,-0.05943362979212418,-0.908598559029569,-0.23265361624872655,0.13629837286047988,-0.00020921898999591156
2.2825,-9.72467267048942,-0.016625622948537963,-1.2672105459845724,-0.2279531464661831,0.1307348206937035,-0.0012645162283592749
2.285,-9.622560697095073,-0.08135286290014904,-1.2692204409030035,-0.226784,0.1326556191686577,-0.001527
2.2875,-9.914362858999205,-0.015219055980626894,-0.863630121581906,-0.22555261438256655,0.12916884314769964,-4.9659822437394304e-05
2.29,-10.056352485293166,0.051165248908013425,-0.6230123469535616,-0.23053403365250133,0.14127928941724943,-0.0007975788344988237
2.2925,-9.90161936879326,-0.06422887593329665,-0.781867443222759,-0.23034225536309844,0.1408963595648796,-3.1719129759135226e-05
2.295,-9.83629617052347,-0.0837365530087513,-0.8663465687414462,-0.2292325773747017,0.13413418797454282,-0.0015870885696101177
2.2975,-9.850957263467823,-0.0155119459001085,-0.8044364040278967,-0.2251310636095557,0.1274995899965713,-0.0037236373528402246
2.3000000000000003,-10.078562781754076,0.06534109979321982,-0.5319279260673547,-0.22384791601994897,0.12402349431942555,-0.006678807833597238
2.3025,-9.959947810545334,0.2618087701905382,-0.9750525939881772,-0.22980234396189297,0.12927610760183936,-0.0034554621353480243
2.305,-10.006446093208153,0.2386771475313434,-0.9653485457117802,-0.23616224952703116,0.1266593276561497,-0.0016666634233393058
2.3075,-10.165467379842545,0.18859414419315118,-0.8688388263766216,-0.23915075533679372,0.12600561112031256,-0.0008264328150696556
2.31,-10.238944450147713,0.14247556212703008,-0.7763902694682403,-0.24050342462333826,0.12891600943870024,0.00041500314623341204
2.3125,-10.024336814767564,-0.04681068112590703,-0.7667735828083885,-0.2425077939558249,0.13745750418626904,0.0019428454668686708
2.315,-9.852976480450465,0.07106065857433363,-0.9520665889445258,-0.23496532589912564,0.13839215173834915,0.0011046103126872257
2.3175,-10.045508004196693,0.09651678324843736,-0.7625012786320764,-0.23622864721768372,0.12884036191574605,0.0025726472176837403
2.32,-10.11062632167061,-0.08960154264077955,-0.6521266617841986,-0.24251444181732085,0.1254141179602462,0.0008170503265500987
2.3225000000000002,-9.896395524039404,-0.05601009316645445,-0.9608245584449605,-0.24131558172715883,0.1285719708103883,0.0026047487171466065
2.325,-9.53846327226049,-0.11464505024959037,-1.2417701475160638,-0.24055174371285948,0.12573093339671942,0.0008827185642973964
2.3275,-9.703954491234079,-0.021451159735436168,-1.2103468639361166,-0.23978550952089042,0.1163726453008545,-0.0015883006226812
2.33,-10.0828992842209,-0.043770263735896,-0.8897092818391243,-0.23782139885234085,0.11632054623769515,-0.002435945090036025
2.3325,-10.01667033174444,0.06452776613529676,-0.744565795123707,-0.2332256096147823,0.12633910425931733,-0.0025663041998120898
2.335,-9.85330986437426,0.07154259796406273,-0.8894592427325226,-0.23203202805984327,0.13425725973244668,-0.0012409280519275166
2.3375,-9.754063839662853,0.011029655291995913,-1.0391655337266679,-0.240057379698976,0.1219292307525597,-0.0033669862492472563
2.34,-9.990790213910948,0.06163159701839083,-0.8033916750912031,-0.24421245758700322,0.11379111755037044,-0.007123667003264923
2.3425000000000002,-10.0145166598655,0.01827942459831032,-0.846028407026103,-0.23669434692461816,0.12049215018992702,-0.00478829274507425
2.345,-9.566492869413025,0.1379982316684528,-1.2377854437851223,-0.23272378083007253,0.12947033863630955,-0.002372768737104382
2.3475,-9.63339134676628,0.23277107458556212,-1.1404107447314067,-0.23519259103759055,0.12728689329538706,-0.0042714709213804
2.35,-10.219395835537744,0.3118830854193186,-0.4551282833303036,-0.23884045189773484,0.12243441258274149,0.00011096148660969332
2.3525,-10.264694038557115,0.17370245714701935,-0.6405117061176926,-0.23835395644379667,0.12924152829294963,0.0032228767790126144
2.355,-9.996351211752339,-0.012483474696260238,-1.0588728816962583,-0.2416481444766355,0.13315116583644857,0.004112433158878504
2.3575,-9.797522465329292,-0.1005292810104135,-1.030549748714838,-0.24054022279996723,0.13604655440006552,0.0015215556663660261
2.36,-10.12284425321672,-0.1605721169080071,-0.40031566412502473,-0.2408059639547627,0.12968734077183208,-0.003891782926430846
2.3625000000000003,-10.14442020526583,-0.12321848332486689,-0.5399854145064378,-0.23882170887067505,0.13292832511786504,-0.005352774135054898
2.365,-10.003011025815585,0.2826573498636631,-1.0986420263175778,-0.23327519977086678,0.12730718253136844,-0.006652333104200876
