time,acc_x_g,acc_y_g,acc_z_g,gyro_x_rad_s,gyro_y_rad_s,gyro_z_rad_s
1765408760.951153,-2.270587707011149,-4.293496169920408,-8.362074321955548,-0.01090455670166866,-0.005268225589204884,-0.0018603743108284781
1765408760.951353,-2.290945978286681,-4.323276899622886,-8.352423245157475,-0.010539527664868018,-0.005168152532308992,-0.0018418655736627512
1765408760.951553,-2.3118781585875943,-4.353307779496063,-8.342290033893038,-0.010058909753364303,-0.005077167102468354,-0.0019153391665581237
1765408760.951753,-2.334097040086981,-4.38395730530577,-8.331567037491858,-0.009438529711123045,-0.005033147887656938,-0.002069247303909998
1765408760.951903,-2.3582869062388636,-4.415472623571974,-8.32022038754731,-0.008660838218935877,-0.0050770422025507595,-0.0022828074645665757
1765408760.952153,-2.3850674101807945,-4.447947637234126,-8.308301971062757,-0.007716850611854351,-0.0052517588154914,-0.002525214068362303
1765408760.952403,-2.4149608495350807,-4.481304503916842,-8.295955460625208,-0.006607884339335462,-0.005600889327716528,-0.0027552040668542893
1765408760.952653,-2.448365010878408,-4.51529101656091,-8.2834152988867,-0.005346967878911895,-0.006167277113279108,-0.002921040180698074
1765408760.95294,-2.4855335619201817,-4.549495282611783,-8.270997920056901,-0.003959785148643091,-0.006991477881041108,-0.002960965283230167
1765408760.95319,-2.5265654912923843,-4.583377622864264,-8.259084983776148,-0.0024850172879766134,-0.008110189226487608,-0.0028041670910550335
1765408760.95344,-2.571404356200697,-4.616317715350474,-8.248099075519544,-0.0009739543823819444,-0.009554754451591327,-0.002372271443249563
1765408760.95369,-2.619847176142,-4.6476729168933595,-8.238473229893623,0.0005107201785367818,-0.011349857431196406,-0.00158135251363579
1765408760.954028,-2.6715618947853175,-4.67684186915587,-8.230616557086874,0.0018970151627565345,-0.013512519877397508,-0.00034440729978236405
1765408760.954228,-2.7261116425546787,-4.703326487941197,-8.22487886716469,0.003106552033997704,-0.016051497204630703,0.0014258074970124796
1765408760.954428,-2.7829836543682482,-4.726785545805906,-8.22151736358792,0.0040581991628345125,-0.01896714860807074,0.0038137259414639346
1765408760.954628,-2.841620534088881,-4.747074168020565,-8.2206683735227,0.0046722194271220764,-0.022251827786173604,0.006897894528654608
1765408760.954828,-2.9014514722158298,-4.76426526258895,-8.222326862554622,0.004874671373983111,-0.025890799728644814,0.010748060064924122
1765408760.95489,-2.9619209867094107,-4.778650797769971,-8.226336131021428,0.004601765713653883,-0.029863641029680546,0.015422605455183806
1765408760.95514,-3.022512872740067,-4.790722726436686,-8.232389534677477,0.003803859371843662,-0.03414603677061832,0.02096648389466704
1765408760.95539,-3.0827674621453425,-4.8011351665931965,-8.240045310308846,0.0024487703017603414,-0.03871185261727037,0.027409762299701046
1765408760.95564,-3.1422910468508873,-4.810651074617308,-8.248754667374026,0.0005241240251719529,-0.04353533474152716,0.03476684095090536
1765408760.956004,-3.200757290029223,-4.820077976305407,-8.25790223736432,-0.0019614978192576083,-0.04859326951070619,0.043036366766303014
1765408760.956254,-3.257901468094176,-4.830198357468009,-8.266856627918559,-0.004978746903702469,-0.053866923860161134,0.05220180317632108
1765408760.956504,-3.3135093243269624,-4.841701022476,-8.275027125517559,-0.008479061802390766,-0.05934359593236778,0.062232568049137675
1765408760.956754,-3.3674030055232134,-4.8551197297986555,-8.281920847559359,-0.012397485411588577,-0.06501763990606307,0.07308561184295576
1765408760.956979,-3.419426808777115,-4.8707843325876485,-8.287193536551447,-0.01665652443027361,-0.07089088372011078,0.08470728738139469
1765408760.957229,-3.469435201211476,-4.888787827428828,-8.290687318555221,-0.02117073362474432,-0.07697242034006287,0.09703536462566031
1765408760.957479,-3.5172848615927856,-4.908970974085233,-8.29245031858831,-0.0258516522035166,-0.08327781334066296,0.1100010668842282
1765408760.957729,-3.562831554250143,-4.930924833998874,-8.292735652886822,-0.030612706960444096,-0.08982781720665957,0.12353103718734394
1765408760.957984,-3.6059317638710144,-4.954010457549799,-8.291980185272612,-0.035373722989978776,-0.09664677083899069,0.1375491721557186
1765408760.958317,-3.6464482897805057,-4.977393974787775,-8.290765941121654,-0.04006474228852608,-0.1037608639891773,0.15197828163068378
1765408760.958651,-3.684258314829846,-5.000094671687619,-8.289769112503919,-0.04462893486953859,-0.11119648100585955,0.16674154682717263
1765408760.962631,-3.7192618763749024,-5.0210431454582665,-8.289703034550323,-0.04902448328773652,-0.11897878655931542,0.181763759547595
1765408760.962881,-3.7513885534400786,-5.039146046869258,-8.291261855217664,-0.053225416309906674,-0.12713064303341085,0.1969723331701672
1765408760.963131,-3.780600904064347,-5.0533532256552105,-8.29507040046143,-0.05722145038037966,-0.13567186240274243,0.21229808387933213
1765408760.963381,-3.8068945957836156,-5.062722544957299,-8.301643242376946,-0.06101696133634044,-0.14461872568250453,0.2276757863142515
1765408760.962704,-3.8302965711530206,-5.066477494736244,-8.311353357496694,-0.06462925062673243,-0.15398367162863003,0.24304451590512388
1765408760.962954,-3.8508632388351227,-5.0640532161655525,-8.324409242830788,-0.06808629184652633,-0.16377506785181306,0.2583478101085105
1765408760.963204,-3.8686803705137316,-5.055127687121911,-8.340839285184934,-0.07142414752622848,-0.17399702020342284,0.27353370982974806
1765408760.963454,-3.883865467583554,-5.039636395841695,-8.360482967330377,-0.07468423388239376,-0.18464922912822437,0.28855476122931334
1765408760.96287,-3.8965723193410424,-5.017770508768266,-8.382989375635681,-0.0779105862716636,-0.19572694419680195,0.3033680514415562
1765408760.963203,-3.906996560883793,-4.989960067476945,-8.407824083880891,-0.08114725071241244,-0.2072210862342282,0.31793532556739607
1765408760.963537,-3.915380305006088,-4.956844972067494,-8.434285806926107,-0.08443590730176673,-0.21911859352360386,0.33222320533421423
1765408760.963932,-3.9220134982474932,-4.919237288945071,-8.461534137626266,-0.08781381952802152,-0.23140300734917685,0.34620351075301475
1765408760.964182,-3.927229874975451,-4.878078660769767,-8.488628861632977,-0.09131219026689251,-0.2440552564408025,0.359853666510089
1765408760.964432,-3.931396463753606,-4.8343963215183665,-8.51457969519456,-0.09495498373199061,-0.25705454799089733,0.3731571455065661
1765408760.964682,-3.93489721984121,-4.789260612706907,-8.538403359703132,-0.09875824351430462,-0.2703792406968202,0.38610387006189223
1765408760.964927,-3.938112825844133,-4.743746149961923,-8.559183485375575,-0.10272990323044992,-0.2840075729997933,0.39869047461949136
1765408760.965177,-3.941399450923746,-4.6988979500304575,-8.576128305188009,-0.10687004953906495,-0.29791814729675026,0.4109203414377057
1765408760.965427,-3.9450690767208467,-4.655702946864278,-8.588621391629337,-0.11117156208481402,-0.3120901165577469,0.422803347127478
1765408760.965677,-3.9493729884291384,-4.615066658094032,-8.596261709946711,-0.11562103257613644,-0.3265030689277815,0.4343552927757336
1765408760.965878,-3.95448864965361,-4.577794565929103,-8.598890870732006,-0.12019986277741977,-0.3411366495124749,0.44559702713236554
1765408760.966211,-3.9605092650413556,-4.544577935507857,-8.596606972566846,-0.12488545126974077,-0.3559699896413594,0.45655330758902357
1765408760.966545,-3.9674355821140286,-4.515983906338014,-8.589764878212751,-0.12965238784609834,-0.3709810239206529,0.4672514747244344
1765408760.966889,-3.9751706400465934,-4.492449503952621,-8.578962201287645,-0.13447357773785293,-0.3861457632416747,0.4777200403878708
1765408760.967139,-3.9835191365261005,-4.4742788094448676,-8.565009959874256,-0.1393212220829916,-0.4014375727380903,0.4879873050876111
1765408760.967389,-3.992193106073988,-4.461642164245333,-8.548887707188214,-0.14416759617997607,-0.4168264976824421,0.49808012758122006
1765408760.967639,-4.000824964474145,-4.454576308569439,-8.531684518803711,-0.14898559847784185,-0.4322786919794631,0.5080229659405514
1765408760.96785,-4.008988231995909,-4.452984969787458,-8.5145286662651,-0.15374908580677854,-0.4477560212751685,0.517837288017101
1765408760.968183,-4.016225407686491,-4.456640388629122,-8.498510111486564,-0.1584330489789461,-0.4632159255444342,0.5275414047016219
1765408760.968517,-4.022081269417767,-4.465186946700166,-8.484601452324329,-0.16301370259780187,-0.4786116323384502,0.5371507194174482
1765408760.968849,-4.026138457268131,-4.478148053936626,-8.473584342178253,-0.167468562042867,-0.49389280609501673,0.5466783306140199
1765408760.969099,-4.028051108043633,-4.49493702930746,-8.465988860345389,-0.1717765711037282,-0.509006688908158,0.5561358842313299
1765408760.969349,-4.027572114136209,-4.514872297585507,-8.46205234316674,-0.17591833404907772,-0.5238997329506926,0.5655345513599144
1765408760.969599,-4.024570631002568,-4.537196893678111,-8.461702030400138,-0.17987649138494352,-0.5385196656733617,0.574885998187874
1765408760.969926,-4.019038644191143,-4.561101773362188,-8.464563057670462,-0.18363625480028728,-0.5528178875966978,0.5842032183664982
1765408760.970259,-4.011087850901986,-4.585751680323572,-8.469990346430576,-0.1871860893597798,-0.566752072955422,0.5935011145065713
1765408760.970593,-4.000939484615836,-4.610311643107389,-8.477120424022573,-0.19051850413969998,-0.5802888044479434,0.6027967497495869
1765408760.970928,-3.98890934181337,-4.633972113258318,-8.484937741493061,-0.19363088187021027,-0.5934060245917352,0.6121092400414762
1765408760.971178,-3.975388890336655,-4.655971573854308,-8.492349727896073,-0.19652624172202815,-0.6060950565923693,0.6214593114253771
1765408760.971428,-3.960822535890558,-4.675616780602554,-8.498265035636392,-0.19921379569699538,-0.6183619694656539,0.6308685898362189
1765408760.971678,-3.9456818974588255,-4.692301759292531,-8.501669441571998,-0.2017091413460779,-0.6302281387695404,0.6403587141662935
1765408760.972011,-3.93043961474386,-4.705526646578625,-8.501693595542303,-0.20403394431627292,-0.6417299517033321,0.6499503669686009
1765408760.972344,-3.915545856280984,-4.714916687102639,-8.497667192775,-0.20621501534584719,-0.6529176837933849,0.6596623055300516
1765408760.972678,-3.9014091367839656,-4.720240766527287,-8.489156165506515,-0.20828277875966955,-0.663853623974426,0.6695104495199602
1765408760.972895,-3.8883803673829855,-4.72142784736011,-8.47598263258311,-0.21026923877559825,-0.6746095555629584,0.6795070432903801
1765408760.973145,-3.8767375527961057,-4.718578544157992,-8.458229854253988,-0.21220563711172516,-0.6852637140982268,0.6896598784155088
1765408760.973395,-3.8666693189911823,-4.711968351622306,-8.436235213699883,-0.21412003905498464,-0.6958973390101769,0.6999715538665464
1765408760.973645,-3.858257686328146,-4.7020394193192905,-8.410573651634486,-0.2160350905351236,-0.706590930504692,0.7104387691084385
1765408760.973887,-3.851462853271906,-4.689379328785207,-8.38203280536201,-0.21796616840236363,-0.7174203349612597,0.7210516792470417
1765408760.974137,-3.8461144794970115,-4.674687509851419,-8.351579766517522,-0.21992010769174272,-0.7284528104030596,0.7317933794781696
1765408760.974387,-3.8419145547917983,-4.658732000799551,-8.320318361513541,-0.22189463867936302,-0.7397432516772354,0.7426396137091246
1765408760.974637,-3.8384557688243763,-4.642300598307946,-8.289436080526649,-0.22387860851668576,-0.7513307735777717,0.7535588047980051
1765408760.974879,-3.8352563145818017,-4.626150755979631,-8.260141696814411,-0.22585300186939036,-0.7632358641029636,0.7645124791371958
1765408760.975212,-3.831808482384327,-4.610962078697066,-8.233597304911603,-0.22779271338492404,-0.7754583310842084,0.7754561186809615
1765408760.975546,-3.8276358785568103,-4.597294476489656,-8.210850251911165,-0.22966895827285866,-0.787976257251237,0.7863404345102285
1765408760.975928,-3.8223532669109312,-4.585554438521825,-8.192770274697805,-0.23145213434186765,-0.8007461300060577,0.7971130251805209
1765408760.976178,-3.815723219930933,-4.575971598162415,-8.179995556026553,-0.23311487743911855,-0.8137042229522601,0.8077203591220514
1765408760.976428,-3.807704053388321,-4.568587599958859,-8.172889734664546,-0.23463499723294193,-0.8267692032005491,0.8181099974766348
1765408760.976678,-3.798483723162704,-4.563258774381089,-8.171511353805272,-0.23599795604192408,-0.8398458506331312,0.8282329466096322
1765408760.976936,-3.788495060254634,-4.5596729114630845,-8.175597993354184,-0.23719856871811684,-0.8528297107653124,0.8380460007764913
1765408760.977269,-3.778409415317621,-4.5573788059822755,-8.184568499131556,-0.2382416597759998,-0.8656124506140145,0.8475139159954613
1765408760.977603,-3.769108157123227,-4.555825912209205,-8.197547047928323,-0.23914151521091445,-0.8780876350433906,0.856611252280453
1765408760.977945,-3.761633612086418,-4.554410653888746,-8.213411516123934,-0.2399201052201949,-0.8901565916812786,0.8653237295638926
1765408760.978195,-3.757122569855257,-4.55252549304018,-8.230865752932468,-0.24060421531800835,-0.9017340017065614,0.8736489614866078
1765408760.978445,-3.756727064649222,-4.549606634782084,-8.248531443504447,-0.24122178423631224,-0.9127528513871094,0.8815964666414507
1765408760.978695,-3.7615294079733905,-4.545176270223635,-8.265051181610826,-0.24179787880701498,-0.9231683965720529,0.8891869140278357
1765408760.978875,-3.7724607493516995,-4.538875708008449,-8.279191337864065,-0.24235080766752579,-0.932960821782623,0.8964506373279949
1765408760.979208,-3.7902331352900855,-4.530486880864544,-8.28993241000111,-0.24288886616752867,-0.9421363307634533,0.9034255425865979
1765408760.979542,-3.8152930773189366,-4.519941421806295,-8.296536074152444,-0.24340811635592796,-0.9507265083976238,0.91015461724189
1765408760.97992,-3.847800585153914,-4.507318054186687,-8.298581382761794,-0.24389146263375974,-0.9587859493927402,0.916683300347787
1765408760.98017,-3.8876329673515966,-4.492829854123832,-8.29596663096802,-0.24430911830238558,-0.9663883385738381,0.9230569795066766
1765408760.98042,-3.93440872287692,-4.476803265062246,-8.288878115541994,-0.24462039803578456,-0.9736213594470438,0.9293188450970412
1765408760.98067,-3.9875243677948777,-4.459651092457422,-8.27773188866068,-0.24477663353852036,-0.980580962854632,0.9355082719818192
1765408760.980875,-4.046196549011787,-4.441842225183822,-8.263098333455092,-0.2447249039916906,-0.9873656032804893,0.9416598234387038
1765408760.981208,-4.109503061243695,-4.423871343674728,-8.245620962601206,-0.24441220268211558,-0.9940710168705067,0.9478028865671091
1765408760.981542,-4.176418426462585,-4.4062319122828235,-8.225940574966378,-0.24378962567929185,-1.00078597436069,0.9539618591188058
1765408760.981894,-4.24584162549048,-4.389394747339313,-8.20463446033476,-0.24281616821493845,-1.0075892318933382,0.9601567294600963
1765408760.982144,-4.316615272138688,-4.373792583169556,-8.182177791283715,-0.24146175245849208,-1.0145476890677336,0.9664038475347844
1765408760.982394,-4.387537384659207,-4.359809367188815,-8.15893075199914,-0.23970918622412857,-1.0217156129951803,0.9727166893216067
1765408760.982644,-4.457369005403502,-4.347772296946562,-8.135151089385507,-0.23755486113901517,-1.0291347215181805,0.9791064599342566
1765408760.983038,-4.5248425260654646,-4.3379448204629085,-8.111028626645629,-0.23500813810532667,-1.0368348991056744,0.9855824376728284
1765408760.983371,-4.588675695384473,-4.330519534535568,-8.086736198609803,-0.23208953424753254,-1.0448352917139236,0.9921520166854441
1765408760.983705,-4.647594722048075,-4.325610742255628,-8.062489941604085,-0.22882800083321705,-1.0531454856518452,0.9988204536555746
1765408760.983971,-4.700367635241822,-4.323247071272482,-8.038610171567955,-0.2252577268938323,-1.0617664645577654,1.0055903626747031
1765408760.984221,-4.74584734787242,-4.323364909807317,-8.015572290491788,-0.22141497429586154,-1.070691098497619,1.0124610338108346
1765408760.984471,-4.7830229064517145,-4.325803649277114,-7.994036499213367,-0.21733542109144163,-1.0799040425889752,1.0194276776869597
1765408760.984721,-4.811076619378082,-4.330304032114767,-7.974846780407167,-0.2130523667781916,-1.0893810672058017,1.0264807179697661
1765408760.984914,-4.829443865545203,-4.336511173336344,-7.958993444244378,-0.20859596907709874,-1.0990879732860004,1.0336052570906313
1765408760.985247,-4.837871721934768,-4.3439835618807345,-7.947538253094034,-0.2039934824014883,-1.1089793568626762,1.040780822299427
1765408760.985581,-4.8364722730147784,-4.352208193746831,-7.941506077262622,-0.1992702934092592,-1.1189975770746554,1.0479814654847606
1765408760.98588,-4.825766145896247,-4.360620364970767,-7.941752421846768,-0.1944514248677962,-1.1290723332979185,1.0551762561533093
1765408760.98613,-4.806710941106676,-4.368625701551507,-7.948821832038454,-0.18956311757199773,-1.1391212328688827,1.0623301848623752
1765408760.98638,-4.780708020654039,-4.37562256369872,-7.962816670816472,-0.18463410115677892,-1.1490516088404141,1.0694054819384737
1765408760.98663,-4.749580715902165,-4.381024630016348,-7.983297186877683,-0.17969621760824697,-1.1587636516214506,1.0763633365724605
1765408760.986997,-4.715518722992555,-4.3842850232579895,-8.00923121442021,-0.17478415101486194,-1.1681547110624364,1.083165958320661
1765408760.98733,-4.680987560426933,-4.384923885111732,-8.039005737912225,-0.16993413189568815,-1.1771244605490407,1.0897788568247528
1765408760.987664,-4.648607283906275,-4.382560518435117,-8.07050431793884,-0.1651816177168319,-1.1855805049030184,1.096173142523668
1765408760.990668,-4.621009189719884,-4.376949048868624,-8.101245573466551,-0.1605580998895839,-1.1934439437159616,1.1023275951077172
1765408760.990918,-4.600681606694928,-4.3680135377911355,-8.128569736886023,-0.15608734579452002,-1.2006543654351105,1.1082302317066635
1765408760.991168,-4.589816511800152,-4.355875819664328,-8.149853448050202,-0.15178152973988998,-1.2071737674138385,1.1138791481212207
1765408760.991418,-4.590169348346739,-4.340868194377509,-8.16272810880158,-0.1476378001112599,-1.21298899858829,1.1192824983231553
1765408760.990778,-4.602945628209513,-4.32352399760401,-8.16527560499018,-0.14363584097335805,-1.218112495824824,1.1244575961556242
1765408760.991028,-4.628727533309253,-4.304542041780658,-8.156178613398312,-0.13973691104784486,-1.2225812903217461,1.1294292400535766
1765408760.991278,-4.6674492514905275,-4.28472564193575,-8.13481113782222,-0.13588469337496603,-1.2264544533212676,1.1342274526900025
1765408760.991528,-4.718421724992375,-4.264902387359085,-8.101265858958753,-0.1320080822811167,-1.2298093016836995,1.1388848757218955
1765408760.99091,-4.780399529066393,-4.245835208123222,-8.056324510319152,-0.12802579562252725,-1.2327367717194668,1.1434340606011144
1765408760.991243,-4.8516779302772965,-4.228137104844929,-8.001383275843299,-0.12385246288551043,-1.2353363806843487,1.1479048641288636
1765408760.991577,-4.930206645145876,-4.21220119984591,-7.938347544780557,-0.11940563897318163,-1.2377111384088708,1.152322115650632
1765408760.99187,-5.013706191926477,-4.198155688712279,-7.869511390540118,-0.1146130597315,-1.2399626767371743,1.1567036818152852
1765408760.99212,-5.099772410171571,-4.185850432742967,-7.7974374405074505,-0.10941940195092005,-1.2421867598010718,1.1610590112278538
1765408760.99237,-5.185957093930801,-4.17487805465091,-7.724850160576586,-0.10379183131142501,-1.244469237576277,1.1653881997813127
1765408760.99262,-5.269820063819977,-4.164627445614151,-7.654548113179043,-0.0977237112414921,-1.2468824276532864,1.169681591595289
1765408760.992877,-5.34895895301015,-4.154362336561374,-7.5893304618057025,-0.09123601657944364,-1.249481890555646,1.173919922353063
1765408760.99321,-5.421032409036453,-4.143313330978452,-7.531924953818275,-0.08437625728378761,-1.2523036239629037,1.1780750119464085
1765408760.993544,-5.4837953824009045,-4.130769944286265,-7.484902797155487,-0.07721503778975373,-1.2553618212225586,1.182111015461739
1765408760.993885,-5.53516056639784,-4.116160417872058,-7.450570427598385,-0.06984068306259614,-1.2586474693124223,1.1859862368659464
1765408760.994135,-5.573290712603576,-4.099110539755452,-7.430836624651839,-0.06235257899182613,-1.262128146700974,1.189655478712522
1765408760.994385,-5.596716469249115,-4.079476706942982,-7.4270632472181894,-0.05485397217062629,-1.2657493821051193,1.193072833717874
1765408760.994635,-5.60446637442669,-4.057351922269478,-7.439917210647724,-0.04744496636834055,-1.2694378346100672,1.1961947403244566
1765408760.994987,-5.596190893803837,-4.033046317526762,-7.469248077233597,-0.040216366564328136,-1.2731063606861674,1.1989830598807605
1765408760.995237,-5.572260872635886,-4.007046458422919,-7.5140173885355575,-0.03324487496616219,-1.2766607674231076,1.2014079083048304
1765408760.995487,-5.533821719363997,-3.979960085026874,-7.5723015237982825,-0.026589951786488885,-1.2800077551539415,1.203449987719006
1765408760.995737,-5.482787849662638,-3.9524545885447795,-7.641380126830501,-0.020292434578101013,-1.2830632896218985,1.2051022037147994
1765408760.995947,-5.421768545394634,-3.925197776109704,-7.717908354102763,-0.014374786946826212,-1.2857604838073624,1.2063704171351093
1765408760.99628,-5.35392736209255,-3.898807988142032,-7.798155206967703,-0.008842650158176143,-1.2880560587385343,1.207273264104262
1765408760.996614,-5.2827903528508315,-3.8738177452467224,-7.878276061062523,-0.0036872317487388704,-1.2899345979544234,1.2078410773330361
1765408760.996873,-5.21202815482328,-3.8506518491248913,-7.9545810422596865,0.0011119892464239937,-1.2914100902288888,1.208114039824267
1765408760.997123,-5.1452388246401695,-3.829618541159291,-8.023765382841521,0.005584717556671384,-1.2925246281866352,1.2081397810738084
1765408760.997373,-5.085752763357284,-3.810911695654828,-8.0830805489482,0.009767805154316665,-1.2933445264554513,1.2079706710182707
1765408760.997623,-5.036472890598989,-3.7946226097008093,-8.130439079296654,0.013703892857928014,-1.2939544479930314,1.2076610663737906
1765408760.997899,-4.999756598794733,-3.780760266917268,-8.164456458802073,0.017440718930877418,-1.2944503025065375,1.207264715082664
1765408760.998149,-4.977341600206762,-3.7692779394574045,-8.184439157880034,0.02103092935230009,-1.2949316896596603,1.2068324466870617
1765408760.998399,-4.970314063071942,-3.760102052831253,-8.190331260535832,0.02453211034898877,-1.2954945516852183,1.2064102022881835
1765408760.998649,-4.97911372888562,-3.7531575651463513,-8.182634119281936,0.02800670071724822,-1.2962245438588946,1.2060374087309982
1765408760.998852,-5.003568103294191,-3.74838360908056,-8.162313142770103,0.03152144102506591,-1.2971914705699208,1.2057456828717357
1765408760.999102,-5.042947652886491,-3.745734356810035,-8.130701943195179,0.03514607916671787,-1.29844499131943,1.205557862847048
1765408760.999352,-5.096036094417505,-3.7451631917553425,-8.089408002770945,0.038951163246676655,-1.3000116954171639,1.2054873968012145
1765408760.999602,-5.1612128531321435,-3.746592598452449,-8.040219072507591,0.04300489943743128,-1.3018935893944485,1.2055381567496306
1765408760.999855,-5.236547029337041,-3.7498762531592904,-7.985007842438987,0.04736922600903759,-1.3040680256096857,1.205704766123732
1765408761.000188,-5.319902732416837,-3.754762434756303,-7.925633680335151,0.05209543893103884,-1.3064890937407323,1.2059735213692497
1765408761.000522,-5.409054031455175,-3.760868544458609,-7.863843129227353,0.05721986446787074,-1.309090473483467,1.2063239427046721
1765408761.000853,-5.501804692438141,-3.7676749824710076,-7.801174417881383,0.06276016922443697,-1.311789697896534,1.2067309076488824
1765408761.001103,-5.5961048705884275,-3.774543130128456,-7.7388745699799735,0.0687129007061402,-1.314493697632391,1.2071672225327086
1765408761.001353,-5.690155188776765,-3.7807577073338594,-7.677839671259806,0.07505275020832759,-1.3171053771711783,1.2076063994806274
1765408761.001603,-5.782488450490154,-3.7855892886188265,-7.618588352458336,0.08173382507887103,-1.319530815999523,1.2080253449827099
1765408761.001887,-5.87202070830405,-3.7883686277238997,-7.561274867634206,0.08869292883331349,-1.3216865197755199,1.2084066382301097
1765408761.002137,-5.9580665567253135,-3.7885609638675746,-7.5057418101071365,0.09585452506071582,-1.3235060229369173,1.2087400970769402
1765408761.002387,-6.040317588827103,-3.785826588447562,-7.451605668599939,0.10313677693786359,-1.3249451252775233,1.2090234128238362
1765408761.002637,-6.118786776323671,-3.7800549797014904,-7.398363611926923,0.1104578748876721,-1.3259851727533314,1.2092617787538076
1765408761.002847,-6.193724815747137,-3.7713645970408916,-7.345508134621746,0.11774182506475002,-1.3266340575419437,1.2094666099814058
1765408761.00318,-6.265517786551625,-3.7600683132932624,-7.292636775236257,0.12492297426581275,-1.3269249368348195,1.2096536044911266
1765408761.003514,-6.334578720930931,-3.746613084571938,-7.239545722547657,0.13194877668161492,-1.326912949468369,1.2098404805309502
1765408761.003878,-6.401247772559431,-3.7315086125672945,-7.186297904007659,0.13878062672384484,-1.326670384241868,1.210044720404732
1765408761.004128,-6.465715419347708,-3.715261054898994,-7.1332583040184945,0.14539292590364064,-1.326280834181936,1.2102815689188542
1765408761.004378,-6.527979927354009,-3.6983241978523167,-7.081092809647473,0.15177084666996699,-1.3258328954315406,1.2105624205303667
1765408761.004628,-6.5878443085961145,-3.6810740796970887,-7.030731981079161,0.15790744442751414,-1.3254139496905164,1.2108936294101078
1765408761.004941,-6.644950727605907,-3.6638065160726376,-6.983305781588926,0.16380082316978994,-1.325104488028082,1.2112757158254956
1765408761.005191,-6.698844252919623,-3.6467519581580636,-6.940057064077654,0.1694519817780553,-1.324973292696035,1.211702919429915
1765408761.005441,-6.7490547633811255,-3.6300989260689707,-6.902240633736616,0.174863778838057,-1.325073643832953,1.2121630501749354
1765408761.005691,-6.795185444349212,-3.6140155424035574,-6.871013519561762,0.18004118973834377,-1.3254406275723964,1.2126375981350788
1765408761.005906,-6.836996968099682,-3.5986585635167376,-6.847322635252865,0.18499273687082637,-1.3260896108904778,1.213102084610011
1765408761.006239,-6.874476784610222,-3.584161915745702,-6.831798022136127,0.18973270344210869,-1.3270159719309893,1.213526672139003
1765408761.006573,-6.907883248992085,-3.5706027843929102,-6.824661975033085,0.19428354687753843,-1.328196174280321,1.2138770881817373
1765408761.006974,-6.937756203107416,-3.5579512310526447,-6.825665419287112,0.19867785568931462,-1.3295902286499008,1.21411592665469
1765408761.007224,-6.964890245335766,-3.546016141522202,-6.834062050261128,0.20295926576114937,-1.3311455016121094,1.2142043512257252
1765408761.007474,-6.99027347458467,-3.5344037080222446,-6.848627407755304,0.20718194875131174,-1.3328017043024276,1.2141041375449884
1765408761.007724,-7.015000543211556,-3.5225034354711013,-6.867724828084971,0.21140854969887543,-1.3344967153290828,1.2137798813514011
1765408761.007887,-7.0401719022995435,-3.5095105643613747,-6.889414710886125,0.21570671388332618,-1.3361726882260871,1.213201103971127
1765408761.00822,-7.066790540962258,-3.4944844489508835,-6.9115986850023265,0.22014455252258258,-1.3377817399324283,1.21234395603959
1765408761.008554,-7.09566530664163,-3.476433456942971,-6.932185539288415,0.2247855281302029,-1.3392904955362925,1.2111922826521553
1765408761.00892,-7.1273287290821425,-3.45441162259562,-6.949261134936808,0.22968328760767093,-1.3406829089168015,1.2097379425571684
1765408761.00917,-7.161977473784522,-3.427611405129668,-6.961242102939589,0.23487694373690762,-1.3419610564039328,1.2079804130499479
1765408761.00942,-7.199443021518255,-3.3954394934287206,-6.966995471106625,0.24038722895972084,-1.343143938802609,1.2059258219282696
1765408761.00967,-7.2391973910747245,-3.3575673910391983,-6.9659128355221025,0.24621385107896457,-1.3442646358294466,1.2035856194480732
1765408761.009882,-7.280394338767242,-3.3139542702248335,-6.957934770911907,0.2523342902403697,-1.345366347704946,1.2009751356097689
1765408761.010215,-7.321941925915613,-3.2648448409762683,-6.9435263808226555,0.2587041896915628,-1.3464978934388478,1.198112254165765
1765408761.010549,-7.362598407551562,-3.2107485070106976,-6.923608883352587,0.26525938967385543,-1.3477091576100202,1.1950163691565607
1765408761.010907,-7.401080342934325,-3.1524074398657116,-6.8994565042145455,0.27191951698350386,-1.349046860337916,1.1917076843277195
1765408761.011157,-7.436170363590024,-3.090760517720739,-6.872572041838077,0.27859288204632426,-1.3505508987916948,1.1882068050539607
1765408761.011407,-7.4668131948666145,-3.0269076275670646,-6.844555603105921,0.2851822866764516,-1.3522513714736424,1.1845344980319437
1765408761.011657,-7.492192367924812,-2.962075221396616,-6.816978075660388,0.2915912414560517,-1.3541662801963732,1.180711475303976
1765408761.011909,-7.511784935654354,-2.8975803071101325,-6.791266177348323,0.2977300417861712,-1.3562998701910984,1.1767580854644384
1765408761.012242,-7.525395166036822,-2.8347875564840583,-6.768602467446509,0.3035211560679897,-1.3586416306796814,1.1726938510305964
1765408761.012576,-7.533169442098645,-2.7750542053466694,-6.7498423979988145,0.3089034412249099,-1.3611660765664522,1.1685368717276776
1765408761.012927,-7.535593986236382,-2.7196604580743458,-6.735450414636224,0.3138348210997558,-1.3638334909420904,1.1643032044449524
1765408761.013177,-7.533476058023042,-2.669728421420915,-6.725457585780154,0.318293237326825,-1.3665917942660406,1.160006398070908
1765408761.013427,-7.527908890113785,-2.626138555730367,-6.719444349490411,0.32227589806383244,-1.3693796270055094,1.1556573724098738
1765408761.013677,-7.5202203451659635,-2.5894574129112873,-6.71655374020434,0.32579708277153263,-1.3721306049314386,1.151264770775289
1765408761.013866,-7.51190417356464,-2.5598919988239244,-6.715541943361069,0.3288849715017305,-1.3747785400737578,1.1468357929740796
1765408761.014199,-7.504531477914111,-2.537282780727558,-6.714872087884896,0.3315781050977374,-1.377263231783864,1.1423773639792323
1765408761.014533,-7.499641138983201,-2.521139363362577,-6.712851615544047,0.33392210312389076,-1.3795362586092441,1.1378973749296357
1765408761.014832,-7.498613304869225,-2.510712889851819,-6.7078036272381345,0.3359671521295016,-1.3815660926333657,1.1334057013981784
1765408761.015082,-7.502537631727235,-2.505091033349586,-6.6982523075059355,0.33776654834485076,-1.383341858542446,1.1289147639471893
1765408761.015332,-7.512093307979288,-2.503297577173139,-6.683097037552584,0.33937628612915055,-1.3848751957128889,1.1244395068832505
1765408761.015582,-7.527458232430344,-2.5043794456960176,-6.661751385325771,0.3408553992992515,-1.3861999416478088,1.1199967899416727
1765408761.015852,-7.548260990857854,-2.5074686412124163,-6.634229937605143,0.34226656461710886,-1.3873696757595415,1.115604293796906
1765408761.016185,-7.57358404508066,-2.511813417542356,-6.601174183750206,0.3436764135690227,-1.3884534451437822,1.1112791236691228
1765408761.016519,-7.602021035165785,-2.5167805937175114,-6.563816084504477,0.34515507263320366,-1.3895301618506897,1.1070363431896177
1765408761.01693,-7.631784631449153,-2.5218374345997923,-6.5238849539824635,0.346774631595295,-1.3906822125760796,1.1028876682424449
1765408761.01718,-7.660853619451103,-2.5265251968523255,-6.483470510045086,0.3486064735832157,-1.3919888147016073,1.0988404887726144
1765408761.01743,-7.687141044667321,-2.5304359793730486,-6.444860373442652,0.3507176356159465,-1.3935196293693364,1.0948972812823754
1765408761.01768,-7.7086628352488304,-2.533200213020421,-6.410370634919592,0.35316656280061787,-1.3953290910201805,1.0910553732393433
1765408761.017887,-7.723689682903113,-2.5344860021500373,-6.382183182993776,0.3559987443154804,-1.3974518158908722,1.08730696709985
1765408761.018137,-7.730871588372946,-2.5340060504848663,-6.362197106957038,0.3592427580192934,-1.3998993369678423,1.0836393324320965
1765408761.018387,-7.729330102077987,-2.5315248120938105,-6.351897869013304,0.36290720958684586,-1.4026583296539992,1.0800351131114028
1765408761.018637,-7.718715360136466,-2.5268586768888976,-6.352248320831729,0.36697895958334786,-1.4056904585903907,1.076472756256767
1765408761.018887,-7.699224610468309,-2.5198652666051236,-6.36360803942872,0.3714229060625754,-1.4089339619794,1.0729271268059712
1765408761.01922,-7.671579376283548,-2.5104229665285835,-6.385688892856621,0.37618342634378177,-1.41230704638781,1.0693703964068932
1765408761.019554,-7.636961832860162,-2.4984067965555186,-6.4175537243584575,0.3811873816308193,-1.4157130597089571,1.0657732709860501
1765408761.019895,-7.596916570435679,-2.483669920408366,-6.457661973829212,0.3863483882490166,-1.4190472402491572,1.0621065483762928
1765408761.020145,-7.553229392326456,-2.4660400726474974,-6.503961875257704,0.39157191364154986,-1.4222046291838382,1.0583428879336771
1765408761.020395,-7.507798260264841,-2.4453362096464426,-6.554024029243649,0.3967606951503642,-1.4250885232530612,1.0544585599239722
1765408761.020645,-7.4625119388358305,-2.421403757549036,-6.605205732274633,0.40181999654147643,-1.4276186796091146,1.0504348762000701
1765408761.02091,-7.4191493325928395,-2.394159768654838,-6.6548298818196345,0.40666228223449913,-1.4297384043189891,1.046259029126716
1765408761.021243,-7.379308113130417,-2.363634947652904,-6.700358082443028,0.41121097646807264,-1.4314196985083574,1.0419241810213917
1765408761.021577,-7.344366225268355,-2.3299990580261722,-6.739537281824389,0.4154030716124366,-1.43266583184371,1.0374288068793567
1765408761.021916,-7.315474339339401,-2.293559637649602,-6.770504775992254,0.4191904578415891,-1.4335110531421684,1.0327754492695231
1765408761.022166,-7.293571259665467,-2.254730779681786,-6.791846617957988,0.4225399731622186,-1.4340175620126698,1.02796916284853
1765408761.022416,-7.279409496413151,-2.2139774412561497,-6.802614735323079,0.42543232057302727,-1.4342702388350497,1.0230159819593376
1765408761.022666,-7.2735774803357485,-2.171748451694682,-6.802313495370449,0.4278601541239111,-1.4343698625860444,1.0179217181347968
1765408761.02293,-7.276508967419194,-2.1284153155605114,-6.790866133605176,0.42982576271273026,-1.434425606959009,1.0126912821227159
1765408761.023263,-7.288476543272586,-2.084232681205848,-6.768568897370123,0.43133883338984863,-1.4345475286392386,1.007328553778876
1765408761.023597,-7.309571653685579,-2.0393302245788294,-6.736039318931027,0.4324147285419893,-1.434839596382652,1.0018366524398408
1765408761.023901,-7.339677212032682,-1.9937365597430028,-6.694164143324865,0.4330735773494832,-1.4353936060449701,0.9962183615946241
1765408761.024151,-7.378441184660497,-1.9474267822331788,-6.64404967290946,0.43334029213868946,-1.4362841484277584,0.9904764662252101
1765408761.024401,-7.425260620810785,-1.900379384118494,-6.586972943231377,0.4332453982048693,-1.4375646946034923,0.9846138371716748
1765408761.024651,-7.4792841411704165,-1.8526270011645112,-6.524329437700595,0.4328263477943765,-1.439264840749277,0.9786331959079358
1765408761.024903,-7.539436564288782,-1.804288482401811,-6.457573923260822,0.4321288355459218,-1.4413887813396384,0.9725365976246203
1765408761.025153,-7.6044642053172735,-1.7555758515777677,-6.388153799402259,0.4312075867930674,-1.4439151212607506,0.9663247771612505
1765408761.025403,-7.672996117763181,-1.7067772804208057,-6.3174367624106385,0.4301261510698142,-1.4467981606247304,0.9599965864423156
1765408761.025653,-7.743615654066722,-1.658224307315559,-6.246636857791057,0.42895538422105295,-1.4499707627335987,0.9535487703381662
1765408761.025903,-7.814936622944808,-1.6102559030152865,-6.176746427280811,0.42777052894525625,-1.4533488307814386,0.9469762523456902
1765408761.026236,-7.88567781718229,-1.5631918568567056,-6.10848484899983,0.42664706941188574,-1.4568372666418339,0.9402729499449144
1765408761.02657,-7.9547291185180855,-1.5173234627415844,-6.042275133988705,0.42565577460481385,-1.4603370712159873,0.933432972296134
1765408761.02692,-8.021202670732666,-1.472922507244816,-5.978255042093125,0.42485749678062024,-1.4637530067914881,0.9264519369410376
1765408761.02717,-8.084464151533668,-1.4302624929652983,-5.91632221996332,0.42429833497868547,-1.4670010504836544,0.9193281166161659
1765408761.02742,-8.144141778741908,-1.3896410823885375,-5.85620567260535,0.42400572118160224,-1.470014804586207,0.912063194005031
1765408761.02767,-8.200113655505437,-1.3513916777050956,-5.7975507872027965,0.4239858629639629,-1.472750138831405,0.9046625308981465
1765408761.02789,-8.252476367041254,-1.3158754487523643,-5.740003767463848,0.42422281204738577,-1.475187600965362,0.8971349994217006
1765408761.028223,-8.3014988807319,-1.2834518754313293,-5.683284136002439,0.4246792570491428,-1.4773324660450864,0.889492529253781
1765408761.028557,-8.347566248831338,-1.2544335551155812,-5.627239127010519,0.4252989793816174,-1.4792126021390062,0.8817495683147007
1765408761.028915,-8.39111801712725,-1.2290368440273618,-5.571878385128206,0.4260107567395538,-1.4808745436744872,0.8739226317512485
1765408761.029165,-8.432586581837352,-1.2073417519289853,-5.517389833262391,0.42673334541873176,-1.4823782760240418,0.8660300395900274
1765408761.029415,-8.472340606121035,-1.189271970534207,-5.464138512275654,0.42738105122801195,-1.4837912816377339,0.8580918415856844
1765408761.029665,-8.510637893524624,-1.1746004303005062,-5.412650802137803,0.42786935182409885,-1.4851824101942983,0.8501298299324379
1765408761.029925,-8.547591097911232,-1.162979448487211,-5.363586702533654,0.4281200752218967,-1.4866161047535005,0.8421674809397645
1765408761.030175,-8.583148814629752,-1.1539887948914764,-5.317701918664884,0.4280657484335024,-1.4881474184524808,0.8342296670071762
1765408761.030425,-8.617094439157142,-1.147190744636476,-5.2757992622480945,0.4276528660271235,-1.489818105325172,0.8263420356298813
1765408761.030675,-8.649065519846445,-1.1421793930342057,-5.238667017818749,0.4268439542217951,-1.4916539231745287,0.8185300401794299
1765408761.03086,-8.678595842485732,-1.1386130255331257,-5.2070027981739235,0.4256184121161107,-1.4936631987387976,0.8108177043676587
1765408761.031193,-8.705179860482758,-1.1362232138971193,-5.181325408893889,0.42397221234754867,-1.4958366770493745,0.8032262878457237
1765408761.031527,-8.72835477124627,-1.134801473553211,-5.161882002651124,0.42191665051218036,-1.4981486668324366,0.7957730720961589
1765408761.031844,-8.74779146801302,-1.1341714934112301,-5.148560880007765,0.4194764377650011,-1.500559458952792,0.7884704828973749
1765408761.032094,-8.763383324089576,-1.134159207840269,-5.140821559827042,0.4166875068394534,-1.5030189176904742,0.7813256982434335
1765408761.032344,-8.775321469669695,-1.1345723517840365,-5.137654269507093,0.413594909662298,-1.5054710342529152,0.7743407710445922
1765408761.032594,-8.784146184876626,-1.1351960972470025,-5.137580721070375,0.4102510986176378,-1.5078591098475378,0.7675131644691501
1765408761.032858,-8.790765641307509,-1.1358044858749614,-5.138705567114622,0.4067147194662682,-1.5101311237447412,0.7608365061775814
1765408761.033108,-8.796435691932107,-1.1361814561681292,-5.138821910471764,0.4030498558100658,-1.5122447615536687,0.7543013472840386
1765408761.033358,-8.802698551520242,-1.136141849188984,-5.135564631973628,0.39932550407673795,-1.514171552786391,0.747895759581314
1765408761.033608,-8.811284060461785,-1.1355421999064228,-5.126594625455135,0.395614947294189,-1.5158996214211569,0.7416056969420733
1765408761.033875,-8.823983216910415,-1.134273477534469,-5.109789876995828,0.39199464401929734,-1.5174347187732344,0.7354151553702193
1765408761.034208,-8.842507832572558,-1.1322332448685528,-5.083418950985451,0.38854227431220545,-1.5187994790149435,0.7293062597530547
1765408761.034542,-8.868351562555699,-1.1292819938883307,-5.046278137353224,0.38533371289080537,-1.5200311282525434,0.7232594534228692
1765408761.034858,-8.90266600774275,-1.1251952535098346,-4.997781934904617,0.38243892787944167,-1.521178067131478,0.7172539492807015
1765408761.035108,-8.94616136453689,-1.1196265906015876,-4.938004683402391,0.37991707858263873,-1.5222957870045413,0.7112685180300538
1765408761.035358,-8.999035619404099,-1.112095192072249,-4.867677561973632,0.37781132836458026,-1.5234425264558964,0.7052825633017398
1765408761.035608,-9.060932081191236,-1.1020056900402826,-4.788149183460398,0.3761440391250301,-1.5246750017445954,0.699277309972158
1765408761.036914,-9.1309240080066,-1.0886994069195612,-4.701318811953407,0.37491305128230973,-1.5260444642730013,0.6932368636202605
1765408761.037247,-9.207526903686011,-1.071528339643358,-4.609548539049491,0.37408968269789294,-1.5275932339734906,0.6871489172435192
1765408761.037581,-9.288741616034638,-1.049938437523819,-4.515556234350202,0.37361890949669935,-1.5293517566796704,0.6810049684694739
1765408761.036992,-9.372132351127794,-1.023547396290372,-4.422287799997537,0.3734219301453768,-1.5313361921902755,0.6748000158234991
1765408761.037242,-9.45494174931832,-0.9922030861892288,-4.3327673894648715,0.37340098791549925,-1.5335465716203394,0.6685317938467437
1765408761.037492,-9.534240408525452,-0.9560112521752897,-4.249927579126641,0.37344598359572523,-1.535965634425989,0.6621996873386243
1765408761.037742,-9.607102533878896,-0.9153259854956112,-4.176426131476319,0.3734421133476453,-1.5385585354030717,0.65580353928822
1765408761.037952,-9.670795115648476,-0.8707040678849466,-4.114460524107711,0.3732775925104703,-1.5412736768269213,0.6493426135763909
1765408761.038202,-9.72296618017937,-0.8228329937884032,-4.065595615724803,0.3728505372873773,-1.5440449252299946,0.6428149562566472
1765408761.038452,-9.761817302308657,-0.7724490177428327,-4.03062322282992,0.37207427406659654,-1.546795358049345,0.6362173002215697
1765408761.038702,-9.786245452574558,-0.7202631958477554,-4.009473276206005,0.3708806636273703,-1.5494424462739749,0.629545502146324
1765408761.038919,-9.79593963873412,-0.6669095386227301,-4.001192801684838,0.3692213701782626,-1.5519042903952656,0.6227953485242128
1765408761.039252,-9.79142030280423,-0.6129219327939001,-4.004000960253646,0.36706729748913375,-1.554106284968672,0.6159634819668618
1765408761.039586,-9.774014880987258,-0.5587387153876898,-4.0154175449410685,0.36440662190413875,-1.5559874465757302,0.6090482090461558
1765408761.03985,-9.74577007290286,-0.5047284359026747,-4.032451750426469,0.36124197078653053,-1.5575056244154377,0.6020500343990898
1765408761.0401,-9.709308028825873,-0.45122793610270506,-4.051830780786051,0.35758732524651304,-1.5586409399169077,0.5949718642723387
1765408761.04035,-9.667638535046832,-0.3985832178515333,-4.070245692727598,0.35346516698118957,-1.559397063495097,0.5878188903359076
1765408761.0406,-9.6239422770935,-0.34718365756074343,-4.084594299467316,0.34890425244432977,-1.559800271222435,0.5805981993345655
1765408761.040905,-9.58134187207011,-0.2974810914050839,-4.092205227586328,0.3439382112593629,-1.5598965310087338,0.5733181795455826
1765408761.041155,-9.542678033696234,-0.24998792841248235,-4.091030163731107,0.33860496608824414,-1.55974706322024,0.5659878257353036
1765408761.041405,-9.510308119861824,-0.20525313614079438,-4.079792164062892,0.3329467952282994,-1.5594228917547592,0.5586160703257165
1765408761.041655,-9.485943177774871,-0.16382070706508123,-4.058078588752386,0.32701073577445056,-1.5589988968056714,0.5512112640170178
1765408761.041911,-9.47053701677124,-0.12617985170923438,-4.026369795058939,0.3208489702293354,-1.5585478415913394,0.5437808821927176
1765408761.042244,-9.464236686674745,-0.09271777174551846,-3.985999156340861,0.31451886029373793,-1.558134772260949,0.53633146613718
1765408761.042578,-9.466398491176488,-0.06368417195089345,-3.939044987641881,0.30808237918468906,-1.5578120818850119,0.5288687543066224
1765408761.042931,-9.475668003453764,-0.039172889837757734,-3.888159847665238,0.3016048125830903,-1.5576154227396775,0.5213979320398046
1765408761.043181,-9.490116856764415,-0.019121856660427997,-3.8363478283556773,0.2951527119146006,-1.55756059533149,0.5139239268281005
1765408761.043431,-9.507423711194557,-0.0033293606543600045,-3.786706148278667,0.2887911878088316,-1.5576415512792792,0.5064516989991696
1765408761.043681,-9.525082720964797,0.008517315558506608,-3.7421525713008656,0.282580735099692,-1.5578296834983603,0.4989865115339067
1765408761.043855,-9.540621016580749,0.01680562981007091,-3.7051630381916865,0.27657387246770454,-1.5580745813760946,0.49153418327473425
1765408761.044105,-9.551806794905762,0.021958671803499436,-3.6775438473065107,0.2708119397396944,-1.5583063663237378,0.48410132690182023
1765408761.044355,-9.556830349289573,0.02439753343139416,-3.660260697346509,0.2653224162803289,-1.5584396061938959,0.47669555809627034
1765408761.044605,-9.554441639927044,0.02450906292683869,-3.653343437693064,0.2601171007603645,-1.5583786627755714,0.46932564836425333
1765408761.044849,-9.544031063890078,0.022622799582113613,-3.65587963997243,0.2551914172604767,-1.558024166117986,0.4620015879778528
1765408761.045099,-9.525645939128395,0.019000452123508645,-3.6661011232333927,0.2505249871410801,-1.5572801410003039,0.4547345336694418
1765408761.045349,-9.49994335529502,0.01383974126599276,-3.681555563346369,0.24608345141392762,-1.5560611632765577,0.447536638385147
1765408761.045599,-9.468088476681823,0.007291953755059297,-3.6993422759055097,0.2418213694061543,-1.5542988436624725,0.4404207858516799
1765408761.045901,-9.431613570160234,-0.0005100273689932955,-3.7163807964899296,0.23768587473017708,-1.5519469705496345,0.4334002690318619
1765408761.046234,-9.3922554513725,-0.009418624942501716,-3.7296770470131984,0.23362066186132105,-1.5489848188908684,0.4264884558525318
1765408761.046568,-9.351788266990582,-0.01924017159374598,-3.736556542464131,0.22956983655475285,-1.5454184239156792,0.41969847524568105
1765408761.046921,-9.311866329313519,-0.02971178186171003,-3.734844876514829,0.22548120761681284,-1.541279927375908,0.41304293102930173
1765408761.047171,-9.273889068871945,-0.04049106769806424,-3.722987497591067,0.22130871227161375,-1.5366253122479316,0.40653362750772903
1765408761.047421,-9.238896820698086,-0.05116061672299049,-3.7001097266479035,0.2170138184202301,-1.5315309104583643,0.400181290195115
1765408761.047671,-9.20750212579734,-0.06124722153316442,-3.66602352215927,0.21256590466294,-1.526089046957633,0.39399528221722263
1765408761.047923,-9.179857614604336,-0.07025477624850478,-3.6211907669582244,0.20794177158923677,-1.5204031266383937,0.38798332526300955
1765408761.048173,-9.15565941575043,-0.0777085825798867,-3.5666543218882714,0.2031245790505585,-1.5145823935756757,0.38215122002805124
1765408761.048423,-9.134184358505173,-0.08320678032846168,-3.5039472285138173,0.19810260894270237,-1.5087365062671392,0.3765025375674745
1765408761.048673,-9.114359213400778,-0.0864720924577924,-3.4349871398572596,0.19286828386469843,-1.5029700131095285,0.3710382431127465
1765408761.048887,-9.094859855241273,-0.08739527870018737,-3.361959035760732,0.18741780854639703,-1.49737681429762,0.3657562297060812
1765408761.049137,-9.07423651070255,-0.0860616161697452,-3.287187171747089,0.1817516537542925,-1.4920347584822247,0.36065077422197384
1765408761.049387,-9.051057870582754,-0.08275348883939228,-3.2129980331716474,0.1758759045097537,-1.487000609087028,0.3557119723768217
1765408761.049637,-9.024063093832794,-0.07792545922722492,-3.141578490482107,0.16980428768157627,-1.4823056953689124,0.35092525595093454
1765408761.049903,-8.992308619732444,-0.0721525952120625,-3.074835587337276,0.16356051550901426,-1.4779526323639274,0.3462711300541083
1765408761.050153,-8.955296983095336,-0.06605745138866366,-3.014265900041896,0.15718045779657902,-1.4739135411267448,0.34172526614434395
1765408761.050403,-8.913076518564802,-0.06022472101783938,-2.9608435710104994,0.15071360734221437,-1.4701301798454092,0.3372590384144688
1765408761.050653,-8.86630274940866,-0.055114422394928926,-2.9149369841843535,0.1442233478808629,-1.4665162598084691,0.33284051644221413
1765408761.050876,-8.816254140404318,-0.05098461665249506,-2.876263996589468,0.13778567366315558,-1.462961977203092,0.3284358531728048
1765408761.051209,-8.764797182433185,-0.0478333188642027,-2.843894133660929,0.13148621992035983,-1.4593405097870407,0.32401094856555546
1765408761.051543,-8.714298934302215,-0.04536647052014317,-2.816303081727339,0.1254156978784562,-1.455515975805512,0.31953323049501287
1765408761.051879,-8.667489402493938,-0.04299496278099192,-2.791480085876849,0.1196640430477302,-1.4513521626728498,0.31497338480494447
1765408761.052129,-8.627281377134139,-0.03986001262514032,-2.767082447499597,0.114313757288326,-1.446721214559398,0.31030689332234573
1765408761.052379,-8.596561056360601,-0.034884021036365266,-2.740623862356671,0.10943304663977614,-1.4415114398514284,0.30551529077149425
1765408761.052629,-8.577967912074044,-0.026843433473318287,-2.7096766467702924,0.10506942801573589,-1.4356334897961158,0.30058710191578686
1765408761.052901,-8.573685103524808,-0.014459889845509834,-2.672064464509328,0.10124449502427754,-1.429024381186058,0.29551844791050885
1765408761.053151,-8.585260988831704,0.003495088245966194,-2.6260236734186404,0.09795048207702961,-1.4216491621012284,0.29031331195213916
1765408761.053401,-8.61347818944817,0.02808863367605423,-2.5703173903526935,0.09514913323122351,-1.413500379496036,0.2849834415741131
1765408761.053651,-8.658280814200626,0.06011713338237984,-2.5042946362885288,0.0927731731967614,-1.4045958068539466,0.2795478601129263
1765408761.053993,-8.718764197092442,0.10000880508967097,-2.4278951601688163,0.09073041012326456,-1.3949750537443417,0.27403197404266216
1765408761.054243,-8.793225375868607,0.14774794289420923,-2.341607253299686,0.08891019223871224,-1.3846956839479965,0.26846628774593395
1765408761.054493,-8.879266819974882,0.2028293417809438,-2.2463904286890797,0.0871916299025592,-1.373829349081285,0.2628847658543779
1765408761.054743,-8.973941013614398,0.26424930711343003,-2.1435773336918023,0.08545274606309859,-1.3624582680575301,0.25732292210340246
1765408761.055036,-9.073919986758074,0.3305363143638866,-2.0347700346957547,0.08357959543063993,-1.3506722138259688,0.2518157619906784
1765408761.055286,-9.175672550288494,0.399820039325616,-1.9217448454525698,0.08147442263998553,-1.338566039706404,0.24639574329172753
1765408761.055536,-9.275633450047733,0.46993319015328705,-1.806376676124338,0.07906209543767459,-1.3262376819331831,0.2410909230243694
1765408761.055786,-9.370352693929659,0.5385374015235784,-1.6905881907783349,0.07629430310707624,-1.3137864882581272,0.23592343318271852
1765408761.058651,-9.456618818648906,0.6032627018199427,-1.5763217943233783,0.07315129407817188,-1.3013116366992714,0.23090838829522778
1765408761.058901,-9.531555429129067,0.6618493778459335,-1.4655258177939152,0.06964119527541156,-1.288910351984608,0.2260532916092073
1765408761.059151,-9.592694625333463,0.7122810257323011,-1.360142582622202,0.06579719165551692,-1.2766756431966204,0.22135797748648212
1765408761.059401,-9.638032842377758,0.7528982974233088,-1.2620864651897585,0.061673040800435924,-1.2646933895282344,0.21681509789295642
1765408761.05873,-9.66607388012057,0.7824848845247707,-1.173204010215464,0.05733753723504431,-1.2530387649456818,0.2124111205582624
1765408761.05898,-9.675861456026393,0.8003207493520491,-1.0952135658488895,0.05286859889206169,-1.2417721776477357,0.20812775507399092
1765408761.05923,-9.667001125082813,0.8062016557473023,-1.0296268684421066,0.048347608749214746,-1.2309350767865912,0.2039436734879554
1765408761.05948,-9.639669985997845,0.8004274873310664,-0.9776586870482644,0.043854519542083,-1.220546111604134,0.19983636074078803
1765408761.058893,-9.594612263830447,0.7837640788765412,-0.9401331808374872,0.039464054281678436,-1.2105981722318133,0.1957839294008094
1765408761.059143,-9.53311903961403,0.757384375506417,-0.917397055574088,0.0352431458426023,-1.2010567780182093,0.19176676480905167
1765408761.059393,-9.45699062506097,0.7227948771573792,-0.9092496125395847,0.03124957582451519,-1.191860135133248,0.1877689211744247
1765408761.059643,-9.368480363640765,0.6817526742025969,-0.9148984513003607,0.02753161758734033,-1.182921008663351,0.1837792453132014
1765408761.059881,-9.270219386393434,0.6361772506120654,-0.9329475180366679,0.024128392097664514,-1.1741303852069362,0.179792238689371
1765408761.060131,-9.165123443355878,0.5880602041401708,-0.9614216761194102,0.021070623860278487,-1.1653627561635194,0.17580866856954744
1765408761.060381,-9.056285105130458,0.5393755572660738,-0.9978289635686997,0.01838151991798509,-1.1564827227992476,0.17183591517699712
1765408761.060631,-8.946856446788564,0.4919933724245459,-1.0392586088879618,0.016077558015195663,-1.1473525052632292,0.16788801579412843
1765408761.060944,-8.839928096200445,0.44759963313359824,-1.0825103799510933,0.014169045560694702,-1.1378398415201905,0.16398535640033798
1765408761.061194,-8.738410546946966,0.40762557132874055,-1.1242488764544594,0.012660394149543149,-1.127825707033575,0.16015397188829955
1765408761.061444,-8.644923683322034,0.3731896753603242,-1.161174251323608,0.011550133863509912,-1.1172112782809218,0.15642444197651306
1765408761.061694,-8.561700605273044,0.3450554084585608,-1.190198442393848,0.010830751722301272,-1.1059236026795405,0.1528304033929356
1765408761.061943,-8.49051107131285,0.3236072091035451,-1.2086143222170254,0.01048847292829989,-1.0939195266506974,0.149406736441103
1765408761.062193,-8.432607465190689,0.30884673138552265,-1.214245341228542,0.010503115064491548,-1.0811875712757275,0.14618752557524017
1765408761.062443,-8.38869314060929,0.3004104702281291,-1.2055650847190964,0.0108481378957842,-1.0677476202221252,0.14320393411569268
1765408761.062693,-8.358911237286277,0.2976086129188544,-1.1817785854788945,0.011490988146677858,-1.0536484787901235,0.14048216140885741
1765408761.062939,-8.342852278001018,0.29948304732400255,-1.1428597248715695,0.012393805083085319,-1.0389635522323826,0.13804165419232317
1765408761.063189,-8.339580032055471,0.3048803891403537,-1.0895419816434198,0.01351451504939782,-1.0237850482593298,0.13589371808268358
1765408761.063439,-8.34767593692592,0.31253437734538575,-1.0232633591985545,0.014808306869321402,-1.0082172125863686,0.13404062945620687
1765408761.063689,-8.365302239219965,0.32115141821897786,-0.9460700614788802,0.016229446275348593,-0.9923691566446736,0.13247529670379202
1765408761.063874,-8.390283081281076,0.32949334282538445,-0.8604866348496986,0.01773334902662506,-0.9763478423860195,0.13118146872219838
1765408761.064124,-8.4202012866299,0.33645226036947296,-0.7693625196145187,0.019278784050170233,-0.9602517491821626,0.13013443994548446
1765408761.064374,-8.452506750031091,0.34111350041062743,-0.67570647536986,0.020830028962823936,-0.9441656501482114,0.1293021623713228
1765408761.064624,-8.484630528482167,0.34280392654550174,-0.5825210833278909,0.02235876874893642,-0.9281567706354533,0.12864665438885883
1765408761.064881,-8.514097759690245,0.341124195583633,-0.49264881143097616,0.023845531401741598,-0.9122724241384431,0.1281255993962993
1765408761.065131,-8.538633043840262,0.33596458937487933,-0.40863861788014,0.02528050015121571,-0.8965390733799204,0.12769405095937914
1765408761.065381,-8.556253740492838,0.3275047524182961,-0.33263837859784307,0.026663618139160433,-0.8809626749061095,0.12730618845862934
1765408761.065631,-8.565348638442158,0.31619803321924567,-0.26631482397765627,0.028003981582279177,-0.8655301217609187,0.12691708099158075
1765408761.065859,-8.56474033434754,0.30274120382024616,-0.21080050543657228,0.029318585702435788,-0.8502115824150815,0.12648441688153333
1765408761.066059,-8.553729209814028,0.2880304299323121,-0.166667027543052,0.030630542969537305,-0.834963542262584,0.12597014675565407
1765408761.066259,-8.532116289904186,0.2731050318004984,-0.1339244004841602,0.03196693225857466,-0.8197323781254144,0.12534197135597813
1765408761.066459,-8.500202532390466,0.2590819600712162,-0.11204662303593542,0.03335645283993408,-0.8044583123925244,0.12457458867008885
1765408761.066659,-8.458763083572622,0.24708536544914195,-0.10002318697368061,0.034827049694999265,-0.7890795841429636,0.12365061251593737
1765408761.066887,-8.408996170555136,0.23817631476811704,-0.09643537221226414,0.03640365750762992,-0.773536642253652,0.12256108995659343
1765408761.067137,-8.35244757274061,0.23328742523597626,-0.09955500086168356,0.038106190327880284,-0.7577761266455622,0.12130556770639762
1765408761.067387,-8.290913457649053,0.23316660517334006,-0.10746146916041194,0.0399478855757297,-0.7417543801867084,0.11989167978629353
1765408761.067637,-8.226327042389478,0.23833388023601626,-0.11817019607332657,0.041934090922292944,-0.7254402413792601,0.11833425588400621
1765408761.067905,-8.160637709598344,0.24905520572094214,-0.12976256273728048,0.044061553225532304,-0.7088169113284717,0.1166539946005175
1765408761.068155,-8.095693774645481,0.26533620128639784,-0.14050535461104796,0.04631822749444255,-0.6918827647062764,0.11487580643794193
1765408761.068405,-8.033140678668367,0.2869363519349626,-0.14894816784358925,0.048683580548652836,-0.6746510729922283,0.11302698500659186
1765408761.068655,-7.974344265016108,0.31340112465592296,-0.15399040772824202,0.0511293330746306,-0.6571487085526686,0.11113538547352833
1765408761.068845,-7.920344640326948,0.3441070021445103,-0.15491406218076206,0.0536205677584652,-0.6394139822354997,0.10922776837922153
1765408761.069095,-7.8718414737959135,0.37831342072261637,-0.15138285658345962,0.0561171213592307,-0.6214938341816918,0.10732841580257194
1765408761.069345,-7.8292077030336635,0.4152158720808498,-0.1434120847241054,0.05857517247462,-0.6034406505941432,0.10545806642036583
1765408761.069595,-7.792525916430437,0.4539954290453612,-0.13131623520082722,0.06094894216037612,-0.5853090047045553,0.10363316590780264
1765408761.069877,-7.761640253064573,0.49386126762610516,-0.115642984328408,0.063192442524455,-0.5671525992298875,0.10186539841835879
1765408761.070077,-7.7362166327715585,0.5340841760728423,-0.09710169001128628,0.06526122353841006,-0.5490216260171529,0.10016145125432163
1765408761.070277,-7.715805324078335,0.5740203975431624,-0.07649265759951016,0.06711406450691174,-0.5309606881741219,0.09852296334981953
1765408761.070477,-7.6999014976271605,0.6131262492585929,-0.054641414724582046,0.06871453881794433,-0.5130073750534111,0.09694661763211167
1765408761.070677,-7.688000582581475,0.6509646299013624,-0.03234090176087758,0.07003237147322218,-0.4951915346919074,0.09542435579742348
1765408761.070885,-7.679645624575322,0.6872047419188605,-0.010303848974325574,0.07104452192732788,-0.47753523496550804,0.09394371204342167
1765408761.071135,-7.6744639488833295,0.7216163248516362,0.010872818564023988,0.07173594995164735,-0.46005334856219016,0.09248826679605872
1765408761.071385,-7.672191104476332,0.7540597274585331,0.03073049423548196,0.07210004255116027,-0.4427546560071755,0.09103820867575543
1765408761.071635,-7.67268158308997,0.7844733421635589,0.04895867231411364,0.0721386898504638,-0.4256433339142723,0.0895709733069468
1765408761.07188,-7.675907541881805,0.8128600931423958,0.06539395904212064,0.07186200073441633,-0.4087206659768436,0.08806191557544127
1765408761.07213,-7.681947839981575,0.8392745415293429,0.08001118466994156,0.07128764941189229,-0.3919867885453378,0.08648497412913056
1765408761.07238,-7.690969829198412,0.8638116622814778,0.09290910410590575,0.07043984955615204,-0.3754422910129386,0.08481330074145972
1765408761.07263,-7.703205878460098,0.8865976498695514,0.10429191294041476,0.06934797278737098,-0.35908954162733037,0.08301984587308363
1765408761.072844,-7.718926178690313,0.9077825573898892,0.11444692182271961,0.06804486319273548,-0.3429336697275251,0.08107790840192368
1765408761.073094,-7.738409345780811,0.9275343277546101,0.12371896471863872,0.06656493707791633,-0.3269831727217102,0.07896166859911272
1765408761.073344,-7.7619125420363995,0.9460336771532103,0.1324827785587668,0.06494218593367146,-0.31125013292852816,0.07664673004642542
1765408761.073594,-7.789642859445296,0.9634691393555621,0.14111462523696258,0.0632082205024366,-0.29575004899528307,0.07411069919615446
1765408761.073827,-7.821731553419977,0.9800314751364434,0.14996401996425204,0.06139050875341035,-0.2805013166511783,0.07133382869618829
1765408761.074077,-7.858212799122074,0.9959068390375975,0.15932673016518226,0.05951096638426168,-0.26552442190744346,0.06829974141541773
1765408761.074327,-7.89900901878298,1.0112685313058696,0.16942146922986334,0.057585042078745534,-0.25084092981855743,0.06499623778598061
1765408761.074577,-7.943924857219984,1.026267528002755,0.18037360073576955,0.055621391796049253,-0.23647237063989504,0.06141616945292584
1765408761.074863,-7.992651010626851,1.0410221404552036,0.19220839233085144,0.053622164903521556,-0.22243914281129132,0.05755833582079288
1765408761.075113,-8.044777698433641,1.0556073058624051,0.20485434435642177,0.051583852146535374,-0.20875955274817487,0.0534283309081301
1765408761.075363,-8.099816510669822,1.0700443218194122,0.21815545560917252,0.049498588663477165,-0.19544908446016365,0.04903924683233294
1765408761.075613,-8.157228992325948,1.0842921362325109,0.23189070628958927,0.047355768217883745,-0.18251994986153514,0.04441213825824323
1765408761.076664,-8.216460040555978,1.0982412828869712,0.24579869070631524,0.04514380710822691,-0.16998093591399382,0.03957617335553123
1765408761.076864,-8.276973394366117,1.1117111963670256,0.25960435777654406,0.042851899160773914,-0.15783754643535566,0.03456843535788683
1765408761.077064,-8.338285574731465,1.1244512165214513,0.2730438957601694,0.04047162328508201,-0.1460924222637874,0.029433381679424237
1765408761.077264,-8.399994565843315,1.1361452198392783,0.2858842997458971,0.037998291689056905,-0.13474599784019603,0.024222001435484464
1765408761.077464,-8.461800631841419,1.1464193679622496,0.297936101648843,0.03543195189476771,-0.12379731902153401,0.018990727857618846
1765408761.07684,-8.523518166057187,1.1548519786488267,0.3090595905980363,0.03277798183701232,-0.11324492585862615,0.013800156404263882
1765408761.07709,-8.585078407469,1.1609843388343113,0.31916538281728,0.030047252425110832,-0.10308770681398899,0.008713598994810964
1765408761.07734,-8.646523081556435,1.1643316423787908,0.32820980227499447,0.027255874247145862,-0.09332565114525529,0.0037954844596504926
1765408761.07759,-8.707989155832292,1.164393972441962,0.3361854396768666,0.024424580321183595,-0.0839604511057294,-0.0008903911875328081
1765408761.077841,-8.769685452181013,1.1606678830605859,0.34310791305159616,0.021577813900995654,-0.07499592777858662,-0.005282748536224629
1765408761.078041,-8.831862638902207,1.1526593130328957,0.34900053427169053,0.01874259196368283,-0.06643827222083327,-0.0093248010535115
1765408761.078241,-8.89477867956694,1.1398983526027748,0.35387862916660195,0.015947209550250054,-0.05829610511544631,-0.012966256433915323
1765408761.078441,-8.958662135770401,1.1219560870631762,0.3577350109233168,0.013219844326343017,-0.05058035989458516,-0.016165256065153302
1765408761.078641,-9.023676157911146,1.098463503253397,0.3605282414967593,0.010587121243549207,-0.04330398933624506,-0.018890147923376857
1765408761.078856,-9.089886576811109,1.069132155928266,0.36217573132512915,0.008072707986708814,-0.036481494090995305,-0.021120968411639993
1765408761.079106,-9.157237721566421,1.0337758544290203,0.36255367694012625,0.005696028317010616,-0.030128278574627458,-0.02285049454772103
1765408761.079356,-9.225538959927334,0.9923321209271853,0.3615049340455939,0.003471192144796169,-0.024259850233194873,-0.024084732596369937
1765408761.079606,-9.294463592472939,0.9448817199787201,0.35885458919484203,0.0014062399943611669,-0.018890886681282998,-0.024842739028583447
1765408761.079847,-9.36356019608434,0.8916642086334461,0.354431903596857,-0.0004972179235756327,-0.014034201857442717,-0.025155721686666015
1765408761.080047,-9.432275279119965,0.8330871995521187,0.34809667529715277,-0.002243920450098266,-0.00969965111824071,-0.025065435506491814
1765408761.080247,-9.499985242833935,0.769726951019655,0.3397676131815497,-0.003844426608879345,-0.00589303054303015,-0.02462195912177713
1765408761.080447,-9.56603495141853,0.7023182192015703,0.3294497757813027,-0.005314176520459737,-0.0026150478343746346,-0.023881007157974154
1765408761.080647,-9.629779555239088,0.6317322285328507,0.31725760527519287,-0.006672214200824976,0.00013953735536469466,-0.02290098796325059
1765408761.080857,-9.690625615285773,0.5589430960322986,0.3034298999154278,-0.00793966570872363,0.002382499335266814,-0.021740046911166266
1765408761.081107,-9.748067226993557,0.484984781070207,0.28833348496929945,-0.009138074175061685,0.00413236855253379,-0.020453333652494327
1765408761.081357,-9.801713026238458,0.41090221254534254,0.2724534756236711,-0.010287692716031197,0.005414234924691351,-0.019090697887440874
1765408761.081607,-9.851300908964628,0.3377012942455285,0.2563697845575662,-0.011405832916687808,0.0062591271249244655,-0.01769496012855431
1765408761.081836,-9.896698963404242,0.26630275583767316,0.24072159369668303,-0.012505363523288564,0.0067030174229846,-0.016300834641141074
1765408761.082036,-9.937893119379403,0.19750429091497806,0.22616338756127335,-0.01359345122581198,0.006785548589534264,-0.01493451583885187
1765408761.082236,-9.9749638520604,0.13195437749395775,0.2133173458946719,-0.014670631939132282,0.006548608034746593,-0.01361388641343663
1765408761.082436,-10.00805558182129,0.070139964882761,0.20272719742380008,-0.015730294399668433,0.006034881131407548,-0.012349265557946385
1765408761.082636,-10.037343071921445,0.012388956910557075,0.1948181599177052,-0.016758643374506218,0.005286504168530834,-0.011144582794007171
1765408761.082868,-10.062999171631049,-0.041113044720784184,0.18986659017351223,-0.017735182968138377,0.004343914323589606,-0.009998833290105848
1765408761.083068,-10.085167788959502,-0.0902941114265204,0.18798170201222977,-0.01863372158494,0.0032449638838260206,-0.008907649116457791
1765408761.083268,-10.103945166674402,-0.13515979313234538,0.18910046001570904,-0.01942385412368835,0.0020243309718432296,-0.007864820226357372
1765408761.083468,-10.119371527657771,-0.175754967429416,0.1929957320954285,-0.020072831769912054,0.00071322445596645,-0.0068636276399927495
1765408761.083668,-10.131433985403458,-0.21212928331646297,0.19929692971923832,-0.020547693560374412,-0.0006606457593401702,-0.005897901105232742
1765408761.083895,-10.140080249049056,-0.24431044739647895,0.20752142357732115,-0.020817511728021022,-0.0020728786049300485,-0.004962763654795745
1765408761.084145,-10.145241216829781,-0.27228785205831413,0.2171139556240775,-0.020855594167289892,-0.0035020302961988035,-0.004055062549048775
1765408761.084395,-10.14685939807011,-0.2960074899421966,0.2274904433952809,-0.02064148960145733,-0.004929171061251639,-0.0031735132349614142
1765408761.084645,-10.144919496608914,-0.31537776804195244,0.2380823213656043,-0.020162654125508835,-0.006337423064620695,-0.002318606651042897
1765408761.084839,-10.13947735869008,-0.3302845591419956,0.24837776739079867,-0.019415662813531357,-0.007711542381814727,-0.001492347075311335
1765408761.085039,-10.13068364795598,-0.3406126970068518,0.25795653998781093,-0.018406885540054707,-0.009037588744763342,-0.0006978903863914225
1765408761.085239,-10.118799067211254,-0.3462704043303484,0.2665157142514237,-0.01715258821635268,-0.010302707613514728,6.085826004089999e-05
1765408761.085439,-10.104198819921118,-0.3472130156166658,0.27388448639944485,-0.01567846470481303,-0.011495035822899471,0.0007796445941875615
1765408761.085639,-10.087365238870593,-0.3434628554541624,0.2800272848203069,-0.014018646095413706,-0.012603733857456183,0.0014542354431646594
1765408761.08583,-10.068868869480921,-0.3351232010618035,0.28503538648050886,-0.012214269245611425,-0.013619138517081382,0.0020807429312576227
1765408761.08603,-10.049339592481909,-0.3223856600551192,0.28910805261265915,-0.010311712906254444,-0.014533013564778362,0.0026558936762592837
1765408761.08623,-10.029430529955315,-0.30553153510790615,0.29252508112428954,-0.008360624064360223,-0.01533885447237768,0.0031772338009233127
1765408761.08643,-10.00977838467803,-0.28492832400504636,0.29561364671671553,-0.006411857137849824,-0.01603218551863263,0.0036432551513736135
1765408761.08663,-9.990964294106476,-0.2610223281653009,0.29871297861009566,-0.004515437523532377,-0.01661078190496031,0.004053426843531233
1765408761.086892,-9.973479075777849,-0.23432782881680286,0.30214040112401436,-0.002718646172927684,-0.01707475879486932,0.004408127535640756
1765408761.087092,-9.95769597744676,-0.2054129909743955,0.3061615804812522,-0.0010643087295230474,-0.017426491241650455,0.004708494769824455
1765408761.087292,-9.943853004681653,-0.17488284344973604,0.31096694336911596,0.00041063941177533553,-0.017670360138626953,0.0049562253919337475
1765408761.087492,-9.932045866916278,-0.1433602081572751,0.3166555798559909,0.0016762566232259412,-0.017812352715904776,0.005153364283876671
1765408761.087692,-9.92223168243947,-0.11146591065867026,0.3232275640604929,0.002710334180004653,-0.01785957122642224,0.005302107683599707
1765408761.087936,-9.914242765389584,-0.07979967790337313,0.3305852430320725,0.00349876472123957,-0.017819712423938486,0.005404631833942089
1765408761.088136,-9.907809013762389,-0.04892283142818797,0.338543349900523,0.004035557777558325,-0.01770057454672192,0.005462947066065817
1765408761.088336,-9.90258669938183,-0.019343489389853374,0.34684676491494354,0.0043225361790797025,-0.017509636188640217,0.005478775080322786
1765408761.088536,-9.898191032499305,0.008495264143552712,0.355193728475948,0.004368755672747251,-0.017253738994903667,0.005453451038120789
1765408761.088736,-9.894229864695408,0.034223899685320996,0.36326177486760747,0.004189694699051103,-0.016938892745864655,0.005387857142536735
1765408761.088934,-9.890336183284644,0.05755144039715179,0.37073375539012915,0.0038062635359400634,-0.0165702043087091,0.005282395954217823
1765408761.089134,-9.8861973602717,0.07826696637886195,0.3773217555438132,0.0032436814692674517,-0.016151914068245312,0.005137008996256767
1765408761.089334,-9.881579323238029,0.09623795417834423,0.38278714199991515,0.002530268585229969,-0.015687512613389448,0.004951242496482118
1765408761.089534,-9.876344082675228,0.11140602447954136,0.38695542232243846,0.001696197456380454,-0.015179910849852558,0.004724360176345571
1765408761.089734,-9.870459578136886,0.12378077205194915,0.3897252354846783,0.0007722495816640406,-0.014631643742962889,0.004455502250631117
1765408761.089864,-9.864001504463449,0.13343228551303574,0.3910714931662887,-0.00021137915122577974,-0.014045093226644729,0.004143888117707282
1765408761.090064,-9.857147381116949,0.14048277002358708,0.39104315163927644,-0.0012261806778466658,-0.013422716322991144,0.0037890563003379284
1765408761.090264,-9.850163552528697,0.14509745717942374,0.3897562877908585,-0.002246302367211514,-0.012767264256848246,0.0033911287580094145
1765408761.090464,-9.84338621518206,0.14747483079218254,0.38738335553231373,-0.003249339409432507,-0.012081981650050923,0.002951078385915176
1765408761.090664,-9.837198018661534,0.14783618302763843,0.3841397945279935,-0.004216915561139659,-0.011370779811096788,0.002470970968593773
1765408761.090833,-9.832002060507232,0.14641464649105645,0.3802692632250922,-0.005135024898833377,-0.010638379230873726,0.0019541502640631186
1765408761.091033,-9.82819497632267,0.14344408217446108,0.37602846512603466,-0.005994121341816784,-0.009890412867714873,0.0014053396344590597
1765408761.091233,-9.826140470672653,0.13914847005973374,0.37167209709996685,-0.006788958697101408,-0.00913347936697542,0.000830643863773098
1765408761.091433,-9.82614443471325,0.13373264477484792,0.3674383248746845,-0.007518198529905656,-0.008375138724525848,0.00023744662905527425
1765408761.091633,-9.828432930780371,0.12737522674129123,0.3635354706598028,-0.008183816329510775,-0.007623849388350558,-0.00036579000971987666
1765408761.091829,-9.833134560541692,0.1202243684383997,0.360130924463283,-0.008790349909031518,-0.0068888490189779,-0.0009698086914785361
1765408761.092029,-9.840268692260192,0.11239654242844949,0.35734326695909957,-0.009344046726126569,-0.006179979437257289,-0.001564900388280682
1765408761.092229,-9.849740539829332,0.10397820008624192,0.35523812412992245,-0.009851974801487931,-0.005507454084933812,-0.0021412826622036283
1765408761.092429,-9.861343330731712,0.09502983748136024,0.35382759946509373,-0.010321162167072713,-0.004881567966506243,-0.0026894850900715957
1765408761.092629,-9.874767114757868,0.08559181197226887,0.35307263967082364,-0.010757823183538908,-0.004312355527541068,-0.0032007149853673176
1765408761.092818,-9.889613393229642,0.07569110822624239,0.35288765872138217,-0.011166719809019607,-0.003809208241226114,-0.0036671794048834068
1765408761.093018,-9.905414657113834,0.06534817168854043,0.35314708250569643,-0.01155069450144722,-0.003380468759043648,-0.004082344540491425
1765408761.093218,-9.921657867116068,0.05458299809978645,0.3536937759933792,-0.011910399572438226,-0.0030330235303135155,-0.0044411203137038014
1765408761.093418,-9.937810697197717,0.04341993172556303,0.3543492699721296,-0.01224423471600202,-0.0027719226948102276,-0.00473996549247965
1765408761.093618,-9.953349066878031,0.03189100036966393,0.35492543452221575,-0.012548489279091355,-0.0026000627601742896,-0.00497691603069579
1765408761.093821,-9.967784337895841,0.020037952494992416,0.35523707676864874,-0.012817669301865797,-0.0025179685112581254,-0.005151544961999067
1765408761.094021,-9.980688627201237,0.007913357882718118,0.35511494105240093,-0.013044974116932857,-0.002523702136715404,-0.005264864277192198
1765408761.094221,-9.991716838915464,-0.004418817070059714,0.35441855121469595,-0.013222877164417531,-0.0026129116081627267,-0.0053191779546053935
1765408761.094421,-10.000624105903837,-0.01688279037325422,0.35304814089358666,-0.013343762914305732,-0.002779012659791784,-0.0053178934242308655
1765408761.094621,-10.007277410774464,-0.02939042523124792,0.35095468518956763,-0.01340057445376674,-0.003013485037003998,-0.005265299151503366
1765408761.094859,-10.011660358875634,-0.04184043485874711,0.3481469222528873,-0.013387430116331351,-0.003306257140064848,-0.0051663193235649
1765408761.095109,-10.013870459296054,-0.054117381876978725,0.34469429373880756,-0.013300170496669416,-0.0036461531870283143,-0.005026260666010858
1765408761.095359,-10.014108806776013,-0.066090726742331,0.34072496764526167,-0.013136800514286253,-0.004021379533083249,-0.004850567953351553
1765408761.095609,-10.01266267075253,-0.0776143698265955,0.3364185364474674,-0.012897796925616423,-0.00442002712484398,-0.004644602278261146
1765408761.095854,-10.009882084682028,-0.08852727702423133,0.33199353274897414,-0.012586260977738135,-0.004830564056272637,-0.004413451290472825
1765408761.096054,-10.006152037424696,-0.09865582940445106,0.3276905002922042,-0.012207907836290345,-0.005242289300611099,-0.004161776369385407
1765408761.096254,-10.001862339055315,-0.10781843582816426,0.323752006478105,-0.011770896251899147,-0.005645719891752724,-0.0038936996720669065
1765408761.096454,-9.997377662152724,-0.1158326616900189,0.3204016262278581,-0.01128551176584352,-0.006032888992716843,-0.003612734023171241
1765408761.096654,-9.993010453613776,-0.12252467743929085,0.3178242833339237,-0.010763725199345434,-0.006397538480909906,-0.0033217591029737876
1765408761.09686,-9.988999142480617,-0.12774030633540454,0.3161501125166559,-0.01021865616378682,-0.006735195716469638,-0.003023045879697785
1765408761.09706,-9.985493394022464,-0.131356494754735,0.3154433128023866,-0.009663978041646436,-0.007043131245542664,-0.0027183265058442637
1765408761.09726,-9.982547428422272,-0.13329177610693269,0.3156967750446726,-0.009113304494397238,-0.007320202998287504,-0.002408900971613528
1765408761.09746,-9.98012187407466,-0.13351432273465097,0.31683287628180257,-0.008579596695415102,-0.007566601951222752,-0.002095768595733881
1765408761.09766,-9.978094126000682,-0.13204646965229394,0.3187105364461064,-0.008074625233585096,-0.007783522561985782,-0.0017797739642074965
1765408761.097858,-9.976276466068782,-0.12896506325660062,0.32113808358743834,-0.007608513049738029,-0.00797278764912216,-0.001461760839591508
1765408761.098058,-9.974440280189963,-0.12439750884534242,0.32389068697530216,-0.007189378688968541,-0.008136461670105673,-0.0011427289893041835
1765408761.098258,-9.972343880818697,-0.11851386791106902,0.3267304526280472,-0.006823093877279432,-0.008276488052292186,-0.0008239855720997216
1765408761.098458,-9.9697610141464,-0.11151577010767305,0.32942703754758945,-0.006513165300228081,-0.008394383673344965,-0.000507277345133205
1765408761.098658,-9.966507183558942,-0.10362326393537269,0.3317768280382983,-0.006260746241664668,-0.008491015460040191,-0.00019488679307648148
1765408761.098842,-9.962461334448477,-0.09506099899271238,0.33361911960428636,-0.006064778349758491,-0.008566472066750335,0.00011032336681775303
1765408761.099042,-9.957581043972679,-0.08604522663643202,0.33484811088882055,-0.005922256382742077,-0.008620032238109965,0.00040492646655963154
1765408761.099242,-9.951910039626732,-0.07677295806178291,0.3354198438233172,-0.005828599407508029,-0.008650224752319644,0.0006850074469114533
1765408761.099442,-9.945577620059801,-0.06741425327904156,0.3353536146130372,-0.005778101923122957,-0.008654973040575305,0.000946284805273876
1765408761.099642,-9.938790347271155,-0.0581081504791408,0.33472792580875377,-0.005764429710365224,-0.008631816913477891,0.0011842596913160832
1765408761.099932,-9.931817093549803,-0.04896229706214436,0.3336716085889086,-0.005781119714110344,-0.00857819970499522,0.0013943747535062312
1765408761.100132,-9.924968988844652,-0.04005592552729649,0.3323510797701577,-0.005822042338705069,-0.00849180049439766,0.001572173108412405
1765408761.100332,-9.918575987538043,-0.03144540987756873,0.3309547762203962,-0.005881788624919771,-0.008370881695386165,0.0017134562543454988
1765408761.100532,-9.91296181887037,-0.023171320882373763,0.32967586316207825,-0.005955953024093216,-0.008214617685858875,0.0018144444989719709
1765408761.100732,-9.908419186161874,-0.015265817027363623,0.3286945381838215,-0.006041293610390218,-0.008023372161904276,0.0018719427802144906
1765408761.100858,-9.905187214033136,-0.007759403605867973,0.32816153217028904,-0.006135765013782248,-0.007798897234876294,0.0018835096346626519
1765408761.101058,-9.903433094484555,-0.000686432987469154,0.32818443712318873,-0.0062384337027199255,-0.007544432866689615,0.0018476203827368961
1765408761.101258,-9.90323949269685,0.005910985666601383,0.32881812785837816,-0.006349296334808928,-0.007264693207140524,0.001763811008443876
1765408761.101458,-9.904598627361057,0.011980834102568673,0.33005996236051116,-0.006469026465100241,-0.006965739921766184,0.0016327896396950308
1765408761.101658,-9.907413287249879,0.017460866300826692,0.33184994657840494,-0.006598675452625002,-0.006654758714592161,0.0014565075927593857
1765408761.101829,-9.911504545152361,0.02228009175050352,0.3340757554325947,-0.006739354634247707,-0.006339766468177996,0.0012381874552305962
1765408761.102029,-9.916625515815872,0.026361873416824923,0.33658224750075905,-0.006891927583706505,-0.006029278261348334,0.000982307816096707
1765408761.102229,-9.922480023295648,0.02962828630805936,0.33918468672446617,-0.007056739877661465,-0.0057319579277707615,0.0006945429980966272
1765408761.102429,-9.928744505345978,0.03200527659508986,0.34168435469027514,-0.0072334082266422685,-0.005456268471010273,0.00038165385218689475
1765408761.102629,-9.935091105866894,0.03342817160643982,0.34388491403494836,-0.0074206832595206705,-0.00521013422661568,5.132472974975616e-05
1765408761.102827,-9.941209875711014,0.033847182662696755,0.3456079559213629,-0.007616392863133559,-0.005000626064113807,-0.00028805595429946536
1765408761.103027,-9.946828253639211,0.03323260014000303,0.34670646871930055,-0.007817466858939966,-0.0048336821859536186,-0.000627668528973232
1765408761.103227,-9.951726340205614,0.03157934463227782,0.34707523532340917,-0.008020038847661315,-0.00471387764914644,-0.0009585786530583072
1765408761.103427,-9.95574686988623,0.028910490235778217,0.346657403066683,-0.008219616314481558,-0.004644253760770237,-0.0012720827995259378
1765408761.103627,-9.958799366299466,0.025279420248612513,0.3454468794652559,-0.008411305387845968,-0.0046262139766296935,-0.0015600634815630518
1765408761.103903,-9.960858752563396,0.020770391294696437,0.34348681728716624,-0.00859007329613209,-0.004659488183183744,-0.0018153309164771543
1765408761.104103,-9.961959409037245,0.015497365728568427,0.3408649690836503,-0.008751030646764888,-0.004742164470680124,-0.00203192490860967
1765408761.104303,-9.962185973079075,0.009600999574156307,0.33770680041193757,-0.008889716064838005,-0.004870785968160538,-0.0022053517061404503
1765408761.104503,-9.961662008924623,0.0032437354596245595,0.33416698014068613,-0.009002364748890311,-0.005040507791266695,-0.00233273689926794
1765408761.104703,-9.960537352368389,-0.003396875757787532,0.3304195627814422,-0.009086139170268686,-0.005245305600136186,-0.0024128853194752575
1765408761.104867,-9.9589748163861,-0.010136252880658591,0.3266471627136775,-0.009139297969844633,-0.00547822466869416,-0.0024462486991210703
1765408761.105067,-9.957137125591588,-0.016791670680963294,0.32302971229228294,-0.009161283481788315,-0.005731657305472738,-0.0024348093665193093
1765408761.105267,-9.955175214349685,-0.023191241771984533,0.31973372582887216,-0.009152720214395359,-0.005997635332219642,-0.002381893897635914
1765408761.105467,-9.953219051025778,-0.029182265381224662,0.3169030510368836,-0.00911533053853743,-0.006268122509726714,-0.002291935260000228
1765408761.105667,-9.951371795033204,-0.03463827248238815,0.31465182234504974,-0.009051783136921088,-0.0065352914564988426,-0.0021702050234780534
1765408761.105851,-9.949707524196393,-0.039464186930408734,0.3130599772454308,-0.008965492543811045,-0.006791773083540786,-0.0020225372525595315
1765408761.106051,-9.94827228130785,-0.04359914243025181,0.3121714944576651,-0.008860387134460324,-0.007030872711586526,-0.0018550619303825044
1765408761.106251,-9.947087890758064,-0.04701669113714476,0.3119954081291573,-0.008740662069726157,-0.007246751387543478,-0.0016739594962717477
1765408761.106451,-9.946157774628068,-0.04972243000344205,0.31250941869100557,-0.008610535024330611,-0.0074345709687417185,-0.0014852428369128705
1765408761.106651,-9.94547376337861,-0.05174938699069361,0.31366550986387487,-0.008474024757470998,-0.007590600369240204,-0.0012945716900933893
1765408761.106847,-9.94502276598348,-0.053151737401350915,0.3153966399038303,-0.008334772123027828,-0.007712282179391264,-0.0011071055977011832
1765408761.107047,-9.944792329032495,-0.0539975016261093,0.31762358297008436,-0.008195917960275847,-0.007798262826756162,-0.0009274010318117223
1765408761.107247,-9.944774565532144,-0.05436086323420855,0.3202613343043247,-0.008060044116007553,-0.007848391370405291,-0.0007593538640032854
1765408761.107447,-9.94496840570153,-0.05431475290376053,0.3232248395213084,-0.007929175530642303,-0.007863690521841602,-0.0006061818256929268
1765408761.107647,-9.945380337945526,-0.053924397363142855,0.3264338821943313,-0.007804834774927684,-0.007846300919908416,-0.00047043622704708206
1765408761.107841,-9.946023747411674,-0.05324251236384559,0.329816805464612,-0.007688136676753389,-0.007799397911770619,-0.0003540294387720983
1765408761.108041,-9.946916840181336,-0.05230659568741429,0.33331262545536056,-0.0075799093111569675,-0.007727078058003931,-0.0002582644485925579
1765408761.108241,-9.948079183866037,-0.05113840701117888,0.33687123236747557,-0.0074808265432680585,-0.00763420932310752,-0.00018385575924096087
1765408761.108441,-9.949527152241036,-0.04974541098274216,0.3404517709935479,-0.007391535449393741,-0.0075262371420358925,-0.00013093811517718312
1765408761.108641,-9.951268913735198,-0.048123820411415434,0.3440197590403726,-0.007312761071106126,-0.0074089422031115735,-9.906939567660786e-05
1765408761.108916,-9.953299834068432,-0.04626283108177171,0.3475437689646771,-0.0072453734152808464,-0.007288154600340053,-8.724137755043303e-05
1765408761.109116,-9.955599094570818,-0.0441495822730282,0.35099240281286137,-0.007190407492488101,-0.007169438558450129,-9.391314544394795e-05
1765408761.109316,-9.958128003779425,-0.04177431062185446,0.3543319517722625,-0.007149034238559806,-0.007057768614826993,-0.0001170776476985761
1765408761.109516,-9.96083016182958,-0.03913515529839518,0.3575248664793897,-0.007122485880026696,-0.00695722178693162,-0.00015436547903204125
1765408761.109716,-9.963633522481498,-0.03624215818327461,0.3605291368860139,-0.007111943307976178,-0.006870712192502705,-0.00020318339991185272
1765408761.109851,-9.966454395671764,-0.033120164222181926,0.36329874885416596,-0.007118397061439164,-0.006799795123789607,-0.0002608787099487458
1765408761.110051,-9.96920329007921,-0.029810492345717664,0.3657852967977342,-0.007142498546063598,-0.0067445658695754074,-0.0003249146745210149
1765408761.110251,-9.971792107354092,-0.026371334747257714,0.36794051458617466,-0.007184422237317081,-0.006703673695246873,-0.0003930382559942413
1765408761.110451,-9.974141757680298,-0.02287683251320606,0.36971913359929026,-0.007243759826729281,-0.006674462481726239,-0.00046342096551208855
1765408761.110651,-9.976189072717032,-0.019414749860692866,0.3710813718793197,-0.007319462832116426,-0.006653236001632993,-0.0005347560971167944
1765408761.110846,-9.977892056607628,-0.01608275561794205,0.3719945924611593,-0.007409843196780701,-0.006635628928060483,-0.0006062992764670629
1765408761.111046,-9.979232868133181,-0.012983556860694717,0.37243403986329393,-0.007512633790060698,-0.006617048881304295,-0.0006778447742223844
1765408761.111246,-9.98021822369954,-0.010219379922267081,0.372382793725282,-0.007625102762957553,-0.0065931458028450985,-0.0007496391462021616
1765408761.111446,-9.980877073335034,-0.007886364294083762,0.3718310955706387,-0.007744208145434606,-0.006560265004632116,-0.0008222446748222028
1765408761.111646,-9.98125554146931,-0.006069289729906843,0.37077516421573914,-0.007866774055435835,-0.0065158464167200895,-0.0008963724594874251
1765408761.111865,-9.981409374730772,-0.00483686661086945,0.36921568110562786,-0.00798966852996032,-0.006458739959395966,-0.0009727055947173522
1765408761.112065,-9.981394490368775,-0.004237767088560891,0.36715629282344153,-0.008109964059780128,-0.006389413034174169,-0.001051729213795496
1765408761.112265,-9.981256521931462,-0.004297653364123708,0.3646026007599738,-0.008225063824336331,-0.00631003157806399,-0.0011335815017187775
1765408761.112465,-9.98102038752186,-0.005017500280151848,0.3615620607790918,-0.008332779471802755,-0.006224403069949513,-0.0012179398243268385
1765408761.112665,-9.980680882749844,-0.006373386031760435,0.35804500798979616,-0.008431351989153686,-0.006137779167831332,-0.0013039554131614207
1765408761.112869,-9.980195244225166,-0.008317687490287608,0.3540667975344524,-0.008519417616987901,-0.006056525454827951,-0.0013902450845737961
1765408761.113069,-9.979478607969435,-0.010781418686087701,0.3496509597737958,-0.008595934511603684,-0.0059876732924715485,-0.0014749404963309298
1765408761.113269,-9.97840324145475,-0.013677395307327542,0.3448333012300654,-0.008660097450147144,-0.0059383737641502555,-0.00155578836173601
1765408761.113469,-9.976802223862503,-0.016903976332885953,0.33966686527346807,-0.008711271081123134,-0.0059152789789833635,-0.0016302907540590812
1765408761.113669,-9.974477798161205,-0.020349218951154834,0.334227433733903,-0.008748964468218929,-0.005923884208541219,-0.001695872543422116
1765408761.113883,-9.971213984072968,-0.02389528554675618,0.32861885428331133,-0.008772854097436139,-0.005967875160877705,-0.0017500621733051833
1765408761.114083,-9.966792447188094,-0.027422863991954358,0.32297717928687103,-0.00878284631034923,-0.006048535501859444,-0.0017906717652805349
1765408761.114283,-9.961010312089895,-0.030815297572876016,0.3174726290698922,-0.008779159580003923,-0.006164276451541854,-0.001815962355920225
1765408761.114483,-9.95369864118546,-0.03396215269006379,0.3123087222276565,-0.008762404008952089,-0.006310347788919401,-0.001824779873843385
1765408761.114683,-9.944740475484302,-0.03676209051876298,0.30771830015687524,-0.00873363847031177,-0.006478774702214695,-0.0018166482545461918
1765408761.11487,-9.934087393616851,-0.03912509226167892,0.3039563896817191,-0.00869439226912164,-0.0066585406877517905,-0.0017918095671688168
1765408761.11507,-9.921773431918536,-0.040974224876519,0.30128989669486067,-0.00864664483665388,-0.0068360109932180755,-0.0017512082128046647
1765408761.11527,-9.907925072671052,-0.042247164241183174,0.299984169755818,-0.008592761818493212,-0.006995569925818227,-0.0016964258988479439
1765408761.11547,-9.892766028027866,-0.04289762592562678,0.3002866565707936,-0.008535389795471882,-0.0071204297868953355,-0.0016295825698876831
1765408761.11567,-9.876615791424305,-0.042896744157690646,0.3024082358685919,-0.00847731622554189,-0.007193557868337077,-0.00155322170951642
1765408761.115847,-9.85988134866205,-0.04223432943394649,0.3065032920528993,-0.008421305544184708,-0.007198659657129851,-0.0014701948719646307
1765408761.116047,-9.843041932844384,-0.04091983958596689,0.3126500733442375,-0.008369925179774924,-0.007121151483133865,-0.0013835524041454807
1765408761.116247,-9.826627184771278,-0.03898283094395998,0.32083316321353805,-0.008325375773552844,-0.006949056699300015,-0.001296439374840776
1765408761.116447,-9.811189545018001,-0.03647264074689277,0.33092993498784873,-0.008289338674316539,-0.006673768200539691,-0.0012119908212270126
1765408761.116647,-9.79727223292143,-0.033457101905415704,0.3427027461723342,-0.008262852215663532,-0.0062906343986031225,-0.0011332199697511413
1765408761.11686,-9.785374791247108,-0.03002017944056907,0.35579844801627275,-0.008246227358246875,-0.00579933895286324,-0.0010628970121655155
1765408761.11711,-9.7759187967025,-0.02625849156992026,0.3697564471077986,-0.008239012638959906,-0.0052040514803199205,-0.0010034218374035866
1765408761.11736,-9.769216835764665,-0.022276715847325615,0.38402591515930506,-0.008240017270875283,-0.004513329741007737,-0.0009566976596095324
1765408761.11761,-9.765448202390637,-0.018181969569764977,0.39799189971072013,-0.008247399062616468,-0.003739762036707035,-0.0009240110790280833
1765408761.117854,-9.7646449192537,-0.014077575105896795,0.4110093935802136,-0.008258818952447898,-0.0028993574202655146,-0.0009059203180045692
1765408761.118054,-9.766691189943266,-0.010057176579032143,0.42244392196736447,-0.008271654511799648,-0.0020107172747193783,-0.0009021555291715758
1765408761.118254,-9.771337616050662,-0.006200517173408204,0.4317162472305678,-0.008283251988554853,-0.0010940459131101874,-0.0009115487085628621
1765408761.118454,-9.778228449437991,-0.0025717734708468752,0.4383468958879721,-0.008291185342782198,-0.00017007445000747227,-0.0009320260002722119
1765408761.118654,-9.786937022221796,0.0007797078799886832,0.44199437391469354,-0.008293486701248014,0.0007410184633963939,-0.0009606918368854074
1765408761.11885,-9.797003029572364,0.0038173070266951164,0.4424810022176348,-0.008288818900837843,0.0016206040492703453,-0.0009940064413457587
1765408761.11905,-9.807966191233717,0.006514746604717731,0.43980278025820263,-0.00827657630990697,0.002452444195960612,-0.0010280247808216838
1765408761.11925,-9.819392986983678,0.008853807943075363,0.4341230044570472,-0.008256916608765676,0.0032233195029114123,-0.0010586511817362644
1765408761.11945,-9.83089518440629,0.010821783518645196,0.425751754535342,-0.008230732072709624,0.003923405146482589,-0.001081877787783175
1765408761.11965,-9.842140342504917,0.01240834535768492,0.41511472613722905,-0.008199563288688233,0.004546371281218217,-0.001094003131050261
1765408761.119879,-9.852855818945796,0.013602475699527076,0.4027160593878911,-0.008165454896487508,0.00508921541301589,-0.0010918434593191297
1765408761.120079,-9.862828918253296,0.014390982392350512,0.38910055799337145,-0.008130761979727046,0.005551879615594816,-0.0010729376715666904
1765408761.120279,-9.871905896517651,0.014759710008703701,0.37481998101513886,-0.008097929297909295,0.00593673963252,-0.0010357193059260359
1765408761.120479,-9.879991389211243,0.014696996240335169,0.36040596849812995,-0.008069270230312136,0.0062480543453168,-0.0009796185275707666
1765408761.120679,-9.88704830293086,0.014197651132375875,0.34634991509652163,-0.008046766934320194,0.006491439855198983,-0.000905079599944995
1765408761.120884,-9.89309723024736,0.013265844678665942,0.3330887443368874,-0.008031906057765496,0.006673402687971605,-0.000813513771221946
1765408761.121084,-9.89821419919035,0.011916418230864697,0.3209951406574538,-0.008025560593422,0.006800942471886311,-0.0007072194810965734
1765408761.121284,-9.902525756034946,0.010175108919397727,0.310371013522846,-0.008027927526710436,0.0068812174568887155,-0.0005892833591017069
1765408761.121484,-9.906200783177644,0.008078260675322392,0.301443422554005,-0.008038529701723609,0.006921256411587549,-0.00046345104735706665
1765408761.121684,-9.90943904596252,0.005672035458800854,0.2943625977967057,-0.008056284888202621,0.0069276990804785854,-0.0003339522246213545
1765408761.121903,-9.912457166076527,0.003010738996163454,0.28920195671275906,-0.00807963375889341,0.006906556778951285,-0.00020528041239250568
1765408761.122103,-9.915473303979613,0.00015415267998811067,0.28596020149035345,-0.008106705586265063,0.0068630028519293075,-8.194674204158468e-05
1765408761.122303,-9.918692096908972,-0.002835564649692488,0.2845656810930718,-0.008135493120056412,0.006801218644750183,3.176797352966508e-05
1765408761.122503,-9.922291357424891,-0.005896516583399167,0.2848832034256691,-0.00816401028915466,0.006724321817455246,0.0001320464692410223
1765408761.122703,-9.926411821110728,-0.00896878128452003,0.2867234246026285,-0.008190416913552113,0.006634388963727297,0.0002157460673638444
1765408761.122856,-9.93115083457143,-0.011995528008446879,0.2898547833402843,-0.008213108398219983,0.006532563351836371,0.00028057936150955844
1765408761.123056,-9.936560188600279,-0.01492428637457685,0.2940175317567586,-0.008230778536505655,0.006419220783246367,0.0003252463676896007
1765408761.123256,-9.942647448569389,-0.01770873453589333,0.29893877366191385,-0.008242465953512641,0.006294156182348117,0.000349491073040106
1765408761.123456,-9.949379546429208,-0.020310591731941014,0.3043469459324286,-0.008247590629550902,0.006156752860727814,0.0003540604074797483
1765408761.123656,-9.95668742690695,-0.02270085845004722,0.30998426965044434,-0.008245980160330756,0.00600610680872229,0.0003405664963259713
1765408761.123847,-9.964471079361891,-0.024860105137502007,0.3156163311502668,-0.008237879127591089,0.005841096607104408,0.0003112808160446793
1765408761.124047,-9.97260485916301,-0.026778238680274402,0.3210386683081437,-0.008223931324025316,0.005660407934952054,0.00026890111983798485
1765408761.124247,-9.980943181197304,-0.028454356581728336,0.32608057389169764,-0.00820512471459029,0.005462533145100864,0.0002163222950853754
1765408761.124447,-9.989326432067735,-0.02989673977764762,0.3306062685819498,-0.008182693609275423,0.005245768725907919,0.00015642589766330902
1765408761.124647,-9.997586663623734,-0.03112234955351432,0.3345135350246043,-0.00815798195078018,0.005008229870060077,9.189790171766112e-05
1765408761.12486,-10.005552669407292,-0.03215509838214964,0.33773016395284633,-0.008132283330115144,0.004747897548534572,2.509056608659312e-05
1765408761.12506,-10.01305442069963,-0.033022741758451886,0.34020905074554064,-0.008106681551124829,0.004462711717497939,-4.20518084984685e-05
1765408761.12526,-10.019927246984809,-0.03375295290861096,0.34192314278557506,-0.008081916760572837,0.0041507202664059365,-0.00010799300540922887
1765408761.12546,-10.026016291171155,-0.034369454438687504,0.34286141123698405,-0.00805829821580352,0.003810281582382019,-0.00017154077660988025
1765408761.12566,-10.031181572972324,-0.0348889069044921,0.34302657352728294,-0.0080356788399149,0.00344030067838785,-0.00023174632435593503
1765408761.125829,-10.03530358260834,-0.03531887287897503,0.3424346064614887,-0.008013499348606795,0.0030404632896701583,-0.00028780040492425136
1765408761.126029,-10.038288956628413,-0.035656870306146796,0.34111551366043774,-0.007990900109093342,0.0026114275613509,-0.00033895046073807397
1765408761.126229,-10.040075691286642,-0.035890420235094034,0.33911466479013896,-0.007966887767349261,0.0021549412381780837,-0.0003844476437969079
1765408761.126429,-10.040637528693539,-0.0359980727898493,0.3364942792896156,-0.00794053383841889,0.0016738688590884532,-0.0004235195071355599
1765408761.126629,-10.039987343903693,-0.03595153479748405,0.33333488151654495,-0.007911176569713298,0.0011721297238414894,-0.0004553606393026128
1765408761.126838,-10.03817929938233,-0.03571900161373495,0.3297364619031014,-0.00787859662301435,0.0006545569043371314,-0.00047913976531584255
1765408761.127038,-10.035309224971765,-0.035269496413213745,0.3258187232295887,-0.007843141839845018,0.0001266901300506632,-0.0004940297880266617
1765408761.127238,-10.031512406347321,-0.034577607309359326,0.321719538449245,-0.007805785686909725,-0.00040548441972866,-0.0004992674965126186
1765408761.127438,-10.026958032185364,-0.03362779523260046,0.31759086666605674,-0.007768114686270918,-0.0009358309988556836,-0.0004942403960515674
1765408761.127638,-10.021840064998429,-0.03241757472998356,0.3135918934654501,-0.007732248824558897,-0.0014583723536332916,-0.0004785856896030008
1765408761.127835,-10.016365103367155,-0.030959248345908102,0.30987992037434964,-0.007700704858857844,-0.00196757349989052,-0.000452279191788788
1765408761.128035,-10.010738588471156,-0.029280292696292943,0.3066002508659574,-0.007676216468228501,-0.0024585656225953652,-0.00041569490412985126
1765408761.128235,-10.005151196318494,-0.027422752790559512,0.30387671900652835,-0.0076615275652261025,-0.0029272896266037698,-0.0003696280037824853
1765408761.128435,-9.999767293117817,-0.02544197276916249,0.30180441873964775,-0.00765917521465546,-0.003370561018175226,-0.00031528776255965353
1765408761.128635,-9.994716904809227,-0.023404700418761533,0.30044565915903115,-0.0076712769022259306,-0.0037860723855203914,-0.0002542737048635556
1765408761.128848,-9.99009190218457,-0.021386293680216998,0.29982940811257836,-0.007699335916350815,-0.0041723505635718715,-0.00018854434074559384
1765408761.129048,-9.985946285273545,-0.019466765425075916,0.299953775445789,-0.007744080779963149,-0.0045286789440606885,-0.00012037703389824676
1765408761.129248,-9.982299827508648,-0.017725824479139427,0.3007906613970136,-0.007805358357288299,-0.004854990714431963,-5.230959248407913e-05
1765408761.129448,-9.979144031562104,-0.016237592048619215,0.30229160754455636,-0.007882100237095327,-0.005151739090223874,1.2943453929798234e-05
1765408761.129648,-9.976449259834968,-0.015065847530931086,0.30439394965357347,-0.007972374765110531,-0.00541975335880407,7.259657492251584e-05
1765408761.129843,-9.974171857116255,-0.014260351577192867,0.3070263586714585,-0.008073524039990766,-0.005660092053087681,0.00012390942509728998
1765408761.130043,-9.97226006861661,-0.013854292777733718,0.31011282988397415,-0.008182370295583658,-0.0058739051548676695,0.00016430298355205692
1765408761.130243,-9.970657771432464,-0.013862624449147981,0.31357445475441337,-0.008295463525654584,-0.006062315078086423,0.0001914729557418405
1765408761.130443,-9.969305623743763,-0.014281176197313068,0.31732899800973324,-0.008409336042004724,-0.00622632219310435,0.00020350434994038108
1765408761.130643,-9.968140013648163,-0.015086737851952116,0.3212890512119872,-0.008520732078310235,-0.006366736356036707,0.00019899090278614572
1765408761.130843,-9.967090753702196,-0.016238443736140654,0.3253598578497693,-0.00862678922278991,-0.0064841319506665634,0.0001771562333228285
1765408761.131853,-9.966078579282554,-0.0176805380901222,0.32943770377918286,-0.008725158284503626,-0.006578821274816945,0.00013796444250141008
1765408761.134923,-9.965013319006662,-0.019346135209506468,0.33340938319119634,-0.008814056541761555,-0.006650841707930608,8.220124333265299e-05
1765408761.135423,-9.963793427252305,-0.02116127338618813,0.3371530455335082,-0.008892257733302695,-0.006699956620195108,1.1506227237839015e-05
1765408761.137881,-9.96230750278585,-0.023048679406112608,0.34054072506090544,-0.00895903196939721,-0.006725675782629515,-7.165705828208384e-05
1765408761.141852,-9.960438298992182,-0.02493112878911689,0.3434428225869383,-0.009014057032979037,-0.006727304118775757,-0.0001640980899867923
1765408761.142859,-9.95806939330661,-0.026734681057511447,0.34573458649010025,-0.009057324421110392,-0.006704025494042872,-0.00026206277677578044
1765408761.146905,-9.955094152301863,-0.028392007400424163,0.34730425615473554,-0.00908905735733614,-0.006655020442996044,-0.00036145967909798727
1765408761.148927,-9.951426092673575,-0.02984558458548081,0.3480621160753814,-0.009109647481481669,-0.006579605644059676,-0.0004581383885360152
1765408761.151909,-9.947009417531898,-0.03105017829829865,0.3479494357268098,-0.009119608315494288,-0.006477374646997977,-0.000548195670704982
1765408761.153926,-9.941828514585517,-0.03197415481947798,0.346946288905215,-0.00911954136710432,-0.006348319626512577,-0.0006282723703664153
1765408761.156866,-9.935915439804353,-0.03259964315650915,0.34507749618821576,-0.009110113981836084,-0.006192921686319986,-0.0006958027386611851
1765408761.158847,-9.929354635416734,-0.03292199436939284,0.3424161245190145,-0.00909205181918251,-0.006012205627264157,-0.0007491885597198618
1765408761.159844,-9.922284209942454,-0.03294902845790938,0.3390839402724537,-0.009066148857699843,-0.005807759644708712,-0.0007878856520945626
1765408761.164845,-9.914893167477684,-0.032700258739837285,0.335248160063524,-0.009033293409836215,-0.005581722395058444,-0.0008124028496150309
1765408761.166828,-9.90741424474309,-0.03220593845354909,0.3311141031938618,-0.008994501753429984,-0.005336741686644729,-0.0008242206527887105
1765408761.168827,-9.900112550540877,-0.03150566182116251,0.3269139427406988,-0.008950944815322173,-0.0050759102913161365,-0.0008256392201674292
1765408761.171849,-9.893270807131568,-0.030646423321488273,0.3228923923815297,-0.008903951098299277,-0.00480268358361934,-0.0008195671094116138
1765408761.174851,-9.887172415121507,-0.029680321719460775,0.319290580499986,-0.008854972656382288,-0.004520781434800518,-0.0008092677039292224
1765408761.176844,-9.882083714960698,-0.028662247397786514,0.3163295035001893,-0.008805509842993647,-0.004234074987606475,-0.0007980895222084255
1765408761.179859,-9.878236795865027,-0.02764779327999115,0.3141944256849191,-0.008757001941288737,-0.003946458716248222,-0.0007892134076040362
1765408761.181856,-9.875814131701093,-0.02669138369398361,0.3130214956311144,-0.008710700744275317,-0.0036617091307206474,-0.0007854471368709806
1765408761.183845,-9.874936213874053,-0.025844447563379523,0.3128876778992564,-0.008667549124798142,-0.003383332882745153,-0.0007890848741636036
1765408761.184898,-9.875653116588216,-0.025153498620736237,0.31380481236154173,-0.00862808502090161,-0.0031144093897086393,-0.0008018300269865971
1765408761.188849,-9.877940530022068,-0.02465815324523016,0.3157182064951343,-0.008592384563947156,-0.0028574382013350054,-0.0008247641707300465
1765408761.191881,-9.88170033457316,-0.02438926591323679,0.318509705798725,-0.008560050082269193,-0.002614209373246654,-0.0008583398460186095
1765408761.193879,-9.886765428382994,-0.024367418621321253,0.32200479369154245,-0.008530243066992226,-0.002385721585690899,-0.0009023826568443871
1765408761.19688,-9.892908320025,-0.024601976725813785,0.32598302597094897,-0.008501760132087113,-0.0021721708243242007,-0.0009561014764152363
1765408761.198851,-9.899852865545807,-0.02509084372682547,0.33019096095115885,-0.008473149802299334,-0.0019730203718013976,-0.0010181156062793624
1765408761.20189,-9.907288365015438,-0.02582091317470311,0.3343566165810163,-0.00844286638987202,-0.0017871468634493384,-0.0010865100946001616
1765408761.203838,-9.914885092595748,-0.026769056306448897,0.33820441871845186,-0.00840945198070222,-0.001613044819305658,-0.0011589267486763642
1765408761.206849,-9.922310345336921,-0.027903403066447667,0.34146973726189017,-0.008371729351465716,-0.0014490652959012328,-0.0012326924242500536
1765408761.208859,-9.92924423423622,-0.029184763454824476,0.3439123943523817,-0.00832898151781807,-0.001293660724354498,-0.0013049802740190374
1765408761.211887,-9.935394518942193,-0.030568229249395448,0.34532870319827563,-0.008281092197393515,-0.0011456065620805151,-0.0013729942455890794
1765408761.214844,-9.940509731856968,-0.032005101564282504,0.3455615157072476,-0.008228627106371513,-0.0010041730478793905,-0.001434162339932944
1765408761.216842,-9.944389839938797,-0.03344519843730647,0.34450765613499024,-0.008172845833295845,-0.0008692289609262385,-0.0014863209480813384
1765408761.218829,-9.946893973930077,-0.034839388784477066,0.34212232259339903,-0.008115643535766381,-0.0007412725154314343,-0.001527872287969214
1765408761.221849,-9.947945245448402,-0.03614204112079234,0.3384205125790463,-0.008059428174362364,-0.000621398217506244,-0.0015578999818944106
1765408761.222887,-9.947533031373029,-0.03731307734366154,0.333475891334367,-0.008006943347517823,-0.0005112182535969204,-0.0015762332999019308
1765408761.226836,-9.945713062245902,-0.03831947836458847,0.3274174966204644,-0.007961051737214231,-0.0004127603114802673,-0.0015834568458939664
1765408761.228885,-9.942605291912471,-0.039136287503612185,0.32042438212378255,-0.007924500183121656,-0.00032836092340699045,-0.0015808678922443764
1765408761.23186,-9.938389216400605,-0.03974725335005692,0.312718097096881,-0.007899691511008165,-0.00026056674084462143,-0.0015703876573968127
1765408761.232864,-9.933296361663102,-0.040145187499918265,0.3045530062543574,-0.007888487392732922,-0.00021204801092776442,-0.001554435824692539
1765408761.235877,-9.927600076618148,-0.04033197088678383,0.2962048089403192,-0.007892060895118817,-0.00018552020225805598,-0.0015357796111207238
1765408761.238891,-9.921603287459998,-0.040318073398503074,0.2879579868893407,-0.00791080972844152,-0.00018366263941453544,-0.0015173696387016885
1765408761.239861,-9.915625184913587,-0.040121520239238574,0.28009308684425943,-0.007944333633195874,-0.00020902075681549035,-0.001502175120284713
1765408761.243855,-9.909987787661805,-0.03976637888733548,0.272874668190918,-0.007991471986765709,-0.00026388549162426744,-0.001493031257959832
1765408761.246921,-9.905003042824378,-0.03928094141851892,0.26654051874297163,-0.008050390673185361,-0.0003501589551297572,-0.0014925122541375403
1765408761.249892,-9.900960793156644,-0.03869578433348999,0.2612925183322023,-0.008118702403670922,-0.0004692308515409929,-0.0015028420776565861
1765408761.250392,-9.898117703835403,-0.038041825658533576,0.2572893711377546,-0.008193604282661148,-0.000621892684330499,-0.0015258499145216764
1765408761.252895,-9.89668712773618,-0.03734843496658746,0.2546412962713086,-0.008272020491897151,-0.0008083030425983905,-0.0015629681493028737
1765408761.258679,-9.896829903760798,-0.036641651253725246,0.25340666547567214,-0.008350743877338116,-0.0010279975733032355,-0.0016152604642238485
1765408761.259856,-9.898646264377506,-0.03594263582262932,0.25359059025399455,-0.008426575022763182,-0.0012799248386208574,-0.001683460487333418
1765408761.261867,-9.902169339715446,-0.035266562282491386,0.25514558835902,-0.008496460095529445,-0.0015624875387304068,-0.0017680016153291023
1765408761.26387,-9.907360999171653,-0.03462212521439867,0.25797452343645977,-0.00855763001403055,-0.0018735729665293984,-0.0018690264835454567
1765408761.266902,-9.914110757093573,-0.03401170600533723,0.2619358426619993,-0.008607743253186171,-0.002210563283908169,-0.001986374458690255
1765408761.26889,-9.92223815197385,-0.0334320517181603,0.2668508067092979,-0.00864503139209099,-0.002570324598416339,-0.0021195515370585256
1765408761.271918,-9.93149856133223,-0.03287522219968059,0.27251215978670873,-0.008668440269673054,-0.0029491830874453467,-0.002267689199999996
1765408761.273904,-9.941592070358295,-0.03232960098456208,0.27869366952588104,-0.008677753865472822,-0.0033429038955997727,-0.0024295008904950117
1765408761.276889,-9.952174896780697,-0.03178089869355521,0.2851601062567866,-0.008673686542390369,-0.0037466918310499627,-0.0026032477856747613
1765408761.278917,-9.962872922150328,-0.031213187156424117,0.29167735712590454,-0.00865793131892092,-0.004155232574942312,-0.0027867266800924934
1765408761.281876,-9.973296884738167,-0.0306100084136017,0.29802233671607714,-0.008633153299600304,-0.004562790648328105,-0.002977289980254529
1765408761.283855,-9.98305860299448,-0.029955535528315813,0.30399213628958416,-0.00860291671027882,-0.004963374362924915,-0.0031719021167323693
1765408761.286837,-9.99178732976382,-0.02923572246560179,0.30941164207639954,-0.008571534409981138,-0.005350966272123722,-0.0033672304891560288
1765408761.287843,-9.999145272111036,-0.028439435393584525,0.3141389626507713,-0.008543834622672594,-0.005719802164578384,-0.003559763961535056
1765408761.291866,-10.004841568450718,-0.02755967227788211,0.31806851143287673,-0.008524851738468602,-0.00606466791950594,-0.0037459493485459947
1765408761.293875,-10.008644370988444,-0.0265950255810507,0.32113215290950364,-0.008519462800305168,-0.006381176450849954,-0.0039223379015825635
1765408761.296857,-10.010390816814994,-0.025551408914118834,0.32329901124273397,-0.008532003456988861,-0.006665988753967305,-0.004085738410373328
1765408761.297933,-10.009994524666567,-0.02444377375963135,0.32457429613224603,-0.008565903106338747,-0.006916953534263841,-0.004233375949009665
1765408761.301833,-10.007450082393879,-0.023297266997299265,0.32499716611577395,-0.008623378291819524,-0.007133155954406862,-0.00436305113308882
1765408761.303814,-10.002834083574193,-0.022147238304020406,0.32463758169476525,-0.008705217899145964,-0.00731488146700366,-0.004473285971394597
1765408761.306953,-9.996302649970088,-0.021037775271824374,0.32359232002897337,-0.008810684915381901,-0.007463509185880644,-0.004563435779091571
1765408761.30981,-9.988085771812973,-0.0200188865785801,0.32198054702005535,-0.008937547930101581,-0.007581349689141065,-0.0046337477839611665
1765408761.311818,-9.978478926272867,-0.019142817356640213,0.3199393028441875,-0.009082241104748522,-0.007671439634637865,-0.00468535630588029
1765408761.314882,-9.967832266917203,-0.018460097329516135,0.3176189508882922,-0.009240134630100691,-0.007737305416611181,-0.00472021666975546
1765408761.31686,-9.956537462210312,-0.018015819581547174,0.31517832951528724,-0.009405881553114961,-0.007782710648766484,-0.0047409885254250175
1765408761.318822,-9.945012298939824,-0.017846481951246617,0.31277933068257163,-0.009573796364953386,-0.00781140469908837,-0.0047508808947283555
1765408761.321872,-9.933683524149176,-0.01797761812280877,0.3105809449221694,-0.009738220094799249,-0.007826889627964493,-0.004753469152039166
1765408761.323906,-9.922968820650894,-0.018422393496195903,0.30873314506803506,-0.009893835369026913,-0.007832219866016578,-0.004752493613809312
1765408761.326814,-9.913258953283304,-0.019181248664270747,0.3073709919538236,-0.0100359082183908,-0.007829843844391926,-0.004751651828557655
1765408761.329858,-9.904900928982784,-0.02024250860015114,0.30660908283823896,-0.010160446801191745,-0.007821493235997502,-0.0047543985141595335
1765408761.33286,-9.89818277690639,-0.021583728195918785,0.3065363059761343,-0.010264279223340467,-0.007808126270178972,-0.0047637651580725825
1765408761.333872,-9.893320535277722,-0.023173519496669754,0.3072110188595472,-0.010345063395292748,-0.007789933709995711,-0.004782207153638024
1765408761.335841,-9.890448135336813,-0.024973705702787865,0.30865701616480257,-0.010401250324415995,-0.007766413376889516,-0.004811484458917867
1765408761.33884,-9.889610863110773,-0.02694177825597134,0.3108607120056065,-0.010432025605299775,-0.007736510454020336,-0.004852583606093218
1765408761.341826,-9.890762966691959,-0.029033676593847018,0.3137698938524856,-0.010437249745656841,-0.007698811355261751,-0.004905691093813444
1765408761.343818,-9.893769941295904,-0.03120679822035636,0.317294458424197,-0.010417408118188984,-0.007651772672367119,-0.004970226549160727
1765408761.346875,-9.898416004184746,-0.033422937497134084,0.3213096536280826,-0.010373572393508331,-0.0075939627469853305,-0.005044937361657523
1765408761.349839,-9.904416913668236,-0.035650697767800894,0.32566215495508016,-0.01030737286762153,-0.0075242910313928005,-0.005128047188303219
1765408761.351824,-9.91143742399167,-0.03786691878313283,0.33017866681009883,-0.010220983421935061,-0.007442201520152393,-0.0052174430126234695
1765408761.353862,-9.919111663122024,-0.04005677673483135,0.3346760430310077,-0.010117121290355018,-0.007347811752560136,-0.0053108817842933975
1765408761.354864,-9.92706417450264,-0.042212393971940675,0.3389716562829504,-0.009999058613416958,-0.007241986081761305,-0.005406196656831661
1765408761.358929,-9.93492954572103,-0.044330054341118814,0.34289299322343014,-0.009870634257991076,-0.007126338772606541,-0.005501481755977936
1765408761.361867,-9.94236920184531,-0.04640646508192114,0.34628587675415284,-0.009736247557321342,-0.007003167544137145,-0.005595233381748529
1765408761.36393,-9.94908461742063,-0.048434837582788444,0.3490209658485867,-0.009600813626889115,-0.0068753218016631415,-0.005686427654189129
1765408761.366966,-9.954826676692775,-0.05040170603148536,0.3509982234830455,-0.009469662622369163,-0.006746015536506338,-0.005774522351537466
1765408761.367919,-9.959401276076786,-0.052285256263284854,0.35214912715347063,-0.009348371349966215,-0.006618605392611525,-0.005859383530808953
1765408761.371938,-9.962671629947357,-0.05405554505200852,0.35243670484389916,-0.009242524479335568,-0.006496365431144281,-0.005941152306704613
1765408761.373917,-9.964557996495296,-0.05567652225400175,0.35185385081157217,-0.009157413828298868,-0.006382292750957923,-0.006020079559467921
1765408761.376904,-9.96503548281029,-0.057109387950713866,0.35042049559514793,-0.00909769629088563,-0.006278968962544082,-0.006096362384175298
1765408761.378891,-9.964130275423203,-0.058316588064528975,0.3481800201942909,-0.009067042008609666,-0.006188487959748115,-0.006170014100753885
1765408761.381949,-9.96191443120145,-0.059265659022103685,0.34519510714292906,-0.009067812066540323,-0.006112448384760546,-0.006240791095550288
1765408761.383887,-9.958499519233479,-0.05993217179096029,0.34154329524203697,-0.009100806536929377,-0.006052000358177392,-0.0063081877278472935
1765408761.386878,-9.95402977602675,-0.06030124884934644,0.3373127901470285,-0.009165117942876094,-0.006007927334223532,-0.0063714976884868485
1765408761.387932,-9.94867562144354,-0.06036755245526867,0.3325992386581395,-0.009258114218303462,-0.005980736709896429,-0.006429928774367697
1765408761.391877,-9.942628144209468,-0.06013414222701062,0.3275039358057775,-0.009375561730055704,-0.0059707325023089595,-0.006482750295192812
1765408761.392864,-9.936094614803503,-0.05961093673177492,0.3221333784446313,-0.009511884008375425,-0.005978052145205994,-0.006529449724969319
1765408761.395831,-9.929294550636842,-0.05881351395504267,0.3165995596410117,-0.009660536390266808,-0.00600266320172125,-0.006569877061377457
1765408761.397849,-9.922455658028314,-0.057762675140873077,0.31102023882560037,-0.009814462950793492,-0.006044328220766905,-0.0066043589485724535
1765408761.401822,-9.915809202085615,-0.0564847654844971,0.30551867449412584,-0.009966592126822032,-0.006102552426025746,-0.006633767733130513
1765408761.403872,-9.90958481373382,-0.05501239425446136,0.3002227418768246,-0.010110322521046428,-0.006176527788527993,-0.00665953379952021
1765408761.406917,-9.904005075374267,-0.05338502057778862,0.295263640093715,-0.010239951410571383,-0.006265080670769439,-0.0066835949373485306
1765408761.408835,-9.899280177181993,-0.051648861269210374,0.2907743008542975,-0.010351006614187882,-0.006366624581466255,-0.0067082847729041896
1765408761.411815,-9.895602585405328,-0.049855698805104064,0.2868872460197675,-0.010440457110975977,-0.00647912006503576,-0.006736171464138349
1765408761.41491,-9.893141393975906,-0.04806041614151341,0.28373139764984523,-0.010506795295927181,-0.006600050641996254,-0.006769865276601799
1765408761.416883,-9.892036148928508,-0.046317465719044576,0.28142752063862747,-0.010549998874296574,-0.006726431400635635,-0.006811818090726977
1765408761.418868,-9.89239034311844,-0.04467691173445063,0.28008244856416276,-0.010571390623532592,-0.006854867872127878,-0.006864139234618544
1765408761.421906,-9.894265108117509,-0.04318095514267924,0.279782626031435,-0.010573420087926742,-0.006981674534679016,-0.00692845013632565
1765408761.424841,-9.897673674029825,-0.04186175179346108,0.2805875950231641,-0.010559393400736396,-0.007103049422512239,-0.007005794711595799
1765408761.426836,-9.902577050079822,-0.040740871357938094,0.2825239755018086,-0.010533176321681555,-0.00721529047566073,-0.007096613309280652
1765408761.42985,-9.908881307678913,-0.03983017533940442,0.2855804272481623,-0.010498893729938522,-0.007315032695660879,-0.00720077740885838
1765408761.431883,-9.916436857545001,-0.03913352966100942,0.28970406258725945,-0.01046064937431997,-0.0073994815470090035,-0.007317673745557463
1765408761.433894,-9.925040087098356,-0.03864874090517691,0.29479872886186836,-0.010422291705496278,-0.007466616376310332,-0.0074463227802300785
1765408761.436868,-9.934437561809839,-0.03836930308957975,0.3007254365531669,-0.010387249769073738,-0.007515338793580124,-0.0075855163797893385
1765408761.438302,-9.944332714945126,-0.03828575901037545,0.30730498631576786,-0.010358453334834927,-0.007545547092183948,-0.007733959715434864
1765408761.441923,-9.954394705723434,-0.038386597898129114,0.3143226352971068,-0.010338335169305329,-0.007558129669006777,-0.007890401114697316
1765408761.44393,-9.9642690825025,-0.03865865175281122,0.32153456721173174,-0.010328896576341279,-0.0075548847028101065,-0.008053732858940767
1765408761.444922,-9.973590043580444,-0.03908701348800501,0.3286760209187519,-0.010331806447875503,-0.0075383839804351715,-0.00822304839121008
1765408761.44892,-9.981994234490971,-0.03965463677752996,0.33547103221582225,-0.010348502109105245,-0.007511801973758833,-0.008397648022588149
1765408761.449918,-9.989135929641185,-0.04034192150113117,0.34164365662273694,-0.010380264850979645,-0.007478728045862498,-0.00857699513458519
1765408761.453876,-9.994703091134186,-0.04112659639157979,0.34693025689485085,-0.01042824906124879,-0.007442973602621824,-0.0087606355987437
1765408761.456913,-9.998433382982219,-0.04198402829109251,0.35109215099182767,-0.010493449350354275,-0.007408380951835817,-0.00894810095770622
1765408761.459842,-10.000129011223997,-0.042887828834238216,0.3539278292606026,-0.010576598291237393,-0.007378639110401251,-0.009138817987022147
1765408761.461878,-9.999669359347317,-0.043810463781846706,0.35528408484635,-0.010678001919924756,-0.007357112587305249,-0.009332043481586004
1765408761.463865,-9.997020622907511,-0.04472358964493648,0.35506555760451247,-0.010797339447137996,-0.0073466877981312574,-0.009526835279898336
1765408761.468672,-9.992241751078135,-0.045598039963525495,0.3532421507027555,-0.010933470795363909,-0.00734963659327308,-0.009722060847142198
1765408761.468748,-9.985485955094836,-0.046403678673157506,0.34985360780671104,-0.011084302363562136,-0.007367492425450817,-0.009916435979737508
1765408761.471846,-9.976997140698371,-0.047109593718881765,0.3450105747974608,-0.011246753255573654,-0.007400938216976531,-0.010108581425838268
1765408761.473858,-9.96710109804927,-0.04768517858315772,0.3388918863563422,-0.011416842708320725,-0.0074497151749769236,-0.010297085422961339
1765408761.476854,-9.956191964386635,-0.04810246897318769,0.3317383377708302,-0.011589891537603874,-0.0075125700082516325,-0.010480563504249503
1765408761.478846,-9.944714966161468,-0.048339699410559774,0.32384342449262066,-0.011760805683942745,-0.007587256020990228,-0.01065771115101782
1765408761.481851,-9.933146584633738,-0.048385546085355474,0.3155414343858026,-0.011924397072389577,-0.007670592309386759,-0.010827348868522598
