time,acc_x_g,acc_y_g,acc_z_g,gyro_x_rad_s,gyro_y_rad_s,gyro_z_rad_s
1765410551.519884,-6.034193,3.889287,7.048062,-0.008552,-0.005956,-0.002291
1765410551.520134,-6.011477,3.905427,6.959588,-0.006872,-0.006872,0.000611
1765410551.520384,-5.964849,3.923959,6.921926,-0.010690,-0.008552,-0.001680
1765410551.520634,-5.924198,3.857006,6.936872,-0.007636,-0.008552,-0.001069
1765410551.520854,-6.009086,3.876733,7.067192,-0.006872,-0.007025,-0.001069
1765410551.521054,-5.967239,3.968196,6.875896,-0.008705,-0.005040,0.000764
1765410551.521254,-6.034193,3.882711,7.015183,-0.010537,-0.007025,0.001985
1765410551.521454,-6.068866,3.920372,7.118602,-0.009774,-0.009774,-0.003054
1765410551.521654,-6.055714,4.007651,7.008010,-0.010537,-0.009774,0.000000
1765410551.521870,-5.908655,4.134385,6.927307,-0.009010,-0.005345,-0.002138
1765410551.522120,-5.913437,4.172644,7.013390,-0.010690,-0.004276,-0.005956
1765410551.522370,-5.944523,4.379483,7.214251,-0.013744,-0.005192,-0.003818
1765410551.522620,-5.748445,4.609636,6.886657,-0.013592,-0.002138,0.001833
1765410551.522852,-5.431013,4.604256,6.318148,-0.019090,0.002138,0.007941
1765410551.523052,-5.426829,4.744141,6.484935,-0.020311,-0.005498,0.018784
1765410551.523252,-5.604973,4.696915,6.834050,-0.022755,-0.000611,0.017715
1765410551.523452,-5.535628,4.813486,6.548302,-0.024435,-0.000611,0.023060
1765410551.523652,-5.535628,4.813486,6.548302,-0.024435,0.004123,0.023060
1765410551.523825,-6.395265,4.692730,6.832256,-0.031154,0.006261,0.032987
1765410551.524075,-6.906384,5.307268,7.306910,-0.036499,0.002138,0.032834
1765410551.524325,-7.063605,5.157818,7.152080,-0.038637,0.032376,0.033598
1765410551.524575,-5.222381,5.322214,6.084409,-0.039554,0.032376,0.043982
1765410551.524886,-5.222381,5.322214,6.084409,-0.039554,0.019242,0.043982
1765410551.525136,-5.474055,5.534432,6.487326,-0.039554,0.027794,0.069486
1765410551.525386,-5.712577,5.260640,6.235054,-0.047189,0.029322,0.076205
1765410551.525636,-5.821974,5.601386,6.384504,-0.044135,0.042455,0.086132
1765410551.525828,-5.059780,5.202056,5.950501,-0.053756,0.059101,0.090561
1765410551.526078,-5.137493,5.826159,5.951696,-0.048564,0.048106,0.089186
1765410551.526328,-5.036465,5.544595,5.741271,-0.055436,0.076816,0.089034
1765410551.526578,-5.222979,5.808823,6.194404,-0.050855,0.076816,0.107054
1765410551.526903,-4.967120,5.763988,6.343256,-0.050855,0.092393,0.122326
1765410551.527103,-4.940219,5.808225,6.172883,-0.061545,0.083994,0.124617
1765410551.527303,-4.855929,5.677307,5.835723,-0.071319,0.090866,0.122784
1765410551.527503,-4.772237,5.857843,5.780726,-0.070708,0.100793,0.121715
1765410551.527703,-4.742945,6.132830,5.921807,-0.078954,0.114385,0.121257
1765410551.527800,-4.742945,6.132830,5.921807,-0.078954,0.120188,0.121257
1765410551.528050,-4.947991,6.399449,5.868005,-0.091630,0.138514,0.137903
1765410551.528300,-4.716642,6.425154,6.107125,-0.096669,0.151953,0.154091
1765410551.528550,-4.934839,6.457436,6.751554,-0.104611,0.167988,0.163406
1765410551.528853,-4.818268,6.504064,6.249402,-0.117439,0.167988,0.169362
1765410551.529186,-4.818268,6.504064,6.249402,-0.117439,0.159436,0.169362
1765410551.529520,-4.808703,6.446676,6.438306,-0.141568,0.181885,0.174402
1765410551.529835,-4.450023,6.652318,6.034791,-0.138208,0.185550,0.179900
1765410551.530085,-4.844571,6.816116,6.412003,-0.149967,0.186314,0.183870
1765410551.530335,-5.011955,6.916546,6.420372,-0.158061,0.211665,0.198378
1765410551.530585,-4.701099,6.816116,6.116092,-0.162948,0.213497,0.213192
1765410551.530816,-4.863103,6.865135,6.520802,-0.169515,0.226478,0.218995
1765410551.531066,-4.711860,6.573409,6.276900,-0.175166,0.239306,0.229991
1765410551.531316,-4.347202,6.675035,5.803442,-0.179900,0.248928,0.240528
1765410551.531566,-4.454208,6.643949,6.172285,-0.196240,0.248928,0.233045
1765410551.531819,-4.647297,6.596126,6.774270,-0.200975,0.272751,0.229227
1765410551.532069,-4.586920,6.749760,6.213533,-0.212428,0.283289,0.237321
1765410551.532319,-4.567790,6.733022,6.624820,-0.223119,0.279624,0.250149
1765410551.532569,-4.618603,6.483739,6.644547,-0.242819,0.304364,0.255189
1765410551.532841,-4.956958,6.877689,6.927307,-0.234572,0.306807,0.258396
1765410551.533174,-4.805117,6.385102,6.727641,-0.246790,0.316581,0.264963
1765410551.533508,-4.990435,6.579387,6.666666,-0.253356,0.322537,0.271530
1765410551.533855,-4.849952,6.400047,6.844213,-0.270155,0.340252,0.273515
1765410551.534105,-4.799139,6.288857,6.938067,-0.275806,0.346361,0.267406
1765410551.534355,-4.615016,6.307986,6.477163,-0.283900,0.365450,0.270613
1765410551.534605,-4.581539,6.640362,6.444284,-0.288787,0.364687,0.277638
1765410551.534886,-4.794356,6.303204,7.033715,-0.307876,0.372017,0.276569
1765410551.535136,-4.762673,6.349832,6.484337,-0.306196,0.409127,0.283289
1765410551.535386,-4.237206,6.569224,5.813606,-0.300088,0.413403,0.294742
1765410551.535636,-5.479434,6.093973,7.434241,-0.328035,0.394466,0.297186
1765410551.535822,-5.647417,6.047345,7.858679,-0.328798,0.436769,0.301920
1765410551.536072,-3.937111,6.305594,5.426829,-0.329256,0.468228,0.298866
1765410551.536322,-4.018412,6.163318,5.682687,-0.349262,0.441503,0.298102
1765410551.536572,-5.549976,6.263749,7.565757,-0.354302,0.448681,0.295048
1765410551.536886,-6.462219,6.385699,8.283116,-0.355524,0.472352,0.301157
1765410551.537219,-5.114777,6.490314,6.734815,-0.363007,0.497244,0.314901
1765410551.537553,-4.909133,6.409612,6.030607,-0.378278,0.490678,0.325438
1765410551.537843,-5.749043,5.911047,7.500000,-0.381333,0.490678,0.337656
1765410551.538093,-5.148254,5.948110,6.315159,-0.385456,0.502437,0.335060
1765410551.538343,-4.632950,5.779530,6.181850,-0.400728,0.527177,0.323300
1765410551.538593,-4.632950,5.779530,6.040171,-0.400728,0.568105,0.323300
1765410551.538948,-4.949785,5.884743,6.148971,-0.400117,0.547488,0.326660
1765410551.539198,-5.764586,5.765183,7.106049,-0.418443,0.547488,0.344528
1765410551.539448,-5.475250,5.529052,6.711501,-0.414625,0.577115,0.345902
1765410551.539698,-4.535509,5.401721,5.539215,-0.418748,0.604604,0.340710
1765410551.539877,-4.952175,5.154232,5.932568,-0.412639,0.588416,0.347582
1765410551.540127,-5.934959,5.098039,6.666666,-0.425315,0.612240,0.365756
1765410551.540377,-5.469871,4.563007,6.197393,-0.418290,0.618196,0.370184
1765410551.540627,-5.650406,4.751912,6.623027,-0.414625,0.626748,0.354455
1765410551.540873,-5.456718,4.356766,6.154949,-0.406684,0.640492,0.344070
1765410551.541123,-5.996531,4.326877,6.037780,-0.418443,0.651946,0.353844
1765410551.541373,-5.996531,4.326877,6.037780,-0.418443,0.647364,0.353844
1765410551.541623,-6.086800,3.742826,5.955284,-0.401033,0.670883,0.349720
1765410551.541809,-5.246293,3.585007,5.001195,-0.405309,0.693027,0.326660
1765410551.542059,-5.669535,3.563486,5.325202,-0.406073,0.731053,0.321773
1765410551.542309,-6.104734,3.191056,6.297225,-0.399964,0.731053,0.326355
1765410551.542559,-6.278694,3.434959,5.730511,-0.386983,0.720363,0.318872
1765410551.544409,-7.054040,3.497130,6.316355,-0.382707,0.726777,0.311236
1765410551.544659,-7.254901,3.207197,6.877091,-0.385914,0.756709,0.305738
1765410551.544909,-6.440100,3.644189,5.221783,-0.379347,0.733649,0.305280
1765410551.545159,-6.183643,3.407460,5.182926,-0.384692,0.733649,0.296422
1765410551.544487,-6.747966,3.344093,6.959588,-0.384692,0.753960,0.296422
1765410551.544820,-6.526780,3.415231,5.722142,-0.381943,0.769843,0.296422
1765410551.545154,-6.642754,3.161166,6.445480,-0.386372,0.753655,0.279624
1765410551.545033,-6.779052,3.128885,6.175274,-0.383623,0.775646,0.271682
1765410551.545283,-5.535628,3.646580,4.989239,-0.359800,0.775646,0.274278
1765410551.545533,-6.029411,3.689622,6.335485,-0.371559,0.740521,0.266032
1765410551.545783,-7.049258,3.682448,6.855571,-0.376293,0.802524,0.263436
1765410551.545795,-6.645144,3.708751,6.049139,-0.354149,0.802524,0.277638
1765410551.546045,-6.270922,3.500717,6.033596,-0.354149,0.781602,0.277638
1765410551.546295,-5.839311,3.571257,6.189621,-0.367130,0.807564,0.266490
1765410551.546545,-5.871592,3.536585,5.555954,-0.353080,0.800386,0.259770
1765410551.546840,-5.180534,3.701578,5.103419,-0.357967,0.795652,0.262061
1765410551.547090,-5.987566,3.959229,5.565518,-0.343306,0.828486,0.272751
1765410551.547340,-5.987566,3.959229,5.565518,-0.343306,0.837344,0.272751
1765410551.547590,-6.993064,3.787661,6.101147,-0.331547,0.822225,0.297033
1765410551.547817,-6.099353,3.287302,5.164992,-0.334907,0.860098,0.301767
1765410551.548067,-4.008249,2.809660,3.377570,-0.328493,0.867887,0.293215
1765410551.548317,-4.772835,3.116930,4.528933,-0.339794,0.850783,0.273668
1765410551.548567,-6.935676,2.943568,6.278694,-0.336281,0.870941,0.259770
1765410551.548846,-7.803682,3.468436,6.085604,-0.322384,0.895987,0.266032
1765410551.549179,-7.507173,2.596843,5.349114,-0.335518,0.912174,0.265726
1765410551.549513,-7.893352,2.721783,6.841822,-0.316886,0.899652,0.245415
1765410551.549833,-8.115732,2.974653,7.088115,-0.313985,0.899652,0.219301
1765410551.550083,-8.574843,3.018890,7.086919,-0.303905,0.900568,0.216552
1765410551.550333,-7.008607,2.623147,5.369440,-0.277638,0.938900,0.216094
1765410551.550583,-6.336680,2.779770,4.394428,-0.263130,0.922254,0.206167
1765410551.550880,-6.929698,2.968675,5.692251,-0.255342,0.907593,0.193339
1765410551.551130,-6.481348,2.879005,5.396341,-0.251218,0.929126,0.181580
1765410551.551380,-4.569583,3.848637,2.724772,-0.244041,0.940122,0.172417
1765410551.551630,-4.582735,3.648373,3.594572,-0.242972,0.950812,0.173028
1765410551.551802,-6.133428,3.345289,5.549976,-0.224951,0.976315,0.187536
1765410551.552052,-7.285987,3.952654,5.842897,-0.213650,0.968985,0.203113
1765410551.552302,-6.814920,3.219751,5.477641,-0.248469,0.981050,0.175166
1765410551.552552,-5.838115,3.954447,4.325083,-0.242819,1.012356,0.135765
1765410551.552815,-5.634863,4.365136,4.897178,-0.249080,1.018923,0.138666
1765410551.553065,-4.567192,4.463175,5.187709,-0.255189,0.992656,0.162032
1765410551.553315,-5.705403,4.191773,5.952295,-0.275958,1.013884,0.169668
1765410551.553565,-6.448469,3.903634,5.353897,-0.268781,1.017091,0.170126
1765410551.553821,-7.391797,3.127690,6.029411,-0.267406,0.988991,0.158520
1765410551.554071,-9.093137,3.810377,8.554519,-0.261756,1.004568,0.107970
1765410551.554321,-8.605929,4.357962,7.378646,-0.261450,1.038013,0.086743
1765410551.554571,-6.619440,4.488282,4.762075,-0.259923,1.013120,0.113926
1765410551.554864,-5.785509,4.294595,4.126016,-0.259770,1.014647,0.129809
1765410551.555114,-5.539215,4.401003,4.571377,-0.232282,1.030377,0.120340
1765410551.555364,-5.499162,4.664633,4.383070,-0.227547,1.047328,0.119882
1765410551.555614,-5.474652,4.166666,4.087757,-0.257632,1.057560,0.141415
1765410551.555794,-5.900287,3.531803,5.190698,-0.252287,1.095129,0.157145
1765410551.556044,-6.067670,3.773911,4.795552,-0.233656,1.098947,0.139125
1765410551.556294,-8.243662,3.987924,6.370157,-0.242514,1.114829,0.112399
1765410551.556544,-8.654949,3.533596,6.842419,-0.242208,1.153008,0.115148
1765410551.556804,-6.534552,2.661406,5.202056,-0.233961,1.136362,0.120799
1765410551.557054,-3.860593,2.679340,3.114538,-0.221133,1.087340,0.078038
1765410551.557304,-4.246771,3.161764,3.656145,-0.236252,1.117425,0.022907
1765410551.557554,-5.337159,3.671688,4.007651,-0.218384,1.148579,0.035736
1765410551.557868,-6.392873,3.693208,3.307030,-0.225867,1.150107,0.054672
1765410551.558118,-7.901721,3.412840,5.679101,-0.210290,1.158353,0.050244
1765410551.558368,-7.276422,3.697393,5.746054,-0.173028,1.221883,0.041233
1765410551.558618,-5.209827,3.914992,2.843137,-0.183412,1.187369,0.049022
1765410551.558858,-5.884743,3.672883,4.723816,-0.239306,1.171945,0.032987
1765410551.559108,-7.338593,2.757054,5.736489,-0.242819,1.219745,0.003207
1765410551.559358,-7.438426,3.898254,5.310855,-0.226020,1.214247,0.003054
1765410551.559608,-7.193926,3.336920,6.637971,-0.243124,1.198518,-0.000764
1765410551.559884,-7.433045,3.634624,6.462219,-0.235183,1.204932,-0.019700
1765410551.560134,-6.291247,3.883309,4.270085,-0.231060,1.204932,-0.026878
1765410551.560384,-5.577474,3.520444,3.827713,-0.235794,1.178817,-0.026725
1765410551.560634,-6.573409,4.325681,4.686752,-0.234114,1.196838,-0.035430
1765410551.560809,-7.625537,3.873744,6.038975,-0.233198,1.196838,-0.041997
1765410551.561059,-7.118602,4.035150,4.848158,-0.215788,1.233642,-0.037874
1765410551.561309,-7.346962,4.623385,4.668818,-0.216094,1.233642,-0.030391
1765410551.561559,-7.346962,4.623385,4.668818,-0.216094,1.230588,-0.030391
1765410551.561888,-8.218554,3.933524,5.235532,-0.230907,1.262506,-0.001374
1765410551.562138,-4.870277,3.084050,2.315877,-0.230754,1.291522,0.001222
1765410551.562388,-4.350789,2.282400,3.678861,-0.226784,1.282206,-0.024129
1765410551.562638,-7.230391,2.318866,6.220707,-0.205556,1.247234,-0.066890
1765410551.562793,-7.230391,2.318866,6.220707,-0.205556,1.269989,-0.066890
1765410551.563043,-6.435915,3.790650,2.497608,-0.198531,1.292744,-0.100487
1765410551.563293,-7.388808,3.314801,4.600669,-0.202044,1.292744,-0.097891
1765410551.563543,-9.183404,3.277737,6.871114,-0.187230,1.298852,-0.079871
1765410551.563834,-8.464849,3.246054,4.854734,-0.166461,1.296867,-0.075289
1765410551.564167,-6.926111,2.376255,3.848637,-0.224493,1.323287,-0.109650
1765410551.564501,-6.752749,2.532879,3.731467,-0.224493,1.304655,-0.137292
1765410551.564807,-8.212577,3.183883,5.956480,-0.208152,1.304655,-0.127976
1765410551.565057,-8.143232,2.755858,6.813725,-0.231212,1.276250,-0.137597
1765410551.565307,-7.162840,2.597441,4.029172,-0.219911,1.294882,-0.151647
1765410551.565557,-5.409492,1.699546,3.011716,-0.226936,1.302517,-0.162948
1765410551.565850,-5.724533,2.576518,2.749880,-0.186467,1.252121,-0.183107
1765410551.566100,-7.922046,2.454567,4.677785,-0.199600,1.252121,-0.208610
1765410551.566350,-8.733858,3.626255,5.972023,-0.178678,1.288773,-0.211207
1765410551.566600,-7.664394,3.797226,3.871353,-0.165850,1.317789,-0.198531
1765410551.566787,-6.978718,3.278335,3.481587,-0.180663,1.317789,-0.186467
1765410551.567037,-6.978718,3.278335,3.481587,-0.180663,1.354441,-0.186467
1765410551.567287,-8.113342,2.735533,4.438067,-0.166461,1.341307,-0.189674
1765410551.567537,-8.378765,2.256097,7.463533,-0.167835,1.333519,-0.189674
1765410551.567798,-9.028574,2.993783,5.219989,-0.154854,1.335046,-0.240528
1765410551.568048,-6.138211,2.474892,2.897537,-0.180663,1.341155,-0.270002
1765410551.568298,-6.138211,2.474892,2.897537,-0.180663,1.334282,-0.270002
1765410551.568548,-6.836441,3.643591,4.842180,-0.150426,1.358259,-0.282678
1765410551.568837,-8.268770,4.203132,5.135700,-0.132100,1.349707,-0.266490
1765410551.569170,-8.791247,3.990913,4.276661,-0.171500,1.331075,-0.242819
1765410551.569504,-8.152797,2.584887,5.298899,-0.218537,1.377501,-0.268323
1765410551.569874,-8.578431,3.023074,4.643710,-0.187383,1.385595,-0.300546
1765410551.570124,-7.771400,3.323768,4.927068,-0.193492,1.362535,-0.284969
1765410551.570374,-7.275226,2.123386,4.586322,-0.219148,1.346958,-0.286496
1765410551.570624,-7.551410,2.935198,4.424916,-0.198073,1.315804,-0.310320
1765410551.570899,-7.530487,2.046867,3.666307,-0.215330,1.286024,-0.327118
1765410551.571149,-7.505977,2.475490,4.240793,-0.196699,1.317331,-0.351706
1765410551.571399,-7.653036,3.778096,2.972262,-0.165392,1.342071,-0.352011
1765410551.571649,-7.447392,3.692013,2.901721,-0.174402,1.324967,-0.322995
1765410551.571842,-7.498804,2.673362,3.425394,-0.186467,1.343293,-0.296575
1765410551.572175,-8.114537,1.899808,4.247967,-0.189368,1.343293,-0.338877
1765410551.572509,-9.709468,2.632711,6.162720,-0.189826,1.357342,-0.384540
1765410551.572826,-11.070061,2.095289,7.250716,-0.188452,1.394758,-0.382707
1765410551.573076,-10.082495,2.568747,5.920013,-0.151189,1.373378,-0.386525
1765410551.573326,-10.082495,2.568747,5.920013,-0.151189,1.351081,-0.386525
1765410551.573576,-7.828789,2.705643,1.813725,-0.160199,1.360397,-0.419970
1765410551.573789,-7.013390,2.994978,3.632233,-0.129656,1.391246,-0.411723
1765410551.574039,-6.427546,2.531683,4.045910,-0.135459,1.362077,-0.428369
1765410551.574289,-7.929220,3.897656,4.004065,-0.164475,1.362077,-0.449750
1765410551.574539,-8.620276,3.805595,2.882592,-0.164475,1.381930,-0.449750
1765410551.574844,-7.357723,3.240076,3.730272,-0.172569,1.373836,-0.417374
1765410551.575094,-6.258966,2.857484,3.553324,-0.193492,1.378570,-0.432798
1765410551.575344,-6.962576,1.685198,4.093735,-0.219453,1.313055,-0.457996
1765410551.575594,-8.852222,3.125298,5.339550,-0.204029,1.302823,-0.488539
1765410551.575781,-8.975369,3.626255,4.329268,-0.193950,1.302670,-0.493426
1765410551.576031,-8.898851,3.533596,4.464371,-0.198531,1.309542,-0.478155
1765410551.576281,-8.363222,3.302247,3.674677,-0.185398,1.339169,-0.471741
1765410551.576531,-8.197034,2.840746,2.993185,-0.181122,1.307557,-0.479376
1765410551.576760,-7.777378,2.933404,1.590148,-0.193033,1.315956,-0.499230
1765410551.577093,-8.130080,2.569345,2.631516,-0.189826,1.325883,-0.521526
1765410551.577427,-9.483500,2.684122,5.906862,-0.189063,1.359481,-0.524275
1765410551.577781,-9.165470,2.276423,6.050932,-0.184634,1.368796,-0.533133
1765410551.578031,-8.639406,2.187948,2.789335,-0.172722,1.311986,-0.539241
1765410551.578281,-8.729673,2.356528,3.023672,-0.192117,1.311986,-0.568410
1765410551.578531,-9.852941,3.557508,3.693806,-0.165544,1.316567,-0.571617
1765410551.578764,-8.639406,3.628646,4.525346,-0.144011,1.345736,-0.551000
1765410551.579014,-6.782041,3.086441,2.098278,-0.143859,1.326341,-0.533744
1765410551.579264,-6.408416,2.679340,1.169297,-0.151953,1.321454,-0.527940
1765410551.579514,-6.535748,1.872908,1.812530,-0.178678,1.306335,-0.548557
1765410551.579834,-8.417024,2.629124,4.104495,-0.178678,1.333061,-0.548557
1765410551.580084,-7.919057,3.329746,4.060855,-0.173333,1.268004,-0.573144
1765410551.580334,-9.554040,2.406145,5.039454,-0.208458,1.268004,-0.540158
1765410551.580584,-9.930654,1.047943,4.964729,-0.195935,1.261742,-0.578795
1765410551.580820,-9.534313,1.697752,3.376972,-0.187383,1.264491,-0.636827
1765410551.581153,-8.666904,2.485652,2.903515,-0.197462,1.292285,-0.646754
1765410551.581487,-8.210185,2.563366,3.030846,-0.175471,1.284191,-0.646601
1765410551.581837,-8.532997,2.950741,2.128168,-0.163101,1.284191,-0.638201
1765410551.582087,-8.829507,2.914275,2.666786,-0.174555,1.284650,-0.638660
1765410551.582337,-8.833093,3.179698,3.275944,-0.170737,1.332603,-0.645685
1765410551.582587,-9.097919,3.299856,4.576756,-0.162490,1.334130,-0.641561
1765410551.582858,-8.469033,2.148493,4.194165,-0.171500,1.297630,-0.629802
1765410551.583108,-8.051171,2.329627,1.624223,-0.138666,1.297630,-0.625984
1765410551.583358,-8.626254,2.366092,1.896820,-0.140346,1.286940,-0.644768
1765410551.583608,-11.093972,3.198230,4.878048,-0.133627,1.270752,-0.649961
1765410551.583828,-11.366570,2.338594,6.777856,-0.132710,1.322218,-0.654848
1765410551.584078,-10.654590,3.161764,3.206599,-0.105680,1.319011,-0.655458
1765410551.584328,-8.970588,3.203013,1.785629,-0.124617,1.277319,-0.631024
1765410551.584578,-9.305953,1.950024,4.029172,-0.145844,1.278694,-0.642172
1765410551.584818,-10.587039,1.690578,5.341941,-0.141721,1.266782,-0.654084
1765410551.585151,-11.012672,1.865136,4.970109,-0.167988,1.266782,-0.667981
1765410551.585485,-11.012672,1.865136,4.970109,-0.167988,1.246623,-0.667981
1765410551.585824,-11.039573,1.965567,4.477522,-0.162490,1.252274,-0.725250
1765410551.586074,-10.195478,2.324246,3.619679,-0.175776,1.244180,-0.725097
1765410551.586324,-9.363341,2.284792,2.810856,-0.169515,1.262811,-0.742049
1765410551.586574,-9.661046,2.824605,2.358919,-0.137445,1.262811,-0.729679
1765410551.586835,-9.661046,2.824605,2.358919,-0.137445,1.257008,-0.729679
1765410551.587085,-10.685077,2.321855,3.355452,-0.134085,1.252274,-0.718378
1765410551.587335,-10.900286,3.249641,4.485892,-0.121257,1.293507,-0.706160
1765410551.587585,-9.310736,2.406743,5.017933,-0.118966,1.265560,-0.683405
1765410551.587808,-8.197034,1.278096,1.480153,-0.125838,1.265560,-0.681420
1765410551.588058,-7.937588,1.629005,1.524390,-0.117897,1.214706,-0.734260
1765410551.588308,-10.058583,3.558105,2.602821,-0.090408,1.229977,-0.740063
1765410551.588558,-10.499163,2.841344,3.689024,-0.101404,1.229977,-0.684780
1765410551.588833,-9.964130,1.449067,4.310138,-0.104000,1.266171,-0.687223
1765410551.589083,-9.732184,1.411406,2.800095,-0.088881,1.266171,-0.734413
1765410551.589333,-9.574366,1.891439,2.650645,-0.085674,1.229825,-0.741590
1765410551.589583,-11.084408,2.016379,4.225251,-0.107360,1.238224,-0.761902
1765410551.589818,-11.641558,2.472501,5.601386,-0.119577,1.271516,-0.770454
1765410551.590068,-11.487325,2.472501,4.860114,-0.119577,1.208902,-0.770454
1765410551.590318,-11.255977,1.519608,4.435676,-0.150426,1.157895,-0.767247
1765410551.590568,-10.945718,1.871712,3.864179,-0.120340,1.136362,-0.790918
1765410551.590831,-10.153036,2.673362,2.609995,-0.130725,1.182788,-0.781297
1765410551.591164,-9.708273,2.556193,2.673362,-0.109345,1.171487,-0.766330
1765410551.591498,-9.708273,2.556193,2.673362,-0.109345,1.166447,-0.766330
1765410551.591831,-11.038377,2.215447,3.989717,-0.081398,1.193783,-0.748921
1765410551.592081,-12.722381,2.060019,3.932328,-0.073762,1.193783,-0.749379
1765410551.592331,-10.625298,2.320660,3.929339,-0.080787,1.224479,-0.752891
1765410551.592581,-9.379482,2.494022,2.458751,-0.070708,1.235475,-0.766025
1765410551.592821,-6.252390,1.906982,0.047226,-0.070708,1.186758,-0.766025
1765410551.593071,-7.500000,1.300813,0.265423,-0.076205,1.137737,-0.737620
1765410551.593321,-8.244858,1.942850,0.481827,-0.044746,1.151023,-0.772745
1765410551.593571,-9.502629,2.497608,3.095408,-0.045968,1.198823,-0.759611
1765410551.593877,-8.858201,1.082616,2.852702,-0.048564,1.198823,-0.749837
1765410551.594127,-6.996652,1.746772,-0.577475,-0.029016,1.179123,-0.776562
1765410551.594377,-6.565638,1.616451,-0.512912,-0.036041,1.145831,-0.796110
1765410551.594627,-8.073887,2.067193,3.336920,-0.052382,1.166753,-0.805884
1765410551.594815,-9.508607,3.200621,3.136059,-0.058338,1.114829,-0.790154
1765410551.595065,-10.691055,1.673840,3.567671,-0.093462,1.114829,-0.760833
1765410551.595315,-10.720945,1.171090,3.701578,-0.108123,1.125214,-0.789543
1765410551.595565,-9.600669,2.373266,1.355213,-0.061239,1.095129,-0.793667
1765410551.595835,-9.290410,1.835246,1.768890,-0.102473,1.092838,-0.780228
1765410551.596085,-9.571974,2.256097,2.919655,-0.102473,1.101237,-0.780228
1765410551.596335,-10.469272,2.516738,1.608082,-0.047495,1.098947,-0.762665
1765410551.596585,-10.171567,1.139407,2.104256,-0.067959,1.107041,-0.752739
1765410551.596900,-11.256575,2.126375,3.919177,-0.040470,1.154688,-0.811993
1765410551.597150,-10.815995,2.936991,3.714729,-0.025962,1.180497,-0.772439
1765410551.597400,-9.692730,1.038379,2.577714,-0.053145,1.137584,-0.711963
1765410551.597650,-8.438545,0.813008,1.622429,-0.047647,1.100474,-0.763276
1765410551.597792,-9.161882,1.214730,1.080225,-0.034819,1.043358,-0.799164
1765410551.598125,-9.717837,1.701339,1.635581,-0.027336,1.064585,-0.788016
1765410551.598459,-9.939023,1.806552,1.786227,-0.029780,1.122007,-0.805273
1765410551.598783,-9.238401,1.960784,0.986370,-0.015882,1.100474,-0.779922
1765410551.599033,-8.641797,0.703013,1.175275,-0.017562,1.077872,-0.768774
1765410551.599283,-7.751075,1.640961,0.388570,0.017562,1.044427,-0.804968
1765410551.599533,-9.898373,2.355332,2.120995,0.004276,1.087187,-0.803135
1765410551.599818,-10.017933,2.039694,3.336920,-0.035736,1.087187,-0.778548
1765410551.600068,-10.247488,1.670253,2.527498,-0.033139,1.047023,-0.786642
1765410551.600318,-9.480511,1.371353,1.557867,-0.057727,1.007011,-0.801761
1765410551.600568,-9.916904,2.245337,1.247011,-0.047800,0.983035,-0.787711
1765410551.600852,-9.871471,1.887852,1.801769,-0.052382,0.969749,-0.773814
1765410551.601102,-10.392754,1.845409,2.447393,-0.072998,0.969749,-0.788780
1765410551.601352,-10.626493,1.779651,1.637972,-0.042761,0.988685,-0.771828
1765410551.601602,-8.515063,1.074247,-0.740076,-0.031765,1.000903,-0.761749
1765410551.601838,-8.918579,2.158058,0.115973,-0.031765,0.991129,-0.761749
1765410551.602088,-10.361069,2.768412,2.571138,-0.037110,0.994641,-0.774883
1765410551.602338,-12.883786,2.681731,4.870875,-0.042761,0.986853,-0.732275
1765410551.602588,-9.659253,0.801052,2.277618,-0.056505,1.003652,-0.734413
1765410551.602785,-8.029650,1.516021,-1.000717,-0.052382,0.961044,-0.764040
1765410551.603035,-8.296268,1.093974,-0.095050,-0.074373,0.925614,-0.775493
1765410551.603285,-10.950500,1.715088,2.204089,-0.047495,0.903470,-0.779159
1765410551.603535,-12.084527,2.059421,4.048900,-0.053603,0.966542,-0.788322
1765410551.603875,-9.726207,1.653515,1.248206,-0.042455,0.977843,-0.764498
1765410551.604125,-7.034911,1.074247,-0.865614,-0.054367,0.868498,-0.766483
1765410551.604375,-8.058345,1.395863,0.445959,-0.033598,0.868498,-0.794736
1765410551.604625,-8.058345,1.395863,0.445959,-0.033598,0.905913,-0.794736
1765410551.604878,-10.356287,1.591344,2.718794,-0.045815,0.932791,-0.738842
1765410551.605211,-9.556431,0.363462,1.261358,-0.089339,0.894612,-0.757473
1765410551.605545,-10.916427,0.781922,2.540052,-0.081092,0.854753,-0.785725
1765410551.605868,-11.832852,1.223099,4.038737,-0.083383,0.854753,-0.790918
1765410551.606118,-9.997607,1.703730,0.927786,-0.069180,0.859487,-0.757167
1765410551.606368,-8.494739,1.120277,0.032281,-0.101404,0.837802,-0.754113
1765410551.606618,-10.562529,1.054519,1.615853,-0.090561,0.794278,-0.764345
1765410551.606883,-11.359397,0.951698,1.892037,-0.054062,0.816880,-0.737009
1765410551.607133,-9.426708,0.557747,0.474653,-0.059712,0.848797,-0.746325
1765410551.607383,-8.993303,1.496891,0.175753,-0.058185,0.852921,-0.784809
1765410551.607633,-9.917501,2.494022,1.359995,-0.036957,0.841314,-0.757778
1765410551.607815,-8.787661,2.466523,0.969632,-0.052993,0.841314,-0.703411
1765410551.608065,-9.453609,1.437111,2.123984,-0.086285,0.836885,-0.705702
1765410551.608315,-10.631275,0.426829,2.928025,-0.096211,0.810313,-0.714712
1765410551.608565,-11.049736,0.802248,2.462936,-0.089492,0.783740,-0.723417
1765410551.608904,-11.309778,1.120875,1.849593,-0.085979,0.774577,-0.739147
1765410551.609154,-10.582256,1.034792,0.947513,-0.095600,0.784351,-0.737925
1765410551.609404,-10.674318,1.669058,1.801769,-0.095600,0.769232,-0.737925
1765410551.609654,-10.870994,1.510043,1.802367,-0.094531,0.784198,-0.725555
1765410551.609833,-10.887134,1.697752,2.728957,-0.091935,0.766636,-0.709673
1765410551.610083,-9.917501,0.878766,1.200980,-0.098349,0.777173,-0.707382
1765410551.610333,-10.344332,1.205763,1.068866,-0.079718,0.751670,-0.712269
1765410551.610583,-10.344332,1.205763,1.068866,-0.079718,0.742354,-0.712269
1765410551.610810,-10.418460,1.790411,2.345767,-0.111483,0.741896,-0.715476
1765410551.611060,-10.127330,1.731229,1.557867,-0.141873,0.741896,-0.694401
1765410551.611310,-9.526542,0.784314,1.093376,-0.166308,0.694248,-0.681878
1765410551.611560,-10.337157,1.142994,1.387494,-0.161268,0.669050,-0.699899
1765410551.611835,-10.059779,1.428742,1.896820,-0.163254,0.662483,-0.701426
1765410551.612168,-8.833093,1.195600,0.234338,-0.178220,0.654542,-0.682184
1765410551.612502,-7.571735,1.415590,-1.895624,-0.168446,0.627359,-0.675312
1765410551.612890,-7.986608,0.431612,-0.930775,-0.170584,0.619875,-0.670577
1765410551.613140,-8.498325,0.304878,-0.079507,-0.162032,0.635147,-0.665538
1765410551.613390,-9.844571,0.736490,1.101745,-0.148440,0.634384,-0.688445
1765410551.613640,-10.589430,1.111908,1.048541,-0.146302,0.632398,-0.675464
1765410551.613891,-10.099234,0.914634,0.137494,-0.133016,0.633162,-0.653473
1765410551.614141,-8.926350,0.322214,-0.013152,-0.133779,0.643241,-0.652099
1765410551.614391,-8.709349,0.937948,0.885940,-0.138514,0.637591,-0.664774
1765410551.614641,-8.830702,1.030607,1.022836,-0.161727,0.631024,-0.656375
1765410551.614862,-9.363939,1.685796,0.567910,-0.167377,0.602771,-0.635911
1765410551.615112,-10.670731,0.883548,1.527379,-0.184329,0.580627,-0.628122
1765410551.615362,-11.254781,1.103539,2.303921,-0.180053,0.580016,-0.630566
1765410551.615612,-11.213532,0.989957,1.984098,-0.188299,0.572075,-0.636369
1765410551.615980,-10.057388,1.297824,0.719751,-0.203113,0.556651,-0.638201
1765410551.616230,-9.359158,1.053324,-0.408895,-0.196699,0.538020,-0.628122
1765410551.616480,-9.030367,1.239837,-0.793878,-0.190895,0.514807,-0.613767
1765410551.616730,-11.513628,1.025825,2.381635,-0.196699,0.530078,-0.619265
1765410551.616913,-12.722979,0.958871,4.093735,-0.201127,0.559247,-0.627053
1765410551.617246,-12.687110,1.043161,2.968675,-0.205251,0.559247,-0.596510
1765410551.617580,-11.219510,0.400526,1.800573,-0.222966,0.510225,-0.613156
1765410551.617794,-11.188426,1.355811,1.244022,-0.211054,0.510225,-0.640339
1765410551.618044,-11.591343,1.818508,2.617169,-0.217010,0.521526,-0.602160
1765410551.618294,-10.750836,1.029412,2.054041,-0.244957,0.520305,-0.586431
1765410551.618544,-10.554757,1.123864,1.585366,-0.253356,0.486096,-0.586431
1765410551.618795,-10.864417,0.765184,1.727642,-0.270002,0.468381,-0.593608
1765410551.619045,-10.224771,1.248206,1.187829,-0.263894,0.464410,-0.585209
1765410551.619295,-9.496651,1.676231,-0.142276,-0.286954,0.448070,-0.576504
1765410551.619545,-9.375896,1.429938,0.349115,-0.294590,0.410043,-0.562149
1765410551.619818,-9.497249,0.286944,0.187709,-0.294590,0.403782,-0.562149
1765410551.620068,-10.315637,-0.043042,1.141798,-0.297033,0.407600,-0.549168
1765410551.620318,-10.166186,0.069943,1.140602,-0.301615,0.426995,-0.564134
1765410551.620568,-10.239119,0.040650,1.230273,-0.309403,0.399200,-0.568868
1765410551.620877,-10.541606,0.091463,0.641439,-0.298102,0.379195,-0.565203
1765410551.621210,-10.497967,0.628886,0.238522,-0.286954,0.369268,-0.564592
1765410551.621544,-10.221784,0.113582,0.729914,-0.297644,0.399964,-0.556498
1765410551.622333,-10.245695,0.733501,1.224294,-0.291535,0.391565,-0.547793
1765410551.622583,-10.732902,0.718556,0.969632,-0.299324,0.388968,-0.541837
1765410551.622833,-11.122667,0.081899,1.560258,-0.301004,0.371406,-0.521832
1765410551.623083,-11.086800,0.139885,1.352224,-0.284358,0.371406,-0.529467
1765410551.622802,-9.938425,0.581062,0.326399,-0.294284,0.372017,-0.536645
1765410551.623052,-10.019726,0.582257,0.896700,-0.310014,0.366366,-0.529926
1765410551.623302,-10.056191,0.902678,0.431612,-0.311694,0.355524,-0.516945
1765410551.623552,-10.703012,1.009086,0.643233,-0.316734,0.346055,-0.498161
1765410551.623852,-10.909850,0.594213,1.756934,-0.337808,0.352927,-0.492357
1765410551.624102,-10.081299,0.649211,0.976207,-0.342543,0.357051,-0.484416
1765410551.624352,-10.168577,0.547585,1.180057,-0.350178,0.312305,-0.470977
1765410551.624602,-9.366330,0.004782,0.074127,-0.363770,0.302989,-0.473115
1765410551.624771,-9.213294,0.106408,-0.260043,-0.368046,0.293063,-0.476322
1765410551.625021,-9.373504,-0.008369,0.512912,-0.373850,0.287718,-0.479376
1765410551.625271,-9.373504,-0.008369,0.512912,-0.373850,0.288328,-0.479376
1765410551.625521,-10.586441,0.352104,0.610952,-0.377820,0.278707,-0.450360
1765410551.625798,-11.196795,0.101626,1.553084,-0.385609,0.278707,-0.447459
1765410551.626048,-10.919415,0.181731,0.879962,-0.374308,0.262672,-0.422108
1765410551.626298,-11.295430,-0.105213,2.013391,-0.377515,0.250455,-0.423177
1765410551.626548,-10.979196,-0.123147,1.211143,-0.373391,0.257480,-0.416610
1765410551.626852,-10.245097,-0.722142,0.485414,-0.372781,0.226478,-0.386830
1765410551.627185,-10.468675,-1.035390,0.887135,-0.374460,0.226478,-0.399811
1765410551.627519,-10.765183,-1.013869,0.481827,-0.366519,0.211665,-0.402255
1765410551.627861,-11.317550,-1.231468,1.523792,-0.358578,0.215635,-0.392023
1765410551.628111,-10.542801,-1.209947,0.494381,-0.343612,0.229074,-0.396604
1765410551.628361,-10.291725,-1.409612,0.485414,-0.350331,0.216246,-0.386220
1765410551.628611,-10.282758,-1.594333,0.539216,-0.346513,0.212581,-0.389732
1765410551.628783,-10.533237,-1.384505,0.489000,-0.320552,0.195477,-0.382096
1765410551.629033,-11.070061,-1.348637,1.471784,-0.317803,0.205709,-0.372475
1765410551.629283,-11.061691,-1.089789,1.568627,-0.308792,0.205709,-0.370490
1765410551.629533,-10.896698,-1.445480,2.028933,-0.315512,0.196851,-0.355982
1765410551.629846,-10.029889,-1.400645,0.695839,-0.303753,0.180358,-0.350942
1765410551.630096,-9.925274,-1.261358,0.214012,-0.302531,0.152105,-0.340863
1765410551.630346,-10.417861,-1.086800,0.925394,-0.288328,0.154243,-0.330478
1765410551.630596,-10.635460,-1.183644,1.087398,-0.288023,0.154243,-0.308945
1765410551.630880,-10.635460,-1.183644,1.087398,-0.288023,0.139583,-0.308945
1765410551.631213,-9.649090,-1.777857,0.291129,-0.290314,0.147524,-0.300088
1765410551.631547,-9.502629,-1.743783,-0.004782,-0.280998,0.124311,-0.286649
1765410551.631876,-10.043041,-1.838833,0.679101,-0.281151,0.125075,-0.284816
1765410551.632126,-10.498564,-1.692970,1.092778,-0.263741,0.121409,-0.278555
1765410551.632376,-10.160808,-1.669058,0.919416,-0.260839,0.127060,-0.264963
1765410551.632626,-9.593494,-1.478957,0.076518,-0.259007,0.113163,-0.263741
1765410551.632871,-9.513390,-1.344452,0.149450,-0.260229,0.118813,-0.246942
1765410551.633121,-9.976088,-1.708512,0.997728,-0.251524,0.099571,-0.224493
1765410551.633371,-10.591821,-1.770086,1.517217,-0.240681,0.094379,-0.222966
1765410551.633621,-10.100429,-1.956002,0.766380,-0.238237,0.102778,-0.219453
1765410551.633844,-9.216881,-1.757532,-0.361071,-0.231671,0.107818,-0.210901
1765410551.634094,-10.032280,-1.676231,1.159732,-0.217468,0.087048,-0.197462
1765410551.634344,-10.502151,-1.734816,1.787422,-0.214108,0.083383,-0.193339
1765410551.634594,-10.467478,-1.544117,1.342061,-0.213497,0.086896,-0.191964
1765410551.634781,-9.890003,-1.349832,0.491392,-0.207389,0.088423,-0.183870
1765410551.635114,-10.269607,-1.342659,1.042563,-0.195782,0.067042,-0.157603
1765410551.635448,-10.597797,-1.597919,1.573410,-0.192423,0.070555,-0.151647
1765410551.635776,-10.698827,-1.832855,1.657102,-0.181885,0.073762,-0.144470
1765410551.636026,-10.230749,-1.889048,0.942731,-0.170737,0.079871,-0.142179
1765410551.636276,-10.359874,-1.685796,0.995337,-0.159436,0.052229,-0.141721
1765410551.636526,-10.633068,-1.407221,1.714490,-0.154854,0.060781,-0.138361
1765410551.636823,-10.548779,-1.445480,1.608680,-0.145844,0.060781,-0.128282
1765410551.637073,-10.548779,-1.445480,1.608680,-0.145844,0.052076,-0.128282
1765410551.637323,-10.400524,-1.694165,1.343257,-0.135612,0.034667,-0.110108
1765410551.637573,-10.619319,-1.408417,1.731229,-0.127671,0.034361,-0.112552
1765410551.637876,-10.401721,-1.490913,1.147776,-0.119271,0.031918,-0.107207
1765410551.638126,-10.310855,-1.439502,1.110713,-0.109803,0.031918,-0.099113
1765410551.638376,-10.236728,-1.471784,0.955284,-0.103236,0.031460,-0.096211
1765410551.638626,-10.522476,-1.320540,1.492109,-0.097433,0.030849,-0.093310
1765410551.638826,-10.440577,-1.054519,1.428742,-0.090561,0.039859,-0.087965
1765410551.639076,-10.563127,-0.921210,1.577594,-0.091324,0.032070,-0.079871
1765410551.639326,-10.450143,-1.122668,1.159732,-0.088575,0.022144,-0.066126
1765410551.639576,-10.303681,-1.208752,0.849474,-0.078343,0.011148,-0.061239
1765410551.639826,-10.309659,-1.159732,1.214730,-0.072693,0.027184,-0.060781
1765410551.640076,-10.328789,-0.890722,1.374940,-0.074373,0.032376,-0.050855
1765410551.640326,-10.574485,-1.137016,1.574007,-0.068111,0.020464,-0.040470
1765410551.640576,-10.279769,-1.313367,0.974414,-0.061087,0.010537,-0.037415
1765410551.640814,-10.301290,-1.213534,1.033596,-0.053603,0.012675,-0.042608
1765410551.641064,-10.279171,-1.045552,1.215925,-0.051465,0.018173,-0.037874
1765410551.641314,-10.465087,-0.967240,1.362386,-0.047953,0.005498,-0.030696
1765410551.641564,-10.381992,-1.001913,1.139407,-0.041997,0.005498,-0.021991
1765410551.641851,-10.243901,-1.114897,0.901482,-0.037721,0.005192,-0.019548
1765410551.642101,-10.120754,-1.098159,0.796270,-0.029474,0.006261,-0.015882
1765410551.642351,-10.281563,-1.031803,1.051530,-0.025962,0.003665,-0.018479
1765410551.642601,-10.396938,-0.852463,1.107126,-0.022297,0.008399,-0.016341
1765410551.642886,-10.273791,-0.748446,0.925394,-0.015730,0.010232,-0.004734
1765410551.643086,-9.929459,-0.844094,0.547585,-0.012523,0.008552,0.001527
1765410551.643286,-9.929459,-0.844094,0.547585,-0.012523,0.001222,0.001527
1765410551.643486,-10.182925,-0.779531,0.873386,-0.001680,0.006414,-0.001833
1765410551.643686,-9.989238,-0.638450,0.636059,0.001680,0.006414,0.002443
1765410551.643836,-9.854136,-0.540411,0.436394,-0.000916,0.007941,0.001985
1765410551.644036,-9.905546,-0.439981,0.657580,0.000764,0.004123,0.007025
1765410551.644236,-9.943208,-0.383190,0.670732,0.002749,0.003054,0.007483
1765410551.644436,-9.852941,-0.310856,0.494978,0.005040,-0.001833,0.004429
1765410551.644636,-9.917501,-0.071736,0.558345,0.005803,-0.001833,0.005192
1765410551.644860,-9.688545,0.044237,-0.008967,0.004276,0.003971,0.009927
1765410551.645060,-9.764465,0.138092,0.203252,0.003971,0.002902,0.013286
1765410551.645260,-10.043041,0.164993,0.515901,0.002138,0.001374,0.008552
1765410551.645460,-10.011955,0.214610,0.293520,-0.000305,0.003054,0.011912
1765410551.645660,-9.677187,0.193687,-0.193687,-0.003207,0.001833,0.012523
1765410551.645836,-9.822452,0.199665,0.129723,-0.002902,0.002138,0.012370
1765410551.646036,-10.099234,0.156026,0.455524,0.001222,0.005345,0.015119
1765410551.646236,-10.010758,0.020923,0.240316,0.001985,0.006567,0.015119
1765410551.646436,-9.916306,0.008967,0.159015,0.001985,0.004429,0.015119
1765410551.646636,-9.923481,0.089670,0.167384,0.000611,0.005040,0.005498
1765410551.646877,-10.040649,0.193089,0.334768,-0.001069,0.000611,0.007941
1765410551.647077,-10.083690,0.230751,0.405308,-0.000916,0.002749,0.006720
1765410551.647277,-10.071137,0.227164,0.339550,-0.000153,0.002749,0.005498
1765410551.647477,-10.071137,0.227164,0.339550,-0.000153,0.002749,0.005498
1765410551.647677,-9.995814,-0.017934,0.288737,-0.000153,0.000764,0.006261
1765410551.647767,-10.129124,0.106408,0.441176,0.001833,0.000611,-0.002138
1765410551.647967,-10.066953,0.266021,0.266619,0.000305,0.001222,-0.004581
1765410551.648167,-9.960544,0.318030,0.170971,0.000000,0.001222,-0.001527
1765410551.648367,-9.960544,0.318030,0.170971,0.000000,-0.001833,-0.001527
1765410551.648567,-10.222381,0.389168,0.468675,-0.003971,-0.002291,-0.003054
1765410551.648769,-10.237924,0.329986,0.497370,-0.005498,-0.000764,-0.007330
1765410551.648969,-10.129722,0.306074,0.387374,-0.009010,-0.005192,-0.006414
1765410551.649169,-10.023313,0.264228,0.216404,-0.011454,-0.005192,-0.004123
1765410551.649369,-10.034073,0.153037,0.296509,-0.013134,-0.009774,-0.003971
1765410551.649569,-10.146461,0.149450,0.459110,-0.017562,-0.010843,-0.006109
1765410551.649830,-10.050812,0.249880,0.356887,-0.015577,-0.010843,-0.007636
1765410551.650030,-9.934240,0.206839,0.294118,-0.020159,-0.009774,-0.005956
1765410551.650230,-9.915709,0.108800,0.259445,-0.019242,-0.012981,-0.005803
1765410551.650430,-10.007172,0.031086,0.372429,-0.018479,-0.012523,-0.006109
1765410551.650630,-10.037063,-0.013152,0.439383,-0.019548,-0.010690,-0.009774
1765410551.650805,-9.904350,-0.002391,0.232544,-0.017715,-0.010996,-0.013134
1765410551.651005,-9.904350,-0.002391,0.232544,-0.017715,-0.010996,-0.013134
1765410551.651205,-9.870873,0.019130,0.342539,-0.019853,-0.011606,-0.007941
1765410551.651405,-9.892395,-0.036466,0.384385,-0.017715,-0.009316,-0.007483
1765410551.651605,-9.725011,-0.104017,0.064562,-0.020769,-0.008705,-0.006567
1765410551.651861,-9.738162,-0.186514,0.236729,-0.022144,-0.009316,-0.010232
1765410551.652111,-9.738162,-0.186514,0.236729,-0.022144,-0.009316,-0.010232
1765410551.652361,-9.978478,-0.039455,0.392157,-0.016035,-0.007025,-0.007789
1765410551.652611,-9.922284,-0.066356,0.359876,-0.017868,-0.010690,-0.008094
1765410551.652845,-9.959349,-0.139885,0.351506,-0.017868,-0.007025,-0.005651
1765410551.653045,-9.945002,-0.169775,0.280966,-0.015119,-0.007025,-0.005192
1765410551.653245,-9.955164,-0.235533,0.383190,-0.015272,-0.007330,-0.006261
1765410551.653445,-9.983260,-0.246294,0.468675,-0.015119,-0.006872,-0.005651
1765410551.653645,-10.011955,-0.181731,0.422047,-0.014355,-0.006720,-0.006720
1765410551.653872,-9.919893,-0.123147,0.276184,-0.012217,-0.008399,-0.005803
1765410551.654072,-9.935436,-0.212817,0.377810,-0.014355,-0.008399,-0.005192
1765410551.654272,-9.918698,-0.212817,0.368245,-0.013592,-0.014203,-0.001833
1765410551.654472,-9.955761,-0.176351,0.340746,-0.010537,-0.006872,-0.003360
1765410551.654672,-9.910329,-0.255858,0.405308,-0.011301,-0.005651,-0.001069
1765410551.654869,-9.933045,-0.297704,0.459110,-0.012370,-0.007025,-0.002291
1765410551.655069,-9.880439,-0.221784,0.270206,-0.008858,-0.008247,-0.002138
1765410551.655269,-9.839788,-0.190100,0.278575,-0.004734,-0.006720,-0.000764
1765410551.655469,-9.873264,-0.258847,0.374223,-0.007178,-0.009774,0.000764
1765410551.655669,-9.855330,-0.224175,0.329986,-0.005651,-0.008552,0.002596
1765410551.655870,-9.852941,-0.200861,0.288140,-0.005192,-0.004734,0.003054
1765410551.656070,-9.812887,-0.261239,0.362267,-0.007789,-0.008552,0.001069
1765410551.656270,-9.915112,-0.127929,0.336561,-0.005803,-0.007789,0.000916
1765410551.656470,-9.933045,-0.010760,0.309063,-0.001833,-0.004734,0.000764
1765410551.656670,-9.893590,-0.107006,0.363462,-0.003054,-0.002443,0.006109
1765410551.656918,-9.857125,-0.150646,0.315638,-0.006261,-0.003207,0.006567
1765410551.657118,-9.893590,-0.050813,0.252272,-0.001527,-0.003054,0.005498
1765410551.657318,-9.928263,-0.076518,0.344333,-0.002902,-0.005498,0.003207
1765410551.657518,-9.990434,-0.054400,0.426829,-0.003971,-0.005192,0.002291
1765410551.657718,-10.001194,0.034672,0.347322,-0.000764,-0.005345,0.004887
1765410551.657858,-9.925274,-0.034672,0.243902,-0.002596,-0.003360,0.004123
1765410551.658058,-10.040649,-0.052606,0.485414,-0.004429,-0.003818,0.002749
1765410551.658258,-10.132710,0.005978,0.480631,-0.003360,-0.005956,0.005040
1765410551.658458,-10.028693,-0.028097,0.364658,-0.001374,-0.005345,0.007636
1765410551.658658,-9.911524,-0.074127,0.309660,-0.002138,-0.005345,0.001985
1765410551.658816,-9.929459,0.026303,0.322812,-0.002138,-0.007483,0.001680
1765410551.659016,-9.977880,0.100430,0.279770,-0.002596,-0.003818,0.002902
1765410551.659216,-9.967718,0.021521,0.365854,-0.001985,-0.008705,0.004123
1765410551.659416,-9.964728,0.026303,0.357484,-0.001069,-0.007636,0.002596
1765410551.659616,-9.844571,0.094452,0.168580,-0.001833,-0.005498,0.001527
1765410551.659848,-9.815877,0.100430,0.253467,-0.003818,-0.005345,0.001985
1765410551.660048,-9.950979,0.145863,0.333572,-0.003512,-0.008552,0.002138
1765410551.660248,-10.035269,0.174558,0.359278,-0.005345,-0.008705,0.001680
1765410551.660448,-9.999999,0.090866,0.329986,-0.009927,-0.004429,0.002749
1765410551.660648,-9.898373,0.072334,0.292324,-0.008094,-0.005956,0.001833
1765410551.660837,-9.846962,0.099235,0.196676,-0.006109,-0.005803,-0.000153
1765410551.661037,-9.906742,0.112984,0.374223,-0.005651,-0.009621,-0.000305
1765410551.661237,-10.013150,0.054998,0.468675,-0.009621,-0.009621,-0.002443
1765410551.661437,-10.013150,0.054998,0.468675,-0.009621,-0.003971,-0.002443
1765410551.661637,-9.924676,0.140483,0.246891,-0.007636,-0.007483,-0.003207
1765410551.661839,-9.895385,0.029890,0.365854,-0.009621,-0.010690,-0.002138
1765410551.662039,-9.974891,0.044237,0.408297,-0.010690,-0.009468,-0.001680
1765410551.662239,-9.936632,0.022119,0.313247,-0.012675,-0.009468,-0.003207
1765410551.662439,-9.936632,0.022119,0.313247,-0.012675,-0.006872,-0.003207
1765410551.662639,-9.867287,0.053802,0.237924,-0.009468,-0.006872,-0.003054
1765410551.662838,-9.875656,0.062171,0.301889,-0.008399,-0.005651,-0.005040
1765410551.663038,-9.885818,-0.016738,0.400526,-0.010537,-0.008094,-0.003818
1765410551.663238,-9.869678,-0.044237,0.290531,-0.010232,-0.010385,-0.005192
1765410551.663438,-9.835006,0.000000,0.178144,-0.009468,-0.005803,-0.003054
1765410551.663638,-9.858918,-0.080105,0.342539,-0.010690,-0.007330,-0.003665
1765410551.663859,-9.920491,-0.080105,0.334768,-0.008247,-0.007330,-0.003207
1765410551.664059,-9.922883,-0.019130,0.284553,-0.010690,-0.008247,-0.006109
1765410551.664259,-9.881036,-0.059780,0.407700,-0.011606,-0.006567,-0.003512
1765410551.664459,-9.887612,-0.117169,0.329986,-0.010843,-0.004123,-0.002749
1765410551.664659,-9.860114,-0.027499,0.168580,-0.008399,-0.005040,-0.005345
1765410551.664861,-9.951577,-0.015543,0.361071,-0.009621,-0.005040,-0.004887
1765410551.665061,-10.003586,-0.062171,0.446557,-0.009621,-0.005651,-0.004887
1765410551.665261,-10.019128,0.018532,0.359876,-0.008705,-0.003818,-0.002596
1765410551.665461,-9.939023,-0.036466,0.262434,-0.011606,-0.003054,-0.004276
1765410551.665661,-9.939023,-0.100430,0.388570,-0.011912,-0.002749,-0.001985
1765410551.665836,-9.998802,-0.075323,0.361071,-0.010385,-0.007025,-0.002902
1765410551.666036,-9.998802,-0.075323,0.361071,-0.010385,-0.004123,-0.002902
1765410551.666236,-10.005977,-0.115973,0.416069,-0.011301,-0.005498,-0.002138
1765410551.666436,-9.937828,-0.083692,0.321616,-0.012217,-0.005498,0.000000
1765410551.666636,-9.970109,-0.051411,0.257054,-0.009163,-0.008094,-0.001985
1765410551.666854,-9.999999,-0.146461,0.414275,-0.006567,-0.005345,-0.002291
1765410551.667104,-10.005379,-0.214012,0.402917,-0.005498,-0.008247,-0.001069
1765410551.667354,-9.895385,-0.131516,0.233142,-0.007636,-0.004887,-0.001222
1765410551.667604,-9.849353,-0.089072,0.173362,-0.007483,-0.003818,-0.003207
1765410551.667814,-9.819464,-0.126734,0.289335,-0.007330,-0.008705,0.000153
1765410551.668014,-9.922284,-0.080105,0.271401,-0.005803,-0.009927,0.002443
1765410551.668214,-9.939023,-0.067551,0.332975,-0.005192,-0.007025,0.000153
1765410551.668414,-9.959349,-0.124342,0.436992,-0.006261,-0.003665,-0.001069
1765410551.668614,-9.927068,-0.040650,0.318030,-0.007483,-0.006109,-0.000305
1765410551.668823,-9.971304,0.056791,0.243902,-0.009468,-0.004429,-0.000458
1765410551.669023,-9.967718,0.008369,0.425036,-0.006720,-0.005651,-0.000458
1765410551.669223,-10.045432,-0.013152,0.484218,-0.006567,-0.003207,0.002596
1765410551.669423,-10.009563,0.005978,0.314443,-0.005956,-0.005651,0.001222
1765410551.669623,-9.956957,-0.007771,0.288140,-0.006872,-0.007483,-0.002749
1765410551.669783,-9.886416,0.005380,0.371832,-0.008094,-0.004581,-0.000611
1765410551.669983,-9.967718,0.095648,0.379005,-0.009774,-0.007178,0.001527
1765410551.670183,-9.931850,0.080105,0.305476,-0.007483,-0.005803,0.001833
1765410551.670383,-9.866092,-0.034672,0.316834,-0.009163,-0.007330,0.006109
1765410551.670583,-9.888808,-0.078312,0.321616,-0.011148,-0.007483,0.002902
1765410551.670805,-9.919893,0.007174,0.274988,-0.007330,-0.006567,-0.002138
1765410551.671005,-9.854136,0.032879,0.249283,-0.008399,-0.004123,-0.000458
1765410551.671205,-9.801530,0.015543,0.289335,-0.010690,-0.008399,0.000611
1765410551.671405,-9.930654,0.044237,0.367049,-0.008094,-0.009468,0.001527
1765410551.671605,-9.918698,0.015543,0.349713,-0.006567,-0.004276,0.000305
1765410551.671888,-9.945002,-0.072932,0.349115,-0.008705,-0.004581,-0.001833
1765410551.672088,-9.927068,-0.054998,0.327594,-0.006872,-0.006720,-0.001985
1765410551.672288,-9.897775,0.052606,0.267814,-0.005803,-0.006720,-0.003971
1765410551.672488,-9.864896,0.028694,0.277379,-0.007636,-0.005651,-0.001985
1765410551.672688,-9.950979,-0.002391,0.411286,-0.007636,-0.008399,-0.000305
1765410551.672848,-9.979673,0.022716,0.358680,-0.008247,-0.005803,0.001069
1765410551.673048,-9.884624,-0.015543,0.223577,-0.008705,-0.006720,-0.001985
1765410551.673248,-9.854733,0.000000,0.312052,-0.006872,-0.006720,-0.000916
1765410551.673448,-10.014346,0.031683,0.451937,-0.008858,-0.005956,-0.003207
1765410551.673648,-10.047822,0.043042,0.414873,-0.007330,-0.006720,-0.001527
1765410551.673795,-9.980272,-0.043042,0.360473,-0.010385,-0.007178,0.000153
1765410551.673995,-9.885818,-0.022716,0.344931,-0.009010,-0.007636,-0.001222
1765410551.674195,-9.933643,0.005978,0.242109,-0.009774,-0.008399,-0.001069
1765410551.674395,-9.964130,-0.026303,0.368245,-0.008858,-0.006109,-0.000764
1765410551.674595,-10.013150,-0.048422,0.425634,-0.006872,-0.008094,-0.002902
1765410551.674784,-9.943208,-0.038259,0.318627,-0.008858,-0.004581,-0.000611
1765410551.674984,-9.882831,-0.084888,0.243902,-0.010996,-0.004734,0.000916
1765410551.675184,-9.892395,-0.081899,0.388570,-0.009010,-0.007483,-0.001527
1765410551.675384,-9.908535,-0.059182,0.317432,-0.007941,-0.005803,-0.000153
1765410551.675584,-9.901959,-0.047824,0.233142,-0.007789,-0.005651,-0.001374
1765410551.675808,-9.910927,-0.078312,0.353898,-0.008552,-0.007330,-0.001374
1765410551.676008,-9.966521,-0.043639,0.445361,-0.009010,-0.004276,-0.000153
1765410551.676208,-9.899570,-0.029890,0.227164,-0.004581,-0.007178,0.000611
1765410551.676408,-9.795551,-0.099235,0.169177,-0.006720,-0.007636,-0.000458
1765410551.676608,-9.835006,-0.115973,0.293520,-0.006720,-0.007483,0.000153
1765410551.676810,-9.948587,-0.037064,0.356289,-0.005803,-0.007483,-0.001069
1765410551.677010,-10.003586,0.001196,0.334170,-0.007789,-0.007941,0.000000
1765410551.677210,-9.956957,-0.028694,0.290531,-0.007178,-0.004734,0.002291
1765410551.677410,-9.979075,-0.083692,0.405308,-0.007178,-0.005651,0.000764
1765410551.677610,-9.994021,-0.072932,0.414873,-0.007178,-0.009621,0.000153
1765410551.677831,-9.950381,-0.060976,0.291726,-0.007941,-0.009621,-0.000764
1765410551.678031,-9.884026,-0.034672,0.290531,-0.007941,-0.005498,0.001222
1765410551.678231,-10.035867,-0.027499,0.460306,-0.008247,-0.009010,-0.000764
1765410551.678431,-10.035867,-0.027499,0.460306,-0.008247,-0.009621,-0.000764
1765410551.678631,-9.948587,-0.012554,0.271999,-0.006109,-0.009010,0.001222
1765410551.678835,-9.827832,-0.055595,0.235533,-0.007789,-0.009010,-0.002291
1765410551.679035,-9.894786,-0.081301,0.371832,-0.006414,-0.007330,-0.001222
1765410551.679235,-9.909132,0.001196,0.314443,-0.007330,-0.005040,-0.000305
1765410551.679435,-9.825441,-0.023912,0.221186,-0.007483,-0.007178,-0.001833
1765410551.679635,-9.848158,-0.019727,0.266021,-0.007636,-0.009010,-0.000916
1765410551.679784,-9.989238,-0.034672,0.417264,-0.006109,-0.009010,-0.000611
1765410551.679984,-9.988043,-0.028694,0.416069,-0.006261,-0.007789,-0.000916
1765410551.680184,-9.839788,-0.016738,0.217599,-0.005192,-0.007483,-0.004581
1765410551.680384,-9.801530,-0.034672,0.149450,-0.006414,-0.007483,-0.002596
1765410551.680584,-9.801530,-0.034672,0.149450,-0.006414,-0.008094,-0.002596
1765410551.680837,-9.673002,-0.191296,0.600191,-0.006567,-0.009621,-0.003054
1765410551.681037,-9.170252,-0.017934,-0.241511,-0.009010,0.000000,-0.009468
1765410551.681237,-9.415350,0.403515,-0.106408,-0.011912,0.001069,-0.011606
1765410551.681437,-9.979075,0.238522,0.888331,-0.007941,0.001069,0.009927
1765410551.681637,-9.971304,-0.153037,1.011478,-0.005498,0.003818,0.015272
1765410551.681816,-9.747727,-0.190698,0.507532,-0.013744,0.009010,-0.005040
1765410551.682066,-9.607842,-0.296509,-0.211621,-0.012828,0.005345,-0.003512
1765410551.682316,-9.707077,-0.335964,-0.193687,-0.000611,-0.002596,0.000764
1765410551.682566,-10.300095,0.269608,0.791487,-0.002291,-0.002596,-0.014203
1765410551.682829,-10.490194,0.580464,1.351626,-0.014050,0.021228,-0.007178
1765410551.683029,-9.849353,0.068149,0.320421,-0.016341,-0.015424,0.015272
1765410551.683229,-9.688545,-0.548780,-0.021521,-0.009468,-0.015424,0.017410
1765410551.683429,-9.698708,-0.634864,0.068149,-0.008399,-0.005803,-0.008399
1765410551.683629,-9.881634,0.205643,0.398135,-0.007330,0.012523,-0.023060
1765410551.683853,-9.758488,0.564921,0.091463,-0.007789,0.011606,-0.007025
1765410551.684053,-9.815279,0.193687,0.225968,-0.008705,0.000916,0.011606
1765410551.684253,-9.931850,-0.309660,0.424438,-0.008552,-0.001833,0.013286
1765410551.684453,-9.932447,-0.392157,0.472860,-0.008247,0.010996,-0.001680
1765410551.684653,-9.835604,-0.252272,0.295313,-0.008705,0.009774,-0.008552
1765410551.684877,-9.873863,0.066954,0.206839,-0.004429,-0.001222,-0.009010
1765410551.685077,-9.957555,0.253467,0.251076,-0.006872,0.004123,-0.004581
1765410551.685277,-9.888808,0.192492,0.417264,-0.006872,0.009468,0.000916
1765410551.685477,-9.888808,0.192492,0.417264,-0.006872,0.007636,0.000916
1765410551.685677,-9.861309,-0.294118,0.236729,-0.007789,-0.002443,0.001680
1765410551.685833,-9.864299,-0.248685,0.198470,-0.006414,0.001680,-0.001527
1765410551.686033,-9.796148,-0.032281,0.215208,-0.005345,0.010996,-0.006872
1765410551.686233,-9.848158,0.193687,0.350311,-0.007330,0.009468,-0.005345
1765410551.686433,-9.983260,0.245098,0.324008,-0.008399,0.007483,0.001069
1765410551.686633,-9.970109,-0.035868,0.224175,-0.008399,0.008247,0.009010
1765410551.686844,-9.988043,-0.356289,0.363462,-0.007636,0.008399,0.007178
1765410551.687044,-10.019128,-0.345528,0.464491,-0.009621,0.006567,-0.005192
1765410551.687244,-9.982065,0.013749,0.255858,-0.006720,0.006567,-0.009621
1765410551.687444,-9.791965,0.277977,0.057389,-0.006414,0.005192,-0.005651
1765410551.687644,-9.873264,0.249880,0.337757,-0.010079,0.007178,0.003207
1765410551.687799,-10.032280,-0.070540,0.510521,-0.008858,0.005192,0.009927
1765410551.687999,-10.003586,-0.301291,0.278575,-0.007483,0.001833,0.005040
1765410551.688199,-9.925274,-0.276184,0.099235,-0.002443,0.004734,-0.003971
1765410551.688399,-10.008368,-0.044237,0.297704,-0.007483,0.007636,-0.005651
1765410551.688599,-10.086082,0.164395,0.483022,-0.010537,0.004734,-0.004123
1765410551.688863,-10.007172,0.168580,0.288737,-0.009468,0.004581,-0.002138
1765410551.689063,-10.007172,0.168580,0.288737,-0.009468,0.003512,-0.002138
1765410551.689263,-10.028095,-0.106408,0.415471,-0.009774,0.002902,0.003054
1765410551.689463,-10.108798,-0.149450,0.523075,-0.008094,0.003512,0.000153
1765410551.689663,-9.978478,-0.099235,0.240913,-0.007941,0.005651,-0.004887
1765410551.689850,-9.887612,0.054998,0.190100,-0.009774,0.001680,-0.007178
1765410551.690050,-10.010758,0.139885,0.279770,-0.009010,-0.000916,-0.000305
1765410551.690250,-10.123145,0.084888,0.385581,-0.006872,0.001069,0.002749
1765410551.690450,-10.100429,-0.008369,0.353898,-0.005345,0.007025,0.003207
1765410551.690650,-10.062170,-0.176351,0.377810,-0.009316,0.003207,-0.000458
1765410551.690857,-10.105808,-0.121951,0.401124,-0.007636,-0.000305,-0.002291
1765410551.691057,-10.059779,-0.011358,0.324008,-0.009774,-0.000153,-0.003360
1765410551.691257,-9.966521,0.119560,0.297704,-0.009163,-0.001833,-0.005040
1765410551.691457,-9.960544,0.084888,0.245098,-0.009163,-0.005803,-0.005040
1765410551.691657,-10.022118,0.022716,0.290531,-0.010996,0.000458,0.005956
1765410551.691836,-10.108200,-0.083692,0.426231,-0.008858,0.000458,0.002138
1765410551.692036,-10.058583,-0.188307,0.420851,-0.008247,0.003360,-0.000764
1765410551.692236,-10.019128,-0.105811,0.294118,-0.008552,-0.004123,-0.001222
1765410551.692436,-10.019128,-0.105811,0.294118,-0.008552,-0.006720,-0.001222
1765410551.692636,-9.915112,0.043042,0.302487,-0.007636,-0.002291,0.000305
1765410551.692853,-10.013150,-0.005978,0.418460,-0.007941,-0.002291,0.001527
1765410551.693053,-9.999999,-0.005380,0.335964,-0.007483,-0.004581,0.000000
1765410551.693253,-9.951577,-0.016141,0.247489,-0.008705,-0.001680,0.001222
1765410551.693453,-9.884026,-0.087279,0.237924,-0.008705,-0.004429,-0.000153
1765410551.693653,-9.939621,-0.087279,0.294118,-0.010537,-0.005345,-0.002596
1765410551.694879,-9.942013,0.001196,0.271999,-0.007178,-0.005803,-0.001069
1765410551.695212,-9.870873,0.014347,0.142276,-0.008399,-0.005192,-0.000916
1765410551.695546,-9.896580,-0.034672,0.313845,-0.007636,-0.006414,-0.001069
1765410551.697830,-9.970109,-0.025705,0.399928,-0.007636,-0.007483,-0.001069
1765410551.700797,-9.952174,-0.041846,0.329986,-0.007025,-0.004887,0.000611
1765410551.702823,-9.927068,-0.050813,0.297107,-0.010537,-0.007636,-0.000916
1765410551.705877,-10.002987,-0.040650,0.362267,-0.008858,-0.005803,-0.002291
1765410551.707854,-9.942610,-0.033477,0.302487,-0.008094,-0.003360,-0.001069
1765410551.710956,-9.814680,-0.017934,0.212817,-0.004734,-0.003360,-0.002596
1765410551.712891,-9.830223,-0.050215,0.225968,-0.004734,-0.006872,-0.002596
1765410551.714873,-9.965326,-0.019130,0.406504,-0.007483,-0.008858,-0.000305
1765410551.717858,-9.949186,-0.031086,0.387972,-0.008552,-0.003054,0.003207
1765410551.719811,-9.819464,-0.066954,0.242109,-0.006872,-0.008552,0.000458
1765410551.722889,-9.868484,-0.058584,0.322812,-0.006109,-0.008552,-0.002291
1765410551.725804,-9.868484,-0.058584,0.322812,-0.006109,-0.007025,-0.002291
1765410551.727821,-9.934838,0.035868,0.340148,-0.007178,-0.005651,-0.000611
1765410551.729860,-9.823050,-0.015543,0.256456,-0.007178,-0.003360,0.000305
1765410551.734996,-9.904947,-0.052009,0.377810,-0.010385,-0.009468,-0.002291
1765410551.735496,-10.014346,-0.066954,0.432807,-0.007789,-0.009468,0.000153
1765410551.737837,-10.005977,-0.011358,0.364060,-0.006720,-0.005803,-0.003207
1765410551.740861,-9.922883,0.025108,0.290531,-0.009468,-0.005498,-0.002443
1765410551.742864,-9.934240,-0.014945,0.372429,-0.009468,-0.005498,0.001069
1765410551.743859,-9.980869,-0.029890,0.419656,-0.009468,-0.003971,0.001069
1765410551.747812,-9.940218,0.003587,0.332377,-0.006567,-0.003207,-0.001680
1765410551.749836,-9.867287,-0.013152,0.281564,-0.005803,-0.000458,-0.000764
1765410551.752828,-9.906144,-0.029890,0.364658,-0.010232,-0.005803,-0.000153
1765410551.754823,-9.959349,-0.037064,0.407700,-0.009927,-0.003054,-0.000458
1765410551.757850,-9.905546,0.027499,0.316834,-0.009927,-0.001222,-0.002291
1765410551.760847,-9.868484,-0.039455,0.242109,-0.008094,-0.001374,-0.002596
1765410551.762865,-9.903752,-0.035868,0.379005,-0.008858,-0.003207,-0.002596
1765410551.765830,-9.995814,0.006576,0.390961,-0.007789,-0.003207,-0.001222
1765410551.767836,-9.927666,-0.038259,0.364658,-0.007330,-0.003207,-0.002902
1765410551.770921,-9.927666,-0.038259,0.364658,-0.007330,-0.003818,-0.002902
1765410551.772838,-9.910927,0.014347,0.311454,-0.010385,-0.000611,-0.005192
1765410551.774848,-9.841581,-0.001196,0.233142,-0.010843,-0.000611,-0.004276
1765410551.777783,-9.925871,0.011956,0.335366,-0.010843,-0.001680,-0.003360
1765410551.779848,-10.029292,-0.017336,0.467480,-0.008552,-0.001527,-0.003971
1765410551.782851,-10.031682,-0.014945,0.420851,-0.008552,0.000916,-0.002749
1765410551.785830,-9.872069,-0.023912,0.252272,-0.009163,0.000305,-0.003207
1765410551.787816,-9.812887,-0.025705,0.230153,-0.009927,-0.002749,-0.005498
1765410551.788902,-9.858320,0.025108,0.299498,-0.011606,0.000764,-0.004887
1765410551.792869,-9.918099,0.032281,0.263032,-0.009468,0.000764,-0.005192
1765410551.795800,-9.903154,-0.023912,0.310856,-0.010690,0.002596,0.000000
1765410551.797863,-9.875656,-0.083692,0.308465,-0.007178,-0.000458,0.000458
1765410551.798860,-9.892395,-0.078910,0.255858,-0.007025,0.001374,-0.003971
1765410551.802907,-9.912720,-0.027499,0.284553,-0.008552,0.001833,-0.004887
1765410551.805875,-9.985652,-0.012554,0.356289,-0.008858,0.000458,-0.002596
1765410551.806375,-9.986848,0.034672,0.325203,-0.005498,0.001374,-0.004734
1765410551.808925,-9.854136,-0.015543,0.245696,-0.009163,0.002443,-0.005040
1765410551.812860,-9.900167,-0.057389,0.286944,-0.009927,-0.001833,-0.005040
1765410551.814869,-9.971304,-0.062171,0.344333,-0.010537,-0.001374,-0.005040
1765410551.817794,-9.947392,-0.069943,0.310856,-0.009468,0.000764,-0.008399
1765410551.820806,-9.958751,0.008369,0.309660,-0.006872,0.000916,-0.009927
1765410551.822791,-10.008368,0.041846,0.359876,-0.009927,0.001222,-0.004581
1765410551.824857,-9.964130,0.038259,0.309063,-0.008247,0.003665,-0.001069
1765410551.827828,-9.929459,-0.062769,0.184122,-0.009010,0.003054,-0.003665
1765410551.830826,-9.934838,-0.133907,0.297704,-0.009316,-0.002902,-0.002902
1765410551.832885,-10.046029,-0.092659,0.375418,-0.005651,-0.002902,-0.004734
1765410551.833873,-10.014943,-0.039455,0.375418,-0.006720,-0.001680,-0.005956
1765410551.837877,-10.001194,0.014347,0.289335,-0.008705,0.000000,-0.006872
1765410551.840905,-9.952174,0.025108,0.327594,-0.006872,-0.003207,-0.004581
1765410551.842884,-9.912720,-0.008369,0.267814,-0.011759,-0.001680,-0.002749
1765410551.845860,-9.921686,-0.083094,0.221186,-0.012065,-0.002291,-0.002443
1765410551.847832,-9.994021,-0.096844,0.346126,-0.008552,-0.004581,-0.003360
1765410551.850785,-10.087276,-0.063965,0.457317,-0.005651,-0.002138,-0.004429
1765410551.852808,-10.004781,-0.046628,0.333572,-0.006261,-0.000916,-0.007178
1765410551.855833,-9.933045,0.019130,0.295911,-0.009774,-0.001069,-0.006109
1765410551.857824,-10.031085,0.019130,0.375418,-0.010537,-0.004734,-0.005345
1765410551.860878,-10.040649,0.001196,0.334768,-0.008552,-0.009163,-0.005192
1765410551.862792,-9.956359,-0.057389,0.224773,-0.007330,-0.001833,-0.003054
1765410551.865795,-9.910329,-0.150646,0.245098,-0.007025,-0.002443,-0.003207
1765410551.867842,-9.933045,-0.116571,0.367049,-0.008399,-0.001222,-0.007483
1765410551.868840,-9.946795,-0.014347,0.322812,-0.008094,-0.002596,-0.007789
1765410551.870804,-9.941415,0.071736,0.239120,-0.006414,-0.003360,-0.006414
1765410551.875785,-9.945002,0.044237,0.334768,-0.008399,-0.005040,-0.005345
1765410551.877841,-9.961740,-0.056791,0.437590,-0.007789,-0.004734,-0.003971
1765410551.880789,-9.968913,-0.113582,0.321616,-0.005651,-0.001680,-0.006414
1765410551.882829,-9.921089,-0.117169,0.245098,-0.002596,-0.003971,-0.007789
1765410551.884863,-9.894786,-0.020325,0.303682,-0.005956,-0.006414,-0.008552
1765410551.887887,-9.986848,0.078910,0.321019,-0.003512,-0.004276,-0.006720
1765410551.890888,-9.909132,0.104017,0.320421,-0.007330,-0.002902,-0.008094
1765410551.892887,-9.952174,0.064562,0.371832,-0.008247,-0.007636,-0.006567
1765410551.894829,-10.022716,-0.071138,0.425634,-0.008247,-0.007636,-0.001833
1765410551.897834,-10.022716,-0.071138,0.425634,-0.008247,-0.006414,-0.001833
1765410551.899839,-9.856527,-0.070540,0.230751,-0.009927,-0.001833,-0.006261
1765410551.902817,-9.924676,-0.006576,0.339550,-0.011759,-0.003818,-0.010385
1765410551.905868,-9.991032,0.059182,0.413678,-0.009468,-0.006261,-0.010690
1765410551.907823,-9.890003,0.088474,0.254663,-0.008094,-0.004734,-0.006567
1765410551.910848,-9.762074,-0.001196,0.162004,-0.010385,-0.000305,-0.004887
1765410551.915787,-9.915112,-0.105811,0.368843,-0.007178,-0.002596,-0.003971
1765410551.916287,-10.068149,-0.145863,0.461502,-0.007941,-0.004581,-0.006720
1765410551.917858,-9.994021,-0.076518,0.435198,-0.008247,0.000153,-0.012675
1765410551.920857,-9.790769,0.015543,0.219990,-0.010690,-0.000916,-0.011454
1765410551.922835,-9.789574,0.011956,0.221186,-0.011606,-0.006414,-0.010232
1765410551.923875,-9.964130,0.010760,0.380799,-0.009927,-0.001680,-0.008094
1765410551.927812,-9.945002,-0.031086,0.376016,-0.008858,-0.001680,-0.008705
1765410551.928821,-9.809300,-0.080105,0.191296,-0.008247,0.004887,-0.007330
1765410551.932853,-9.907937,-0.084888,0.304878,-0.006872,-0.000458,-0.010537
1765410551.934835,-10.052606,-0.026303,0.530846,-0.005040,-0.005651,-0.011606
1765410551.937955,-9.998206,0.070540,0.461502,-0.010537,0.001833,-0.014050
1765410551.939897,-9.824843,0.118364,0.183525,-0.009316,0.000458,-0.011301
1765410551.942882,-9.796148,0.069345,0.185916,-0.009316,-0.002902,-0.011301
1765410551.945866,-10.037660,-0.005978,0.456121,-0.005040,-0.007178,-0.005345
1765410551.947798,-10.044236,-0.108800,0.362267,-0.005651,0.001374,-0.006872
1765410551.950840,-9.909132,-0.111191,0.218795,-0.005498,0.005345,-0.008858
1765410551.952893,-9.936632,-0.087279,0.278575,-0.007025,-0.000153,-0.013134
1765410551.955893,-9.936632,-0.087279,0.278575,-0.007025,-0.002749,-0.013134
1765410551.957852,-9.906144,0.027499,0.291726,-0.007941,-0.000153,-0.010996
1765410551.958952,-9.794355,-0.019130,0.129125,-0.009163,-0.000153,-0.008094
1765410551.962940,-9.794355,-0.019130,0.129125,-0.009163,-0.003360,-0.008094
1765410551.964856,-9.965924,-0.153037,0.384983,-0.007178,-0.004887,-0.013286
1765410551.967799,-9.966521,-0.076518,0.286944,-0.010232,0.000305,-0.013134
1765410551.970963,-9.917501,-0.003587,0.266021,-0.010996,-0.000153,-0.014508
1765410551.972836,-9.992825,-0.029890,0.308465,-0.009316,-0.000153,-0.010385
1765410551.975821,-9.967718,-0.063367,0.351506,-0.009621,-0.004429,-0.012217
1765410551.976321,-9.857125,-0.052606,0.157819,-0.009927,0.000458,-0.011148
1765410551.980851,-9.842180,-0.010760,0.157221,-0.005803,-0.000916,-0.010232
1765410551.982833,-10.041844,-0.065160,0.339550,-0.005651,0.000153,-0.007483
1765410551.985847,-10.081299,-0.033477,0.465686,-0.002902,0.000153,-0.008247
1765410551.987930,-9.985652,-0.076518,0.307867,-0.005803,0.004429,-0.012523
1765410551.990936,-9.916306,-0.101626,0.255858,-0.005956,-0.001833,-0.011148
1765410551.993884,-10.028095,-0.179340,0.290531,-0.007330,-0.004734,-0.012370
1765410551.995933,-10.098038,-0.120756,0.392157,-0.005345,-0.001222,-0.015272
1765410551.997841,-9.952772,-0.024510,0.226566,-0.001985,0.003360,-0.014966
1765410552.000846,-9.906144,-0.049020,0.282759,-0.005498,-0.004429,-0.013744
1765410552.002826,-9.991630,-0.095648,0.271401,-0.007941,-0.004581,-0.012828
1765410552.004890,-9.934240,-0.101626,0.230751,-0.008705,-0.006261,-0.014050
1765410552.007921,-9.934240,-0.101626,0.230751,-0.008705,-0.002443,-0.014050
1765410552.008898,-9.962935,-0.009565,0.309660,-0.008552,-0.007636,-0.014813
1765410552.012821,-10.094451,0.016141,0.401722,-0.007330,-0.003207,-0.016188
1765410552.015829,-9.996411,-0.004782,0.194883,-0.006567,-0.000764,-0.013439
1765410552.017914,-9.927068,-0.047226,0.221784,-0.003971,-0.000764,-0.012065
1765410552.019827,-9.927068,-0.047226,0.221784,-0.003971,-0.000764,-0.012065
1765410552.022854,-10.109993,-0.060976,0.480631,-0.003207,-0.000764,-0.012370
1765410552.024980,-9.998206,-0.090268,0.352702,-0.002291,-0.000611,-0.014966
1765410552.028909,-9.936632,-0.079507,0.338355,-0.003054,-0.003512,-0.013592
1765410552.030906,-9.968913,-0.065160,0.432209,-0.002596,-0.006414,-0.012370
1765410552.032865,-10.025107,-0.041846,0.377810,-0.002291,-0.010232,-0.011454
1765410552.035858,-9.927666,-0.038259,0.245098,-0.006261,-0.006872,-0.014203
1765410552.037848,-9.901959,-0.050215,0.201459,-0.005651,-0.010537,-0.014966
1765410552.039879,-9.895982,-0.028694,0.304878,-0.005956,-0.014508,-0.014508
1765410552.040868,-9.961142,-0.040650,0.305476,-0.006872,-0.010996,-0.016646
1765410552.045870,-9.974891,0.044237,0.249880,-0.010843,-0.004887,-0.014508
1765410552.047821,-10.019128,-0.092061,0.408895,-0.012370,-0.009163,-0.011301
1765410552.049866,-9.955761,-0.125538,0.292922,-0.010843,-0.007178,-0.013744
1765410552.052839,-9.848158,-0.042444,0.209828,-0.006720,-0.006567,-0.015882
1765410552.055856,-9.813485,-0.044237,0.115973,-0.006872,-0.003818,-0.017410
1765410552.057800,-9.948587,0.010760,0.323410,-0.006414,-0.005956,-0.014813
1765410552.060839,-10.115375,-0.033477,0.581062,-0.003818,-0.004581,-0.016493
1765410552.061339,-10.004781,-0.045433,0.361071,-0.004123,0.000153,-0.015882
1765410552.065938,-9.887015,-0.008369,0.230153,-0.003971,0.001069,-0.014203
1765410552.067863,-10.000596,-0.093257,0.459708,-0.003971,-0.008858,-0.016341
1765410552.070868,-9.992227,-0.034672,0.552367,-0.003360,-0.006261,-0.015272
1765410552.072858,-9.837397,-0.046628,0.230751,-0.003512,-0.001680,-0.018021
1765410552.074909,-9.824244,0.043042,0.186514,-0.003665,-0.003665,-0.014050
1765410552.077828,-10.123145,-0.054998,0.517097,-0.008552,-0.013134,-0.015882
1765410552.080815,-10.185316,-0.029890,0.604376,-0.003512,-0.006261,-0.016188
1765410552.081315,-9.927068,-0.215208,0.240316,-0.007025,-0.000916,-0.016188
1765410552.084806,-9.788378,-0.084888,0.150646,-0.006720,-0.010690,-0.018479
1765410552.085803,-10.010758,-0.000598,0.315041,-0.009316,-0.010690,-0.019700
1765410552.089888,-10.248086,0.063367,0.801650,-0.006414,-0.005040,-0.015730
1765410552.092917,-9.855330,-0.063367,0.132114,-0.007025,0.001222,-0.016035
1765410552.095920,-9.677187,-0.020923,0.003587,-0.005345,-0.005803,-0.013134
1765410552.097842,-9.864896,-0.147059,0.337159,-0.004734,-0.006261,-0.016341
1765410552.100911,-10.071735,-0.086681,0.545791,-0.005803,-0.006261,-0.018479
1765410552.102830,-9.895982,-0.000598,0.241511,-0.005040,0.003665,-0.018021
1765410552.105917,-9.735771,-0.071736,0.129125,-0.002291,0.003512,-0.016646
1765410552.107886,-9.861907,-0.046628,0.340148,-0.003360,-0.002902,-0.016646
1765410552.110836,-10.054399,-0.139885,0.459110,-0.004276,0.001374,-0.017715
1765410552.112898,-9.884026,-0.133907,0.270206,-0.002138,0.001374,-0.016799
1765410552.117025,-9.792562,-0.114778,0.181731,-0.002443,-0.000764,-0.022144
1765410552.117949,-9.960544,-0.014347,0.549378,-0.005956,-0.000153,-0.019395
1765410552.120917,-10.013150,0.119560,0.396939,-0.005651,-0.002443,-0.020769
1765410552.122924,-10.013150,0.119560,0.396939,-0.005651,-0.002749,-0.020769
1765410552.124864,-9.841581,-0.029890,0.155428,-0.001833,-0.005803,-0.017715
1765410552.127892,-10.112385,-0.104615,0.524868,-0.005040,-0.006872,-0.016493
1765410552.129845,-10.069344,-0.200861,0.464491,-0.006109,-0.004581,-0.017104
1765410552.132840,-10.050214,-0.095648,0.182329,-0.002596,-0.004581,-0.022449
1765410552.134865,-10.050214,-0.095648,0.182329,-0.002596,-0.002749,-0.022449
1765410552.137860,-9.939023,-0.104017,0.217599,-0.002291,0.000305,-0.021533
1765410552.139874,-10.021520,-0.021521,0.274988,-0.000458,0.000916,-0.019548
1765410552.142863,-10.011955,-0.026303,0.490196,-0.001527,0.002291,-0.021991
1765410552.143853,-10.020324,-0.008369,0.390961,-0.005192,0.002291,-0.021533
1765410552.147865,-9.894786,-0.070540,0.288737,-0.003512,-0.001833,-0.021380
1765410552.148850,-9.857722,0.080703,0.153037,-0.003207,-0.005345,-0.024587
1765410552.150898,-9.965326,0.045433,0.311454,-0.006720,-0.005651,-0.021533
1765410552.155821,-10.031682,0.000000,0.421449,-0.004887,-0.001985,-0.018021
1765410552.157886,-9.858320,-0.112386,0.167384,-0.007025,-0.000153,-0.017104
1765410552.159911,-9.823050,-0.184720,0.168580,-0.007636,-0.003207,-0.019090
1765410552.162820,-9.882831,-0.211621,0.263032,-0.008552,0.000458,-0.021533
1765410552.164871,-10.003586,-0.144668,0.380799,-0.005956,0.000458,-0.022907
1765410552.167859,-9.910329,-0.139885,0.251076,-0.005498,0.003054,-0.025045
1765410552.168904,-9.897178,-0.021521,0.320421,-0.002138,-0.000458,-0.024587
1765410552.172924,-9.906144,0.098039,0.350311,-0.005956,0.000916,-0.027489
1765410552.174906,-9.936632,0.158417,0.266021,-0.005651,-0.002596,-0.020617
1765410552.177934,-9.996411,-0.073529,0.393352,-0.001680,-0.005803,-0.016646
1765410552.179931,-9.996411,-0.073529,0.393352,-0.001680,-0.005803,-0.016646
1765410552.182900,-10.057985,-0.049020,0.309660,-0.005498,-0.000305,-0.023976
1765410552.185841,-9.869678,-0.161406,0.230751,-0.006109,-0.003207,-0.024740
1765410552.187841,-9.851745,-0.043042,0.198470,-0.008399,-0.006720,-0.027947
1765410552.188896,-9.715446,-0.035868,0.022716,-0.005498,-0.002443,-0.023518
1765410552.190940,-9.672404,-0.064562,0.052606,-0.005192,-0.002291,-0.024587
1765410552.195887,-10.007172,-0.058584,0.395744,-0.003665,-0.002749,-0.023976
1765410552.197882,-10.156025,-0.248685,0.578670,-0.001985,-0.004123,-0.023671
1765410552.200835,-10.052007,-0.125538,0.396939,-0.000458,0.003665,-0.030849
1765410552.202899,-9.824843,0.085485,0.198470,-0.004123,0.003665,-0.033292
1765410552.205008,-9.878048,0.125538,0.347920,-0.005803,-0.004887,-0.029322
1765410552.207934,-10.108798,0.034672,0.517695,-0.008094,-0.009163,-0.022449
1765410552.210949,-10.074127,-0.074127,0.436394,-0.005498,-0.009927,-0.021380
1765410552.212943,-9.855330,-0.135103,0.005978,-0.005345,-0.012981,-0.024587
1765410552.215894,-9.887015,-0.236729,0.222382,-0.005498,-0.012981,-0.025809
1765410552.216394,-10.106407,-0.204448,0.515304,-0.006261,-0.006872,-0.032223
1765410552.221065,-9.961740,0.022716,0.154232,-0.006567,-0.001374,-0.033445
1765410552.222947,-9.805116,0.043042,0.080703,-0.007025,0.000458,-0.030085
1765410552.225016,-9.805116,0.043042,0.080703,-0.007025,-0.003665,-0.030085
1765410552.227929,-9.974891,-0.050215,0.461502,-0.007330,-0.005651,-0.026573
1765410552.228964,-9.884026,-0.136896,0.211621,-0.004887,0.000153,-0.025504
1765410552.232843,-9.790769,-0.203252,0.109397,-0.003971,0.001069,-0.029016
1765410552.234977,-9.875656,-0.119560,0.270206,-0.007483,-0.005651,-0.033598
1765410552.237886,-10.091461,0.087279,0.524868,-0.007483,0.002291,-0.033598
1765410552.240914,-9.919893,-0.043042,0.253467,-0.005192,-0.000458,-0.029016
1765410552.242825,-9.853538,-0.143472,0.186514,-0.009010,-0.004429,-0.025962
1765410552.245873,-9.863700,-0.225968,0.186514,-0.005803,-0.004123,-0.027794
1765410552.247887,-9.831419,-0.260641,0.280368,-0.002749,-0.000764,-0.030849
1765410552.250928,-9.863102,-0.188905,0.387374,-0.003360,-0.000764,-0.033445
1765410552.252935,-9.951577,0.026303,0.420851,-0.007025,0.000458,-0.040164
1765410552.254847,-9.888210,-0.007174,0.318030,-0.002902,-0.001985,-0.033750
1765410552.257921,-9.763269,0.003587,0.120756,-0.003665,-0.006414,-0.030696
1765410552.260909,-9.942610,-0.017934,0.280368,-0.006567,-0.006414,-0.032529
1765410552.262890,-10.021520,-0.071736,0.420851,-0.005192,-0.004276,-0.031307
1765410552.264870,-9.931252,-0.108800,0.249283,-0.003665,-0.006414,-0.029474
1765410552.268909,-9.931252,-0.108800,0.249283,-0.003665,-0.003207,-0.029474
1765410552.270906,-10.101624,-0.066954,0.447154,-0.005498,-0.005345,-0.034667
1765410552.271406,-10.109993,-0.049020,0.487805,-0.005651,-0.005345,-0.034514
1765410552.273912,-9.893590,-0.120756,0.164993,-0.003665,-0.003512,-0.034208
1765410552.277884,-9.821855,-0.126734,0.155428,-0.004429,-0.002749,-0.032223
1765410552.279953,-9.821855,-0.126734,0.155428,-0.004429,-0.007483,-0.032223
1765410552.282885,-9.993423,-0.149450,0.298900,-0.004123,-0.001527,-0.036652
1765410552.284927,-9.848158,-0.142874,0.215208,-0.005040,-0.001069,-0.036805
1765410552.287888,-9.855330,-0.083094,0.260641,-0.005803,-0.001833,-0.035430
1765410552.290866,-10.096842,-0.063367,0.473458,-0.005956,-0.009010,-0.037568
1765410552.292873,-10.005977,-0.063965,0.301291,-0.002902,-0.003971,-0.035736
1765410552.294941,-9.789574,-0.170971,0.019130,-0.003665,-0.004887,-0.037415
1765410552.298938,-9.730392,-0.050215,0.096246,-0.001527,-0.003207,-0.038790
1765410552.300983,-9.894786,-0.029890,0.340746,-0.002291,-0.005651,-0.036652
1765410552.303891,-9.903154,0.030488,0.316834,-0.005651,-0.000916,-0.038026
1765410552.305911,-9.756096,-0.056193,0.135103,-0.007330,-0.000916,-0.036652
1765410552.308916,-9.846962,-0.056193,0.354495,-0.004429,-0.005498,-0.032681
1765410552.309416,-9.915112,-0.208034,0.370038,-0.006261,-0.007178,-0.035583
1765410552.312984,-9.892993,-0.147657,0.291726,-0.002138,-0.006872,-0.036346
1765410552.313951,-9.771639,-0.217599,0.015543,-0.001680,-0.011148,-0.033292
1765410552.319724,-9.971304,-0.139885,0.468077,-0.003054,-0.011148,-0.039554
1765410552.320957,-9.997009,-0.132712,0.406504,-0.003054,-0.004581,-0.039554
1765410552.323899,-9.925274,0.089670,0.236729,-0.005803,-0.005192,-0.042913
1765410552.325943,-9.821855,-0.071736,0.100430,-0.009163,-0.005956,-0.040928
1765410552.327920,-9.916904,0.019130,0.357484,-0.004429,-0.003512,-0.034208
1765410552.329905,-9.974891,-0.271401,0.424438,-0.002138,-0.003512,-0.033139
1765410552.332919,-9.974891,-0.271401,0.424438,-0.002138,0.001985,-0.033139
1765410552.335895,-10.002390,-0.108800,0.429220,-0.002291,-0.004581,-0.043219
1765410552.336395,-10.039454,-0.059780,0.471664,-0.004276,-0.004581,-0.043982
1765410552.340837,-9.955761,-0.076518,0.188905,-0.002443,-0.009927,-0.038332
1765410552.342897,-9.790769,-0.136298,0.109397,-0.006261,-0.004429,-0.039859
1765410552.345913,-9.842180,-0.326399,0.214012,-0.006720,-0.003665,-0.036346
1765410552.347902,-9.991630,-0.169775,0.408895,-0.001069,-0.003360,-0.041386
1765410552.350841,-9.988043,-0.153037,0.374223,-0.000305,-0.003360,-0.044899
1765410552.352902,-9.988043,-0.153037,0.374223,-0.000305,0.001527,-0.044899
1765410552.353905,-9.864896,-0.096844,0.233142,-0.006567,-0.001527,-0.041539
1765410552.357854,-9.971304,-0.057987,0.441774,-0.004887,-0.004734,-0.042455
1765410552.360836,-9.898373,-0.081301,0.208034,-0.004429,-0.002291,-0.041692
1765410552.362880,-9.753705,-0.153037,0.074127,-0.003054,-0.004429,-0.040775
1765410552.365859,-9.790769,-0.173362,0.101626,-0.001985,-0.005345,-0.042761
1765410552.367860,-10.033475,-0.033477,0.618125,-0.003971,0.002138,-0.043830
1765410552.370924,-10.053802,-0.185916,0.401722,-0.006720,0.002138,-0.041844
1765410552.372940,-9.923481,-0.146461,0.192492,-0.004123,-0.006567,-0.041997
1765410552.373869,-9.890003,-0.157819,0.331779,-0.003818,-0.006567,-0.044440
1765410552.377845,-9.947392,-0.118364,0.347920,-0.003818,-0.002749,-0.044440
1765410552.380953,-9.930654,-0.214610,0.294118,-0.004734,-0.004429,-0.045509
1765410552.382904,-9.915112,-0.157221,0.257054,0.000764,-0.007789,-0.045509
1765410552.383921,-10.098038,-0.107604,0.459110,-0.002596,-0.007330,-0.045357
1765410552.387922,-10.046627,-0.044835,0.393950,-0.000458,-0.002291,-0.048258
1765410552.390901,-9.820659,-0.077714,0.049020,-0.006872,-0.001527,-0.045509
1765410552.392869,-9.861309,-0.064562,0.100430,-0.005345,-0.002596,-0.045357
1765410552.393924,-9.900764,-0.178742,0.172166,-0.002596,-0.005040,-0.043982
1765410552.397935,-9.988043,-0.217599,0.352702,-0.003512,0.000305,-0.045509
1765410552.400602,-9.995216,-0.234338,0.382592,-0.001527,0.004429,-0.049175
1765410552.402861,-10.068149,-0.111191,0.584648,-0.002749,0.003054,-0.047953
1765410552.404876,-10.096244,-0.068149,0.611549,-0.003360,0.002596,-0.047189
1765410552.407927,-10.029292,-0.051411,0.376614,-0.002596,-0.002291,-0.045509
1765410552.410001,-9.916904,-0.161406,0.176949,-0.008705,-0.010537,-0.048411
1765410552.412947,-9.985652,-0.124342,0.236729,-0.009163,-0.009468,-0.049327
1765410552.413947,-9.941415,-0.214012,0.151243,-0.007025,-0.003360,-0.045509
1765410552.415858,-9.999999,-0.181133,0.471066,-0.005498,0.000305,-0.049480
1765410552.420017,-10.069344,-0.075921,0.543998,-0.005803,0.002138,-0.053451
1765410552.422904,-10.041844,-0.088474,0.310856,-0.001527,-0.003971,-0.046578
1765410552.424976,-9.833811,-0.141081,0.080105,-0.000305,-0.009010,-0.046731
1765410552.427864,-9.918099,-0.148254,0.115375,-0.002596,-0.005192,-0.048869
1765410552.429888,-9.946198,-0.184122,0.337159,-0.002443,0.002138,-0.048258
1765410552.432908,-9.965326,-0.155428,0.331181,0.000305,0.004734,-0.051313
1765410552.434903,-9.978478,-0.089670,0.479436,0.000916,0.004123,-0.052076
1765410552.437882,-9.996411,-0.037064,0.396341,-0.005040,0.000611,-0.049938
1765410552.439920,-9.973098,-0.200861,0.346724,-0.001069,-0.004123,-0.045509
1765410552.442865,-9.925871,-0.264825,0.180536,-0.001069,-0.001374,-0.045509
1765410552.444949,-9.944403,-0.283955,0.170971,-0.005192,-0.000153,-0.048411
1765410552.447949,-9.941415,-0.326399,0.334768,-0.008552,-0.000305,-0.055283
1765410552.450948,-10.016139,-0.164993,0.411286,-0.004887,0.001985,-0.058338
1765410552.452912,-9.860114,0.003587,0.392157,-0.004581,0.002902,-0.054825
1765410552.455869,-9.836799,-0.042444,0.292922,-0.004123,-0.003360,-0.053603
1765410552.458932,-10.007172,-0.046031,0.416069,-0.005651,-0.010843,-0.050702
1765410552.459432,-10.108798,-0.156624,0.338355,-0.001527,-0.003818,-0.050244
1765410552.462949,-9.794355,-0.276184,-0.013152,-0.003971,0.002596,-0.048869
1765410552.463953,-9.673599,-0.300096,0.002391,-0.004734,0.002749,-0.053145
1765410552.467863,-9.869678,-0.196078,0.414873,-0.005498,0.000000,-0.058185
1765410552.470848,-9.948587,-0.136298,0.423242,-0.003512,0.001069,-0.055741
1765410552.472916,-9.751313,-0.193687,0.043042,-0.004429,0.002138,-0.055741
1765410552.475874,-9.759085,-0.118962,0.115375,-0.003360,0.003665,-0.055131
1765410552.477933,-9.958751,-0.175753,0.414873,-0.002749,-0.001222,-0.054978
1765410552.478946,-10.051410,-0.199665,0.461502,0.000153,0.001833,-0.053603
1765410552.482943,-9.803921,-0.271401,0.020325,0.001833,0.002291,-0.054672
1765410552.485871,-9.838593,-0.288140,0.209230,0.000153,-0.004276,-0.055131
1765410552.488928,-10.035867,-0.199067,0.381994,0.000458,0.002443,-0.057421
1765410552.490968,-10.057985,-0.180536,0.210426,0.003054,0.002443,-0.056963
1765410552.493915,-10.057985,-0.180536,0.210426,0.003054,0.003207,-0.056963
1765410552.495965,-9.930654,-0.304280,0.337159,-0.003512,0.003360,-0.057879
1765410552.498932,-9.961142,-0.227164,0.467480,-0.000611,0.003360,-0.060170
1765410552.500898,-9.869080,-0.157819,0.278575,0.001222,0.003054,-0.060018
1765410552.502937,-9.770443,-0.075323,0.080105,-0.001833,-0.000458,-0.057727
1765410552.505895,-9.770443,-0.075323,0.080105,-0.001833,-0.003054,-0.057727
1765410552.507951,-9.931850,-0.200861,0.231349,0.001069,-0.002443,-0.057421
1765410552.508919,-10.012553,-0.202056,0.402917,-0.001069,0.008705,-0.056810
1765410552.512855,-9.982065,-0.235533,0.410091,0.000916,0.009010,-0.054978
1765410552.515914,-10.023911,-0.341942,0.414873,-0.000611,0.001527,-0.056047
1765410552.517853,-10.072930,-0.274988,0.475849,-0.001527,-0.004276,-0.064141
1765410552.518889,-9.978478,-0.093257,0.231946,-0.000916,0.001374,-0.064446
1765410552.522867,-9.947392,-0.065758,0.328790,-0.002443,0.001374,-0.059407
1765410552.523960,-10.083690,-0.083692,0.503348,0.001680,-0.003207,-0.057421
1765410552.529039,-10.190099,-0.285748,0.478240,-0.002291,-0.004276,-0.056047
1765410552.529539,-9.924676,-0.362267,0.112984,-0.000764,0.002291,-0.056963
1765410552.532892,-9.874461,-0.373027,-0.062171,0.002749,-0.002443,-0.058948
1765410552.534918,-10.130320,-0.217599,0.622310,0.003818,-0.002443,-0.065973
1765410552.537956,-10.202055,-0.014347,0.638450,0.003207,0.004429,-0.068111
1765410552.538920,-9.997607,0.042444,0.364060,-0.000305,0.005956,-0.063530
1765410552.542948,-9.868484,-0.052606,0.064562,0.004123,0.000153,-0.058643
1765410552.544962,-10.125537,-0.154232,0.450741,0.002443,-0.005651,-0.056963
1765410552.547906,-10.124342,-0.286346,0.408297,-0.000153,0.001680,-0.059559
1765410552.548920,-10.124342,-0.286346,0.408297,-0.000153,0.004887,-0.059559
1765410552.550901,-9.903154,-0.245696,0.240913,-0.001374,-0.007025,-0.063072
1765410552.554941,-10.113581,-0.181731,0.552367,-0.002596,-0.007025,-0.066432
1765410552.557896,-10.113581,-0.181731,0.552367,-0.002596,-0.000458,-0.066432
1765410552.559900,-9.915709,-0.154232,0.211023,-0.000916,0.000000,-0.061545
1765410552.562953,-9.968913,-0.187111,0.205643,-0.000611,-0.001374,-0.062156
1765410552.564945,-9.992825,-0.296509,0.229555,0.003818,-0.005345,-0.064141
1765410552.567917,-10.008965,-0.278575,0.181731,0.001222,-0.001833,-0.065057
1765410552.570001,-9.765661,-0.198470,0.012554,-0.001222,0.004123,-0.068111
1765410552.572920,-9.843375,-0.161406,0.125538,-0.002749,0.002596,-0.065210
1765410552.575906,-9.968913,-0.185318,0.362267,-0.002596,-0.002902,-0.066279
1765410552.577895,-10.043041,-0.111191,0.328790,-0.001680,0.002902,-0.067806
1765410552.580966,-9.846962,-0.222382,0.156624,-0.000916,0.010690,-0.063530
1765410552.582965,-9.874461,-0.316236,0.225968,-0.000916,0.007178,-0.067042
1765410552.585938,-10.214011,-0.169177,0.862028,0.000000,0.002443,-0.069944
1765410552.587975,-10.231946,-0.199665,0.694644,0.000764,0.001069,-0.070250
1765410552.589981,-9.844571,-0.282162,0.033477,-0.001680,-0.008705,-0.069333
1765410552.592933,-9.827832,-0.263032,0.023912,-0.001069,-0.008705,-0.071471
1765410552.594947,-10.068746,-0.214012,0.456121,-0.000611,-0.002443,-0.073609
1765410552.597945,-10.017933,-0.148852,0.330583,-0.001222,-0.000458,-0.071471
1765410552.599941,-9.793160,-0.245696,0.058584,-0.003054,0.002291,-0.069486
1765410552.602973,-9.793160,-0.245696,0.058584,-0.003054,0.001069,-0.069486
1765410552.605961,-9.855330,-0.229555,0.267217,-0.000458,-0.005192,-0.071777
1765410552.607882,-9.851745,-0.296509,0.310856,0.001069,0.000611,-0.071013
1765410552.610866,-9.805116,-0.247489,0.221784,0.000611,0.002902,-0.072846
1765410552.612915,-9.888808,-0.261836,0.394548,-0.000916,0.003054,-0.074220
1765410552.615972,-9.888808,-0.261836,0.394548,-0.000916,-0.000305,-0.074220
1765410552.616472,-9.819464,-0.136896,0.188905,-0.005803,-0.006567,-0.074678
1765410552.618871,-9.863700,-0.206839,0.211621,-0.004581,-0.003207,-0.072388
1765410552.623938,-9.968913,-0.334768,0.348517,-0.001222,-0.001069,-0.069639
1765410552.625908,-9.881634,-0.401722,0.319225,-0.001833,-0.001069,-0.072388
1765410552.627914,-9.901959,-0.316834,0.216404,-0.004581,0.001833,-0.079107
1765410552.631543,-9.797942,-0.145265,0.126734,-0.001680,0.000305,-0.078496
1765410552.633012,-9.895982,-0.062769,0.218795,-0.000764,0.001527,-0.073304
1765410552.634989,-9.904947,-0.208034,0.338355,-0.001527,0.003971,-0.073151
1765410552.637883,-9.854136,-0.383788,0.108800,-0.006109,0.000916,-0.073151
1765410552.639950,-9.893590,-0.392157,0.382592,-0.001069,0.000764,-0.079107
1765410552.642947,-9.858320,-0.171569,0.413080,-0.000153,0.007178,-0.079718
1765410552.645912,-9.864896,-0.225968,0.358680,-0.003818,0.001680,-0.078496
1765410552.647956,-9.959946,-0.243902,0.127929,-0.002443,0.002596,-0.081245
1765410552.650880,-10.071735,-0.190100,0.264228,0.000000,0.002596,-0.078191
1765410552.651380,-9.994021,-0.191894,0.479436,-0.002291,0.007636,-0.074984
1765410552.655912,-9.999999,-0.245696,0.465088,-0.005192,0.004276,-0.077580
1765410552.657871,-10.017933,-0.329388,0.225968,-0.005803,-0.001985,-0.082161
1765410552.658917,-9.974294,-0.231946,0.022716,0.000305,-0.004734,-0.084910
1765410552.662942,-9.934240,-0.151841,0.088474,-0.001222,0.009010,-0.080176
1765410552.665871,-10.070539,-0.218795,0.450143,0.000305,0.005345,-0.077274
1765410552.667904,-10.263031,-0.266619,0.728120,-0.004887,0.006567,-0.080023
1765410552.670888,-10.176349,-0.276781,0.506934,-0.001069,0.010385,-0.083383
1765410552.672931,-9.916306,-0.368245,0.290531,-0.001527,0.000611,-0.079565
1765410552.675868,-10.035867,-0.334768,0.313845,-0.004123,-0.011454,-0.083994
1765410552.677915,-10.095049,-0.169775,0.396939,0.001222,-0.007330,-0.087965
1765410552.679933,-9.991630,-0.216404,0.243902,0.000153,-0.000458,-0.077427
1765410552.682957,-9.919893,-0.412482,0.056193,0.000458,-0.000458,-0.076205
1765410552.684921,-9.996411,-0.535629,0.303682,-0.004276,-0.005498,-0.083994
1765410552.687928,-10.047822,-0.393352,0.248685,-0.008399,-0.002443,-0.090866
1765410552.690922,-9.976088,-0.199665,0.247489,0.001069,0.005498,-0.093310
1765410552.691422,-9.867287,-0.175753,0.255858,-0.003818,0.000000,-0.083078
1765410552.693991,-10.063366,-0.313247,0.524868,-0.002291,0.000000,-0.080176
1765410552.697970,-10.098038,-0.463295,0.525466,-0.001833,-0.001833,-0.082161
1765410552.699942,-9.836202,-0.530846,0.231349,0.002138,0.002291,-0.085521
1765410552.703896,-9.719033,-0.449546,0.109995,-0.002443,-0.001985,-0.089034
1765410552.704918,-10.054399,-0.265423,0.527260,-0.001985,-0.005803,-0.096669
1765410552.707957,-10.154830,-0.093257,0.493185,-0.002291,-0.005803,-0.089492
1765410552.710053,-9.901959,-0.251076,-0.013152,-0.006261,-0.003054,-0.081551
1765410552.710880,-9.675393,-0.473458,-0.185916,-0.005345,-0.001069,-0.083689
1765410552.715898,-9.882831,-0.570899,0.265423,-0.002596,-0.001222,-0.087048
1765410552.718020,-10.111190,-0.448350,0.821377,-0.003512,0.004887,-0.091172
1765410552.718923,-9.876254,-0.172764,0.494978,-0.004734,0.008247,-0.092088
1765410552.722921,-9.818267,-0.080105,0.224175,-0.006872,0.001985,-0.084147
1765410552.725956,-9.839190,-0.359876,0.128527,-0.001680,-0.013286,-0.075289
1765410552.728145,-9.859515,-0.598398,0.008369,-0.000153,-0.010690,-0.080481
1765410552.730911,-9.859515,-0.598398,0.008369,-0.000153,0.002443,-0.080481
1765410552.731411,-9.759683,-0.396939,0.179340,0.001985,0.007330,-0.092088
1765410552.735974,-9.977880,-0.075921,0.636657,0.002902,0.009927,-0.092699
1765410552.738004,-10.035867,-0.056791,0.596007,0.001374,0.001833,-0.084452
1765410552.739998,-9.831419,-0.359876,0.292922,0.001833,0.001833,-0.076358
1765410552.742910,-9.789574,-0.612147,0.090866,-0.002596,-0.012370,-0.082467
1765410552.744983,-10.036465,-0.609756,0.166188,-0.000611,-0.010996,-0.090103
1765410552.747882,-9.795551,-0.422047,-0.130320,0.000000,0.001374,-0.093615
1765410552.750917,-9.733380,-0.235533,-0.106408,-0.000458,0.008247,-0.092852
1765410552.752883,-9.901959,-0.234338,0.326399,-0.001374,0.008247,-0.087812
1765410552.755928,-10.185316,-0.373027,0.828551,-0.000305,0.011759,-0.082925
1765410552.757922,-10.017933,-0.556552,0.602582,-0.000153,0.010385,-0.091172
1765410552.760928,-9.813485,-0.550574,0.344931,-0.000153,0.005345,-0.095448
1765410552.763000,-9.813485,-0.550574,0.344931,-0.000153,-0.005040,-0.095448
1765410552.765895,-10.023313,-0.441774,0.228360,0.005040,-0.011606,-0.093921
1765410552.766395,-10.005977,-0.371832,0.261836,0.002596,-0.004429,-0.092852
1765410552.769999,-9.907339,-0.289335,0.114180,0.000611,0.007483,-0.096211
1765410552.772895,-9.977283,-0.229555,0.298900,0.001069,0.007483,-0.093615
1765410552.775934,-9.977283,-0.229555,0.298900,0.001069,0.002596,-0.093615
1765410552.777891,-9.941415,-0.371832,0.160210,0.003054,0.005040,-0.088117
1765410552.780930,-9.752509,-0.551172,0.034075,0.005803,0.009468,-0.083689
1765410552.782929,-9.956957,-0.559541,0.429220,0.002749,0.005651,-0.090561
1765410552.784974,-10.087874,-0.318030,0.667145,-0.003971,0.008552,-0.100335
1765410552.787925,-10.087874,-0.318030,0.667145,-0.003971,0.013286,-0.100335
1765410552.788956,-9.531323,-0.253467,-0.206839,-0.004123,-0.001222,-0.085368
1765410552.792934,-9.568387,-0.528455,-0.130320,-0.000916,-0.001222,-0.079107
1765410552.796021,-10.068149,-0.710186,0.428025,0.001527,0.004734,-0.086590
1765410552.797920,-10.011955,-0.622908,0.350311,0.002596,0.015730,-0.094226
1765410552.800009,-9.785987,-0.468675,0.107604,-0.000764,0.015119,-0.099113
1765410552.803011,-9.977283,-0.230153,0.390961,0.004887,0.010690,-0.105222
1765410552.805011,-10.137493,-0.349115,0.578670,0.003512,0.008094,-0.093004
1765410552.807991,-9.861309,-0.539216,0.289933,0.008094,0.005956,-0.087812
1765410552.810987,-9.812290,-0.539216,0.081899,0.003665,0.005956,-0.100487
1765410552.812976,-9.942013,-0.509326,0.293520,0.001374,0.005651,-0.096822
1765410552.815953,-9.851147,-0.462697,0.052009,0.005345,0.012065,-0.097891
1765410552.816453,-9.772835,-0.410091,0.291726,0.004581,0.012065,-0.097280
1765410552.818957,-9.978478,-0.344333,0.386179,0.001985,0.012065,-0.098044
1765410552.823029,-10.121950,-0.431612,0.558345,-0.001833,0.003054,-0.095906
1765410552.825971,-9.986848,-0.362865,0.222979,0.001222,0.002902,-0.099266
1765410552.826471,-9.685556,-0.357484,-0.029890,0.002291,0.005192,-0.096517
1765410552.830953,-9.647297,-0.604376,-0.111789,0.004429,0.004429,-0.091172
1765410552.832944,-10.065758,-0.578670,0.251076,0.004429,0.000764,-0.091172
1765410552.835964,-10.337157,-0.372429,0.627092,0.008858,0.013286,-0.104305
1765410552.837905,-9.997607,-0.258250,0.089072,0.004429,0.017410,-0.103084
1765410552.839936,-9.988043,-0.255261,0.248685,0.005192,0.014813,-0.095600
1765410552.841956,-10.114776,-0.500956,0.717360,0.005345,0.012828,-0.087201
1765410552.845955,-10.135101,-0.745457,0.713773,0.004276,0.007636,-0.093768
1765410552.847945,-9.752509,-0.618125,-0.113582,0.005040,0.001985,-0.104458
1765410552.849968,-9.842180,-0.274988,-0.257652,0.001374,-0.002291,-0.108429
1765410552.852910,-10.112385,-0.221186,0.300693,0.002596,0.004276,-0.099113
1765410552.855958,-10.243901,-0.460306,0.759206,0.000916,0.010843,-0.095448
1765410552.857924,-10.120157,-0.465088,0.700622,0.000458,0.015272,-0.102931
1765410552.860920,-9.787182,-0.399330,0.062171,-0.001833,0.005040,-0.101556
1765410552.861420,-9.965326,-0.390961,0.083692,-0.000611,-0.009468,-0.100335
1765410552.864922,-10.102222,-0.480631,0.296509,0.004734,0.007789,-0.095753
1765410552.867924,-9.917501,-0.627092,0.422047,0.002902,0.007789,-0.098807
1765410552.868974,-9.745336,-0.431014,0.034075,-0.000764,0.011301,-0.108123
1765410552.870918,-9.963533,-0.288140,0.164993,-0.002291,-0.004734,-0.106138
1765410552.873975,-9.963533,-0.288140,0.164993,-0.002291,-0.004887,-0.106138
1765410552.876015,-9.940817,-0.548780,0.291726,0.003360,0.006261,-0.098807
1765410552.878952,-9.822452,-0.558345,0.411286,0.000764,0.021838,-0.103694
1765410552.883005,-9.941415,-0.468675,0.352702,0.001833,0.009010,-0.101556
1765410552.884953,-10.099831,-0.469871,0.327594,0.002596,-0.004734,-0.105985
1765410552.889060,-9.903154,-0.314443,0.093855,0.003360,0.005192,-0.104458
1765410552.890027,-9.552844,-0.436394,-0.063367,0.000611,0.012828,-0.097280
1765410552.893002,-9.866092,-0.601387,0.483620,-0.001527,0.002902,-0.102473
1765410552.895981,-10.312051,-0.546389,0.676710,-0.000153,0.003512,-0.108123
1765410552.897931,-10.050812,-0.749641,0.102822,0.006109,0.000916,-0.103236
1765410552.900034,-9.681372,-0.626494,-0.157819,0.007025,0.007636,-0.111177
1765410552.902935,-9.869678,-0.438785,0.186514,-0.000611,0.006720,-0.115148
1765410552.905012,-10.240315,-0.394548,0.649211,-0.001069,0.001374,-0.111788
1765410552.907024,-10.029889,-0.423242,0.316236,0.004429,0.001374,-0.105680
1765410552.909957,-9.806311,-0.619919,-0.035868,0.003054,0.001680,-0.104916
1765410552.912975,-9.799137,-0.686274,0.056193,-0.002291,0.001680,-0.109039
1765410552.913990,-10.147058,-0.607365,0.294118,0.003360,-0.003665,-0.114843
1765410552.916036,-10.211619,-0.547585,0.379005,0.004123,0.002749,-0.115759
1765410552.920995,-10.094451,-0.304280,0.462099,0.005498,0.011301,-0.117286
1765410552.923090,-9.923481,-0.236729,0.361071,0.001222,-0.001069,-0.109956
1765410552.925938,-9.791965,-0.400526,0.252272,0.002291,-0.001069,-0.099724
1765410552.927937,-9.791965,-0.400526,0.252272,0.002291,-0.006261,-0.099724
1765410552.929892,-9.754900,-0.882951,-0.130320,0.003054,-0.002291,-0.103542
1765410552.932945,-9.863700,-0.758010,0.144668,0.004887,0.002596,-0.111330
1765410552.935951,-10.180533,-0.497370,0.814204,0.002902,0.004734,-0.116828
1765410552.938039,-10.093256,-0.309660,0.609756,0.005040,0.004123,-0.111941
1765410552.940019,-9.576756,-0.502152,-0.263630,0.000916,-0.003207,-0.107818
1765410552.942908,-9.545671,-0.645624,-0.401722,-0.001374,-0.004123,-0.108734
1765410552.945983,-9.895982,-0.670732,0.245098,0.003818,-0.004123,-0.113926
1765410552.947968,-10.176349,-0.502152,0.700622,0.008247,0.010079,-0.111636
1765410552.950963,-10.001194,-0.592420,0.421449,0.004581,0.008705,-0.112246
1765410552.951463,-9.853538,-0.541607,0.236729,0.002138,-0.001527,-0.114690
1765410552.953900,-9.976088,-0.486011,0.190100,-0.001833,0.000305,-0.114232
1765410552.957927,-10.029889,-0.474653,0.340746,0.006567,0.000305,-0.109192
1765410552.960943,-10.029889,-0.474653,0.340746,0.006567,0.009316,-0.109192
1765410552.963101,-9.835006,-0.718556,0.164993,0.004429,0.001222,-0.111483
1765410552.964897,-9.935436,-0.656982,0.256456,0.005956,-0.003512,-0.116217
1765410552.967926,-10.081299,-0.487805,0.499761,0.008094,0.000153,-0.118050
1765410552.970963,-9.974294,-0.387374,0.428623,0.010537,0.013439,-0.112399
1765410552.972968,-9.903154,-0.528455,0.290531,0.009163,0.001222,-0.109345
1765410552.975898,-9.894786,-0.625299,0.123147,0.007025,-0.005651,-0.113621
1765410552.977917,-9.751313,-0.590029,-0.112984,0.005651,-0.005651,-0.113163
1765410552.979960,-9.636537,-0.744261,-0.173960,0.008552,0.010537,-0.107360
1765410552.982970,-9.902557,-0.733501,0.401722,0.009621,0.006872,-0.111636
1765410552.986003,-10.204447,-0.528455,0.952893,0.001374,0.003512,-0.125227
1765410552.986503,-10.181729,-0.294118,0.538020,0.003665,0.005956,-0.120799
1765410552.991014,-9.664036,-0.652798,-0.296509,0.000305,0.000611,-0.107665
1765410552.992973,-9.525346,-0.779531,-0.176351,0.007636,-0.002749,-0.113163
1765410552.996017,-10.147655,-0.759206,0.668340,0.005956,0.003818,-0.125380
1765410552.997991,-10.214011,-0.539216,0.585246,0.008552,0.010079,-0.122784
1765410553.001060,-9.801530,-0.572692,0.046628,0.006720,0.008094,-0.120799
1765410553.003017,-9.654470,-0.432209,0.125538,0.009316,0.010537,-0.123700
1765410553.005049,-9.952772,-0.353898,0.506934,0.003971,0.001069,-0.121868
1765410553.008024,-10.108798,-0.494978,0.442372,0.003054,-0.003971,-0.117592
1765410553.010005,-9.786584,-0.638450,-0.169775,0.008552,0.002443,-0.117897
1765410553.010988,-9.689740,-0.711382,0.063367,0.005192,0.008552,-0.121868
1765410553.015962,-10.074127,-0.508130,0.630679,0.005040,0.011606,-0.128282
1765410553.017958,-10.333572,-0.438785,0.820779,0.003360,0.007789,-0.122784
1765410553.020981,-10.019128,-0.545194,0.208034,0.005192,0.008094,-0.127213
1765410553.023056,-9.713055,-0.543400,0.011956,0.002902,0.008247,-0.128587
1765410553.023973,-9.687349,-0.469273,0.210426,0.001374,0.012217,-0.127671
1765410553.025949,-9.836202,-0.420851,0.184122,0.002596,0.003054,-0.126449
1765410553.030134,-9.884624,-0.675514,0.078910,-0.000916,0.003971,-0.126602
1765410553.033015,-9.829028,-0.672525,-0.012554,0.003207,0.020617,-0.130878
1765410553.035050,-9.849951,-0.468675,0.471066,0.000000,0.020617,-0.131641
1765410553.037978,-10.130917,-0.334170,0.817193,0.000000,0.016035,-0.131641
1765410553.038937,-10.181729,-0.516499,0.584648,-0.005803,0.009927,-0.127671
1765410553.042946,-9.927068,-0.613343,0.066356,-0.001069,0.001985,-0.128740
1765410553.046053,-9.818267,-0.518890,-0.060976,-0.001069,0.009010,-0.131336
1765410553.047987,-9.821855,-0.767575,0.084888,-0.005040,0.006567,-0.125991
1765410553.050039,-10.101624,-0.867408,0.419656,-0.001374,0.002596,-0.130114
1765410553.052962,-10.331181,-0.631277,0.706600,0.004429,0.013744,-0.139583
1765410553.054933,-9.945002,-0.578073,0.338953,-0.001833,0.021075,-0.136987
1765410553.057923,-9.684361,-0.633668,-0.244500,0.001527,0.005040,-0.130572
1765410553.059993,-9.978478,-0.703013,0.155428,-0.001069,-0.003665,-0.136376
1765410553.062940,-10.307267,-0.607365,0.751435,-0.003207,0.014813,-0.138056
1765410553.065977,-9.982065,-0.711382,0.395146,-0.000305,0.016341,-0.130114
1765410553.067925,-9.704088,-0.882353,0.005380,-0.003971,0.010385,-0.135765
1765410553.070945,-9.819464,-0.755619,0.076518,-0.004734,0.010232,-0.146608
1765410553.071445,-10.097439,-0.499761,0.571497,0.003665,0.006872,-0.139125
1765410553.075014,-9.989238,-0.715567,0.531444,0.001069,0.011454,-0.130420
1765410553.077980,-9.525944,-0.854854,-0.198470,-0.004123,0.005956,-0.136987
1765410553.081035,-9.481109,-0.787303,-0.209230,-0.003818,-0.000305,-0.141263
1765410553.083012,-9.846962,-0.680296,0.031683,0.000305,0.012828,-0.137750
1765410553.085976,-10.087276,-0.565519,0.600191,0.006109,0.012828,-0.135001
1765410553.087979,-9.970109,-0.616930,0.587040,-0.003207,0.028405,-0.134390
1765410553.090932,-9.794355,-0.824964,0.178144,-0.002749,-0.005345,-0.124617
1765410553.092991,-9.770443,-1.077833,0.005978,-0.004276,-0.005345,-0.128282
1765410553.094976,-9.931252,-0.960067,0.173362,-0.004123,-0.001222,-0.137903
1765410553.097978,-9.788378,-0.929579,0.126734,0.004276,0.018021,-0.134696
1765410553.100989,-9.788378,-0.929579,0.126734,0.004276,0.012370,-0.134696
1765410553.103089,-9.994021,-0.841105,0.346724,0.000764,0.006261,-0.138361
1765410553.105070,-10.189501,-0.975012,0.398733,-0.000305,0.004276,-0.135765
1765410553.107997,-10.077712,-0.992348,0.157819,0.008247,0.014813,-0.135154
1765410553.109047,-9.805116,-0.987566,0.109397,0.009774,0.016646,-0.137445
1765410553.113048,-9.805116,-0.987566,0.109397,0.009774,0.011759,-0.137445
1765410553.115983,-10.315637,-0.805834,0.585844,0.007636,0.006872,-0.141263
1765410553.118004,-10.150645,-0.728120,0.214012,0.008247,0.006872,-0.139277
1765410553.121014,-9.869678,-0.725729,0.026303,0.010843,0.016799,-0.135612
1765410553.122949,-10.059779,-0.875179,0.465088,0.010232,0.012065,-0.133169
1765410553.125086,-10.216402,-0.887135,0.600191,0.010843,0.008094,-0.132405
1765410553.126101,-9.930654,-0.931372,0.221186,0.009927,0.010690,-0.133627
1765410553.131070,-9.777617,-0.785509,-0.087279,0.009468,0.010690,-0.138666
1765410553.133015,-9.835006,-0.730512,-0.086083,0.012675,-0.000611,-0.133169
1765410553.134985,-10.203251,-0.931372,0.607365,0.011148,-0.002596,-0.133932
1765410553.136001,-10.011356,-0.891918,0.526064,0.007178,0.013134,-0.138514
1765410553.140940,-9.595885,-0.896700,-0.083692,0.008247,0.009010,-0.136223
1765410553.142956,-9.567192,-0.842898,-0.248087,0.007178,-0.004887,-0.140194
1765410553.145951,-10.095646,-0.645026,0.338953,0.011912,-0.007636,-0.140194
1765410553.148027,-10.025704,-0.859636,0.468675,0.011606,0.010385,-0.131031
1765410553.149957,-9.732184,-0.857245,-0.054998,0.011759,0.010385,-0.136223
1765410553.152983,-9.732184,-0.857245,-0.054998,0.011759,0.004581,-0.136223
1765410553.154992,-10.141678,-0.687470,0.496174,0.005040,0.001374,-0.133779
1765410553.155992,-10.298899,-0.818986,0.534433,0.005040,0.005803,-0.133779
1765410553.160994,-10.034670,-0.915232,0.307269,0.012217,0.012828,-0.137750
1765410553.161966,-10.050214,-0.846485,0.365256,0.009316,0.012828,-0.139430
1765410553.166001,-10.050214,-0.846485,0.365256,0.009316,0.004276,-0.139430
1765410553.168019,-10.285748,-1.020445,0.573888,0.009621,-0.002902,-0.141263
1765410553.171046,-10.011356,-0.865017,0.176351,0.013286,0.006109,-0.142790
1765410553.171546,-9.763867,-0.717360,0.076518,0.014813,0.012370,-0.144470
1765410553.174994,-9.761477,-0.738283,0.228360,0.016493,0.009774,-0.141263
1765410553.177940,-9.927068,-0.758010,0.343735,0.014966,-0.002902,-0.139888
1765410553.180993,-10.059779,-0.875179,0.197274,0.015424,0.005498,-0.140194
1765410553.182977,-9.861309,-0.808226,-0.075323,0.019395,0.005498,-0.141721
1765410553.184976,-9.908535,-0.585844,0.337159,0.015577,0.009774,-0.143706
1765410553.188971,-9.996411,-0.691057,0.359876,0.011454,0.005651,-0.139583
1765410553.191005,-9.861309,-0.893113,0.020325,0.009010,-0.000764,-0.135765
1765410553.192974,-9.628167,-0.868006,-0.401722,0.010232,0.005651,-0.141568
1765410553.195928,-9.898373,-0.791487,0.335964,0.005651,0.018937,-0.144622
1765410553.196428,-10.149448,-0.841702,1.067671,0.010843,0.027489,-0.138819
1765410553.200983,-10.076518,-1.100550,0.636059,0.005803,0.005192,-0.143095
1765410553.204054,-9.872069,-0.992946,-0.100430,0.006720,-0.008399,-0.153327
1765410553.204554,-9.781204,-0.824964,-0.347920,0.008399,0.007330,-0.159894
1765410553.206041,-9.860114,-0.758608,0.414873,0.016341,0.020617,-0.140957
1765410553.209992,-9.860114,-0.758608,0.414873,0.016341,0.017104,-0.140957
1765410553.213084,-9.961740,-0.785509,0.383788,0.003971,0.006109,-0.155007
1765410553.214967,-9.791965,-0.858441,-0.212817,0.004887,0.005651,-0.149662
1765410553.217992,-9.833811,-0.833333,0.044237,0.017410,0.016035,-0.144928
1765410553.221040,-10.057388,-0.887135,0.624103,0.010385,0.016035,-0.145080
1765410553.223000,-10.142276,-0.964849,0.805237,0.010385,0.012981,-0.145080
1765410553.224998,-9.790769,-0.914634,-0.113582,0.006261,0.008247,-0.145539
1765410553.227959,-9.796746,-1.021042,-0.046031,0.015577,0.004123,-0.143553
1765410553.230996,-9.996411,-1.197393,0.367049,0.015272,0.014203,-0.144775
1765410553.231496,-10.234337,-1.024032,0.616930,0.013286,0.007330,-0.150578
1765410553.235134,-10.112385,-0.894907,0.523673,0.005803,0.017257,-0.158367
1765410553.238394,-9.751313,-0.986968,0.094452,0.008705,0.013744,-0.153785
1765410553.240974,-9.617407,-1.086800,-0.019130,0.009621,0.004581,-0.152105
1765410553.242943,-9.966521,-0.799856,0.259445,0.013134,0.000000,-0.159741
1765410553.243994,-10.046627,-0.858441,0.294118,0.007330,0.014203,-0.151036
1765410553.245926,-9.787182,-0.851267,0.126136,0.011759,0.012675,-0.147677
1765410553.250997,-9.726207,-0.943328,-0.094452,0.015119,0.008705,-0.147982
1765410553.252993,-9.793160,-0.969632,-0.023912,0.011912,0.001833,-0.149509
1765410553.256053,-10.092658,-0.832138,0.470469,0.005498,0.011454,-0.160810
1765410553.258029,-10.076518,-0.633668,0.460306,0.009010,0.018937,-0.151189
1765410553.260006,-9.891200,-1.024032,0.118364,0.011301,0.009010,-0.142332
1765410553.262003,-9.754900,-1.059302,-0.199665,0.007178,0.007636,-0.150426
1765410553.265013,-10.118362,-0.981588,0.206839,0.011454,0.016188,-0.152105
1765410553.266980,-10.099234,-1.052726,0.550574,0.014355,0.021380,-0.143553
1765410553.269014,-10.283356,-1.028216,0.679101,0.010690,0.013744,-0.158061
1765410553.272972,-10.321018,-0.724534,0.668340,0.008399,0.014203,-0.167224
1765410553.275037,-10.022716,-0.760999,0.231946,0.010232,0.000764,-0.152411
1765410553.278004,-9.897178,-1.034194,0.037064,0.007789,0.000764,-0.151800
1765410553.279977,-10.176947,-0.972023,0.502750,0.009316,0.006872,-0.159741
1765410553.282972,-10.145862,-1.077236,0.577475,0.010996,0.011912,-0.157298
1765410553.284976,-9.979673,-0.826160,0.234338,0.010079,-0.001069,-0.164475
1765410553.285947,-10.007172,-0.610952,0.124342,0.004734,0.003207,-0.172569
1765410553.290969,-10.078907,-0.697035,0.324008,0.006567,0.003207,-0.159283
1765410553.292981,-9.986848,-0.885940,0.286944,0.007025,0.004123,-0.156076
1765410553.295913,-9.891200,-0.977403,0.192492,0.003665,0.005956,-0.161574
1765410553.297946,-9.771639,-1.038976,-0.016738,0.005498,0.004276,-0.164628
1765410553.299994,-9.963533,-0.936155,0.143472,0.006872,0.013592,-0.166614
1765410553.302957,-10.272595,-0.736490,0.854854,0.006109,0.013592,-0.169821
1765410553.305047,-9.988043,-0.994739,0.478240,0.001222,0.012065,-0.159436
1765410553.308009,-9.717239,-1.086800,-0.157819,0.010843,-0.000458,-0.160963
1765410553.310980,-9.658057,-1.007891,-0.067551,0.007330,0.004429,-0.167224
1765410553.313042,-9.785389,-1.077236,0.224175,0.003665,0.007178,-0.162643
1765410553.315019,-10.076518,-1.059899,0.456719,0.003207,0.001833,-0.171348
1765410553.316024,-10.076518,-0.864419,0.481827,0.003665,0.004429,-0.172875
1765410553.321073,-9.720228,-0.915830,0.107006,-0.000764,-0.002596,-0.166155
1765410553.323080,-9.660448,-1.135820,-0.049020,0.000764,-0.002596,-0.164475
1765410553.326096,-9.789574,-1.117886,0.100430,0.003818,-0.007178,-0.166766
1765410553.328203,-9.799137,-1.125060,-0.045433,0.000458,-0.000764,-0.169515
1765410553.331043,-9.562408,-1.093974,-0.100430,-0.001833,0.011148,-0.172722
1765410553.334019,-9.740554,-1.012673,0.191296,0.002138,0.010232,-0.172111
1765410553.335997,-9.931850,-1.019847,0.675514,0.001374,0.010232,-0.170279
1765410553.338038,-9.931850,-1.019847,0.675514,0.001374,0.004123,-0.170279
1765410553.340012,-9.555235,-0.966643,-0.494978,-0.000916,0.003512,-0.165544
1765410553.343042,-9.534910,-1.055715,-0.337757,0.007330,0.001833,-0.157145
1765410553.345050,-10.112385,-1.219512,0.872788,0.003818,0.007941,-0.157451
1765410553.348000,-10.113581,-1.379722,0.658776,0.002138,0.007941,-0.160199
1765410553.350047,-9.698708,-1.490913,-0.101028,0.000764,0.006720,-0.166919
1765410553.351048,-9.399210,-1.183046,-0.502152,0.004276,0.008858,-0.169973
1765410553.356021,-9.921089,-1.087996,0.434003,0.002902,0.008858,-0.165697
1765410553.356521,-10.162600,-1.208154,0.877571,0.003818,0.011912,-0.166308
1765410553.361009,-9.858918,-1.434122,0.118364,0.001527,0.011759,-0.162948
1765410553.361509,-9.546865,-1.464610,-0.301889,0.006109,0.011148,-0.166614
1765410553.365932,-9.879841,-1.367766,0.129125,0.006414,0.011454,-0.168752
1765410553.368013,-10.322213,-1.224294,1.064084,0.005192,0.011454,-0.173180
1765410553.371015,-10.322213,-1.224294,1.064084,0.005192,0.022297,-0.173180
1765410553.372984,-9.550453,-1.025825,-0.205643,0.001680,0.015730,-0.154549
1765410553.374012,-9.426708,-1.401841,-0.214610,0.001833,0.004276,-0.155160
1765410553.377959,-10.059779,-1.548302,0.483022,0.012828,-0.001680,-0.155771
1765410553.379922,-10.043041,-1.663677,0.533238,0.013744,0.016341,-0.162490
1765410553.382953,-10.043041,-1.663677,0.533238,0.013744,0.010690,-0.162490
1765410553.386072,-9.782400,-1.231468,0.082496,0.011759,0.005040,-0.171195
1765410553.388098,-10.113581,-1.203969,0.664156,0.017257,0.003971,-0.166766
1765410553.390003,-9.985652,-1.226686,0.315041,0.019242,0.008705,-0.163559
1765410553.392981,-9.769248,-1.393472,-0.031086,0.013134,0.009316,-0.165544
1765410553.396089,-9.769248,-1.393472,-0.031086,0.013134,0.005192,-0.165544
1765410553.398003,-9.789574,-1.208752,0.112386,0.025351,0.010385,-0.164781
1765410553.400025,-9.764465,-1.059302,0.202056,0.016493,0.014203,-0.165544
1765410553.401044,-9.825441,-0.931970,0.299498,0.014050,0.002749,-0.166919
1765410553.405018,-9.791965,-1.190818,0.058584,0.011912,0.002749,-0.159741
1765410553.407970,-9.756096,-1.428742,0.035270,0.016646,0.002902,-0.162643
1765410553.410981,-9.898971,-1.188426,0.225968,0.019090,0.013134,-0.170431
1765410553.411481,-10.065758,-1.095170,0.523673,0.012217,0.009621,-0.162948
1765410553.414029,-10.176947,-1.223099,0.484218,0.014355,0.001069,-0.164475
1765410553.418049,-9.959349,-1.169895,0.051411,0.014355,0.003512,-0.164323
1765410553.419995,-9.796746,-1.241033,0.002391,0.014203,0.006414,-0.160810
1765410553.421098,-9.940218,-1.209947,0.299498,0.014661,0.005040,-0.170584
1765410553.425010,-10.102222,-0.912243,0.363462,0.015119,0.003971,-0.167683
1765410553.428061,-10.102222,-0.912243,0.363462,0.015119,0.009010,-0.167683
1765410553.429064,-9.717837,-1.085605,-0.034075,0.020617,0.011148,-0.154549
1765410553.433025,-9.862504,-1.378527,0.390961,0.018021,0.002138,-0.156687
1765410553.436025,-10.162600,-1.423960,0.714969,0.011912,0.001374,-0.170279
1765410553.438021,-9.875656,-1.020445,0.084888,0.013744,0.007789,-0.179900
1765410553.439030,-9.536106,-0.975610,-0.185318,0.012523,0.007330,-0.167224
1765410553.442964,-9.715446,-1.060497,0.102822,0.006872,-0.003360,-0.164628
1765410553.445078,-10.122547,-1.191415,0.566714,0.002291,-0.005651,-0.169057
1765410553.448156,-9.774031,-1.456241,0.200263,0.006567,0.001527,-0.164781
1765410553.450982,-9.436871,-1.275705,-0.538020,0.009010,0.003054,-0.177456
1765410553.453024,-9.544475,-0.974414,-0.340746,0.008705,-0.001069,-0.179747
1765410553.456041,-10.024508,-1.082018,0.505739,0.013286,0.003054,-0.170279
1765410553.457961,-10.177545,-1.163319,0.889526,0.015882,0.017562,-0.169057
1765410553.461018,-9.655666,-1.302606,0.139287,0.009774,-0.002138,-0.166003
1765410553.463019,-9.414154,-1.481349,-0.320421,0.003512,-0.002138,-0.173944
1765410553.463992,-9.723815,-1.279292,-0.123147,0.010843,-0.008705,-0.179594
1765410553.468382,-9.983260,-1.309780,0.522477,0.015882,0.006567,-0.174402
1765410553.471025,-9.386656,-1.255380,-0.072932,0.014661,0.020311,-0.177609
1765410553.473014,-9.349592,-1.194404,-0.247489,0.008705,0.015882,-0.181885
1765410553.476014,-9.509205,-1.074844,-0.065758,0.014355,0.000458,-0.178831
1765410553.478098,-9.995814,-0.937350,0.474653,0.011759,-0.000153,-0.173638
1765410553.480024,-9.732184,-1.269727,0.204448,0.008094,0.019700,-0.167683
1765410553.481012,-9.440458,-1.425753,-0.106408,0.008094,0.014050,-0.167683
1765410553.485948,-9.479913,-1.304400,-0.130320,0.003360,0.005956,-0.178525
1765410553.487974,-9.951577,-1.212936,0.423242,0.004123,-0.000611,-0.180969
1765410553.491039,-9.835006,-1.172884,0.337159,0.003054,0.015882,-0.184176
1765410553.493019,-9.477522,-1.108321,-0.217599,0.010385,0.016341,-0.179289
1765410553.496046,-9.556431,-1.236250,0.051411,0.003818,0.013592,-0.178984
1765410553.497983,-10.127330,-1.378527,0.547585,0.003512,0.004429,-0.182191
1765410553.500949,-10.170371,-1.533955,0.604974,0.004581,0.011606,-0.186467
1765410553.502022,-9.654470,-1.138809,-0.045433,0.005498,0.013744,-0.196851
1765410553.505935,-9.709468,-0.827953,0.159613,0.001833,0.005651,-0.194408
1765410553.508043,-9.750119,-0.826160,0.282759,0.008552,0.005651,-0.183718
1765410553.511020,-9.896580,-1.203969,0.215806,0.001374,0.000458,-0.171959
1765410553.513065,-9.653275,-1.572214,-0.168580,-0.001527,0.009774,-0.180358
1765410553.514038,-9.795551,-1.366571,-0.122549,0.002138,0.016646,-0.191964
1765410553.518032,-10.058583,-1.362984,0.636059,0.004276,0.012828,-0.182343
1765410553.519970,-10.124342,-1.255380,0.675514,0.000611,0.016646,-0.192728
1765410553.523028,-9.994618,-1.343855,0.215208,-0.007636,0.017715,-0.192575
1765410553.525016,-9.579147,-1.520803,-0.265423,-0.003360,0.010996,-0.185550
1765410553.526027,-9.900764,-1.317551,0.405308,-0.000305,0.006567,-0.197615
1765410553.530074,-10.094451,-1.180057,0.514108,0.002749,0.014203,-0.189826
1765410553.533042,-9.739358,-1.390483,-0.195481,0.001680,0.008858,-0.183565
1765410553.537179,-9.722619,-1.602104,-0.162602,0.001680,0.004887,-0.183565
1765410553.538031,-9.995216,-1.461023,0.293520,0.002596,0.011454,-0.196546
1765410553.540026,-10.138689,-1.191415,0.442970,0.001833,0.011454,-0.197462
1765410553.542980,-10.175752,-1.084409,0.508130,-0.001222,0.012523,-0.192270
1765410553.545052,-9.766856,-1.328312,-0.043042,-0.007025,0.011912,-0.184023
1765410553.548018,-9.785987,-1.787422,0.087279,-0.001527,0.002443,-0.179900
1765410553.550076,-9.771041,-1.909373,-0.013152,0.001527,0.002291,-0.189216
1765410553.551002,-10.134504,-1.375538,0.504543,-0.002138,0.002291,-0.202655
1765410553.556008,-10.049019,-1.277499,0.353898,-0.002138,0.007483,-0.202655
1765410553.557996,-9.771639,-1.347441,-0.089670,0.003971,0.001985,-0.178373
1765410553.561515,-9.852941,-1.752152,0.180536,0.000458,0.000764,-0.176845
1765410553.562961,-10.059779,-1.954806,0.377810,-0.000916,-0.001527,-0.183107
1765410553.566032,-10.044236,-1.886059,0.194883,0.004734,-0.008399,-0.186925
1765410553.568059,-9.735771,-1.751554,-0.259445,0.009621,0.002291,-0.193644
1765410553.570793,-9.564800,-1.597322,-0.405906,0.005192,0.011912,-0.196851
1765410553.572993,-10.222381,-1.347441,1.036585,0.006720,0.011912,-0.193339
1765410553.575129,-9.881634,-1.513032,0.434003,0.007330,0.007483,-0.180205
1765410553.575977,-9.761477,-1.875896,-0.036466,-0.004581,-0.014966,-0.180358
1765410553.581068,-9.377091,-1.844811,-0.934361,0.008858,-0.009163,-0.189979
1765410553.581568,-10.111190,-1.638570,0.384983,0.021533,-0.010385,-0.183870
1765410553.586063,-10.138091,-1.510641,0.881157,0.014203,0.007025,-0.185856
1765410553.586563,-9.917501,-1.435916,0.190100,-0.001985,0.007330,-0.188910
1765410553.591011,-9.473935,-1.993065,-0.283357,0.003054,-0.005345,-0.174402
1765410553.593108,-9.381873,-1.916547,-0.339550,0.016799,-0.013592,-0.186161
1765410553.594042,-9.879841,-1.898015,0.399330,0.013134,0.000153,-0.191964
1765410553.597960,-9.756096,-1.596126,0.318030,0.017410,0.012981,-0.193644
1765410553.601061,-9.682567,-1.635581,-0.182329,0.014661,-0.003512,-0.188757
1765410553.602987,-9.698708,-1.482544,-0.011956,0.017562,-0.003207,-0.190743
1765410553.606017,-9.753705,-1.477762,0.119560,0.013897,-0.003207,-0.189979
1765410553.606517,-9.984456,-1.541128,0.642037,0.013897,0.003054,-0.180969
1765410553.610105,-9.868484,-1.456839,0.138690,0.019242,0.005040,-0.183412
1765410553.613054,-10.007172,-1.791607,0.585844,0.016188,0.001527,-0.175776
1765410553.615150,-9.479913,-1.808345,-0.269010,0.021380,0.004581,-0.181885
1765410553.617112,-9.893590,-1.606886,0.353300,0.015882,-0.007483,-0.193950
1765410553.621104,-9.866092,-1.373744,0.535031,0.015119,0.009774,-0.189979
1765410553.623033,-9.739358,-1.292444,-0.160808,0.011912,0.000611,-0.182343
1765410553.626078,-9.582734,-1.688187,-0.219990,0.012523,-0.003665,-0.179289
1765410553.627989,-9.545671,-1.450861,-0.248685,0.018173,0.002749,-0.188910
1765410553.630991,-10.020324,-1.568627,0.691057,0.013286,0.011606,-0.179136
1765410553.631491,-9.884026,-1.623625,0.386777,0.017410,0.007636,-0.182343
1765410553.635185,-10.056790,-1.535748,0.375418,0.014355,0.000458,-0.192575
1765410553.636084,-9.875656,-1.445480,0.383788,0.018021,0.005651,-0.186314
1765410553.641075,-9.908535,-1.534553,0.296509,0.020006,0.002138,-0.185092
1765410553.643136,-9.896580,-1.782640,0.388570,0.013286,0.002138,-0.183565
1765410553.646041,-9.861309,-1.676231,0.130320,0.016341,-0.002902,-0.195324
1765410553.648067,-9.845766,-1.722262,0.156624,0.012981,0.005192,-0.194255
1765410553.651040,-9.430893,-1.628407,-0.278575,0.018937,0.005040,-0.197157
1765410553.653000,-9.741151,-1.331301,0.203850,0.021228,0.009468,-0.199753
1765410553.655968,-10.021520,-1.458632,0.817790,0.018326,0.010690,-0.199753
1765410553.656997,-9.915112,-1.367766,0.396939,0.016188,0.003360,-0.196393
1765410553.661017,-9.881634,-1.551291,0.238522,0.007025,0.010690,-0.191354
1765410553.662016,-9.533715,-1.676231,-0.153037,0.016341,0.006567,-0.189979
1765410553.665052,-9.977283,-1.840028,0.441176,0.010079,-0.007636,-0.194561
1765410553.668003,-10.029889,-1.539933,0.640842,0.011301,0.003207,-0.207083
1765410553.669991,-10.031085,-1.254184,0.325203,0.013592,0.009774,-0.203418
1765410553.673090,-9.609635,-1.457436,-0.104615,0.014203,0.003665,-0.189979
1765410553.676060,-9.787780,-1.569225,0.123147,0.011912,-0.007636,-0.194866
1765410553.676560,-10.033475,-1.731229,0.532042,0.011912,0.012217,-0.194866
1765410553.680083,-9.823647,-1.441894,0.444763,0.017257,0.007636,-0.199447
1765410553.683092,-9.780008,-1.593735,0.182927,0.012217,0.006109,-0.195477
1765410553.685099,-9.295790,-1.498087,-0.579866,0.016188,-0.005040,-0.196699
1765410553.688059,-9.820659,-1.305595,0.082496,0.012065,-0.003360,-0.209832
1765410553.690045,-9.814083,-1.286466,0.560736,0.009927,0.020006,-0.196699
1765410553.693015,-9.656861,-1.451458,0.205643,0.001222,0.004887,-0.198073
1765410553.695016,-9.695121,-1.541128,-0.100430,-0.004276,0.004581,-0.202655
1765410553.698016,-9.850550,-1.497489,-0.135701,0.000916,0.006720,-0.202196
1765410553.699090,-10.120754,-1.494500,0.510521,0.002138,0.006720,-0.204029
1765410553.700989,-9.690338,-1.386896,0.259445,0.001374,0.014813,-0.199142
1765410553.706000,-9.516976,-1.695361,-0.284553,-0.007941,0.006872,-0.199906
1765410553.707971,-9.516976,-1.695361,-0.284553,-0.007941,0.002596,-0.199906
1765410553.711056,-10.004781,-1.783835,0.657580,0.000764,0.001985,-0.208000
1765410553.713074,-10.063366,-1.690578,0.885940,0.004581,0.028863,-0.202502
1765410553.715057,-9.589311,-1.810736,-0.060976,-0.000764,0.000153,-0.206472
1765410553.718048,-9.603060,-1.827475,-0.113582,-0.001985,-0.005803,-0.218537
1765410553.721129,-9.605451,-1.622429,-0.105213,0.004429,0.002443,-0.215941
1765410553.721629,-10.059779,-1.779053,0.659971,-0.000153,0.013439,-0.208763
1765410553.724076,-9.301768,-1.641559,-0.558943,-0.001527,0.013439,-0.213650
1765410553.726091,-9.683165,-1.580583,-0.087279,-0.004581,0.005956,-0.219453
1765410553.731635,-9.575562,-1.615256,-0.153037,0.002902,0.021075,-0.199906
1765410553.733063,-10.106407,-2.134146,0.696437,0.001680,0.007025,-0.196393
1765410553.736042,-10.285748,-1.971545,1.172884,0.003360,0.022755,-0.216246
1765410553.737979,-9.748325,-1.905787,0.139287,-0.000458,0.010843,-0.217010
1765410553.739040,-9.809300,-1.938068,0.044835,0.005345,-0.007330,-0.210596
1765410553.741018,-9.830223,-1.848398,-0.254663,0.008247,-0.005345,-0.214261
1765410553.744962,-10.289334,-1.782640,0.760402,0.014203,0.006261,-0.206014
1765410553.747968,-9.747727,-1.813725,0.109995,0.009621,0.017868,-0.204029
1765410553.751173,-10.014943,-1.957197,0.384983,0.009316,0.005040,-0.204640
1765410553.753045,-9.550453,-2.006217,-0.141081,0.009316,0.012065,-0.204640
1765410553.756028,-10.063964,-2.116810,0.546987,0.010537,0.012828,-0.200669
1765410553.756528,-10.029292,-1.978718,0.613343,0.008552,0.012828,-0.207694
1765410553.760962,-10.029292,-1.978718,0.613343,0.008552,-0.002902,-0.207694
1765410553.762983,-9.632950,-2.170612,-0.191296,0.007483,0.001985,-0.203418
1765410553.765986,-9.572572,-2.192730,-0.353898,0.016341,-0.005040,-0.203724
1765410553.766486,-9.881634,-1.786227,0.480033,0.021228,0.005498,-0.206931
1765410553.771081,-10.165589,-1.768292,0.710186,0.010996,0.005192,-0.201586
1765410553.773019,-9.907339,-1.889646,0.379005,0.014661,0.008094,-0.191201
1765410553.774063,-9.542681,-2.378646,-0.313247,0.012828,-0.007789,-0.189216
1765410553.776981,-9.823050,-2.170014,0.372429,0.018937,-0.003512,-0.200822
1765410553.781067,-9.924676,-2.197513,0.447154,0.021991,0.009621,-0.199295
1765410553.783033,-9.933045,-2.147895,0.278575,0.021228,-0.001985,-0.197768
1765410553.786070,-9.781802,-2.063606,-0.101626,0.014203,-0.012370,-0.209069
1765410553.788039,-9.906742,-1.852582,0.519488,0.014050,0.011301,-0.210138
1765410553.790063,-9.548061,-1.831659,0.036466,0.015272,0.011301,-0.194866
1765410553.793002,-9.548061,-1.831659,0.036466,0.015272,-0.005040,-0.194866
1765410553.795029,-9.753705,-2.108441,-0.050813,0.015730,-0.004734,-0.196240
1765410553.798042,-10.141079,-2.173601,0.490196,0.023518,-0.003665,-0.197615
1765410553.800014,-9.604255,-2.154471,0.060976,0.027336,0.011454,-0.197309
1765410553.803046,-9.777617,-2.226207,0.157819,0.017868,-0.007636,-0.203265
1765410553.804079,-9.576756,-1.854376,-0.217599,0.026420,-0.004123,-0.209374
1765410553.808066,-9.954566,-1.737805,0.307269,0.030085,0.000000,-0.200517
1765410553.810119,-9.578550,-1.739598,0.230751,0.028253,0.015424,-0.190743
1765410553.813114,-9.994021,-2.003826,0.664754,0.024435,-0.004429,-0.190743
1765410553.815126,-9.656264,-1.990674,0.017934,0.031001,-0.004429,-0.189368
1765410553.818072,-9.656264,-1.990674,0.017934,0.031001,-0.013592,-0.189368
