time,acc_x_g,acc_y_g,acc_z_g,gyro_x_rad_s,gyro_y_rad_s,gyro_z_rad_s
1765409305.277103,-7.868044000591148,-5.231372393622735,-2.660299373760585,-0.010081948131270503,-0.005449377528406408,0.0006798244683274837
1765409305.277353,-7.883513560723057,-5.223775834926009,-2.626677770119199,-0.010604670832142948,-0.006541958319241318,0.00040962106960824017
1765409305.277603,-7.897904716065168,-5.216776877218811,-2.5943177914183346,-0.011017431610287847,-0.007661678134272147,7.872887485386403e-05
1765409305.277853,-7.910613879813015,-5.2108981343553005,-2.5631401331849784,-0.011239245579164059,-0.008806493367882393,-0.00025897091161802415
1765409305.278033,-7.921111973884372,-5.206673736218208,-2.533030518889739,-0.011189961133894602,-0.009970689221832179,-0.0005446769719426612
1765409305.278283,-7.9289785703484865,-5.20463201261605,-2.5038411455814424,-0.010793737830276448,-0.011144315511636457,-0.0007157803222026441
1765409305.278533,-7.933929385722208,-5.205275852636965,-2.4753934860390348,-0.009982662772890241,-0.012312953635648438,-0.0007070347547840023
1765409305.278783,-7.935835992014317,-5.209061295332544,-2.447482274363844,-0.008700351965902211,-0.013457893797960491,-0.00045178349583997935
1765409305.27901,-7.934737048062105,-5.216375308381612,-2.4198809046306726,-0.006905348293224264,-0.014556767814242625,0.00011676122312609483
1765409305.27926,-7.930840584581399,-5.227514165744137,-2.392349074533183,-0.004574100057523029,-0.015584636730463826,0.0010641943800862872
1765409305.27951,-7.924517280660945,-5.242664210650018,-2.3646436698041193,-0.0017032882503893714,-0.016515481771090655,0.002453563079415944
1765409305.27976,-7.916285315549695,-5.261886854781191,-2.336533447918462,0.0016887280117632325,-0.0173239965407349,0.004343992619948265
1765409305.280048,-7.9067879864397845,-5.285109276617752,-2.307817387992646,0.005561553815738871,-0.01798753628138345,0.006789303531933147
1765409305.280248,-7.896765653895818,-5.312121578476689,-2.278345970666711,0.009853640487639589,-0.01848805842931322,0.009836631206085463
1765409305.280448,-7.887023782010913,-5.342580478887887,-2.2480442252670945,0.014484474172456761,-0.018813894051323964,0.013525068906531065
1765409305.280648,-7.878398927273498,-5.376019124206519,-2.2169351740461822,0.01935802671801473,-0.018961215269516534,0.01788436639221394
1765409305.280848,-7.871724384139971,-5.411862082524043,-2.185162317295254,0.024367300441819725,-0.018935092922737286,0.022933723529427043
1765409305.281096,-7.867796871238251,-5.44944378858946,-2.1530096541634274,0.02939967967213233,-0.01875005839437118,0.028680723641321144
1765409305.281346,-7.867345534707499,-5.4880279214761485,-2.1209167958885757,0.03434270848632267,-0.018430097179846908,0.03512046467592946
1765409305.281596,-7.871004936922596,-5.526825117732883,-2.089485033551448,0.03908986176616085,-0.018008026319759077,0.04223497017686418
1765409305.281846,-7.879294255381174,-5.5650074626149095,-2.0594689903040297,0.04354587408845257,-0.0175242573156664,0.04999298379775448
1765409305.282059,-7.892604887989338,-5.6017200478576665,-2.031749302375154,0.04763123747004911,-0.017025020077350787,0.0583502507071302
1765409305.282309,-7.911197638277033,-5.6360916919384305,-2.0072850940230125,0.051285565845088685,-0.01656020610096493,0.06725035308971694
1765409305.282559,-7.935209014169199,-5.667247784525776,-1.9870496217695721,0.05446963808498701,-0.016181053059044475,0.07662609712995128
1765409305.282809,-7.964664727036614,-5.694327640610756,-1.9719563767207164,0.057166057956389384,-0.01593790905147774,0.08640136569652686
1765409305.28301,-7.999497756099094,-5.716506973548788,-1.962784733983304,0.059378592369388736,-0.015878272045709647,0.09649328578818281
1765409305.28326,-8.039568271131433,-5.733024094898029,-1.9601137699524274,0.06113034957983239,-0.016045220422498004,0.10681453701205912
1765409305.28351,-8.084682888215438,-5.743207346492173,-1.9642710234520702,0.06246102228942375,-0.016476275534808113,0.11727564684817808
1765409305.28376,-8.134610991350863,-5.7465014830277195,-1.9753007957566526,0.06342344719506095,-0.017202696254567912,0.12778715655837988
1765409305.284012,-8.189096396343642,-5.742491651373205,-1.9929544437988387,0.06407973612876855,-0.018249197707577988,0.13826157272520676
1765409305.284262,-8.247863611323032,-5.730924246468421,-2.016702914509822,0.06449722864594284,-0.01963408889439249,0.14861503723722147
1765409305.284512,-8.310618981032135,-5.711723747477483,-2.045769700432577,0.06474450644642234,-0.021369813922600744,0.1587686664769447
1765409305.284762,-8.377047493997203,-5.685003963151701,-2.0791809808982586,0.06488769254754571,-0.023463853116088455,0.1686495432422544
1765409305.285,-8.446805979189413,-5.651071672319227,-2.115828907590705,0.06498722721946906,-0.025919903796806587,0.1781913906243304
1765409305.285333,-8.519513513528851,-5.610420951036121,-2.154543066404058,0.06509526664756551,-0.02873922937485016,0.18733499819657157
1765409305.285667,-8.59474059599723,-5.563717516493781,-2.1941637584359595,0.06525379270966401,-0.03192204431926664,0.19602849204038197
1765409305.285993,-8.671999610911692,-5.511773788444666,-2.2336096495877427,0.06549346082420843,-0.03546879036362234,0.20422753957216544
1765409305.286243,-8.75073942129145,-5.455516644316573,-2.2719326698073052,0.0658331574345299,-0.03938115936211383,0.2118955639002742
1765409305.286493,-8.830346252882812,-5.395950717078081,-2.3083550567333324,0.06628019762618427,-0.04366274051866115,0.21900401495038505
1765409305.286743,-8.910151882493658,-5.334120326335489,-2.342286195967391,0.06683106842264037,-0.04831921782888801,0.22553270970291994
1765409305.286999,-8.989449205437362,-5.2710727398989174,-2.3733193016774345,0.06747261109958333,-0.05335810605668373,0.23147022027567823
1765409305.287249,-9.06751452157133,-5.207824801144056,-2.4012098806319746,0.06818353305841149,-0.05878807542520362,0.23681426507567416
1765409305.287499,-9.143634925665319,-5.1453344322846295,-2.4258398504036527,0.06893614384571149,-0.0646179701422922,0.24157204441905186
1765409305.287749,-9.217138019054929,-5.084478153648202,-2.447173110227211,0.06969821834635956,-0.07085566903282212,0.2457604516454259
1765409305.288055,-9.287420348395505,-5.026035291587037,-2.4652095841966815,0.07043490053848367,-0.07750695551260453,0.24940608221314012
1765409305.288305,-9.353971055047547,-4.9706788469388545,-2.4799447027962502,0.07111056931032576,-0.08457454659034602,0.2525449606436637
1765409305.288555,-9.416388123384964,-4.918972163260582,-2.491340007940905,0.0716905908878222,-0.09205737705293031,0.25522191542670236
1765409305.288805,-9.47438574961529,-4.871369809708715,-2.4993085987095696,0.0721428845001166,-0.09995016383621372,0.2574895637748967
1765409305.289016,-9.527792265708516,-4.828220719520949,-2.5037169369171868,0.07243923539286727,-0.1082432151004991,0.2594069234168665
1765409305.289266,-9.576538947375548,-4.789771736143423,-2.5044020441649546,0.07255630208158342,-0.1169224174431618,0.26103773350020915
1765409305.289516,-9.620641247552841,-4.7561703581197765,-2.5012003642520124,0.07247627876581561,-0.1259693307714954,0.2624486174848739
1765409305.289766,-9.660175229501851,-4.727466569184368,-2.493982356287992,0.07218718934427862,-0.13536133089006472,0.2637072393373235
1765409305.290058,-9.695252521649893,-4.70361482526836,-2.4826862086636945,0.07168281126936296,-0.14507175838075143,0.2648805860685326
1765409305.290308,-9.725996677507512,-4.684477956414126,-2.4673450634817056,0.07096225851642379,-0.1550700611633494,0.2660334640501465
1765409305.290558,-9.752522736172006,-4.6698345719090515,-2.448104230398623,0.07002929003000789,-0.16532195455548215,0.2672272397156039
1765409305.290808,-9.774920644073006,-4.659390632970996,-2.4252273175485555,0.06889144481814159,-0.17578964989928575,0.26851880245756804
1765409305.291026,-9.79324249427826,-4.652794494715592,-2.3990923198336973,0.06755912720654136,-0.18643220316633985,0.26995969153745913
1765409305.291359,-9.807493424993448,-4.649653298605991,-2.370179957446791,0.06604476581221898,-0.19720600791109866,0.27159531990094976
1765409305.291693,-9.817626292400815,-4.649547708470614,-2.339056843655586,0.064362142203255,-0.20806541749722093,0.2734642490646852
1765409305.292014,-9.823540491542065,-4.6520422371021946,-2.306355699760858,0.06252593512190087,-0.21896344804888174,0.2755975122406681
1765409305.292264,-9.82508526819733,-4.656689782216454,-2.2727542891348964,0.06055146842605584,-0.22985250227989829,0.27801803027721156
1765409305.292514,-9.822067611447816,-4.663030669975495,-2.238954287407322,0.058454602041313954,-0.2406850723630774,0.28074020012820133
1765409305.292764,-9.814264585346027,-4.67058769499141,-2.2056609380125396,0.0562516768272244,-0.2514144143635441,0.28376975075197586
1765409305.293038,-9.801439806606146,-4.678859299017632,-2.173564017907597,0.053959419939070406,-0.26199520959111816,0.2871039564533632
1765409305.293288,-9.783363500753124,-4.687313551062115,-2.1433204915043342,0.05159473261883532,-0.27238422247621474,0.2907322723667951
1765409305.293538,-9.759835110487277,-4.6953860148391255,-2.1155392974412153,0.04917431165108819,-0.28254094023067533,0.2946374101451637
1765409305.293788,-9.730707154521923,-4.702484400267077,-2.090768531350827,0.04671409805144776,-0.29242815934110467,0.2987968103411294
1765409305.294067,-9.695909273159295,-4.708001681806911,-2.069484362873156,0.0442285993273974,-0.30201248012089466,0.303184406231458
1765409305.294317,-9.655471803616507,-4.71133735063103,-2.0520798322723515,0.04173017965411113,-0.31126468268747165,0.3077725268906145
1765409305.294567,-9.609548066358144,-4.711924315390862,-2.038851503261948,0.039228433689445646,-0.32015998218735753,0.3125337662571577
1765409305.294817,-9.558433606727151,-4.709257358899741,-2.029983401408086,0.03672974540010159,-0.32867818832388057,0.31744265755427725
1765409305.295087,-9.502579546394983,-4.70291853988639,-2.0255298356962372,0.03423709188116491,-0.3368038055806585,0.3224770363968486
1765409305.29542,-9.442596754337313,-4.692595804225563,-2.0254002313227866,0.03175009768502851,-0.3445260962195018,0.3276190321996335
1765409305.295754,-9.379248004806062,-4.678093119664275,-2.0293495922316507,0.02926529102502555,-0.3518391061821671,0.33285567117748366
1765409305.296081,-9.313426407240659,-4.659332803411038,-2.0369781086144516,0.026776475516690115,-0.3587416521024165,0.33817909351189734
1765409305.296331,-9.246119975533052,-4.636352245211858,-2.047742878812171,0.02427512271422492,-0.3652372827217378,0.3435863887896643
1765409305.296581,-9.178364252953338,-4.609297311974694,-2.060983253872479,0.021750709957742632,-0.37133422571617325,0.34907905436144193
1765409305.296831,-9.111187189318189,-4.578413752431164,-2.0759587716624126,0.019190961684324506,-0.37704529469601994,0.3546620968827851
1765409305.297058,-9.04555230753856,-4.544037018480198,-2.0918958668709164,0.01658198882776481,-0.38238768852693134,0.36034283284366386
1765409305.297308,-8.982306914614762,-4.506580921912343,-2.108037773530387,0.013908356991224466,-0.38738260190456153,0.3661294881783063
1765409305.297558,-8.922141482013236,-4.466526294164573,-2.123691872947986,0.011153150403456859,-0.3920545871334292,0.372029729728305
1765409305.297808,-8.865564632825194,-4.424411407539183,-2.138269764275478,0.008298130156207402,-0.3964306457995335,0.37804926480957285
1765409305.297986,-8.812896001341635,-4.380825551422022,-2.151316598557748,0.005324096359729224,-0.4005390723898118,0.38419061369997515
1765409305.298236,-8.7642770480731,-4.336405772585221,-2.1625271902795378,0.002211539579186364,-0.4044081127189812,0.3904521048253805
1765409305.298486,-8.719697829165622,-4.291834972925688,-2.17174756437047,-0.0010583918384839356,-0.4080645342092075,0.3968270880625193
1765409305.298736,-8.679035761334992,-4.2478380009456815,-2.1789625216978763,-0.004502657847190191,-0.41153223325091065,0.40330333142100055
1765409305.298967,-8.642100998145867,-4.20517154473156,-2.184271966561718,-0.008134946158170828,-0.4148310242057155,0.4098625721934032
1765409305.2993,-8.60868266908895,-4.164603897417255,-2.1878598820672006,-0.011964312945954642,-0.4179757541241105,0.41648023213261354
1765409305.299634,-8.578590896492333,-4.126882254925831,-2.189959676073699,-0.01599403139622203,-0.4209758606753565,0.42312535856561645
1765409305.299988,-8.551690627356175,-4.092687890697238,-2.190819109592566,-0.02022082675726075,-0.4238354449583732,0.4297608936670315
1765409305.300238,-8.527924517182393,-4.062582601747497,-2.190667936258511,-0.024634644595366278,-0.42655387798591865,0.4363443845664842
1765409305.300488,-8.507323530052718,-4.03695241006899,-2.1896913035441163,-0.029219045393148825,-0.42912690730764963,0.4428292219294069
1765409305.300738,-8.490005739915684,-4.015956047650938,-2.188011013227023,-0.033952251187233905,-0.4315481784815882,0.4491664349140274
1765409305.300956,-8.476165588878809,-3.9994859929534927,-2.1856750579912316,-0.038808796472579704,-0.43381103636710866,0.45530698305853406
1765409305.301206,-8.466056762449092,-3.9871488163224336,-2.182654677554047,-0.04376165897697441,-0.43591043629790505,0.46120438668509606
1765409305.301456,-8.459971582787565,-3.9782695590803305,-2.1788482203654587,-0.04878467296840844,-0.437844786807096,0.46681745157438126
1765409305.301706,-8.458218919554229,-3.9719220982182653,-2.174091640522422,-0.0538549756707093,-0.4396175574572489,0.4721127997953116
1765409305.302001,-8.461101771003493,-3.9669843725463876,-2.168175342449779,-0.05895522314444808,-0.4412385054136287,0.4770669324470873
1765409305.302334,-8.468895183355345,-3.9622145202901526,-2.1608659315054637,-0.06407533819419976,-0.442724404617588,0.4816676101253237
1765409305.302668,-8.481824979537036,-3.9563416894411683,-2.1519299533529153,-0.06921360682773171,-0.44409921186047463,0.48591441762308646
1765409305.303309,-8.500047558617409,-3.9481634581791103,-2.1411562938293494,-0.07437700738688709,-0.4453936734266433,0.4898184650992977
1765409305.303559,-8.523630502987498,-3.936640546122022,-2.128375430733748,-0.07958073229532045,-0.4466444437349096,0.49340126663531503
1765409305.303809,-8.55253302435061,-3.9209793896450296,-2.1134763077047767,-0.08484694227541253,-0.44789282660327895,0.49669292612917376
1765409305.304059,-8.586585085988363,-3.9006946406447778,-2.096423162501896,-0.09020286530111844,-0.44918324843394963,0.499729834659587
1765409305.303989,-8.625464942087628,-3.8756463002939125,-2.0772740216118337,-0.09567840566252853,-0.45056154101043594,0.5025521207153666
1765409305.304239,-8.66867657564136,-3.8460489770947857,-2.056200548502918,-0.10130345866334407,-0.4520730737754218,0.5052010877906811
1765409305.304489,-8.715530268394497,-3.8124529856152276,-2.033506952518006,-0.10710513612541739,-0.4537607582078911,0.5077168416855544
1765409305.304739,-8.765130720563572,-3.7756989136379797,-2.009644359135885,-0.11310510318729936,-0.45566296502106285,0.5101362791885466
1765409305.304991,-8.816377535551766,-3.736849605538098,-1.9852164684209839,-0.11931721663239148,-0.4578114394343801,0.5124915863389999
1765409305.305324,-8.867982303615277,-3.697106449971395,-1.960972761928442,-0.1257456445943757,-0.4602293473334202,0.5148093569497693
1765409305.305658,-8.918504949925408,-3.6577195259102546,-1.9377870722229067,-0.13238363331739061,-0.4629296161876658,0.5171103682061439
1765409305.306016,-8.966409863850702,-3.619902146665926,-1.916621335074045,-0.1392130577284184,-0.46591373684211246,0.5194099454508544
1765409305.306266,-9.010140036608528,-3.5847589715612487,-1.8984759371294382,-0.14620483897129732,-0.4691711592509794,0.5217187444900802
1765409305.306516,-9.04820507110866,-3.5532336882545468,-1.884329160966742,-0.1533202348013441,-0.47267935548893547,0.5240437089137862
1765409305.306766,-9.07927647425273,-3.5260783632526684,-1.8750693837770853,-0.16051292204027234,-0.47640456235426026,0.5263889381382705
1765409305.30701,-9.102281547574414,-3.5038425735442424,-1.8714251816662246,-0.16773171164455655,-0.4803031750108144,0.5287562353413555
1765409305.307343,-9.116486369036997,-3.486876837138477,-1.8738997920595304,-0.17492367713514356,-0.484323740433024,0.5311451965628124
1765409305.307677,-9.12155949795442,-3.4753427106175074,-1.8827165650707534,-0.18203744063708108,-0.48840947625094355,0.5335528429907415
1765409305.308005,-9.117610872534513,-3.4692225832284347,-1.8977806757859086,-0.1890263509108982,-0.4925012022727794,0.5359729491120606
1765409305.308255,-9.105203678224406,-3.4683259379449565,-1.918660150822875,-0.19585130702260517,-0.49654051952070405,0.5383953214240109
1765409305.308505,-9.085339461679158,-3.472293935632699,-1.9445874616215897,-0.20248302617743993,-0.500473020726757,0.5408052930392963
1765409305.308755,-9.059418111222081,-3.4806077000489903,-1.9744821065500364,-0.20890361254576462,-0.5042512865839741,0.5431836250100516
1765409305.309031,-9.029175080141675,-3.4926056639084613,-2.0069940561280006,-0.2151073404972605,-0.5078374237618315,0.5455069008208125
1765409305.309364,-8.99659893119732,-3.507512278134652,-2.040566796102312,-0.22110061235927583,-0.5112049332375083,0.5477484283311709
1765409305.309698,-8.9638329965775,-3.5244767796872405,-2.0735169900052255,-0.2269010926870582,-0.5143397598798006,0.5498796386603916
1765409305.310014,-8.933065676771061,-3.542618984276762,-2.104126171960396,-0.2325360716207405,-0.5172404642594851,0.5518719522460902
1765409305.310264,-8.906414861739812,-3.5610796193796688,-2.130738800169454,-0.23804017368182145,-0.5199175575011357,0.553699016722474
1765409305.310514,-8.885813248317914,-3.579073670420612,-2.1518601907152566,-0.24345258936640934,-0.5223921159914671,0.555339102824665
1765409305.310764,-8.872902511976006,-3.5959443506796593,-2.1662468435070656,-0.24881404435484242,-0.5246938241966164,0.5567773247769985
1765409305.311007,-8.8689445276077,-3.6112123428793867,-2.1729807962580368,-0.25416373267808,-0.526858598899654,0.5580073038093186
1765409305.31134,-8.87475656260409,-3.6246118559488667,-2.171520198375811,-0.25953643814283484,-0.5289259643842281,0.559031959719155
1765409305.311674,-8.890674823117882,-3.6361042677000053,-2.1617212478741417,-0.26496005833880304,-0.5309363815798682,0.5598632807971358
1765409305.312017,-8.916547688314472,-3.6458628572918124,-2.1438312279883918,-0.27045372111963517,-0.5329287463643881,0.5605211282502945
1765409305.312267,-8.951757107618372,-3.654227599260834,-2.1184564598080122,-0.2760266407272956,-0.5349382300812231,0.5610313069667182
1765409305.312517,-8.995264369428552,-3.6616350997087093,-2.0865108878784664,-0.28167780615114113,-0.5369945587760505,0.5614232309358983
1765409305.312767,-9.045674987896122,-3.6685333991436804,-2.0491510338166887,-0.2873965340138911,-0.5391207673903262,0.5617275227249852
1765409305.313049,-9.101316829674781,-3.675293516176037,-2.0077027139204806,-0.29316385169450015,-0.5413324430959714,0.5619738417991132
1765409305.313382,-9.160325685495533,-3.6821296233994354,-1.9635850535598696,-0.2989546048689331,-0.5436374651946397,0.5621891704343722
1765409305.313716,-9.22073310652953,-3.6890387550646158,-1.918237454174492,-0.304740115567192,-0.5460362287273586,0.562396710144019
1765409305.31403,-9.2805523645,-3.695769541317486,-1.8730543683111565,-0.31049116092730983,-0.5485223004502693,0.5626154458558731
1765409305.31428,-9.337859725191475,-3.701827083238011,-1.8293307268201162,-0.31618100234805774,-0.5510834096235808,0.562860315864555
1765409305.31453,-9.3908694373869,-3.7065169550980754,-1.7882184250051292,-0.3217881715950515,-0.5537026363233585,0.5631428058392237
1765409305.31478,-9.438001341448727,-3.709025628362174,-1.7506927253881894,-0.32729872207850685,-0.5563596448979558,0.563471699583681
1765409305.315067,-9.47793957872643,-3.708528302435056,-1.7175274021190372,-0.33270769032155023,-0.5590318317009834,0.5638536907747214
1765409305.3154,-9.509680010335964,-3.704309279200099,-1.6892783876205157,-0.3380195878673292,-0.561695307207846,0.5642935998760601
1765409305.315734,-9.532563458474192,-3.695876082491867,-1.6662765151531092,-0.3432478513231984,-0.5643256922733731,0.5647940528905124
1765409305.316008,-9.546292307347008,-3.6830483350674523,-1.6486299456199756,-0.3484133059413883,-0.5668987562002168,0.5653546449783153
1765409305.316258,-9.550929198040455,-3.666006699021579,-1.6362360894263397,-0.353541827807476,-0.5693909495098195,0.5659707784215915
1765409305.316508,-9.546877910044506,-3.6452942858324553,-1.6288020924584203,-0.3586614976119018,-0.5717798880098562,0.5666324679558753
1765409305.316758,-9.534847684928826,-3.6217700013709315,-1.6258729902074704,-0.3637996052674136,-0.5740448338856167,0.5673234261966756
1765409305.316946,-9.515803475977995,-3.596518992014277,-1.6268670665850953,-0.3689798803309346,-0.5761671969554777,0.5680207110486957
1765409305.317196,-9.490906152220225,-3.570730628955107,-1.6311174844264575,-0.3742202866489107,-0.5781310448181354,0.5686951697537623
1765409305.317446,-9.461447941974518,-3.5455601986328618,-1.637917428659829,-0.3795316333426509,-0.5799235735374159,0.5693128361305319
1765409305.317696,-9.428788306991079,-3.5219951930026308,-1.6465641973798941,-0.3849171286069221,-0.581535473259181,0.5698372917198131
1765409305.317989,-9.394293896325307,-3.5007478072043594,-1.6563975751550064,-0.3903728576306638,-0.5829611459155184,0.570232795900104
1765409305.318322,-9.359284469104505,-3.482190477135102,-1.6668294775621322,-0.39588902655718694,-0.5841987896367516,0.5704677935344706
1765409305.318656,-9.324985797443961,-3.4663425648501693,-1.677363949084693,-0.40145170799207436,-0.5852504178581717,0.5705182970188665
1765409305.319001,-9.292490306800037,-3.4529066190750184,-1.687608064957365,-0.4070447733016597,-0.5861218840448007,0.5703706424164795
1765409305.319251,-9.2627256963729,-3.4413443987252417,-1.6972750594055213,-0.41265171092468916,-0.5868229306987733,0.5700232224520444
1765409305.319501,-9.236430976397216,-3.4309774020191854,-1.7061814467380831,-0.41825709570419045,-0.5873672219967386,0.5694869700717564
1765409305.319751,-9.214139107114697,-3.421094550906791,-1.7142400738427501,-0.42384756784072875,-0.5877722969849389,0.5687845639044327
1765409305.319961,-9.1961661201982,-3.411050608671529,-1.7214507272451316,-0.4294122798809888,-0.5880593872117373,0.567948507421
1765409305.320294,-9.182607632324702,-3.400341807057279,-1.7278891897273647,-0.43494286244808555,-0.5882530516917729,0.567018367117617
1765409305.320628,-9.17334429055808,-3.3886491356823503,-1.7336948680925477,-0.44043303573807496,-0.5883805928001193,0.5660375354756704
1765409305.321051,-9.168057734296676,-3.375844743969169,-1.7390565639241318,-0.4458780464923998,-0.5884712413707193,0.5650499184253628
1765409305.321301,-9.166258008127251,-3.361963208738432,-1.7441958808437719,-0.4512741298379276,-0.5885551305366618,0.5640969345827899
1765409305.321551,-9.16732171350551,-3.3471464254137455,-1.749348436335309,-0.4566181733947644,-0.588662099680009,0.563215142379731
1765409305.321801,-9.170537835633976,-3.331576623987553,-1.7547442508068944,-0.4619076959343896,-0.5888203842058536,0.5624346755722106
1765409305.321996,-9.17515649071818,-3.315414197086776,-1.7605894451235238,-0.46714115717904,-0.5890552674217331,0.561778490270773
1765409305.322329,-9.180436111446335,-3.298754648331003,-1.7670508125770383,-0.4723185152297208,-0.5893877954043196,0.5612622573270567
1765409305.322663,-9.185686411873231,-3.2816129639323917,-1.7742433857434006,-0.4774418707416325,-0.589833662868451,0.5608946276613856
1765409305.323012,-9.190306021575124,-3.263936172148808,-1.7822203337826878,-0.482515999053683,-0.5904023586122695,0.5606775903643905
1765409305.323262,-9.193814011498121,-3.2456379389383407,-1.7909650230600402,-0.48754858114221733,-0.5910966340291842,0.5606067317820349
1765409305.323512,-9.19587455918469,-3.226644578548986,-1.8003856391416162,-0.49255000185337316,-0.5919123464371306,0.5606713454386113
1765409305.323762,-9.196314585747004,-3.206940892649045,-1.8103123485722443,-0.4975326751431764,-0.5928387148668214,0.5608544720781344
1765409305.324058,-9.195134598919111,-3.1866061347264436,-1.8204964024782182,-0.5025099540291829,-0.5938589825601097,0.5611330135275392
1765409305.324391,-9.192512168790016,-3.165832931222395,-1.830611136157006,-0.5074947623308951,-0.5949514167801513,0.5614780596518152
1765409305.324725,-9.188796042282124,-3.144923727667614,-1.8402561784665303,-0.5124981368270232,-0.5960905371890846,0.5618555403640968
1765409305.324974,-9.184488487944677,-3.124261490148083,-1.8489669894231813,-0.5175278980631329,-0.5972484768720373,0.5622273097808015
1765409305.325224,-9.180214619917443,-3.104256393614114,-1.8562316924229465,-0.5225876753328762,-0.598396421772305,0.5625527766723685
1765409305.325474,-9.176679313039987,-3.0852780290940314,-1.8615167769289436,-0.5276764758676971,-0.5995060989746641,0.562791152686895
1765409305.325724,-9.17461412403366,-3.067589499831235,-1.8643026294232932,-0.5327888928088315,-0.6005512697040223,0.562904251409782
1765409305.326049,-9.17471848119991,-3.0513011670288175,-1.8641277952683644,-0.5379159112554427,-0.6015091375254451,0.5628595690874637
1765409305.326382,-9.177601349316783,-3.036356479096053,-1.860637037062081,-0.5430461478072712,-0.6023615314860301,0.5626332113016294
1765409305.326716,-9.183730889997822,-3.0225529007628937,-1.8536245642325668,-0.5481672871604701,-0.6030957056585018,0.5622121897740304
1765409305.327047,-9.193399353214588,-3.009591558878264,-1.8430628377545628,-0.5532674660122202,-0.6037046417937465,0.561595718102159
1765409305.327297,-9.206708054276245,-2.997143041864408,-1.8291100854971418,-0.5583363868024205,-0.6041868393282659,0.560795333428726
1765409305.327547,-9.223573067408243,-2.9849150601279706,-1.8120950981737804,-0.5633660092674728,-0.6045456769439946,0.5598338849883994
1765409305.327797,-9.24374757178099,-2.972709457879088,-1.7924836430404247,-0.5683507562019112,-0.6047884941782177,0.5587435945316797
1765409305.32801,-9.266853847932648,-2.960459205086198,-1.7708342509817128,-0.5732872663367324,-0.6049255688919231,0.5575634807701744
1765409305.328343,-9.29241808692051,-2.9482390914445817,-1.7477510969369106,-0.5781738127215282,-0.6049691625719833,0.556336467959152
1765409305.328677,-9.319903430023338,-2.9362474254218056,-1.7238395925736434,-0.5830095624568868,-0.6049327622349682,0.5551065021860104
1765409305.328986,-9.34873869378063,-2.9247614368853663,-1.6996683695175892,-0.5877938697912671,-0.6048305686098829,0.5539159866788635
1765409305.329236,-9.378340939084405,-2.9140759684112583,-1.6757404340717197,-0.592525760886957,-0.6046772004029137,0.5528037907916206
1765409305.329486,-9.408130365343592,-2.9044405777211684,-1.6524757364477147,-0.5972036911799726,-0.6044875383813014,0.5518039586407651
1765409305.329736,-9.437537329737697,-2.8960111752342343,-1.6302062622299212,-0.6018255622519618,-0.6042766181056423,0.5509450649670785
1765409305.330054,-9.466003482110775,-2.8888280966382593,-1.6091829150606198,-0.6063889084549174,-0.6040594731026461,0.5502500078543845
1765409305.330387,-9.492980607870477,-2.8828250013157573,-1.5895916492838373,-0.6108911248212475,-0.6038508266412272,0.5497359555805021
1765409305.330721,-9.517930819754495,-2.8778647601180447,-1.5715751745107625,-0.6153296105086524,-0.6036645484948459,0.5494141991514551
1765409305.331084,-9.540330748269133,-2.873791710422438,-1.5552560478611421,-0.6197017426874109,-0.6035128469150066,0.5492897838872096
1765409305.331334,-9.559681352149758,-2.870486216775401,-1.54075681212587,-0.6240046675674702,-0.603405243778,0.5493609564228044
1765409305.331584,-9.575524017196784,-2.8679083324942627,-1.5282132358890654,-0.6282349776620142,-0.6033474514366444,0.5496186042719408
1765409305.331834,-9.587462162298024,-2.8661214057070166,-1.517778164513908,-0.6323884005523092,-0.603340309323227,0.550045932189581
1765409305.332081,-9.595185765393257,-2.865291365743574,-1.5096157247970656,-0.6364596252812492,-0.6033789469631908,0.5506186064851883
1765409305.332414,-9.598495206320028,-2.8656619308846647,-1.5038873739097118,-0.640442342688538,-0.6034523292480146,0.5513055406432799
1765409305.332748,-9.59732125282241,-2.8675106332791165,-1.5007318023208673,-0.6443295066374812,-0.6035433129824546,0.5520704275683488
1765409305.333,-9.591738993879613,-2.8710955334926123,-1.5002409321400505,-0.648113763200117,-0.6036292973943103,0.5528740386729509
1765409305.33325,-9.58197372874403,-2.8766058661694043,-1.5024355458298295,-0.6517879557215228,-0.6036834860770057,0.553677173085889
1765409305.3335,-9.568396358737708,-2.884129010769838,-1.507245988893394,-0.6553455948410113,-0.6036766981337348,0.5544439539206333
1765409305.33375,-9.551506186299363,-2.8936406506125127,-1.5145037237836263,-0.6587811857792374,-0.6035795755215759,0.5551450081924214
1765409305.334078,-9.531901074159293,-2.9050171575405237,-1.5239469746911878,-0.6620903375106669,-0.6033649444178508,0.5557600248465893
1765409305.334411,-9.510237880458313,-2.9180624075260284,-1.5352395894551902,-0.6652696394174372,-0.6030100357105217,0.5562792881256703
1765409305.334745,-9.487188769024241,-2.9325375050014904,-1.5479987482748354,-0.6683163637341492,-0.6024982899244905,0.5567039843819995
1765409305.335027,-9.463400828890151,-2.948181939276633,-1.561825063362774,-0.6712281113684879,-0.6018205609602577,0.5570453111036033
1765409305.335277,-9.439466741844884,-2.964718374944399,-1.5763278859580647,-0.6740025449245678,-0.600975644433682,0.5573226215688195
1765409305.335527,-9.41591189011411,-2.9818396138142917,-1.59113991300369,-0.6766373369914632,-0.5999701508691723,0.557560977137684
1765409305.335777,-9.393198371860798,-2.9991831681794032,-1.6059189230324544,-0.6791304034398997,-0.5988178207422316,0.5577885295232184
1765409305.33601,-9.371741270109702,-3.0163038297471965,-1.6203390913148552,-0.681480400261725,-0.5975384441168738,0.5580341172003509
1765409305.336343,-9.351929930636944,-3.03265607623499,-1.6340771669544714,-0.6836873646700636,-0.5961565793982191,0.5583253507410632
1765409305.336677,-9.334147178892266,-3.0475962320586962,-1.6467990213381534,-0.6857533145252184,-0.5947002352491146,0.5586873076318774
1765409305.337016,-9.318780424933436,-3.060409909713418,-1.6581513088617985,-0.6876826129582712,-0.5931996037878021,0.5591417909052312
1765409305.337266,-9.306219434124559,-3.0703643257385553,-1.6677625603244177,-0.6894819596148195,-0.5916858664074022,0.5597069695194201
1765409305.337516,-9.296837348872375,-3.076778832281097,-1.6752570809978335,-0.6911599657479506,-0.5901900697131479,0.5603971533382901
1765409305.337766,-9.290955669483939,-3.079102054069593,-1.68028198214468,-0.6927263784736671,-0.5887420722558819,0.5612224796132032
1765409305.337969,-9.288799434262595,-3.0769814638359936,-1.6825429880419072,-0.6941911124043936,-0.5873695593828263,0.5621883861401336
1765409305.338219,-9.290452899039709,-3.070311337098613,-1.6818409814440032,-0.6955633032636624,-0.5860971070632708,0.5632948876608677
1765409305.338469,-9.295826311866744,-3.0592482329583883,-1.678100880486398,-0.6968506058660962,-0.5849452700866874,0.5645358200359389
1765409305.338719,-9.304641111738574,-3.0441901360401546,-1.6713872596676507,-0.6980589116653492,-0.5839296946013892,0.5658983207690371
1765409305.339002,-9.316436096141555,-3.0257251556694755,-1.6619051344414417,-0.6991925548376376,-0.5830602967889306,0.5673628190671447
1765409305.339335,-9.33059281652341,-3.004564082274245,-1.6499874489215307,-0.7002549249374067,-0.5823405775010424,0.5689036966685227
1765409305.339669,-9.346375698262214,-2.981473220963289,-1.6360720408350142,-0.7012492605623507,-0.5817671406899932,0.5704906055054743
1765409305.339962,-9.362981245040181,-2.957218829700305,-1.6206705762211568,-0.7021793317468054,-0.5813294650932707,0.5720902835925484
1765409305.340212,-9.379590724454678,-2.9325266377181927,-1.6043314679025498,-0.7030497642813001,-0.5810099702833557,0.5736686544855275
1765409305.340462,-9.395421422118485,-2.9080545570912024,-1.5875992342564218,-0.7038658905023245,-0.5807844283514464,0.5751930067978304
1765409305.340712,-9.409772619983563,-2.8843750345449912,-1.5709740314685605,-0.7046331652055711,-0.580622780665259,0.5766340681885983
1765409305.341001,-9.42206370302246,-2.8619634520796935,-1.5548760957322665,-0.7053563095490731,-0.5804903954546736,0.5779677891411328
1765409305.341334,-9.431862900990911,-2.841189143841244,-1.5396195291537764,-0.7060384185872479,-0.5803497367881416,0.5791766657152102
1765409305.341668,-9.438905910618884,-2.82230647745889,-1.5253981287653338,-0.7066802817671821,-0.5801623310467169,0.5802504910845432
1765409305.341961,-9.443104134591964,-2.805445649113215,-1.5122835461552508,-0.7072801116214862,-0.579890850157528,0.5811865272875232
1765409305.342211,-9.444542727783134,-2.7906056379412725,-1.5002340533753102,-0.7078337615611492,-0.5795011055709743,0.5819891922099864
1765409305.342461,-9.44346920106478,-2.777653837653524,-1.489111274439376,-0.7083353783124124,-0.5789637649922212,0.5826694192249128
1765409305.342711,-9.440274206922558,-2.7663372865645455,-1.4787022294410626,-0.7087783251068677,-0.5782556525013378,0.5832438413037468
1765409305.343056,-9.435467271960526,-2.756308548127695,-1.468744170307093,-0.7091561533649432,-0.5773605510768761,0.5837338815294044
1765409305.343389,-9.429650872188345,-2.7471650771662,-1.4589496009359917,-0.7094634011127959,-0.5762694745951392,0.5841647395354004
1765409305.343723,-9.423495481061497,-2.73849571909537,-1.449028948834436,-0.7096960573017567,-0.5749804126065605,0.5845642089392735
1765409305.343986,-9.417716245151544,-2.7299245693743583,-1.4387089913115512,-0.7098516385315508,-0.5734975948411695,0.5849612799389265
1765409305.344236,-9.413050012347167,-2.721142846389038,-1.427746097405079,-0.7099289444245962,-0.5718303849185796,0.5853845577685498
1765409305.344486,-9.410230664381839,-2.7119233874363022,-1.4159341179568412,-0.7099276516901517,-0.569991975833355,0.5858606129344042
1765409305.344736,-9.409961156559573,-2.702117967433985,-1.4031074199558586,-0.7098479463889006,-0.5679980949111262,0.5864124308009558
1765409305.345012,-9.412881571172282,-2.6916430877929125,-1.3891407101419788,-0.7096903656340534,-0.5658659210457685,0.5870581246504978
1765409305.345345,-9.419533135443693,-2.680463499237406,-1.3739489091696597,-0.7094559304334813,-0.563613368247934,0.5878100122479162
1765409305.345679,-9.430318619361136,-2.668582541359776,-1.3574912958745944,-0.709146529366242,-0.5612587918885711,0.588674052247269
1765409305.346078,-9.445460639998164,-2.656043795817448,-1.3397830535948572,-0.7087654024523401,-0.5588210453371868,0.5896495490084214
1765409305.346328,-9.464961797396947,-2.642941939234258,-1.3209137575176688,-0.7083175195601084,-0.5563197032565393,0.5907290173241886
1765409305.346578,-9.488573489520748,-2.6294358776353284,-1.3010676372149441,-0.7078096689801296,-0.5537752175408457,0.5918981563864104
1765409305.346828,-9.515781598178876,-2.6157561308353245,-1.2805376196379799,-0.7072501559138621,-0.5512087989172482,0.593135966489575
1765409305.347001,-9.545815567714643,-2.6021998903155623,-1.2597262750650553,-0.7066481235072238,-0.5486419127933,0.5944151008940692
1765409305.347334,-9.577683528714855,-2.5891095192863363,-1.2391307353419705,-0.7060126161581673,-0.5460954063281516,0.5957025696298582
1765409305.347668,-9.610231974202533,-2.576833675387849,-1.2193125603166923,-0.7053515766547453,-0.5435883904545569,0.5969609214313636
1765409305.348042,-9.642225024461988,-2.565675724770211,-1.200855891099852,-0.7046709831276337,-0.5411370470027796,0.5981500192897804
1765409305.348292,-9.672435440466153,-2.555840572145363,-1.1843184560856694,-0.7039742825720079,-0.5387535205004066,0.5992294526503988
1765409305.348542,-9.699737485452866,-2.54739476919115,-1.1701807204911512,-0.703262181381582,-0.5364450203984168,0.6001614747503603
1765409305.348792,-9.723191207613976,-2.5402527226384644,-1.1587986765249276,-0.7025327468376912,-0.5342132298630617,0.6009141658958752
1765409305.349054,-9.742108986002096,-2.5341945278844,-1.1503653317927902,-0.7017816973406362,-0.5320540909215243,0.6014643898424893
1765409305.349387,-9.756097778198383,-2.528911748818676,-1.144884989778602,-0.7010027356621477,-0.5299580004955283,0.6018000884808317
1765409305.349721,-9.765073907330693,-2.524069670303805,-1.1421629921293202,-0.7001878060428829,-0.5279104098735343,0.6019215534803118
1765409305.350076,-9.769251077961053,-2.5193701790676446,-1.1418116952678103,-0.699327216542507,-0.5258927822013911,0.6018414941602609
1765409305.350326,-9.76910594771575,-2.514599608721367,-1.1432713554279121,-0.6984096449766007,-0.5238838302941169,0.6015839431016633
1765409305.350576,-9.76532803504388,-2.5096506895176254,-1.145842793848128,-0.6974221207328297,-0.5218609282516243,0.6011822426606908
1765409305.350826,-9.758761495796247,-2.5045154768062496,-1.1487276124958872,-0.696350121182997,-0.5198015725226436,0.6006764796335385
1765409305.35106,-9.750345585978009,-2.4992539543736574,-1.151071644116971,-0.6951779166545847,-0.5176847735677553,0.6001107638724826
1765409305.351393,-9.741058979321634,-2.4939486681969276,-1.1520083850474103,-0.6938892356344154,-0.515492290162822,0.599530699012224
1765409305.351727,-9.73187099048285,-2.4886584210489007,-1.150700941384339,-0.6924682242985609,-0.5132096609114952,0.5989812927433522
1765409305.352043,-9.723700523192873,-2.4833837979649696,-1.1463826645808548,-0.6909005812655505,-0.5108270208641741,0.5985054135203638
1765409305.352293,-9.717381591076903,-2.478054253609618,-1.1383975131539326,-0.689174690253638,-0.5083397040205087,0.5981427416747014
1765409305.352543,-9.713633182153629,-2.4725409526617126,-1.1262407811243007,-0.687282560186247,-0.5057486296590201,0.5979290257060984
1765409305.352793,-9.713031714155134,-2.4666924683025875,-1.1095988059438027,-0.685220412759773,-0.5030604596149423,0.5978953826997508
1765409305.353028,-9.71598609315239,-2.4603836194753717,-1.0883833058493806,-0.6829888238680756,-0.5002874987481167,0.5980674034784826
1765409305.353361,-9.722716998219862,-2.453563268269377,-1.0627542331219886,-0.6805924121109063,-0.4974473024409893,0.5984639420014237
1765409305.353695,-9.733242156311526,-2.4462864765544405,-1.0331262531496317,-0.6780391561613455,-0.4945619673190615,0.5990956584940056
1765409305.354003,-9.747368263695844,-2.438720798058959,-1.0001576554775713,-0.6753394945581982,-0.4916571135673847,0.5999635864860129
1765409305.354253,-9.764689328198273,-2.431124897771419,-0.9647241790253128,-0.6725053943681669,-0.48876060206918526,0.6010581212456702
1765409305.354503,-9.784591609392264,-2.4238071315507606,-0.9278816581467177,-0.6695495487242918,-0.48590105227137353,0.6023588108382159
1765409305.354753,-9.806266527877519,-2.417077681822837,-0.8908204917584519,-0.6664847803640218,-0.4831062346879746,0.6038351671565956
1765409305.355,-9.828733564748763,-2.4112074596151185,-0.8548135101865012,-0.663323626395403,-0.4804014115742656,0.605448483245163
1765409305.35525,-9.85087467511589,-2.4064016429608843,-0.8211584999499567,-0.6600780092019116,-0.4778077024449642,0.6071544549700255
1765409305.3555,-9.871480642090795,-2.402789665706028,-0.7911173887106357,-0.6567588862962055,-0.47534056825727306,0.6089063117036156
1765409305.35575,-9.889308714567477,-2.400429649351708,-0.7658547985814371,-0.6533758058456505,-0.4730085323103367,0.6106581329686468
1765409305.356025,-9.903149635180093,-2.3993234073858907,-0.7463787943540638,-0.6499363453203938,-0.4708122658611534,0.6123680173560468
1765409305.356358,-9.911900560823785,-2.3994366636365476,-0.7334863336728394,-0.6464454619798908,-0.4687441539795006,0.614000770593077
1765409305.356692,-9.914639089164405,-2.4007176315148597,-0.7277152385597919,-0.6429048337064703,-0.4667884308081858,0.6155298231997903
1765409305.357059,-9.910693295457184,-2.403106647880773,-0.7293037514687103,-0.6393123114610971,-0.46492193321090824,0.6169382020628242
1765409305.357309,-9.899702647016685,-2.4065314012987598,-0.7381590645871905,-0.6356616283004166,-0.4631154622361234,0.6182185581499234
1765409305.357559,-9.881663816113564,-2.410886945251412,-0.7538384193432994,-0.6319425037092715,-0.4613356769942244,0.6193724436344242
1765409305.357809,-9.856954409230744,-2.4160061727992144,-0.7755490541374884,-0.6281412369504615,-0.4595473976326148,0.6204091524364779
1765409305.358066,-9.826328503405582,-2.4216319097917913,-0.8021735204115392,-0.62424179760079,-0.45771615828036105,0.6213444269898001
1765409305.358399,-9.790881434525962,-2.427402893560843,-0.8323234131549002,-0.620227314712857,-0.45581080202829666,0.6221992112175903
1765409305.358733,-9.751986079006977,-2.432861574904711,-0.8644191487285989,-0.6160817743020407,-0.4538058506020957,0.6229984845219797
1765409305.359053,-9.711207067821203,-2.4374844201063746,-0.896788659657209,-0.6117916892846276,-0.4516833574310889,0.6237701234085743
1765409305.359303,-9.670202256018896,-2.4407292221979566,-0.9277748325423292,-0.6073475167756053,-0.44943400623137936,0.624543723124838
1765409305.359553,-9.630622045143404,-2.4420910780828113,-0.9558402927892021,-0.6027446532934264,-0.44705733933289343,0.6253493402132639
1765409305.359803,-9.594016331113144,-2.4411584479284953,-0.9796589555669301,-0.5979839174431097,-0.4445611482516233,0.6262161508635443
1765409305.360071,-9.561756203404782,-2.4376612969370415,-0.998186329145064,-0.5930715144740734,-0.44196019578101065,0.6271710439002048
1765409305.360404,-9.534974413113616,-2.4315040360099807,-1.0107037515455595,-0.5880185554368533,-0.43927453339300965,0.6282371880923338
1765409305.360738,-9.514526044649847,-2.4227774767558103,-1.0168348861716878,-0.582840261781556,-0.43652770111158246,0.6294326438346227
1765409305.360993,-9.500968475461468,-2.4117471453168675,-1.0165362446277186,-0.5775550106271417,-0.43374504819824483,0.6307691315361295
1765409305.361243,-9.494557229262291,-2.3988200996847446,-1.0100671319445178,-0.572183361759435,-0.430952330408341,0.6322511064558982
1765409305.361493,-9.49525270347756,-2.38449764337708,-0.9979465521142101,-0.5667471617576606,-0.42817466177234254,0.633875287974959
1765409305.361743,-9.502733499084025,-2.3693247054427133,-0.980903668153471,-0.5612687586167501,-0.42543583142117586,0.6356307229214119
1765409305.361977,-9.516415083109626,-2.3538460505585377,-0.9598252560567074,-0.5557703003019202,-0.42275793342026435,0.6374993433138961
1765409305.36231,-9.535475550038022,-2.338574888442151,-0.9357011228921702,-0.5502730522469816,-0.42016121131402623,0.6394568736396826
1765409305.362644,-9.558891072665183,-2.3239734971170916,-0.9095684896539529,-0.5447966667912253,-0.4176640030278782,0.6414739191232198
1765409305.363016,-9.585482071035427,-2.3104415954764725,-0.8824578640029952,-0.5393583718321092,-0.41528268229463255,0.6435171351856038
1765409305.363266,-9.613968849077054,-2.298307957207517,-0.8553437519297721,-0.5339720988805869,-0.41303151848729674,0.6455504808871592
1765409305.363516,-9.643033990231169,-2.287822765618684,-0.8291028178418341,-0.5286476189443057,-0.4109224074401593,0.6475366159066355
1765409305.363766,-9.671388211715044,-2.2791497882245895,-0.804480706997404,-0.5233897835155774,-0.40896444843637664,0.6494384753899697
1765409305.364024,-9.697835869336185,-2.272357437746422,-0.7820677609494588,-0.5181979784685734,-0.4071633556771728,0.6512209802276085
1765409305.364274,-9.721335840111651,-2.267407428953443,-0.7622831698744308,-0.513065902045305,-0.4055207198082606,0.6528527733696661
1765409305.364524,-9.741053909926377,-2.2641408145885995,-0.7453661611492828,-0.507981775564146,-0.40403319377854496,0.6543078531004322
1765409305.364774,-9.75640421998394,-2.262263951153465,-0.7313721912006769,-0.5029290684518757,-0.402691745255994,0.6555669936504306
1765409305.364995,-9.767078666752944,-2.261340044468909,-0.720172861722721,-0.4978877514108184,-0.4014811540489613,0.656618868246268
1765409305.365328,-9.773063368594281,-2.2607934366649527,-0.7114600041707776,-0.49283599581855186,-0.4003799165395655,0.6574607922847742
1765409305.365662,-9.77464058721974,-2.259932360915542,-0.7047555829249769,-0.48775214918766524,-0.3993606590548136,0.6580989866331772
1765409305.366056,-9.772373851663398,-2.2579915732895963,-0.6994292756508952,-0.48261676482803645,-0.3983910866692812,0.658548255283563
1765409305.366306,-9.767074535011924,-2.2541907725019996,-0.6947252381895467,-0.4774144551757905,-0.3974354279347373,0.6588310149795138
1765409305.366556,-9.75975011510931,-2.2478006507310093,-0.6897987782862739,-0.47213536079335333,-0.39645628041792225,0.6589757152946976
1765409305.366806,-9.751536937507606,-2.2382077619671694,-0.683762605206051,-0.46677606708399866,-0.3954167094662809,0.6590148074123219
1765409305.368485,-9.743622213930973,-2.2249718191814734,-0.6757415041869045,-0.4613398558636915,-0.3942824150553478,0.6589824908858599
1765409305.368818,-9.737160977521578,-2.20787192169778,-0.6649335377639399,-0.4558362524531807,-0.3930237737278841,0.6589124484208135
1765409305.369152,-9.733194464920109,-2.186939116740018,-0.6506742284117423,-0.4502799161931674,-0.39161757409421666,0.658835695996665
1765409305.368565,-9.732577212021514,-2.162471598971615,-0.6324973904656184,-0.44468901058037574,-0.39004827821105015,0.658778598699562
1765409305.368815,-9.735920426500664,-2.1350277224752974,-0.6101837595508742,-0.4390832649885918,-0.38830866961892185,0.6587610805768472
1765409305.369065,-9.743557965782635,-2.1053927865084567,-0.5837884871718991,-0.4334819896457115,-0.38639982199836476,0.6587950905319615
1765409305.369315,-9.755537964126345,-2.0745190211907945,-0.5536421070891252,-0.4279023178935174,-0.3843304402998259,0.6588834429389542
1765409305.36905,-9.771638435323563,-2.043443793772465,-0.5203256281207617,-0.42235791882451174,-0.3821157406467994,0.6590191865296814
1765409305.369383,-9.791400924472127,-2.0131967721376616,-0.48462593394420994,-0.4168583473766774,-0.3797760897317323,0.6591856296795342
1765409305.369717,-9.814174476592719,-1.984709546320501,-0.4474799266564916,-0.41140908505879753,-0.37733560144295575,0.6593570582950437
1765409305.370005,-9.839163241232981,-1.9587391037207564,-0.40991459373382455,-0.40601219852042175,-0.3748208145249755,0.6595000714676186
1765409305.370255,-9.86547353918559,-1.935811255422364,-0.37298755991328786,-0.4006674434749608,-0.3722594954134586,0.659575403797277
1765409305.370505,-9.892158452180169,-1.916185899694427,-0.33773089159759767,-0.3953735939660047,-0.3696795613910899,0.6595401278655824
1765409305.370755,-9.918259279196416,-1.8998454892297845,-0.30510033460713337,-0.3901297762850617,-0.3671081074953353,0.6593501780968384
1765409305.371034,-9.942843833493253,-1.8865096006314017,-0.27593188479142605,-0.38493660688676684,-0.3645705275146321,0.6589631261091197
1765409305.371284,-9.965041988229569,-1.8756783831017958,-0.25090691308073126,-0.3797969580520965,-0.36208972751311364,0.6583410465252967
1765409305.371534,-9.984079175657534,-1.8667040405752904,-0.23052608841975195,-0.37471620949574497,-0.3596854343450937,0.6574531972550677
1765409305.371784,-9.99930832264232,-1.8588836584803763,-0.21509168330773934,-0.3697018986891758,-0.35737360197199597,0.6562781790468907
1765409305.372023,-10.010239649631389,-1.8515612820076255,-0.2046979685179168,-0.36476275664285857,-0.35516592148839704,0.6548052784356871
1765409305.372356,-10.016566233311103,-1.8442242452029403,-0.19922998749420542,-0.359907201698594,-0.3530694546704482,0.6530348230762583
1765409305.37269,-10.018182076858437,-1.8365792326678971,-0.19837131659904697,-0.3551414508009399,-0.3510864311975553,0.6509775405550299
1765409305.37299,-10.015189228375128,-1.8285971455236538,-0.20162123353437458,-0.35046747878220696,-0.34921426245293996,0.6486530574209445
1765409305.37324,-10.0078913411723,-1.8205210808363241,-0.208321212775361,-0.3458810945878969,-0.3474458219525079,0.646087769177773
1765409305.37349,-9.996772836894136,-1.8128368561464276,-0.21768982569147677,-0.34137040358583026,-0.34577002395996653,0.6433123534055823
1765409305.37374,-9.982465101156466,-1.8062098531707604,-0.2288639892208691,-0.33691489053218115,-0.3441727005028274,0.6403592121301359
1765409305.37396,-9.965703176661702,-1.8013960134475206,-0.24094359802743578,-0.3324852931905354,-0.34263773842444417,0.6372601314682488
1765409305.37421,-9.947277599711422,-1.7991387305528297,-0.253036380527865,-0.3280443502314804,-0.3411483985482056,0.634044418898321
1765409305.37446,-9.927986282200989,-1.800065949595488,-0.2643002420500454,-0.32354841262116774,-0.3396887021339052,0.6307376949247607
1765409305.37471,-9.908590940608345,-1.804601518239672,-0.2739809816922776,-0.3189498195366605,-0.33824474023198886,0.6273613843517657
1765409305.375029,-9.889781698926758,-1.8129016597981535,-0.2814437949221415,-0.3141998686107146,-0.3368057498451574,0.6239328186616997
1765409305.375362,-9.87215226301921,-1.82482273662969,-0.28619719529193355,-0.30925216063926164,-0.33536482003604884,0.620465768727058
1765409305.375696,-9.85618665517549,-1.8399216208103848,-0.2879078411457886,-0.3040660670096257,-0.3339191442789282,0.6169711882476497
1765409305.376052,-9.842256968344731,-1.8574856468329122,-0.2864046839120202,-0.298610047121677,-0.33246980698622364,0.6134579549728894
1765409305.376302,-9.830629972108392,-1.876585874009736,-0.2816715930037423,-0.2928645347984041,-0.33102116029807976,0.609933443150344
1765409305.376552,-9.82147910271385,-1.8961460796693133,-0.2738292683461289,-0.2868241291712431,-0.32957990244076535,0.6064038397745255
1765409305.376802,-9.814898061249227,-1.9150207180421206,-0.26310912360177907,-0.2804988743742413,-0.32815401019708884,0.6028742029829086
1765409305.376954,-9.810913021426439,-1.932076758702941,-0.24982316496549256,-0.27391448553374687,-0.326751694707076,0.5993483142802086
1765409305.377287,-9.809491675710717,-1.9462750803100475,-0.23433433186432862,-0.26711146061754093,-0.3253805261418006,0.5958283831537486
1765409305.377621,-9.810548447408122,-1.9567463376176952,-0.21703106880769593,-0.26014310072918306,-0.32404681154255655,0.5923146535747835
1765409305.377983,-9.813946112899,-1.9628549578787586,-0.19830806534709583,-0.2530725460611969,-0.3227552385119329,0.5888049757118147
1765409305.378233,-9.819494794472908,-1.9642447576570132,-0.17855298491949692,-0.24596901985832703,-0.32150874620194475,0.5852944427510123
1765409305.378483,-9.826949455605382,-1.9608615736177801,-0.15813803391133185,-0.23890354823769847,-0.3203085676806873,0.581775213965671
1765409305.378733,-9.836006607087391,-1.9529518173725728,-0.13741583738920773,-0.23194447453659692,-0.31915439735042644,0.5782366158959226
1765409305.378975,-9.846300699282615,-1.9410392262222498,-0.1167199187727778,-0.22515310450834336,-0.31804465391100617,0.5746655349044578
1765409305.379225,-9.857401450394685,-1.9258837406087272,-0.09636949738224773,-0.21857980619589595,-0.3169768123356092,0.5710470250868885
1765409305.379475,-9.86881472226191,-1.9084265878403839,-0.07667649610399742,-0.21226085200676895,-0.31594775897951705,0.5673650030067926
1765409305.379725,-9.87998999357463,-1.889725641304212,-0.05795136307971416,-0.20621623046074278,-0.31495409493898474,0.5636029055251155
1765409305.379986,-9.890336080740733,-1.8708856417712527,-0.04050477723256738,-0.2004485683877549,-0.3139923009368009,0.5597442319096441
1765409305.380319,-9.89924442101037,-1.8529884183109773,-0.024643921296069373,-0.19494319672773877,-0.31305870226368065,0.5557729440005794
1765409305.380653,-9.906117743671114,-1.8370281462730358,-0.010663305126843022,-0.18966928425637397,-0.3121492288038706,0.5516737360171498
1765409305.380953,-9.91040185206745,-1.8238557772023558,0.0011694364364139623,-0.18458187959565597,-0.3112590256220507,0.5474322016435861
1765409305.381203,-9.911618303610693,-1.8141352658216232,0.01063197743119404,-0.17962465870420805,-0.31038200991140596,0.5430349258547637
1765409305.381453,-9.909394911432132,-1.8083123524037719,0.017568108450229027,-0.1747331689574205,-0.30951048395462116,0.5384695274649802
1765409305.381703,-9.903489803796967,-1.8065948532737461,0.02190770768247164,-0.16983837675563845,-0.30863490517714093,0.5337246908702598
1765409305.381982,-9.893804712742059,-1.8089423798726432,0.02368195119725136,-0.1648703491900652,-0.3077438876259603,0.5287902552703143
1765409305.382232,-9.880384819850265,-1.8150637631146402,0.023030113361912224,-0.15976192062846514,-0.306824465397534,0.5236574619570277
1765409305.382482,-9.863405330221601,-1.824422074786625,0.020195585263452876,-0.15445220426193304,-0.30586258695407403,0.5183194671028575
1765409305.382732,-9.84314801052081,-1.8362490260598523,0.015511182069369054,-0.14888980668106258,-0.3048437385412356,0.5127721853700606
1765409305.383053,-9.819973189876167,-1.8495714875256852,0.009376988678336027,-0.14303559910903674,-0.30375354564848195,0.5070154387823909
1765409305.383303,-9.794293241272877,-1.863252299111857,0.002236223847963672,-0.1368649024467493,-0.3025782126156499,0.5010542732809913
1765409305.383553,-9.766551978845587,-1.8760456510692276,-0.00544581815303464,-0.13036895950922647,-0.30130474024258846,0.4949002118602094
1765409305.383803,-9.7372114369062,-1.8866648501266383,-0.013197559076847906,-0.12355559562292573,-0.2999209663761957,0.4885721704292853
1765409305.384003,-9.706744551263723,-1.8938579909142128,-0.02055270740150147,-0.1164490078950504,-0.29841554019727395,0.48209678596040806
1765409305.384336,-9.675630418572984,-1.8964854361504961,-0.027060324058785657,-0.10908867573004993,-0.2967779357818635,0.47550799179564357
1765409305.38467,-9.644348293897508,-1.8935922643018777,-0.03229590502505529,-0.10152744637048815,-0.29499855923376983,0.46884579939809734
1765409305.385023,-9.613367087422507,-1.8844689567160957,-0.035874835380060296,-0.09382890941415772,-0.2930689559605671,0.4621543781529351
1765409305.385273,-9.583128644579414,-1.868694509939496,-0.03746828815022377,-0.08606422695162656,-0.2909821063553491,0.45547963746229775
1765409305.385523,-9.554025256498637,-1.8461578909510719,-0.036820523648868446,-0.07830862716069173,-0.28873279559855536,0.4488665879951107
1765409305.385773,-9.526373963652679,-1.8170563866667668,-0.03376560532915527,-0.07063779103089815,-0.2863180292495976,0.4423567792434826
1765409305.385959,-9.500391370540415,-1.7818727496426119,-0.028241031517498585,-0.06312435906614351,-0.2837374348893423,0.4359860745786457
1765409305.386209,-9.476172494212149,-1.74133620928407,-0.02029608794666618,-0.0558347614359402,-0.2809935636821645,0.42978293641253396
1765409305.386459,-9.453676209282328,-1.696374016817758,-0.010093804187192933,-0.048826537211264266,-0.2780920079522796,0.42376727106229073
1765409305.386709,-9.43271905641014,-1.648059399428845,0.002093453918354187,-0.0421462577345534,-0.2750412786474643,0.41794976578614007
1765409305.386983,-9.412978769805854,-1.5975591892164624,0.015894144617093146,-0.035828109666429186,-0.2718524159617852,0.4123315873191649
1765409305.387233,-9.394008263804867,-1.5460816494113607,0.03085269894429014,-0.029893136184674603,-0.2685383251798855,0.40690432657235925
1765409305.387483,-9.375259641203368,-1.4948237068796915,0.046448662125893235,-0.024349093258047478,-0.2651128517414727,0.40165014959186723
1765409305.387733,-9.356116608872123,-1.4449173117535226,0.062118608404719444,-0.019190858702322896,-0.2615896478500121,0.3965422015105787
1765409305.387964,-9.33593325922102,-1.3973762796378488,0.07727992576720176,-0.014401333030238656,-0.2579809244878304,0.3915453619777599
1765409305.388214,-9.31407738344224,-1.3530467120669083,0.09135639237638525,-0.0099527832284638,-0.25429620429256283,0.38661744746888993
1765409305.388464,-9.28997650826689,-1.3125651426082552,0.10380602142668242,-0.0058085887683334845,-0.25054119019197274,0.3817109045286467
1765409305.388714,-9.263164212967293,-1.2763285372262825,0.1141513025481422,-0.0019253408297541523,-0.24671685898367993,0.3767749620060895
1765409305.388961,-9.233323335830365,-1.2444792971475458,0.12201088162196329,0.0017447806505389016,-0.24281888752690492,0.37175813829216175
1765409305.389211,-9.200322055973718,-1.2169069141990783,0.12713045082567712,0.005251461644176406,-0.23883751211510745,0.366610950975731
1765409305.389461,-9.164238737992449,-1.1932663731394135,0.12940941812693996,0.008643679173528726,-0.23475789556701487,0.36128865405074767
1765409305.389711,-9.125371706504119,-1.1730120816977063,0.12891893712137384,0.011967252653703811,-0.23056103010606324,0.3557538215490026
1765409305.389929,-9.084230887705033,-1.155445099641182,0.12590669903844864,0.015262679419396947,-0.22622514359226142,0.3499785935728514
1765409305.390179,-9.041509884752301,-1.1397705463899421,0.12078513738817417,0.01856339985296636,-0.22172750811900807,0.343946398953708
1765409305.390429,-8.998039522476168,-1.1251611192109119,0.1141021843000588,0.02189461017726387,-0.2170464816253596,0.3376529823399604
1765409305.390679,-8.954726584013239,-1.1108218325726356,0.10649665540482464,0.02527269689938036,-0.21216355997780853,0.3311066124543864
1765409305.391034,-8.912483669603144,-1.0960507724645931,0.0986430720007151,0.028705306264798645,-0.20706519653859326,0.3243274361364554
1765409305.391284,-8.872157470988107,-1.0802909367917255,0.09119272030582642,0.03219199621285822,-0.2017441701518261,0.31734604632603663
1765409305.391534,-8.83446311171826,-1.0631688972013391,0.08471831801637687,0.035725366403202334,-0.19620034918941934,0.3102014194152021
1765409305.391784,-8.79993145114447,-1.044517009162214,0.07966850514245,0.03929253370234396,-0.19044079016688198,0.3029384329026086
1765409305.392039,-8.768874512012951,-1.024377370664416,0.07633615272024635,0.04287681009283987,-0.18447919475752486,0.2956051994302016
1765409305.392289,-8.741371921527474,-1.002987625647645,0.0748423089379196,0.04645943904825872,-0.17833480752450076,0.2882504514372274
1765409305.392539,-8.717278998771482,-0.9807505726208996,0.07513610189029377,0.050021255045309625,-0.17203087007245044,0.2809211836252512
1765409305.392789,-8.69625519305137,-0.9581909418477175,0.07701001146703391,0.05354415176112984,-0.16559277037875886,0.2736607135890836
1765409305.393016,-8.677809974507113,-0.9359036567058642,0.08012927325134181,0.057012275750192624,-0.15904604710415035,0.2665072618931979
1765409305.393266,-8.661361874590213,-0.9144985808556664,0.08407345697908622,0.06041289977616942,-0.15241442639281746,0.25949308562853735
1765409305.393516,-8.646305201581029,-0.8945469415882651,0.08838716578250465,0.06373696936825454,-0.14571807857494434,0.2526441269386761
1765409305.393766,-8.63207823626155,-0.8765338222078503,0.09263526173841087,0.0669793498971963,-0.1389722757092375,0.24598007227266658
1765409305.394023,-8.618226595036317,-0.8608194632129369,0.09645646603037457,0.07013881902321714,-0.1321865970865923,0.23951468209464222
1765409305.394273,-8.604455885119911,-0.8476105718031349,0.0996083503159744,0.07321784681148381,-0.12536476857637247,0.23325625935792216
1765409305.394523,-8.590668781364974,-0.8369422407718096,0.10199724651309355,0.07622219054634209,-0.11850514972617372,0.22720816501417765
1765409305.394773,-8.576983428319872,-0.8286711909212117,0.10368868326384195,0.0791603163376557,-0.11160181869899033,0.22136932716424754
1765409305.394975,-8.563732535094092,-0.8224808961497976,0.10489721297279574,0.08204265521934939,-0.10464615412659264,0.2157347067433086
1765409305.395225,-8.551444919698367,-0.8178980980139476,0.10595777721608145,0.08488070867321425,-0.09762876995080283,0.21029568655104172
1765409305.395475,-8.540812703641151,-0.8143185929680962,0.10728283813011415,0.08768602921825921,-0.09054162867877384,0.20504036425318942
1765409305.395725,-8.532647826250438,-0.8110388578618966,0.10931013635284391,0.09046910842530648,-0.0833801550787191,0.1999537612641019
1765409305.396021,-8.52783172448347,-0.8072897383171461,0.11244590146659235,0.09323821019116135,-0.0761451970337335,0.1950179950896942
1765409305.396271,-8.52726229549924,-0.8022691374561196,0.11700839974851876,0.09599819964554827,-0.06884470847348746,0.19021248310539504
1765409305.396521,-8.531802333247736,-0.795171946110875,0.12317692041190655,0.09874943812226203,-0.06149503983715755,0.18551423998555214
1765409305.396771,-8.542233112998083,-0.785216675897767,0.1309512021126015,0.10148682981438781,-0.054121726569419375,0.1808983028440917
1765409305.397298,-8.559215728033355,-0.7716689202688952,0.140125345508758,0.10419910126745292,-0.046759695009747866,0.1763382808987911
1765409305.397548,-8.583261527784249,-0.7538618337492716,0.15027839061270662,0.10686836863318663,-0.03945286229121332,0.17180699358420431
1765409305.397798,-8.614711868548627,-0.7312136074729116,0.16078164512266688,0.10947001272115031,-0.032253164437843894,0.16727714232990187
1765409305.398048,-8.653726484658511,-0.7032418052715756,0.170821392233331,0.11197285331834748,-0.025219080822085366,0.1627219628447603
1765409305.398008,-8.700279257760863,-0.6695744875575951,0.17943501897650174,0.11433959567728884,-0.01841374090437392,0.1581158246749449
1765409305.398208,-8.754160208026853,-0.6299580562223411,0.18555849110331601,0.11652750863474493,-0.011902719418000123,0.15343477086228052
1765409305.398408,-8.814983139024536,-0.5842615857119997,0.1880830490151169,0.11848928469802883,-0.0057516472307382336,0.1486570106838591
1765409305.398608,-8.882199136643022,-0.532477394594161,0.18591888888624028,0.12017403429685504,-2.3770332479091175e-05,0.14376338991435295
1765409305.398808,-8.955116480233064,-0.4747182062304893,0.1780633048512031,0.1215283838690644,0.005222423825071531,0.13873786586478717
1765409305.398961,-9.032927126505932,-0.41121234609128865,0.16367007721754806,0.12249767589555786,0.009935409057152022,0.133568003455287
1765409305.399211,-9.114738937553481,-0.34229925476638146,0.14211597581503252,0.12302729762462786,0.014072556941126699,0.12824548016210308
1765409305.399461,-9.19961179847455,-0.26842736573307524,0.11305987515797199,0.12306418149852112,0.01760172101541165,0.12276655104267013
1765409305.399711,-9.286595091899605,-0.19015504668290287,0.07649055297885173,0.1225585123028434,0.020502401830530616,0.1171324005351517
1765409305.399975,-9.374763486074487,-0.10815362630694811,0.032759980905417554,0.12146563985169812,0.02276644968974467,0.11134931187709321
1765409305.400175,-9.463247375408043,-0.02321050447644345,-0.01740116943240845,0.1197481432870294,0.024398279497281464,0.1054286155819912
1765409305.400375,-9.551254037369036,0.0637696967604151,-0.07288947933486792,0.1173779451651803,0.025414584362341626,0.09938641541174975
1765409305.400575,-9.638076585139226,0.15176751540564093,-0.13225888166518024,0.11433834521110506,0.02584355356305829,0.09324311488623985
1765409305.400775,-9.723090251983427,0.2396558315959096,-0.19377456374460694,0.11062583455314863,0.025723634841505024,0.08702277844044927
1765409305.401007,-9.805738268978903,0.32621319312178315,-0.25548667917707013,0.1062515518831196,0.025101923975614032,0.0807523703689567
1765409305.401257,-9.885511249712543,0.41014472222478376,-0.3153175442410278,0.10124224677333077,0.024032295212027002,0.07446092932956509
1765409305.401507,-9.96192434551977,0.49011155342609947,-0.3711556316506073,0.09564062517238293,0.022573385240670697,0.06817875181544569
1765409305.401757,-10.034496198067885,0.5647684714629141,-0.42095047940933916,0.08950497672543237,0.020786515833878295,0.06193666177669331
1765409305.401974,-10.10273342444986,0.6328078573465357,-0.4628034768772477,0.08290802912176164,0.018733617822634614,0.055765425774382364
1765409305.402174,-10.166123800482808,0.6930070130743982,-0.4950499824306202,0.07593503609246281,0.01647522622535656,0.04969533714406077
1765409305.402374,-10.224140015691932,0.744275734456796,-0.5163288804948822,0.0686811666787205,0.014068637304932614,0.04375595361693131
1765409305.402574,-10.276253962523496,0.7857012260942029,-0.5256370639483355,0.0612483112931137,0.011566317614967509,0.037975946421287515
1765409305.402774,-10.321959612332497,0.8165875239576208,-0.5223681478730708,0.05374145965759927,0.00901462788091475,0.03238301214267528
1765409305.402974,-10.360801122543755,0.8364864496462967,-0.5063360007230178,0.04626484802228371,0.006452903152817032,0.027003805610979377
1765409305.403224,-10.392402042318777,0.8452172851668857,-0.47778374455016764,0.03891811281061191,0.003912936323083104,0.02186385839150081
1765409305.403474,-10.416491394460778,0.8428733030768478,-0.4373780543788641,0.031792704583300954,0.001418921749795853,0.01698744652086296
1765409305.403724,-10.432923152605996,0.829814836664993,-0.38618783511721116,0.024968798226142692,-0.001012108914807897,0.012397374907529499
1765409305.404073,-10.441687150443355,0.8066499735660886,-0.3256463724372747,0.018512890434342465,-0.003369389102130026,0.008114669913158335
1765409305.404273,-10.442911244822486,0.7742045555448273,-0.25749695248326787,0.012476218363584606,-0.005647155414288404,0.004158209711162839
1765409305.404473,-10.436855928469557,0.7334830669175334,-0.18372347326759697,0.006894071264759822,-0.007843161956353017,0.0005443454182334186
1765409305.404673,-10.423903286084988,0.6856220036999324,-0.10646920518814652,0.001786003074792052,-0.009957127872878571,-0.0027134448297466704
1765409305.404873,-10.404542452513287,0.6318381092347992,-0.027947903639472995,-0.002843106974187293,-0.011989269826060005,-0.005604857539722955
1765409305.404971,-10.379353779994627,0.5733751408961374,0.04964837828775533,-0.0070012536485734205,-0.013939043394344373,-0.008123030154702632
1765409305.405221,-10.348993609737624,0.5114535855585133,0.12424073256181964,-0.010706922803893421,-0.015804173039179744,-0.010264779118520575
1765409305.405471,-10.314180685541524,0.4472273451883531,0.1939500864886003,-0.013986326040014324,-0.017580007777187323,-0.012030806607887959
1765409305.405721,-10.275684021876456,0.3817501558651601,0.25717468810208466,-0.01687047583963181,-0.019259212488903353,-0.013425867808139626
1765409305.40598,-10.234310941255572,0.315953042341345,0.3126534399654629,-0.01939232080385667,-0.020831788946695483,-0.014458890497858335
1765409305.40618,-10.19089350012896,0.2506328329734831,0.3595102448652732,-0.021584134965975655,-0.022285404792796074,-0.015143038258560495
1765409305.40638,-10.146271818298894,0.18645080598931046,0.39727563335329336,-0.023475317303531657,-0.023605988788455552,-0.015495707620740451
1765409305.40658,-10.101273771135146,0.12394005545160781,0.4258839549522065,-0.02509071400001829,-0.02477853008756081,-0.015538449261128687
1765409305.40678,-10.05669173990374,0.06352015808032381,0.445646874873521,-0.026449530267748794,-0.02578800173819673,-0.01529680068655628
1765409305.406944,-10.013258245487336,0.005517792816472117,0.4572062680839611,-0.027564854931002733,-0.026620317955494036,-0.01480000851885499
1765409305.407194,-9.97162300817079,-0.04980839819204273,0.4614713965661787,-0.028443781600864016,-0.027263236628780878,-0.014080606661126798
1765409305.407444,-9.932334107243884,-0.10224122573258433,0.45954626417901895,-0.029088072770661992,-0.02770713429713902,-0.013173814933506035
1765409305.407694,-9.895825411032192,-0.15157981337224777,0.452653234487944,-0.02949527645858486,-0.02794560300869986,-0.012116740817497862
1765409305.407993,-9.862411445839303,-0.19761893844664394,0.4420584768185681,-0.029660174608740042,-0.027975838810136624,-0.01094740046404036
1765409305.408193,-9.832289755314996,-0.24013495945590663,0.4290038335837105,-0.02957642576670394,-0.027798809766546403,-0.009703608291164347
1765409305.408393,-9.805550015275813,-0.27887922849705726,0.414648627121775,-0.02923826278733335,-0.02741921106895478,-0.008421803958055118
1765409305.408593,-9.782188811709345,-0.31357894984293044,0.40002390423607703,-0.028642114712670856,-0.02684523466620168,-0.007135890942847237
1765409305.408793,-9.762128743181323,-0.34394491374493225,0.3860005019485306,-0.027788037492960348,-0.02608819565506532,-0.005876160812023475
1765409305.408974,-9.745240142334655,-0.3696851879808251,0.3732710453964978,-0.026680862373733596,-0.025162065577492284,-0.00466837715425876
1765409305.409224,-9.731363435364548,-0.39052345164523344,0.3623448663860183,-0.02533100276495983,-0.024082964891377002,-0.0035330911558894085
1765409305.409474,-9.72033023469378,-0.4062201740745333,0.35355411203856857,-0.023754893470153478,-0.02286866104288255,-0.002485250583297969
1765409305.409724,-9.711981528945822,-0.41659441636495825,0.34706878733659724,-0.021975063297821746,-0.021538103501135292,-0.0015341397724728477
1765409305.409927,-9.70618147670084,-0.4215438722829923,0.34291789098754466,-0.020019861584948197,-0.020111010929202335,-0.0006836505687223491
1765409305.410177,-9.702825387192823,-0.42106105244535597,0.3410134182904596,-0.01792287266313606,-0.01860751887501817,6.715720328206621e-05
1765409305.410427,-9.701840855001432,-0.4152442400947032,0.3411743026052153,-0.01572206123483482,-0.017047897357812793,0.0007232782357585812
1765409305.410677,-9.703181856154554,-0.4043027152060812,0.3431483651489666,-0.013458697242225185,-0.015452344809207852,0.0012928525719585445
1765409305.41099,-9.706816648302999,-0.38855639004731696,0.34663150568611245,-0.011176112978114243,-0.013840851792348573,0.0017862068556921472
1765409305.41119,-9.712711235146962,-0.36843029320485343,0.35128421591938597,-0.008918349015335862,-0.01223311063049921,0.002214915029751841
1765409305.41139,-9.720810869528634,-0.34444440612879795,0.356746021364546,-0.006728747957376085,-0.010648435407881497,0.002590929742851601
1765409305.41159,-9.73102253346788,-0.31719934033752845,0.36264879923759696,-0.00464855492223954,-0.009105655125967383,0.0029258165816048653
1765409305.41179,-9.743201329378385,-0.28735828779598976,0.36862996349445837,-0.002715582935666557,-0.007622948842936269,0.003230106545192051
1765409305.411955,-9.757143055312941,-0.255625659147658,0.37434605706485913,-0.0009630028520880871,-0.00621760147006182,0.003512772319913827
1765409305.412155,-9.772584054128027,-0.22272302568116192,0.3794864807160833,0.0005816804384495607,-0.004905671319077611,0.003780832294465536
1765409305.412355,-9.789208138868096,-0.18936346854851702,0.3837863565842631,0.0018974068938619488,-0.0037015766692284195,0.004039087946226501
1765409305.412555,-9.80665940599845,-0.15622597742909528,0.3870372341556576,0.002970049674814521,-0.0026176280520750985,0.0042899978369865715
1765409305.412755,-9.824559216324728,-0.12393177829638118,0.38909453583367154,0.003792589152950235,-0.001663550996978059,0.004533683648981008
1765409305.412979,-9.842525452931447,-0.09302428610378989,0.38988105921572197,0.0043649742254601494,-0.0008460550712733636,0.004768056572884185
1765409305.413179,-9.86019216014416,-0.06395395342312188,0.389386210498873,0.00469369665252088,-0.00016850747809935837,0.0049890510976556696
1765409305.413379,-9.877227757607304,-0.037068837074870166,0.3876609062766432,0.004791123717739707,0.00036923559171571254,0.005190955369979052
1765409305.413579,-9.89335030711964,-0.012611253531565803,0.38480848155338565,0.004674648003187771,0.0007707999954217761,0.005366826246414122
1765409305.413779,-9.908338820784511,0.009279654823192356,0.3809725595896821,0.004365719504548875,0.0010430510076373414,0.005508970154507459
1765409305.413948,-9.922040141638291,0.028560248490006424,0.37632336576970643,0.0038888239564368408,0.0011956527400353942,0.005609460859957957
1765409305.414115,-9.934371282724149,0.04527093223848823,0.37104407882369556,0.0032704618157083356,0.0012404756231399483,0.0056606573664665545
1765409305.414281,-9.945317321470418,0.059522404454923225,0.36531857988740774,0.002538166784554278,0.001190916021986917,0.005655683801286296
1765409305.414448,-9.954925224233554,0.07148089051787945,0.35932166749522443,0.0017195862972863452,0.0010611935559321109,0.005588840297629301
1765409305.414615,-9.963294342911295,0.08135314826297672,0.3532125145518167,0.0008416347865850821,0.0008656809712234592,0.005455927366359434
1765409305.414781,-9.970564551033245,0.08937152431973212,0.34713167972079134,-7.027422426122032e-05,0.0006183061057455903,0.005254479577928118
1765409305.414988,-9.976902935038286,0.09577907462853853,0.3412013232647763,-0.000992910869526369,0.0003320498668596828,0.004983911483722813
1765409305.415188,-9.982489805988056,0.10081488761861741,0.33552768145861295,-0.0019058169349313665,1.8549082630293864e-05,0.004645579151572274
1765409305.415388,-9.987504782410607,0.10470015894696477,0.3302045857482146,-0.002791784175071745,-0.0003121995183013092,0.004242759257559422
1765409305.415588,-9.99211377920567,0.1076259505168404,0.32531684065543404,-0.0036372020482988696,-0.00065204471695535,0.003780548794496922
1765409305.415788,-9.996457699526072,0.10974366223688788,0.3209424030088708,-0.004432250227162864,-0.0009948060127248906,0.0032656917079014326
1765409305.415962,-10.00064339124852,0.11115902926372363,0.31715250901181374,-0.005170912662320974,-0.0013363242673480825,0.0027063409815037145
1765409305.416162,-10.004737166776119,0.11193006734558217,0.31400934632359373,-0.00585079807732797,-0.001674436821613784,0.002111765593319052
1765409305.416362,-10.0087610929857,0.11206895392770301,0.31156161927180653,-0.006472766809636428,-0.0020088699104876414,0.001492014270300004
1765409305.416562,-10.012692326715218,0.11154743254425448,0.30983913893728093,-0.007040384369185196,-0.0023410376836213143,0.0008575531899824053
1765409305.416762,-10.016465776727305,0.11030502754585036,0.3088479743699112,-0.007559243492374079,-0.0026737385427929848,0.00021890027258969995
1765409305.416997,-10.019980117768137,0.10825919633204309,0.30856752854864933,-0.008036212641563867,-0.003010747300392633,-0.00041371870609494427
1765409305.417197,-10.02310672507482,0.10531650820584,0.308950334783301,-0.008478675562059708,-0.00335631620823663,-0.001030669146036776
1765409305.417397,-10.025700685481487,0.10138396206769439,0.3099247576637163,-0.008893823446797506,-0.003714616900239047,-0.0016231459348057511
1765409305.417597,-10.027612827419665,0.09637961031994843,0.31140030200682906,-0.009288050649033678,-0.004089172274753355,-0.002183345456870413
1765409305.417797,-10.028701663344064,0.09024177598953048,0.31327483673921697,-0.009666488386077976,-0.00448233489924823,-0.0027045751689175924
1765409305.41804,-10.028844220848852,0.08293635258114818,0.3154427288421241,-0.010032690301304471,-0.004894864485788134,-0.0031813091219358015
1765409305.41824,-10.027945022254817,0.0744618958248127,0.31780282311281643,-0.010388464352976797,-0.005325645304080523,-0.003609196845676387
1765409305.41844,-10.02594295126158,0.06485237086506945,0.3202654850383477,-0.010733834369743567,-0.005771569169987549,-0.0039850306862636705
1765409305.41864,-10.022816165284267,0.05417752516159144,0.32275831793286225,-0.01106711303115417,-0.006227591666248342,-0.004306677020165094
1765409305.41884,-10.018585240845045,0.042541006916330275,0.3252303133523579,-0.011385068962481065,-0.0066869499017396935,-0.004572979380561398
1765409305.419001,-10.013314373921778,0.030076554352529258,0.32765405123388414,-0.011683167628872759,-0.007141514471958975,-0.004783643763953624
1765409305.419201,-10.007110143212348,0.016942737209680116,0.33002550240346207,-0.011955861267938319,-0.0075822408091675095,-0.004939116731011724
1765409305.419401,-10.000117515224428,0.0033167601750535816,0.332361318877079,-0.012196904010180762,-0.007999684324271384,-0.005040465159717311
1765409305.419601,-9.992513319370708,-0.01061220194951028,0.3346940478542931,-0.012399675796797212,-0.008384544161015443,-0.005089263779221742
1765409305.419801,-9.98449783729229,-0.024649670119542073,0.3370660101976568,-0.012557507621479207,-0.008728199156460129,-0.005087495468688685
1765409305.420012,-9.976285152235587,-0.03860201912198833,0.33952248547598524,-0.012664006100882525,-0.0090231993010768,-0.005037470670598436
1765409305.420212,-9.96809271785621,-0.05228162111351334,0.3421046460591997,-0.012713375784097812,-0.009263680540012944,-0.004941773117258521
1765409305.420412,-9.960130584429956,-0.06551057546014281,0.34484270814876583,-0.012700733785997205,-0.0094456793597125,-0.004803235678430107
1765409305.420612,-9.952590900944886,-0.07812281168076206,0.34774996374007705,-0.01262240632921225,-0.009567330651943977,-0.004624942788898517
1765409305.420812,-9.945638456972826,-0.08996456158492865,0.35081840192044633,-0.012476194651885082,-0.009628935034176521,-0.004410248713071905
1765409305.421085,-9.939402979545788,-0.10089341901531604,0.3540163570728228,-0.012261599467524944,-0.009632884903784706,-0.004162797290170246
1765409305.421285,-9.933973741927,-0.1107764557375209,0.3572882398980432,-0.011979994729143217,-0.00958344833232438,-0.003886528794275635
1765409305.421485,-9.929396926530808,-0.11948811925804305,0.3605562265763007,-0.01163473890590692,-0.009486426476767939,-0.003585661672283662
1765409305.421685,-9.925676100035565,-0.12690883162533076,0.36372381983823326,-0.011231207416253169,-0.009348717532498652,-0.0032646409680917223
1765409305.421885,-9.922775951971385,-0.1329252345432306,0.3666811828642259,-0.010776728836428662,-0.009177831603421933,-0.0029280519839808366
1765409305.422011,-9.920629073984834,-0.1374327852959706,0.3693119422439413,-0.010280412290286693,-0.008981403064692531,-0.002580506827619992
1765409305.422261,-9.919145183299204,-0.14034088652345317,0.3715009583561258,-0.009752862607230328,-0.008766742173475558,-0.0022265200709918175
1765409305.422511,-9.91822199029099,-0.14158007366348813,0.3731425773257675,-0.009205792123845013,-0.00854045978907532,-0.0018703937280600995
1765409305.422761,-9.917756812833778,-0.14111021501067134,0.3741489557060943,-0.008651551964259142,-0.008308189107587172,-0.0015161292511069089
1765409305.423042,-9.917657846365888,-0.13892836601118883,0.37445786409382725,-0.008102617303184909,-0.008074416211285873,-0.001167376893285935
1765409305.423242,-9.91785370074683,-0.1350749204236068,0.3740389526673572,-0.007571066388235203,-0.007842420417972196,-0.0008274239462010334
1765409305.423442,-9.918299706486886,-0.12963699845700308,0.3728972568669965,-0.00706809202017204,-0.00761432034831321,-0.0004992164903955692
1765409305.423642,-9.918979847278614,-0.1227484863550425,0.37107308395759925,-0.006603579476715067,-0.007391220731603463,-0.0001854067583867703
1765409305.423842,-9.91990391701406,-0.11458658820929482,0.3686381514656986,-0.006185777314359164,-0.007173450681764631,0.00011158096235176802
1765409305.424053,-9.921100323664655,-0.10536504617960066,0.3656884982080222,-0.0058210766928780975,-0.006960872665792332,0.0003894729506290998
1765409305.424253,-9.922605697274664,-0.09532441402439527,0.36233514228674646,-0.0055139029839381135,-0.006753228732505208,0.0006460679605638363
1765409305.424453,-9.924453097454272,-0.08472009082572429,0.3586938905867304,-0.005266714088102538,-0.00655048461969091,0.0008791747100663356
1765409305.424653,-9.926661008431205,-0.07380923730308617,0.35487601810312314,-0.005080094470616851,-0.006353132436012147,0.0010865836412799683
1765409305.424853,-9.92922511902718,-0.06283800904837179,0.3509813158326602,-0.004952931351804533,-0.00616241419855951,0.0012660868029851996
1765409305.425042,-9.932114018979975,-0.05203053737003311,0.34709415557560136,-0.004882658303824876,-0.005980434241976535,0.001415547399544966
1765409305.425242,-9.935268842916473,-0.04158072839506989,0.34328228722447157,-0.0048655504321839975,-0.005810145096123679,0.0015330058709439884
1765409305.425442,-9.938606137005173,-0.03164739102947188,0.33959765948404746,-0.004897052756149756,-0.005655216158020764,0.0016168002656263341
1765409305.425642,-9.942022954404264,-0.02235266481419579,0.33607859267734114,-0.0049721183768154514,-0.005519814237234656,0.0016656798346921216
1765409305.425842,-9.94540317251959,-0.013783332816790145,0.33275270841333443,-0.005085527661736549,-0.005408330978559606,0.0016788997753869612
1765409305.426012,-9.94862415493814,-0.005994388750159689,0.3296400552437228,-0.00523215928563052,-0.005325088311352,0.0016562947039747047
1765409305.426212,-9.95156324816415,0.000985857313428693,0.3267561199559387,-0.005407192098269673,-0.0052740476970828416,0.0015983328101635786
1765409305.426412,-9.954104115090063,0.007149850128263542,0.3241148285372624,-0.005606230577630805,-0.005258543539752023,0.0015061514014716817
1765409305.426612,-9.956143172870561,0.012504693204373309,0.3217317589353599,-0.005825358953245186,-0.005281053080247526,0.0013815715973052745
1765409305.426812,-9.957596193439985,0.017066413442354055,0.31962742066446126,-0.006061135043442691,-0.005343006793030855,0.001227088337882945
1765409305.427026,-9.958404690450035,0.020854921491094074,0.3178300144806437,-0.006310535170322471,-0.005444640524356284,0.001045832131614997
1765409305.427226,-9.958541434652822,0.023889813166042932,0.3163770034454809,-0.006570860464688655,-0.005584893245640717,0.0008415011995736492
1765409305.427426,-9.958014355835179,0.026187057520536593,0.3153150149183076,-0.006839615805217224,-0.005761356575354686,0.0006182667308309013
1765409305.427626,-9.956868057674086,0.027756615550551565,0.31469774550902113,-0.0071143754518579756,-0.005970281675249526,0.0003806577082183364
1765409305.427826,-9.9551822718748,0.028601058052877874,0.3145816961247057,-0.007392651420464931,-0.006206648356412756,0.00013343250341137653
1765409305.428015,-9.953067034552681,0.02871524541921059,0.31501996940893545,-0.007671779410464882,-0.006464301176251003,-0.00011855727500083319
1765409305.428215,-9.950655092529734,0.02808710918207645,0.31605492865462215,-0.00794883310227784,-0.006736154805961585,-0.00037050531771958423
1765409305.428415,-9.948092595157426,0.026699564368067294,0.31771082086057695,-0.008220573650632074,-0.007014464352606052,-0.0006177826725679818
1765409305.428615,-9.94552920293224,0.02453356289572469,0.31998731942168207,-0.008483439189126139,-0.007291149288346596,-0.0008560509918444635
1765409305.428815,-9.94310850624442,0.021572216803622514,0.32285463495693734,-0.008733578597967352,-0.007558156300072684,-0.001081345736673669
1765409305.429032,-9.940959386797182,0.01780575187679814,0.3262506748048896,-0.008966932438603671,-0.007807844952069605,-0.001290123561421836
1765409305.429232,-9.939188701066655,0.01323683949879697,0.33008059267370365,-0.009179359692206115,-0.00803337546462914,-0.0014792751785505757
1765409305.429432,-9.937875335789359,0.007885687535454627,0.3342187504830304,-0.009366802015115876,-0.008229070573352506,-0.0016461125062487163
1765409305.429632,-9.937065435483264,0.001794233990494363,0.33851278410271446,-0.009525470979196891,-0.008390720566664744,-0.0017883457164665992
1765409305.429832,-9.936768704376876,-0.004971094942316264,0.34278946417036454,-0.009652041197330924,-0.008515806344587207,-0.0019040687966002234
1765409305.430046,-9.936956070865975,-0.012318373976144471,0.34686230242370586,-0.009743832496939206,-0.008603624556641076,-0.0019917686917742556
1765409305.430246,-9.937559240526813,-0.020130974117815253,0.3505409190398203,-0.009798964812288952,-0.008655304642229569,-0.0020503637621482646
1765409305.430446,-9.938472503225464,-0.028270026604541636,0.35364187985260925,-0.009816470310783889,-0.00867371026259886,-0.002079265717080573
1765409305.430646,-9.939556825227548,-0.03657831819429815,0.35600038146267793,-0.009796350851047709,-0.008663221844306542,-0.002078449331953942
1765409305.430846,-9.940646044121783,-0.04488534085474695,0.35748209215246224,-0.009739576141111053,-0.00862940398969677,-0.0020485095486865706
1765409305.431044,-9.941554832772729,-0.053013148921747084,0.35799442792493663,-0.009648027271655485,-0.008578569915959662,-0.00199068808912746
1765409305.431244,-9.942087821267211,-0.060782551194773674,0.3574962925235248,-0.009524399160640589,-0.008517265798963355,-0.0019068602757968253
1765409305.431444,-9.94204899881747,-0.06801907264992474,0.3560050822948381,-0.00937208164648723,-0.008451711238922105,-0.0017994828975852234
1765409305.431644,-9.941250594380795,-0.0745581591248851,0.3535999581449773,-0.009195040158719846,-0.008387241737312652,-0.001671511158985046
1765409305.431844,-9.939521068134738,-0.08024927256117644,0.35042090828822736,-0.008997710974633564,-0.008327797699489586,-0.0015262952891549305
1765409305.432039,-9.936712278743544,-0.08495876148690464,0.3466635003302364,-0.008784913615354417,-0.008275495079155934,-0.001367466447700131
1765409305.432239,-9.932706102948362,-0.088571611177175,0.3425693927789253,-0.008561769016733186,-0.008230306715024305,-0.0011988196367157579
1765409305.432439,-9.927420906797826,-0.09099232649417881,0.3384130686813847,-0.00833360380594332,-0.008189884919493663,-0.0010242002895811209
1765409305.432639,-9.920818378704517,-0.09214525934922661,0.33448597065111524,-0.008105822380670116,-0.008149555234403352,-0.0008474010112409303
1765409305.432839,-9.912911068595639,-0.0919746801742153,0.33107969737983023,-0.007883738660149029,-0.008102497142218048,-0.0006720740456559874
1765409305.433074,-9.903770320131944,-0.0904448420957612,0.3284696968524945,-0.007672374389868747,-0.0080401020268037,-0.0005016625305095086
1765409305.433274,-9.893533451656754,-0.08754021902241996,0.326900273974207,-0.0074762451735514044,-0.007952475138730493,-0.00033935073009876154
1765409305.433474,-9.882408629835684,-0.08326602263760947,0.32657137745882664,-0.007299163151716698,-0.007829036321915984,-0.00018803245296994834
1765409305.433674,-9.870676050017101,-0.07764902916584318,0.32762765780331304,-0.007144083810756826,-0.007659172847663575,-5.029819777802501e-05
1765409305.433874,-9.85868442160011,-0.0707386931955482,0.33015027728642493,-0.007013016143909618,-0.007432902167876657,7.155722639711199e-05
1765409305.434014,-9.846842089931974,-0.06260850227841962,0.3341517465633086,-0.006907004210983094,-0.007141510040825704,0.00017550701242523723
1765409305.434214,-9.835602532777427,-0.05335751562752799,0.3395739703763417,-0.006826176558774728,-0.006778137358083613,0.00025975117138383444
1765409305.434414,-9.825444525889342,-0.04311199402609477,0.34628981451803686,-0.0067698507454706505,-0.006338292500641646,0.0003226755699070874
1765409305.434614,-9.816847762770303,-0.03202692701163905,0.3541084691612806,-0.006736676420752933,-0.005820262878681724,0.00036282851636516687
1765409305.434814,-9.810265020900193,-0.02028709194321144,0.3627844004222046,-0.006724801567217285,-0.00522539310894122,0.0003789300844959076
1765409305.435012,-9.806092359556876,-0.008107093788452747,0.3720290519303401,-0.006732049133543366,-0.004558195808803689,0.00036992379310851585
1765409305.435212,-9.804639585717208,0.004270237688571012,0.3815241952890014,-0.0067560937475451424,-0.0038262694636696302,0.000335075556449804
1765409305.435412,-9.806104026367812,0.016577496226703688,0.39093604691939254,-0.006794630625098401,-0.0030400148622089164,0.00027412125444811926
1765409305.435612,-9.810550718171868,0.028528236421353444,0.3999295685177929,-0.006845530000681779,-0.002212164207460906,0.0001874555514458559
1765409305.435812,-9.817901157812557,0.039823730324322675,0.4081823230272774,-0.006906968957890333,-0.0013571655633238932,7.633446670401641e-05
1765409305.436079,-9.827931476847612,0.05016043720715818,0.4153969855877287,-0.0069775286848587715,-0.0004904944810120725,-5.696087645277247e-05
1765409305.436279,-9.84028021607159,0.059238580068888255,0.4213116491134635,-0.007056241032145964,0.0003720258990189665,-0.00020906055346319892
1765409305.436479,-9.854465654318245,0.06677301217817788,0.4257076577331595,-0.0071425695894313905,0.001214842821602774,-0.0003755796643019742
1765409305.436679,-9.869912057186694,0.07250729465348632,0.42841545931143155,-0.007236324207402212,0.002023225536754712,-0.0005513215682672135
1765409305.436879,-9.885983007872044,0.07623046513756224,0.42931925016110456,-0.007337529849035888,0.0027837728793825706,-0.000730564707573762
1765409305.437026,-9.902018862479457,0.07779414629781842,0.4283607203185697,-0.007446282208788781,0.0034848817166889916,-0.0009073800072898131
1765409305.437276,-9.917375060359305,0.0771266230210967,0.42554146056427394,-0.007562610867802428,0.004117147310124134,-0.001075947468865566
1765409305.437526,-9.931458505119501,0.07424108794645566,0.42092334876231113,-0.007686348522256947,0.004673657746852272,-0.0012308658683568316
1765409305.437776,-9.943759984432397,0.06923699859053101,0.414626693100965,-0.007816997071110547,0.005150164128388966,-0.0013674504859637257
1765409305.439203,-9.95388115533267,0.062295016676677216,0.40682648329933896,-0.007953594921213104,0.0055451259503543505,-0.0014819901952386814
1765409305.439403,-9.961554833654546,0.0536663827461807,0.39774716701868085,-0.00809460740773757,0.0058596301623289795,-0.0015719197869526974
1765409305.439603,-9.966657328977407,0.043657452943827404,0.3876559397269733,-0.008237866071517465,0.006097177113185546,-0.0016358847404969936
1765409305.439803,-9.969211692493724,0.03261075827062829,0.37685410685624493,-0.008380573216225224,0.0062633348046687454,-0.0016737186933265358
1765409305.440003,-9.969381287166678,0.020885257590432603,0.36566607588443645,-0.00851937681321162,0.006365281844792843,-0.0016863733479670717
1765409305.439364,-9.96745406710229,0.008838912497905874,0.3544260480396891,-0.00865051339276567,0.006411275314413637,-0.0016758166359733858
1765409305.439564,-9.96381907758251,-0.0031846129628814303,0.34346324157886327,-0.008770011195141203,0.006410086884135456,-0.0016448782141925912
1765409305.439764,-9.958937525516625,-0.014865503209843691,0.3330869907421079,-0.008873939411908454,0.006370452720851163,-0.0015970155346428775
1765409305.439964,-9.953311055074629,-0.025915275286078367,0.3235730021836589,-0.008958681448003334,0.006300582050793936,-0.0015360072043881536
1765409305.440164,-9.947449720031667,-0.03608353503684145,0.3151516652688416,-0.009021203728160907,0.006207763417584075,-0.0014656222647609996
1765409305.440363,-9.941841899343096,-0.045164038183412,0.30799908995501946,-0.009059291248381762,0.0060980952895849224,-0.0013893285953587716
1765409305.440563,-9.936928150745821,-0.05299913302136515,0.30223150046601577,-0.009071728284216396,0.005976349640398479,-0.0013100818139476422
1765409305.440763,-9.933080548231308,-0.05948180623106001,0.2979033700246128,-0.009058412840440169,0.005845955942671645,-0.0012301991574139952
1765409305.440963,-9.93058833896372,-0.06455546348613968,0.29500920421898386,-0.009020399945973942,0.005709074497399301,-0.0011513011457158723
1765409305.441163,-9.929650042304472,-0.06821225920888672,0.29348854217108344,-0.008959869615805853,0.0055667202124157515,-0.0010743091307930284
1765409305.441036,-9.930371623761404,-0.0704905526239244,0.29323364566329096,-0.008880014390250456,0.005418904745411718,-0.0009995034433578878
1765409305.441236,-9.932770015553551,-0.07147118686108944,0.2940991491179094,-0.008784845198617108,0.005264781523384009,-0.0009266498654084891
1765409305.441436,-9.936780893595186,-0.07127175746865214,0.2959125508978573,-0.008678925613337423,0.005102793884703515,-0.0008551834820097987
1765409305.441636,-9.942269420308973,-0.07003855460771365,0.29848429219049105,-0.00856705968296168,0.004930833132948652,-0.000784415078942269
1765409305.441836,-9.949042824676782,-0.06793704902820094,0.30161663459364996,-0.008453969581222444,0.004746410544976762,-0.000713720428388628
1765409305.442059,-9.956864037163426,-0.06514253061632275,0.30511124625376895,-0.008343999941695423,0.004546841249239999,-0.0006426931411753685
1765409305.442259,-9.965465738245872,-0.061832112504648234,0.3087757285449373,-0.008240876043047764,0.00432943308105058,-0.0005712668642366686
1765409305.442459,-9.974564061779251,-0.05817820623163699,0.3124292320190226,-0.008147529652113262,0.004091670359069463,-0.0004998176513696436
1765409305.442659,-9.983871173463502,-0.05434278353550285,0.3159072736581088,-0.008065997701341266,0.0038313807670126024,-0.0004292403994430099
1765409305.442859,-9.993106260892235,-0.05047187947813356,0.31906601163063375,-0.007997397563351657,0.0035468753395571538,-0.0003609747993820319
1765409305.443048,-10.002004928219135,-0.04669056549574099,0.32178623655564315,-0.007941981947427932,0.0032370580244096333,-0.0002969560892923572
1765409305.443248,-10.010327255377561,-0.043099213022569874,0.32397707658220964,-0.007899268756445732,0.0029015083730549304,-0.0002394862625578682
1765409305.443448,-10.01786478132732,-0.03977173919371264,0.32557918608343656,-0.007868228592387578,0.0025405417479866,-0.0001910484173796149
1765409305.443648,-10.024446513147897,-0.0367558797051458,0.3265671606004746,-0.007847504613753761,0.002155243209692542,-0.00015410271300741627
1765409305.443848,-10.029943804404208,-0.03407501107938727,0.3269508530402872,-0.00783564121427271,0.0017474601487941378,-0.0001308978790812186
1765409305.443992,-10.034273616137801,-0.03173101579587924,0.3267750011380919,-0.007831304359620593,0.0013197365866092058,-0.00012331352928003823
1765409305.444192,-10.037399439410366,-0.029707961952299425,0.3261164129970064,-0.007833479046608433,0.0008751846383670068,-0.0001327311609566855
1765409305.444392,-10.039329259426566,-0.02797656163875284,0.3250782611990339,-0.007841626394553014,0.0004173084194268345,-0.00015992689533806556
1765409305.444592,-10.040110411323443,-0.02649930028855615,0.32378170209879836,-0.007855779719977814,-5.0189587499722845e-05,-0.0002049854627151459
1765409305.444792,-10.0398217353303,-0.025235880967576847,0.32235559620911575,-0.007876560885783906,-0.0005235843226427033,-0.0002672433773412871
1765409305.444934,-10.03856377798883,-0.024148390273643645,0.32092528922740304,-0.007905105973016073,-0.0009992527706026621,-0.0003452723010747962
1765409305.445134,-10.036447941475142,-0.023205516341874677,0.3196014263706495,-0.007942901231797188,-0.0014737243925946409,-0.0004369104935315588
1765409305.445334,-10.033585730235131,-0.022385285490332592,0.31846995755965485,-0.007991544286443579,-0.0019436536490154309,-0.0005393441314613402
1765409305.445534,-10.03007959737411,-0.02167607721009121,0.3175848107454554,-0.008052458538381803,-0.0024057316894800064,-0.0006492340347855156
1765409305.445734,-10.026016932283323,-0.021076010177558176,0.3169646972650046,-0.008126597595475267,-0.0028565668277064594,-0.0007628788233327985
1765409305.44594,-10.021468096373715,-0.02059105496059471,0.3165947885511589,-0.008214180432483013,-0.003292567822992691,-0.0008764039367144695
1765409305.44614,-10.01648832340063,-0.020232363193281772,0.3164327782984995,-0.00831449613209248,-0.0037098668496391976,-0.0009859664189048835
1765409305.44634,-10.011122362740556,-0.02001328668272336,0.3164177818442877,-0.008425807668458242,-0.004104319287919792,-0.0010879649304824282
1765409305.44654,-10.005410342041754,-0.01994640486210681,0.3164801308843387,-0.008545368347114331,-0.004471605389570104,-0.0011792409681176891
1765409305.44674,-9.999393411984114,-0.020040690590754577,0.3165503992232699,-0.008669548056080017,-0.0048074317361887576,-0.0012572519514035675
1765409305.447011,-9.993118151404712,-0.020298908498544644,0.3165666734813913,-0.008794054466241187,-0.0051078014273106985,-0.00132019391508581
1765409305.447211,-9.986639368541917,-0.020715526606572852,0.3164799058035158,-0.008914226049529532,-0.005369307321810163,-0.0013670553270666908
1765409305.447411,-9.980021605001971,-0.021275635029771006,0.31625784205271196,-0.009025365872245004,-0.005589404319894711,-0.0013975949739432753
1765409305.447611,-9.973339922205804,-0.021955308678633222,0.31588813019532325,-0.009123077679384218,-0.005766624567445087,-0.001412252434977103
1765409305.447811,-9.966680263424976,-0.022723448572811375,0.3153807434625038,-0.009203563845420558,-0.005900707319660735,-0.0014120130336735652
1765409305.448012,-9.960139198736126,-0.023544640524560737,0.3147693186900567,-0.00926385343603996,-0.005992625355738374,-0.0013982542371581898
1765409305.449021,-9.953822641130225,-0.02438234370664359,0.31411091109011485,-0.009301946734112816,-0.006044504117036766,-0.001372595617269422
1765409305.451938,-9.947843199047815,-0.025201909910747344,0.313483872248614,-0.00931688195035045,-0.006059444719948051,-0.001336764359884988
1765409305.454068,-9.94231594878893,-0.02597331665633238,0.31298365655819627,-0.009308741662568409,-0.006041275352020587,-0.0012924806932072066
1765409305.456987,-9.937352552131117,-0.026673686435623137,0.3127163960290762,-0.009278617581190083,-0.005994268816117251,-0.001241366769642432
1765409305.458967,-9.93305400220683,-0.02728948732202438,0.3127904225528078,-0.009228545141120727,-0.005922873221380806,-0.0011848849908947657
1765409305.461927,-9.929502772500335,-0.027817982127728857,0.313306516340923,-0.009161409584904134,-0.005831495771303508,-0.0011243104963450342
1765409305.46298,-9.92675538730296,-0.02826739935509785,0.31434802331715916,-0.009080818321593647,-0.005724353046270052,-0.0010607360759596262
1765409305.466927,-9.9248362807455,-0.028655609114159823,0.3159718983711793,-0.008990934217201981,-0.0056053729439513285,-0.0009951017092302312
1765409305.469945,-9.923733565520314,-0.029007589825381746,0.318201537847411,-0.008896270625293053,-0.005478123633605783,-0.0009282401460044001
1765409305.471953,-9.923397250476322,-0.029352292511453895,0.32102223861113804,-0.008801456788361754,-0.005345752165614753,-0.0008609333211804424
1765409305.472929,-9.923740361607413,-0.029719467797784675,0.32438002276971384,-0.00871098751080548,-0.005210924334596104,-0.0007939771908236916
1765409305.475006,-9.924643087823762,-0.03013674171406384,0.3281841115378891,-0.008628973763959337,-0.005075762177595046,-0.0007282509609364563
1765409305.478971,-9.92595962292829,-0.030626965407932447,0.3323127284809474,-0.008558912880367737,-0.004941782437482641,-0.0006647805987973315
1765409305.482045,-9.92752711255296,-0.031205801970708213,0.33662155536340566,-0.008503497215111065,-0.004809849413905718,-0.000604780398561801
1765409305.484023,-9.929176047370039,-0.03187965846245115,0.34095403894608256,-0.008464476243307966,-0.004680158954069457,-0.0005496566283646841
1765409305.486997,-9.930741343359614,-0.03264424985526842,0.34515256265033256,-0.008442579943807574,-0.004552262053405442,-0.000500966984112773
1765409305.488934,-9.932073190471007,-0.03348408241167776,0.34906928397095666,-0.00843750479966652,-0.004425126397958756,-0.00046034448211503166
1765409305.491981,-9.933046771468948,-0.03437293659665191,0.3525755573782544,-0.008447959724296343,-0.0042972322947379925,-0.0004294053364763233
1765409305.493951,-9.933570228570872,-0.035275188679893786,0.35556934306149307,-0.008471766321429607,-0.004166702188166672,-0.0004096608080262154
1765409305.496975,-9.933590492853805,-0.036147715969544573,0.35798035279988855,-0.008506004796968291,-0.0040314615233046115,-0.00040244451707790617
1765409305.498956,-9.933096542601652,-0.03694220830637118,0.359772602140202,-0.008547194069087969,-0.0038894228602253584,-0.000408856378737919
1765409305.502018,-9.932119533446345,-0.03760783514887925,0.3609438931427303,-0.008591492922929411,-0.003738680757731172,-0.0004297184332367126
1765409305.504126,-9.930729443478285,-0.03809424174714347,0.36152204091607437,-0.0086349085493717,-0.0035777043604401392,-0.0004655383741282861
1765409305.507014,-9.929028418016562,-0.03835472809045109,0.36155828506837,-0.008673499879316843,-0.003405515526297319,-0.000516481649069241
1765409305.50895,-9.927141522386579,-0.03834930364711578,0.36111881036761123,-0.008703566376366899,-0.0032218405176880753,-0.0005823584675758621
1765409305.509986,-9.925205914785316,-0.038047251037258666,0.3602755037074616,-0.00872181763113902,-0.0030272225851772417,-0.0006626333123569884
1765409305.512945,-9.923359681083687,-0.037428930171803744,0.3590972759115291,-0.008725522788780317,-0.0028230818429622237,-0.0007564595645676218
1765409305.516982,-9.921731794489569,-0.03648675435196792,0.35764348244907085,-0.008712639576002717,-0.0026117084323959896,-0.0008627331869297354
1765409305.518951,-9.92043459407635,-0.03522545608262185,0.3559607133780467,-0.008681921141660772,-0.0023961771825733776,-0.0009801524786633776
1765409305.521497,-9.919559590182475,-0.03366184816417031,0.3540832831194394,-0.008632997788396218,-0.002180180578475366,-0.0011072698551929901
1765409305.523967,-9.919176537313108,-0.031824269897632235,0.3520366676980726,-0.008566431462676457,-0.0019677929325615726,-0.0012425265558771458
1765409305.526975,-9.91933500942331,-0.02975182673508031,0.34984254955474453,-0.00848374170570274,-0.0017631952129392476,-0.0013842684280521557
1765409305.528994,-9.920067336798468,-0.027493422923558004,0.3475240487330605,-0.008387399442466909,-0.0015703957882357872,-0.0015307460077337834
1765409305.531983,-9.921391625295753,-0.025106507821109278,0.345109791245346,-0.008280779466308626,-0.001392974636853979,-0.0016801041546785985
1765409305.532979,-9.923313675488071,-0.02265546235265224,0.3426356652881884,-0.008168058587946392,-0.0012338674041966697,-0.0018303686791216731
1765409305.537034,-9.925827085891406,-0.02020961602731734,0.3401437174261524,-0.008054050000767954,-0.0010952016780345962,-0.0019794417354393285
1765409305.538986,-9.928911602214777,-0.017840920378233347,0.3376785879739978,-0.007943976201294676,-0.0009781999712204083,-0.0021251210281643665
1765409305.541939,-9.932530482684362,-0.015621282033760944,0.3352826254424567,-0.007843196569382873,-0.0008831638738040426,-0.002265154968668756
1765409305.543977,-9.93662793841429,-0.01361954028711703,0.3329909130336758,-0.007756913628896453,-0.0008095473602222112,-0.00239733654058721
1765409305.547028,-9.941127614125485,-0.01189813836113154,0.33082707492613184,-0.007689882208986517,-0.0007561157739071957,-0.0025196278921384065
1765409305.550011,-9.945932885371827,-0.010509697259962649,0.3288004356059938,-0.0076461430491057735,-0.0007211730332852308,-0.00263030015257195
1765409305.552977,-9.950929591681788,-0.009493874972156544,0.326905073698238,-0.007628800985635067,-0.0007028257886239502,-0.002728069469191411
1765409305.55397,-9.955991536618495,-0.008874957281748348,0.3251212254836168,-0.007639866048879091,-0.0006992444427723582,-0.0028122103355637733
1765409305.556937,-9.96098849301216,-0.008660519785176363,0.32341902098550324,-0.0076801701794700335,-0.0007088822707400742,-0.002882630780401038
1765409305.558987,-9.965795687760469,-0.00884128834617487,0.3217638149013825,-0.007749363521809307,-0.0007306255750395881,-0.0029398992637313264
1765409305.559967,-9.970303193144145,-0.009392138394514315,0.3201218885305485,-0.007845986025026895,-0.0007638633634021647,-0.002985217484706341
1765409305.563933,-9.974423604697817,-0.010274097933548618,0.31846533916813236,-0.00796760403384266,-0.0008084766081541891,-0.0030203369201089506
1765409305.56696,-9.97809678072542,-0.011437231721841886,0.3167753692927791,-0.008110996194379091,-0.0008647525316999156,-0.003047423422219305
1765409305.568949,-9.981290994287841,-0.012824288839608873,0.31504359013150196,-0.00827236763224416,-0.0009332322534450448,-0.0030688849131893085
1765409305.572017,-9.984000443264922,-0.01437492340992267,0.3132712653131735,-0.008447568783635529,-0.001014505602676162,-0.0030871866466909282
1765409305.573906,-9.986239683693382,-0.01603016940017074,0.3114667951583232,-0.008632298664681078,-0.001108976924500873,-0.003104679078222778
1765409305.576972,-9.988036156351113,-0.017736749447345122,0.30964219304718343,-0.008822280811568514,-0.0012166359811376878,-0.003123454444947018
1765409305.577962,-9.989422347081318,-0.019450799305619725,0.30780955102873253,-0.009013408819690217,-0.0013368700480383211,-0.0031452371948509908
1765409305.581962,-9.990429052153747,-0.021140705253140383,0.30597833340552344,-0.009201862917814834,-0.0014683432267497446,-0.0031713072184279974
1765409305.583964,-9.991080785406554,-0.022788921091607267,0.3041539829573521,-0.009384198657059794,-0.0016089533056738577,-0.0032024533876605847
1765409305.586007,-9.991393836368978,-0.024392752986538903,0.3023381078343251,-0.00955740616073901,-0.0017558646907191965,-0.003238955414274592
1765409305.588983,-9.991376995594576,-0.025964098193676614,0.30053039059231823,-0.00971893634818147,-0.0019056104176854187,-0.003280593660173725
1765409305.591923,-9.991034420700053,-0.027528028332053367,0.29873198522257005,-0.009866690989653813,-0.0020542542510818087,-0.003326688446402843
1765409305.59394,-9.990369567930905,-0.029120070766032118,0.2969495477084593,-0.009998977575547595,-0.0021976049725069037,-0.003376170233573853
1765409305.59694,-9.989388895765888,-0.030782209300749316,0.2951987119058923,-0.010114437234712347,-0.002331479311454329,-0.0034276788166523963
1765409305.598987,-9.988104398492526,-0.03255796909295798,0.2935061555868362,-0.010211960769834157,-0.0024520116612798655,-0.0034796853983965073
1765409305.601964,-9.986534690043714,-0.03448724902352684,0.2919100621126337,-0.01029060942775074,-0.002555999584922451,-0.0035306283184234435
1765409305.603958,-9.98470481592062,-0.03660158865000417,0.29045913313294536,-0.010349550999219,-0.0026412550766845054,-0.0035790512557531393
1765409305.606912,-9.982645028442125,-0.038920290075542964,0.2892102046249691,-0.010388011596970784,-0.002706914466708031,-0.003623730477854781
1765409305.609952,-9.980388667329274,-0.04144748828102217,0.28822437295709963,-0.010405236820917138,-0.002753655888191606,-0.003663775166670856
1765409305.61192,-9.977969332668842,-0.044170134621168214,0.28756168798598875,-0.01040045902172697,-0.002783782926511055,-0.0036986848285537294
1765409305.613902,-9.975417714733004,-0.04705695268889138,0.28727480856839793,-0.01037287812017761,-0.002801149282452208,-0.003728353975823154
1765409305.616935,-9.972758534099873,-0.05005854119302976,0.2874022366861131,-0.01032167301012474,-0.00281091599144605,-0.003753026616631625
1765409305.618904,-9.970007912397813,-0.05310875779555147,0.2879617583653365,-0.01024606060998347,-0.002819149170160789,-0.0037732157025290288
1765409305.622108,-9.967171270650196,-0.05612733918374581,0.28894471585183273,-0.010145408860944406,-0.0028322845297416217,-0.0037896082616445995
1765409305.623931,-9.964241789105646,-0.05902353458973094,0.29031187942345354,-0.010019394012502646,-0.002856504900830453,-0.0038029738466320642
1765409305.626944,-9.961199605283944,-0.06170045885493261,0.29199182399960066,-0.009868178947677239,-0.0028970937914489297,-0.0038140873591233997
1765409305.628004,-9.958012048804942,-0.06405991624325566,0.29388253226092614,-0.009692583322034242,-0.00295783539388635,-0.003823672970958888
1765409305.63193,-9.954635132462663,-0.06600753479813079,0.2958564008354246,-0.009494219263243325,-0.003040527813099166,-0.0038323740210591387
1765409305.633976,-9.951016358084425,-0.06745807265308501,0.29776824471352387,-0.009275575513506986,-0.003144663865609414,-0.003840751401961476
1765409305.63696,-9.947098860741502,-0.06834063700356353,0.29946558012988533,-0.009040042769183946,-0.003267314042285039,-0.0038493094333990245
1765409305.638945,-9.942826945596284,-0.0686033380074369,0.3008003615063788,-0.008791879549849953,-0.0034032204618556806,-0.00385854493615525
1765409305.643789,-9.938152930097692,-0.06821675221448131,0.3016412324861224,-0.008536121368933431,-0.0035450848645671926,-0.0038690114349123456
1765409305.644289,-9.93304488791967,-0.06717566044232139,0.301885244628809,-0.00827843858487956,-0.003684016343488844,-0.0038813849498011174
1765409305.646972,-9.92749464623706,-0.06549886959804763,0.3014680813578122,-0.00802495095212877,-0.003810097575281603,-0.003896513997122684
1765409305.649949,-9.921525278059862,-0.06322735639780376,0.300372005706574,-0.007782008703956696,-0.003913025458337259,-0.00391543984597454
1765409305.65193,-9.915197149942706,-0.06042124683889323,0.2986307256049221,-0.007555950742772281,-0.003982777783315223,-0.003939384074247252
1765409305.654977,-9.90861131558424,-0.05715615913735223,0.2963302086105277,-0.007352851440101901,-0.004010254659949772,-0.003969712178519826
1765409305.656946,-9.90190905867702,-0.053519282402534014,0.29360468640487514,-0.007178269474795135,-0.003987848446014384,-0.004007886705881875
1765409305.66001,-9.895266950528917,-0.04960540717281019,0.29062788384063665,-0.007037013824024329,-0.003909909438456712,-0.004055418971857402
1765409305.661936,-9.888887624920827,-0.04551305574984826,0.2876003999526366,-0.006932941563337453,-0.003773090456232898,-0.004113819428564453
1765409305.663949,-9.882987118277565,-0.04134086961148618,0.28473459993846334,-0.006868799538210169,-0.0035765662310316285,-0.00418454066030729
1765409305.666883,-9.877780019485643,-0.03718443996349579,0.2822384372620864,-0.006846118922676689,-0.003322130907510446,-0.004268908791585239
1765409305.668936,-9.873464060480954,-0.0331337373640057,0.2802997319750309,-0.006865168609351732,-0.0030141763195239697,-0.0043680474118545625
1765409305.6719,-9.870206096814146,-0.029271158110604257,0.2790725545392393,-0.006924968822169858,-0.0026595444696817946,-0.004482806200174268
1765409305.672928,-9.868131261321325,-0.025670021523047124,0.2786670762830105,-0.007023359810239079,-0.0022672382529331176,-0.0046137073317115826
1765409305.674975,-9.86731626092195,-0.022393283721304377,0.2791434570094918,-0.0071571140884118785,-0.0018479788759925833,-0.004760914626221012
1765409305.678917,-9.867786760884622,-0.019492377836323904,0.2805095212571566,-0.007322077988293935,-0.001413620638279333,-0.004924218592129654
1765409305.67995,-9.869518159210823,-0.017006356022749174,0.2827216062858814,-0.007513331816229277,-0.000976461235008718,-0.005103024458937079
1765409305.683941,-9.872438943249158,-0.014961676475455973,0.28568803062353776,-0.007725366105524618,-0.0005485029917476627,-0.005296335604556669
1765409305.686887,-9.876435947392029,-0.013372880091843176,0.2892747964631905,-0.007952278115536863,-0.0001407240790851217,-0.005502737468587651
1765409305.688891,-9.881360954788125,-0.012244054591944883,0.2933132286579332,-0.008187992265618529,0.00023758464318379065,-0.005720397074139722
1765409305.691971,-9.887038241809817,-0.01157061057600156,0.29760934663490224,-0.008426501102150194,0.0005793668061063258,-0.005947093714591639
1765409305.693922,-9.893272909107349,-0.011340773471753137,0.3019548833019282,-0.008662114916627996,0.0008801887991414424,-0.006180287977490345
1765409305.696956,-9.899860035683124,-0.011536425216796925,0.3061398130370678,-0.008889701970942443,0.0011384370014730525,-0.0064172254769127276
1765409305.698908,-9.906594625614341,-0.012133333982536148,0.30996587116604113,-0.009104897177411923,0.001355304975836124,-0.006655065198410742
1765409305.701898,-9.913282000325763,-0.01310111317808182,0.3132600129203628,-0.00930425493625366,0.0015345651856459618,-0.006891021923464768
1765409305.703883,-9.919747968000653,-0.014403307759703532,0.3158864572516678,-0.009485324730789965,0.0016821348908856166,-0.007122513366049717
1765409305.706876,-9.925847947763646,-0.01599786780237662,0.3177560534980444,-0.009646638329571921,0.0018054663677074829,-0.007347300819781454
1765409305.707919,-9.931474165296486,-0.017838089279678847,0.3188319941658353,-0.00978761230201464,0.0019128174749446485,-0.0075636086676827185
1765409305.709905,-9.936560014114036,-0.01987399819680785,0.3191311919778023,-0.0099083838650259,0.002012480058952832,-0.00777020834363387
1765409305.713901,-9.941080885071223,-0.02205413307142418,0.31872107305317693,-0.010009608791181714,0.002112047528767561,-0.007966458733021885
1765409305.716877,-9.945051344588698,-0.02432766647190854,0.31771222785903586,-0.010092255584129042,0.0022177873945647404,-0.00815230493593839
1765409305.718865,-9.9485192165162,-0.026646724490096422,0.316248017264359,-0.010157428063658741,0.002334161600921545,-0.008328245706230643
1765409305.721894,-9.951557467574931,-0.028968607067193924,0.314492443218856,-0.010206238573810244,0.002463517183735515,-0.008495282383651723
1765409305.723884,-9.954254762198829,-0.031257473095890415,0.31261738956985313,-0.0102397412438904,0.0026059509358212587,-0.008654857664121258
1765409305.726897,-9.956705447704518,-0.033485075483374246,0.31079008488933,-0.010258925891466817,0.0027593321392583203,-0.008808784173631396
1765409305.730015,-9.9589997292155,-0.0356303749062401,0.30916148122196224,-0.010264769139565857,0.00291945324963164,-0.00895915577318032
1765409305.731967,-9.961214764272482,-0.03767821787933822,0.3078560336188097,-0.010258334724472443,0.0030802765249504723,-0.009108233059002683
1765409305.733985,-9.963407262671575,-0.0396175324040532,0.3069631267011069,-0.01024090684594139,0.003234252432742499,-0.009258299827506249
1765409305.736957,-9.965608077472753,-0.04143953170222227,0.3065304050598713,-0.010214133025823907,0.00337269579552405,-0.009411496834959484
1765409305.739,-9.967819317854486,-0.04313622449760174,0.30655957122777744,-0.01018015192069975,0.003486213990815752,-0.009569647610093645
1765409305.739977,-9.970014499958486,-0.04469925334727685,0.30700544418342407,-0.010141687467118831,0.003565185959266142,-0.009734093337522202
1765409305.743921,-9.97214196383603,-0.046118952702114455,0.30777891520148426,-0.010102099636315557,0.0036002878618809383,-0.009905549462150477
1765409305.748375,-9.974131332181669,-0.04738368905913529,0.3087540127948951,-0.010065388326633729,0.0035830507331462073,-0.010083991030254159
1765409305.748919,-9.975902407139198,-0.04847989151564714,0.3097788186016725,-0.01003614634961258,0.0035064233534370754,-0.01026857390145816
1765409305.750009,-9.977375614118525,-0.049393333951917355,0.3106894484354145,-0.01001945121258877,0.0033653051112482696,-0.010457606430161852
1765409305.753016,-9.978482817282506,-0.050111919762435654,0.3113257121918235,-0.010020680236734181,0.003157007268071756,-0.010648594031353981
1765409305.756894,-9.979177154094353,-0.0506295713888306,0.3115466657863414,-0.01004523658215965,0.0028815943492135603,-0.01083837702136459
1765409305.757965,-9.979440655080943,-0.050950266396070365,0.31124433695927833,-0.010098187123173275,0.002542056644613687,-0.011023366158010781
1765409305.761909,-9.979288786203444,-0.05109113984031065,0.3103543105766447,-0.010183832551398228,0.002144280104487943,-0.011199856532335793
1765409305.762882,-9.978771476667905,-0.05108388812953988,0.3088622914556974,-0.010305247056246648,0.0016968095224178547,-0.0113643808017501
1765409305.766923,-9.977970649296926,-0.05097416780206499,0.30680621964589955,-0.010463832583514602,0.0012104297808381472,-0.011514055683728461
1765409305.767902,-9.976994831603578,-0.05081899265673779,0.3042741446695908,-0.010658931833603615,0.0006976066216470187,-0.01164688026376886
1765409305.771932,-9.975971903336065,-0.05068225371560098,0.3013986512137739,-0.010887541454266767,0.00017183431976142217,-0.011761953835618278
1765409305.773951,-9.975041049363185,-0.05062860586109013,0.2983486906320356,-0.011144165475512875,-0.0003530614278554112,-0.01185958943074771
1765409305.776882,-9.974344507004725,-0.05071625520814686,0.29531919506971194,-0.01142084431954312,-0.0008636185278584317,-0.011941307799085817
1765409305.779927,-9.974019195779691,-0.050989588205686276,0.29251846640881574,-0.011707381075796108,-0.0013473864657134302,-0.012009709098272564
1765409305.781891,-9.97418822100922,-0.051472850836081545,0.29015358373675404,-0.011991765579488166,-0.001793482316246781,-0.012068236103522999
1765409305.783875,-9.974952480181758,-0.05216598190133925,0.2884147899565575,-0.012260775510100122,-0.0021930102490251235,-0.012120858123525226
1765409305.786943,-9.97638285254102,-0.05304323116888093,0.2874604393433457,-0.012500718316163765,-0.0025393084483737215,-0.012171713421462858
1765409305.788849,-9.978513615249602,-0.05405460028553724,0.28740434230601297,-0.012698268809421221,-0.0028280090029909424,-0.012224748946776456
1765409305.789898,-9.98133788603171,-0.05512971784554562,0.28830729793419096,-0.01284135084072961,-0.0030569254573212406,-0.012283392454184387
1765409305.793908,-9.984805953475936,-0.05618357748537978,0.2901742345199829,-0.01292000360293514,-0.0032258076729856553,-0.012350286527879445
1765409305.796866,-9.988827073846727,-0.05712348912448419,0.2929575408421454,-0.012927164765451504,-0.0033360190751695693,-0.012427107783727315
1765409305.79891,-9.993274679727678,-0.05785650248294482,0.2965660141947125,-0.01285930007717911,-0.003390199985720844,-0.01251448668455416
1765409305.801895,-9.997994303303528,-0.058296535519198917,0.30087785002764794,-0.012716817315043321,-0.0033919829537312368,-0.012612032169410774
1765409305.804935,-10.002813154971877,-0.05837061576737732,0.3057555588015574,-0.012504219888290983,-0.0033458151022485723,-0.012718451087139848
1765409305.80687,-10.007550164371654,-0.05802398332058177,0.31106050600650337,-0.012229976955110139,-0.003256913801187589,-0.01283173980401069
1765409305.809004,-10.012025254172526,-0.05722409254693428,0.31666478743219695,-0.011906110276653153,-0.0031313423816506105,-0.012949419833312593
1765409305.81189,-10.016066792901206,-0.055963613621513024,0.32245855365261045,-0.011547523636511967,-0.0029761565926927146,-0.01306879139320838
1765409305.812887,-10.019516715441393,-0.05426241656276197,0.3283518713977247,-0.011171127085498875,-0.0027995493512887604,-0.013187183177623438
1765409305.816937,-10.022233489016926,-0.05216838178434286,0.3342714392780341,-0.01079483064192808,-0.002610912075150657,-0.013302179106871188
1765409305.818892,-10.024093495026143,-0.04975679872564877,0.3401533533671314,-0.01043649408958377,-0.0024207370374297534,-0.013411804925028702
1765409305.821883,-10.024991383009635,-0.047128057064909724,0.34593346514443724,-0.010112917236729824,-0.002240311136782627,-0.01351466205619303
1765409305.822941,-10.024839838746512,-0.04440332782281931,0.3515370502004781,-0.009838940594741826,-0.0020811946690909577,-0.013610001990334675
1765409305.826977,-10.023569205113995,-0.04171809985823447,0.3568697129463764,-0.009626707302726802,-0.0019545250599499533,-0.013697739102556625
1765409305.828888,-10.021127351612401,-0.03921382935319853,0.36181136693263355,-0.00948511969253898,-0.00187021982313288,-0.013778403675095207
1765409305.829969,-10.017479978477807,-0.0370284123378136,0.3662144958327009,-0.00941950934460746,-0.0018361691896234518,-0.013853041998093991
1765409305.834923,-10.012611397904713,-0.035286458657892796,0.36990709022324775,-0.009431525537368934,-0.0018575076482756725,-0.013923076722193587
1765409305.835423,-10.006525993881032,-0.034090346370435023,0.3727001981063923,-0.00951923191995367,-0.0019360366684013136,-0.013990146060531396
1765409305.838915,-9.99925075433971,-0.03351288655031601,0.3743998319386849,-0.009677386154232156,-0.002069842788321422,-0.01405594283992328
1765409305.841992,-9.990838991720949,-0.033592266261573835,0.37482252470102756,-0.009897865445659723,-0.0022531278292829025,-0.014122072281967074
1765409305.843948,-9.981374620727586,-0.03432976437621062,0.3738129941885465,-0.010170195088881532,-0.0024762544221540407,-0.014189941070284104
1765409305.846921,-9.97097574553754,-0.03569044526805882,0.37126162948169295,-0.010482137520486745,-0.0027260121582277056,-0.014260682882748392
1765409305.84897,-9.959796337786056,-0.03760656788492363,0.36711937884782314,-0.010820303793738908,-0.002986114223497001,-0.014335120163983505
1765409305.85192,-9.948025351525889,-0.03998294467643233,0.3614081696489937,-0.011170756411677875,-0.0032379260543326225,-0.014413757793376393
1765409305.854014,-9.935883223522225,-0.04270325364475656,0.3542259010371888,-0.01151958276530019,-0.003461404772542888,-0.01449679962068359
1765409305.856938,-9.923616058437622,-0.04563653114248384,0.3457459298274112,-0.011853431718167325,-0.0036362024581336233,-0.014584175318634887
1765409305.857888,-9.91148796825382,-0.0486436179149921,0.3362115375257881,-0.012160017310226262,-0.0037428673742721723,-0.014675566265891105
1765409305.862032,-9.899772102494687,-0.051583881025591534,0.3259259673761511,-0.012428596093193533,-0.00376406398678012,-0.014770425575734578
1765409305.864893,-9.888740828169448,-0.054322801317715684,0.3152383878751827,-0.012650415389322382,-0.0036857218044670658,-0.014867995971288161
1765409305.866929,-9.878655383066494,-0.05674079018476869,0.30452605329743554,-0.012819113306476207,-0.003498019601066042,-0.014967337227217268
1765409305.868867,-9.869755367505327,-0.05874283897440158,0.29417338570453117,-0.012931036548023958,-0.0031961217689875964,-0.01506737936538244
1765409305.871881,-9.862248675635119,-0.06026762395024262,0.2845495084050834,-0.012985435864287364,-0.0027806041566414783,-0.01516701352354121
1765409305.873877,-9.856302589060205,-0.061294087043512004,0.2759863107590491,-0.01298450266118827,-0.0022575303145731,-0.015265216761695575
1765409305.876866,-9.852036547399003,-0.06184371202216734,0.2687590537097034,-0.012933221418617911,-0.0016381651931123148,-0.015361187185612224
1765409305.878906,-9.849516776400653,-0.061977609532271355,0.2630710155479893,-0.012839029015093352,-0.0009383458152396407,-0.015454455296478728
